time,seconds_elapsed,z,y,x
1772534567952994800,0.251994873046875,0.3657499849796295,0.023649999871850014,0.15661250054836273
1772534567967858000,0.26685791015625,0.37950000166893005,0.3269749879837036,0.005499999970197678
1772534567977767700,0.276767578125,0.38279998302459717,0.40039998292922974,-0.06159999966621399
1772534567987677400,0.286677490234375,0.3763374984264374,0.4184125065803528,-0.10298749804496765
1772534567997587200,0.296587158203125,0.370012491941452,0.40892499685287476,-0.13598750531673431
1772534568007497200,0.306497314453125,0.3572250008583069,0.39393749833106995,-0.18177500367164612
1772534568017407000,0.316406982421875,0.3465000092983246,0.3833499848842621,-0.23718750476837158
1772534568027316700,0.326316650390625,0.3592875003814697,0.3535124957561493,-0.26592499017715454
1772534568037226500,0.3362265625,0.37853750586509705,0.30882498621940613,-0.2605625092983246
1772534568047136500,0.346136474609375,0.39765000343322754,0.27582499384880066,-0.23718750476837158
1772534568057046300,0.35604638671875,0.4221250116825104,0.22687499225139618,-0.18067499995231628
1772534568066956000,0.3659560546875,0.4497624933719635,0.14602500200271606,-0.08607500046491623
1772534568076865800,0.37586572265625,0.4731374979019165,0.10986249893903732,0.014024999924004078
1772534568086775800,0.38577587890625,0.506137490272522,0.2194499969482422,0.09803749620914459
1772534568096685600,0.395685546875,0.5550875067710876,0.5057250261306763,0.09803749620914459
1772534568106595300,0.40559521484375,0.6062374711036682,0.7037249803543091,-0.07535000145435333
1772534568116505000,0.415505126953125,0.6327750086784363,0.5780500173568726,-0.3499374985694885
1772534568126414800,0.425414794921875,0.6168249845504761,0.38651248812675476,-0.4862000048160553
1772534568136324600,0.43532470703125,0.5476624965667725,0.30566251277923584,-0.4862000048160553
1772534568146234400,0.445234375,0.46997499465942383,0.19607499241828918,-0.45526251196861267
1772534568156144400,0.455144287109375,0.4104374945163727,0.023649999871850014,-0.39998748898506165
1772534568166054100,0.46505419921875,0.37523749470710754,-0.15619999170303345,-0.29356250166893005
1772534568175964000,0.4749638671875,0.3614875078201294,-0.3328875005245209,-0.15523749589920044
1772534568185874000,0.4848740234375,0.37853750586509705,-0.4456374943256378,-0.04028749838471413
1772534568195783700,0.49478369140625,0.4380750060081482,-0.4361499845981598,0.06613750010728836
1772534568205693400,0.504693359375,0.48592498898506165,-0.43078750371932983,0.18108749389648438
1772534568215603500,0.514603515625,0.49018749594688416,-0.5511000156402588,0.24818749725818634
1772534568225513200,0.52451318359375,0.4690124988555908,-0.7074375152587891,0.24818749725818634
1772534568235423000,0.534423095703125,0.4636499881744385,-0.7808625102043152,0.22687499225139618
1772534568245333000,0.5443330078125,0.43697500228881836,-0.6393749713897705,0.13433749973773956
1772534568255242800,0.55424267578125,0.4380750060081482,-0.2700499892234802,0.014024999924004078
1772534568265152800,0.56415283203125,0.477400004863739,0.05128749832510948,-0.10628750175237656
1772534568275062500,0.5740625,0.5189250111579895,0.35144999623298645,-0.2116124927997589
1772534568284972300,0.58397216796875,0.5413374900817871,0.7004249691963196,-0.2796750068664551
1772534568294882000,0.593882080078125,0.5561875104904175,1.031387448310852,-0.32436248660087585
1772534568304792000,0.6037919921875,0.5561875104904175,1.27943754196167,-0.34251248836517334
1772534568314701800,0.613701904296875,0.5211250185966492,1.566812515258789,-0.27761250734329224
1772534568324611600,0.623611572265625,0.4998124837875366,1.5998125076293945,-0.23182499408721924
1772534568334521600,0.633521484375,0.5083374977111816,1.3582249879837036,-0.2414499968290329
1772534568344431000,0.64343115234375,0.4987125098705292,1.0867999792099,-0.3020874857902527
1772534568354340900,0.6533408203125,0.467912495136261,0.9132750034332275,-0.4020499885082245
1772534568364251100,0.663251220703125,0.43174999952316284,0.9229000210762024,-0.48083749413490295
1772534568374160600,0.67316064453125,0.39448750019073486,0.9866999983787537,-0.5340499877929688
1772534568384070400,0.6830703125,0.36258751153945923,0.937749981880188,-0.5883625149726868
1772534568393980400,0.69298046875,0.32628750801086426,0.8793125152587891,-0.6128374934196472
1772534568403890200,0.70289013671875,0.3082749843597412,0.7282000184059143,-0.5201625227928162
1772534568413800000,0.712800048828125,0.37427499890327454,0.18645000457763672,-0.16802500188350677
1772534568423710000,0.7227099609375,0.4380750060081482,-0.4563624858856201,0.11824999749660492
1772534568433619700,0.73261962890625,0.44151249527931213,-1.006637454032898,0.2003374993801117
1772534568443529500,0.742529541015625,0.3830749988555908,-1.1545875072479248,0.07150000333786011
1772534568453439500,0.752439453125,0.3063499927520752,-0.9395374655723572,-0.19236250221729279
1772534568463349200,0.762349365234375,0.25107499957084656,-0.5575624704360962,-0.4404124915599823
1772534568473259000,0.772259033203125,0.22659999132156372,-0.2648249864578247,-0.6074749827384949
1772534568483169000,0.7821689453125,0.22866250574588776,-0.15097500383853912,-0.6947875022888184
1772534568493078800,0.792078857421875,0.22123749554157257,-0.13392500579357147,-0.7159624695777893
1772534568502988500,0.801988525390625,0.23196250200271606,-0.16376249492168427,-0.6883249878883362
1772534568512898600,0.811898681640625,0.27665001153945923,-0.24681249260902405,-0.6382749676704407
1772534568522808300,0.821808349609375,0.329862505197525,-0.2670249938964844,-0.6191624999046326
1772534568532718000,0.831718017578125,0.36492499709129333,-0.1264999955892563,-0.6180624961853027
1772534568542628000,0.841628173828125,0.3862375020980835,0.07672499865293503,-0.6297500133514404
1772534568552537600,0.85153759765625,0.41923749446868896,0.25657498836517334,-0.6584874987602234
1772534568562447400,0.861447265625,0.47244998812675476,0.3651999831199646,-0.6712750196456909
1772534568572357400,0.871357421875,0.5979874730110168,0.36726251244544983,-0.697950005531311
1772534568582267100,0.88126708984375,0.6938250064849854,0.296999990940094,-0.7383750081062317
1772534568592177000,0.891177001953125,0.771512508392334,0.20666250586509705,-0.8129000067710876
1772534568602087000,0.9010869140625,0.8002499938011169,0.1321374922990799,-0.9310125112533569
1772534568621906400,0.920906494140625,0.8130375146865845,0.11192499846220016,-1.4013999700546265
1772534568631816200,0.930816162109375,0.6204000115394592,0.13420000672340393,-1.7067874670028687
1772534568641726200,0.940726318359375,0.40755000710487366,0.4833124876022339,-2.016437530517578
1772534568651636000,0.950635986328125,0.20212499797344208,0.853600025177002,-2.3017499446868896
1772534568661545700,0.960545654296875,0.005224999971687794,1.4092375040054321,-2.3857624530792236
1772534568671455700,0.970455810546875,-0.26510000228881836,1.8348000049591064,-2.3336498737335205
1772534568681365200,0.980365234375,-0.5821750164031982,2.1742875576019287,-2.2921249866485596
1772534568691275000,0.99027490234375,-0.8652874827384949,2.5000250339508057,-2.2644875049591064
1772534568701185000,1.00018505859375,-1.0089750289916992,2.773512601852417,-2.2283248901367188
1772534568711094800,1.0100947265625,-1.021762490272522,2.967249870300293,-2.1665875911712646
1772534568721004500,1.020004638671875,-0.9344499707221985,3.0991125106811523,-2.1196999549865723
1772534568730914600,1.02991455078125,-0.7588624954223633,3.141737461090088,-2.092062473297119
1772534568740824300,1.03982421875,-0.6226000189781189,3.235374927520752,-2.103749990463257
1772534568750734000,1.049734130859375,-0.5385875105857849,3.3886873722076416,-2.1463749408721924
1772534568760644000,1.05964404296875,-0.509850025177002,3.4376375675201416,-2.241112470626831
1772534568770553900,1.069553955078125,-0.5938624739646912,3.2811625003814697,-2.4144999980926514
1772534568780463600,1.079463623046875,-0.7631250023841858,2.8586249351501465,-2.613462448120117
1772534568790373400,1.089373291015625,-0.9674500226974487,2.390437602996826,-2.769937515258789
1772534568800283400,1.099283447265625,-1.105774998664856,2.0530123710632324,-2.7636125087738037
1772534568810193200,1.109193115234375,-1.096287488937378,1.8870500326156616,-2.6008124351501465
1772534568830012700,1.1290126953125,-0.8801375031471252,2.112687587738037,-2.3720123767852783
1772534568839922400,1.13892236328125,-0.7748125195503235,2.3339250087738037,-2.425225019454956
1772534568849832400,1.14883251953125,-0.6982250213623047,2.5564000606536865,-2.5794999599456787
1772534568859742200,1.1587421875,-0.6481750011444092,2.7234625816345215,-2.6944499015808105
1772534568869652000,1.16865185546875,-0.6226000189781189,2.6531999111175537,-2.6816625595092773
1772534568879562000,1.17856201171875,-0.6503750085830688,2.284975051879883,-2.5986125469207764
1772534568889471700,1.1884716796875,-0.7790749669075012,1.7604124546051025,-2.426187515258789
1772534568899381500,1.198381591796875,-0.964287519454956,1.374037504196167,-2.2325875759124756
1772534568909291300,1.208291259765625,-1.0909249782562256,1.2601875066757202,-2.0909624099731445
1772534568919201000,1.218200927734375,-1.1005499362945557,1.4326125383377075,-2.040912389755249
1772534568929111000,1.228111083984375,-0.9887624979019165,1.7114624977111816,-2.082437515258789
1772534568939020800,1.238020751953125,-0.684612512588501,1.8338375091552734,-2.162324905395508
1772534568948930600,1.2479306640625,-0.18975000083446503,1.8136249780654907,-2.179374933242798
1772534568958840300,1.25784033203125,0.4115374982357025,1.6326749324798584,-2.1463749408721924
1772534568968750000,1.26775,1.042525053024292,1.439074993133545,-1.9771125316619873
1772534568978660000,1.27766015625,1.5735499858856201,1.381600022315979,-1.6919374465942383
1772534568988569900,1.28756982421875,1.8492374420166016,1.3369125127792358,-1.5046625137329102
1772534568998479600,1.297479736328125,1.889662504196167,1.264449954032898,-1.4759249687194824
1772534569008389600,1.3073896484375,1.823662519454956,1.1750749349594116,-1.5588375329971313
1772534569018299400,1.31729931640625,1.756700038909912,1.1251624822616577,-1.5758874416351318
1772534569028209200,1.327209228515625,1.7087124586105347,1.129425048828125,-1.2981375455856323
1772534569038119200,1.337119140625,1.7001874446868896,1.2379125356674194,-0.940637469291687
1772534569048029000,1.34702880859375,1.5853749513626099,1.7060999870300293,-0.39352500438690186
1772534569057938400,1.3569384765625,1.1255749464035034,2.64481258392334,0.5302000045776367
1772534569067848400,1.366848388671875,0.6743000149726868,3.4196250438690186,1.3580875396728516
1772534569077758200,1.37675830078125,0.7818250060081482,3.4887874126434326,1.7891499996185303
1772534569087668000,1.38666796875,1.3426874876022339,2.4543750286102295,1.6284124851226807
1772534569097578000,1.396577880859375,1.555537462234497,1.5156625509262085,1.439074993133545
1772534569107487700,1.40648779296875,1.6576999425888062,1.2527624368667603,1.5657124519348145
1772534569117397500,1.4163974609375,1.656599998474121,1.2399749755859375,1.642300009727478
1772534569127307300,1.426307373046875,1.8013875484466553,1.0102125406265259,1.390125036239624
1772534569137217300,1.43621728515625,2.142937421798706,0.547249972820282,0.7015249729156494
1772534569147126800,1.446126708984375,2.118462562561035,0.40562498569488525,0.07039999961853027
1772534569157036800,1.456036865234375,2.124924898147583,0.18012499809265137,-0.27761250734329224
1772534569166946800,1.46594677734375,2.0854625701904297,-0.3946250081062317,-0.11261250078678131
1772534569176856300,1.475856201171875,1.722599983215332,-0.5446375012397766,0.10449999570846558
1772534569186766000,1.48576611328125,1.202162504196167,-0.28283751010894775,-0.038087498396635056
1772534569196676000,1.495676025390625,0.7552874684333801,-0.2765125036239624,-0.2264624983072281
1772534569206585900,1.5055859375,0.4189625084400177,-0.5627874732017517,-0.3531000018119812
1772534569226405600,1.525405517578125,0.11247500032186508,-0.6265875101089478,-0.3562625050544739
1772534569236315400,1.5353154296875,0.08043749630451202,-0.4945875108242035,-0.10298749804496765
1772534569246225000,1.545224853515625,0.09116250276565552,-0.42762500047683716,-0.023237500339746475
1772534569256135000,1.555135009765625,-0.023787500336766243,-0.26372501254081726,-0.07851249724626541
1772534569266044700,1.565044677734375,-0.3377000093460083,-0.0966624990105629,-0.06476250290870667
1772534569275954700,1.57495458984375,-0.6762250065803528,0.03739999979734421,0.004399999976158142
1772534569285864400,1.584864501953125,-0.915612518787384,0.4248749911785126,0.1545500010251999
1772534569295774200,1.594774169921875,-1.029462456703186,0.6919000148773193,0.34718748927116394
1772534569305684000,1.60468408203125,-1.2402499914169312,0.9994875192642212,0.6546375155448914
1772534569315594000,1.614593994140625,-1.5562249422073364,0.8973249793052673,0.8218374848365784
1772534569325503700,1.624503662109375,-1.513737440109253,0.7068874835968018,0.7057874798774719
1772534569335413500,1.63441357421875,-1.3199999332427979,0.8685874938964844,0.5631999969482422
1772534569345323300,1.6443232421875,-1.3413125276565552,0.9590625166893005,0.5450500249862671
1772534569355233300,1.6542333984375,-1.5328500270843506,0.8739500045776367,0.519474983215332
1772534569365143000,1.66414306640625,-1.807437539100647,0.5216749906539917,0.527999997138977
1772534569375052800,1.674052734375,-2.2235124111175537,0.17682500183582306,0.5014625191688538
1772534569384962600,1.683962646484375,-2.754537582397461,0.01718750037252903,0.5131499767303467
1772534569394872300,1.693872314453125,-3.288862466812134,-0.2307250052690506,0.44398748874664307
1772534569404782300,1.7037822265625,-3.483562469482422,-0.4456374943256378,0.3429250121116638
1772534569414692000,1.713692138671875,-3.0046498775482178,-0.5744749903678894,0.2854500114917755
1772534569424601900,1.723601806640625,-2.1819875240325928,-0.6223250031471252,0.05335000157356262
1772534569434512000,1.733511962890625,-1.3792624473571777,-0.8523625135421753,-0.42762500047683716
1772534569444421400,1.74342138671875,-1.0675499439239502,-0.23292499780654907,-0.2540999948978424
1772534569454331100,1.7533310546875,-1.0920250415802002,-0.047712501138448715,-0.22013749182224274
1772534569464241200,1.7632412109375,-1.1951500177383423,0.04908749833703041,-0.43821248412132263
1772534569474151000,1.77315087890625,-1.3718374967575073,0.1321374922990799,-0.7734375
1772534569484060700,1.783060791015625,-1.3154624700546265,0.1629374921321869,-1.1321749687194824
1772534569493970400,1.792970458984375,-1.374037504196167,-0.2147749960422516,-1.3311375379562378
1772534569503880400,1.80288037109375,-1.6389999389648438,-0.5948249697685242,-1.554574966430664
1772534569513790200,1.812790283203125,-1.9975999593734741,-0.9502624869346619,-1.7664624452590942
1772534569523700000,1.822699951171875,-2.3967623710632324,-1.3982374668121338,-1.998425006866455
1772534569533609700,1.832609619140625,-2.8756749629974365,-2.2017874717712402,-2.3304874897003174
1772534569543519500,1.84251953125,-3.44492506980896,-2.87223744392395,-2.703937530517578
1772534569553429200,1.85242919921875,-4.023937702178955,-2.5976500511169434,-2.9082624912261963
1772534569563339300,1.86233935546875,-4.5368123054504395,-1.1694375276565552,-2.7443625926971436
1772534569573249000,1.8722490234375,-5.0401997566223145,0.0681999996304512,-2.495349884033203
1772534569583158800,1.88215869140625,-5.428637504577637,0.4725874960422516,-2.4463999271392822
1772534569593068800,1.89206884765625,-5.570262432098389,0.8216999769210815,-2.3931875228881836
1772534569602978600,1.901978515625,-5.459575176239014,1.4218875169754028,-2.193125009536743
1772534569612888000,1.91188818359375,-5.182924747467041,2.1531124114990234,-1.8504749536514282
1772534569622798000,1.921798095703125,-4.844399929046631,2.738450050354004,-1.4099249839782715
1772534569632707800,1.931707763671875,-4.381437301635742,2.953362464904785,-0.8969125151634216
1772534569642617600,1.94161767578125,-3.461012363433838,2.5702874660491943,-0.15193749964237213
1772534569652527400,1.95152734375,-1.7645374536514282,1.374037504196167,0.8845375180244446
1772534569662437000,1.96143701171875,0.009487500414252281,-0.20528750121593475,2.0913748741149902
1772534569672347100,1.97134716796875,0.22343750298023224,0.31308749318122864,2.875812530517578
1772534569682256600,1.981256591796875,0.08717499673366547,1.338974952697754,3.036412477493286
1772534569692166400,1.99116650390625,0.07122500240802765,1.775262475013733,2.751237392425537
1772534569702076400,2.001076416015625,0.04881250113248825,1.7380000352859497,2.28621244430542
1772534569711986200,2.010986083984375,-0.46406251192092896,0.91753751039505,1.6699374914169312
1772534569721896000,2.02089599609375,-1.1739749908447266,0.08318749815225601,1.1197999715805054
1772534569731806000,2.030805908203125,-1.5719000101089478,0.5461499691009521,0.9761124849319458
1772534569741715700,2.0407158203125,-1.6219500303268433,1.3857250213623047,0.9516375064849854
1772534569751625200,2.050625244140625,-1.4144624471664429,1.8136249780654907,0.7728874683380127
1772534569761535200,2.06053515625,-1.04830002784729,1.8540500402450562,0.46736249327659607
1772534569771445000,2.070445068359375,-0.6737499833106995,1.995537519454956,0.2172500044107437
1772534569781354800,2.080354736328125,-0.22893749177455902,2.5979249477386475,0.20982499420642853
1772534569791264800,2.0902646484375,0.4096125066280365,3.176800012588501,0.38651248812675476
1772534569801174500,2.100174560546875,1.2418999671936035,3.249262571334839,0.6036249995231628
1772534569811084300,2.110084228515625,2.04325008392334,2.4935624599456787,0.768625020980835
1772534569820994300,2.119994384765625,2.3028500080108643,0.8450750112533569,0.7217375040054321
1772534569830904000,2.129904052734375,2.1144750118255615,-0.2180749922990799,0.7653250098228455
1772534569840813600,2.1398134765625,1.9166125059127808,0.05128749832510948,0.9356874823570251
1772534569850723600,2.1497236328125,1.821874976158142,1.0058125257492065,1.0346875190734863
1772534569860633300,2.15963330078125,1.870824933052063,2.0657999515533447,1.270912528038025
1772534569870543400,2.16954345703125,1.9186749458312988,2.3787500858306885,1.5933499336242676
1772534569880453000,2.179453125,1.9325624704360962,1.9657000303268433,1.9562125205993652
1772534569890363000,2.18936279296875,1.9995249509811401,1.4815624952316284,2.3149499893188477
1772534569900272600,2.199272705078125,2.1528375148773193,0.983537495136261,2.4501125812530518
1772534569910182400,2.209182373046875,2.262424945831299,0.5578374862670898,2.4160125255584717
1772534569920092200,2.219092041015625,2.2294249534606934,0.1938749998807907,2.2734251022338867
1772534569930002000,2.229001953125,2.147475004196167,0.028875000774860382,1.9370999336242676
1772534569939912000,2.238911865234375,2.097562551498413,0.16087499260902405,1.5540249347686768
1772534569949821700,2.24882177734375,2.0028250217437744,0.3535124957561493,1.2293875217437744
1772534569959731500,2.2587314453125,1.7707250118255615,0.3012624979019165,1.055862545967102
1772534569969641200,2.26864111328125,1.424912452697754,0.08744999766349792,0.9792749881744385
1772534569979551000,2.278551025390625,1.1290124654769897,-0.07644999772310257,0.937749981880188
1772534569989460700,2.288460693359375,1.057787537574768,0.1289750039577484,0.8016250133514404
1772534569999370500,2.29837060546875,1.2396999597549438,0.39077499508857727,0.39820000529289246
1772534570009280300,2.3082802734375,1.4738625288009644,0.2172500044107437,-0.0966624990105629
1772534570019190300,2.318190185546875,1.4929749965667725,-0.0999625027179718,-0.36162498593330383
1772534570029100000,2.32810009765625,1.2599124908447266,-0.12443749606609344,-0.4797374904155731
1772534570039009800,2.338009765625,0.8779374957084656,-0.0147124994546175,-0.5031124949455261
1772534570048919600,2.34791943359375,0.44151249527931213,0.047987498342990875,-0.48399999737739563
1772534570058829600,2.35782958984375,0.008387500420212746,-0.07961250096559525,-0.4723125100135803
1772534570068739000,2.367739013671875,-0.39916250109672546,-0.345674991607666,-0.5414749979972839
1772534570078649000,2.377649169921875,-0.7013875246047974,-0.5937250256538391,-0.781000018119812
1772534570088558800,2.387558837890625,-0.8556625247001648,-0.6862624883651733,-1.0874874591827393
1772534570098468600,2.397468505859375,-1.038812518119812,-0.7298499941825867,-1.3407624959945679
1772534570108378400,2.40737841796875,-1.2548249959945679,-0.7309499979019165,-1.5280375480651855
1772534570118288400,2.417288330078125,-1.459149956703186,-0.5852000117301941,-1.6748875379562378
1772534570128198100,2.4271982421875,-1.6645749807357788,-0.40424999594688416,-1.8154125213623047
1772534570138107600,2.437107666015625,-1.8902125358581543,-0.17971250414848328,-1.9441125392913818
1772534570148017700,2.447017578125,-2.1412875652313232,0.08098749816417694,-2.092062473297119
1772534570157927400,2.456927490234375,-2.3945624828338623,0.3151499927043915,-2.2272250652313232
1772534570167837200,2.466837158203125,-2.558462381362915,0.5131499767303467,-2.2548625469207764
1772534570177747000,2.476746826171875,-2.4776124954223633,0.602524995803833,-2.176074981689453
1772534570187657000,2.486656982421875,-2.076387405395508,0.4609000086784363,-2.0069499015808105
1772534570197566700,2.496566650390625,-1.339937448501587,-0.2679874897003174,-1.5769875049591064
1772534570207476500,2.5064765625,-0.5066875219345093,-1.0012749433517456,-0.9458624720573425
1772534570217386200,2.51638623046875,-0.15331250429153442,-0.671412467956543,-0.6000499725341797
1772534570227296000,2.5262958984375,-0.08951249718666077,-0.12856249511241913,-0.49994999170303345
1772534570237206000,2.5362060546875,-0.17778749763965607,0.047987498342990875,-0.5383124947547913
1772534570247115800,2.54611572265625,-0.32573750615119934,0.01718750037252903,-0.735212504863739
1772534570257025500,2.556025634765625,-0.44385001063346863,-0.20418749749660492,-0.9011750221252441
1772534570266935300,2.565935302734375,-0.4076874852180481,-0.39998748898506165,-0.8948500156402588
1772534570276845000,2.575844970703125,-0.25341248512268066,-0.24997499585151672,-0.8362749814987183
1772534570286754800,2.5857548828125,-0.2619374990463257,0.39393749833106995,-0.42336249351501465
1772534570296664600,2.59566455078125,-0.6014249920845032,1.885949969291687,0.853737473487854
1772534570306574600,2.60557470703125,-0.8311874866485596,2.673412561416626,1.8125250339508057
1772534570316484400,2.615484375,-0.28421249985694885,1.6465624570846558,0.6451500058174133
1772534570326394000,2.62539404296875,0.5384500026702881,0.27898749709129333,-1.2161874771118164
1772534570336303900,2.635303955078125,1.0769000053405762,-0.549037516117096,-1.637624979019165
1772534570346214000,2.6452138671875,1.3727999925613403,0.8100125193595886,-0.34347498416900635
1772534570356123400,2.655123291015625,1.2610124349594116,1.867799997329712,1.0261625051498413
1772534570366033400,2.665033447265625,0.8747749924659729,1.651787519454956,1.2942874431610107
1772534570375943200,2.674943115234375,0.7746750116348267,2.4382874965667725,1.4188624620437622
1772534570385853000,2.68485302734375,0.6736124753952026,1.3059749603271484,0.8335250020027161
1772534570395762700,2.6947626953125,0.3606624901294708,-1.3802249431610107,0.08855000138282776
1772534570405672400,2.70467236328125,0.04881250113248825,-2.268749952316284,0.050187498331069946
1772534570415582500,2.71458251953125,-0.18521249294281006,-2.2123749256134033,0.11412499845027924
1772534570425492200,2.7244921875,-0.328900009393692,-1.7366249561309814,0.21408750116825104
1772534570435402000,2.734402099609375,-0.3026374876499176,-0.9640125036239624,0.2737624943256378
1772534570445311700,2.744311767578125,-0.2525874972343445,-0.38183748722076416,0.0672374963760376
1772534570455221500,2.754221435546875,-0.23237499594688416,-0.1424500048160553,-0.3339875042438507
1772534570465131500,2.764131591796875,-0.20473749935626984,0.07576250284910202,-0.5935875177383423
1772534570475041300,2.774041259765625,-0.2217874974012375,0.1471250057220459,-0.7128000259399414
1772534570484950800,2.78395068359375,-0.27390000224113464,0.13433749973773956,-0.7160999774932861
1772534570494860800,2.79386083984375,-0.3451249897480011,0.16830000281333923,-0.5776374936103821
1772534570504770800,2.803770751953125,-0.39627498388290405,0.16403749585151672,-0.3669874966144562
1772534570514680300,2.813680419921875,-0.4059000015258789,0.021449999883770943,-0.1966249942779541
1772534570524590000,2.823590087890625,-0.3760625123977661,-0.02956249937415123,-0.06998749822378159
1772534570534500000,2.8335,-0.3100624978542328,0.11192499846220016,0.06613750010728836
1772534570544409900,2.843409912109375,-0.2536875009536743,0.15138749778270721,0.20350000262260437
1772534570554319400,2.8533193359375,-0.25575000047683716,0.0789249986410141,0.3151499927043915
1772534570564229400,2.8632294921875,-0.2642749845981598,0.14066250622272491,0.4599374830722809
1772534570574139100,2.87313916015625,-0.24722500145435333,0.3726249933242798,0.611050009727478
1772534570584049000,2.883048828125,-0.21422499418258667,0.5429875254631042,0.6919000148773193
1772534570593958700,2.892958740234375,-0.1695374995470047,0.5982624888420105,0.7026249766349792
1772534570603868700,2.90286865234375,-0.09831249713897705,0.6451500058174133,0.6716874837875366
1772534570613778400,2.9127783203125,-0.02694999985396862,0.7856749892234802,0.6546375155448914
1772534570623688200,2.922688232421875,0.03478749841451645,0.9123125076293945,0.668524980545044
1772534570633598000,2.932597900390625,0.08579999953508377,1.047474980354309,0.6472125053405762
1772534570643507700,2.9425078125,0.18479999899864197,1.2475374937057495,0.6386874914169312
1772534570653417700,2.952417724609375,0.3422375023365021,1.4166624546051025,0.7302625179290771
1772534570663327500,2.962327392578125,0.5348749756813049,1.4029124975204468,0.9249625205993652
1772534570673237200,2.9722373046875,0.7775624990463257,1.2677500247955322,1.206974983215332
1772534570683147000,2.98214697265625,1.0786875486373901,1.0921624898910522,1.4815624952316284
1772534570693056800,2.992056884765625,1.3905375003814697,0.7612000107765198,1.576300024986267
1772534570702966500,3.001966552734375,1.6779124736785889,0.4749250113964081,1.5859249830245972
1772534570712876300,3.011876220703125,1.8768750429153442,0.34718748927116394,1.5657124519348145
1772534570722786300,3.021786376953125,1.9343500137329102,0.4545750021934509,1.5039750337600708
1772534570732696000,3.031696044921875,1.938612461090088,0.5780500173568726,1.3571250438690186
1772534570742605600,3.04160546875,1.983299970626831,0.495137482881546,1.2006499767303467
1772534570752515300,3.051515380859375,2.0429749488830566,0.11302500218153,1.1761749982833862
1772534570762425300,3.06142529296875,2.055762529373169,-0.3797749876976013,1.2687125205993652
1772534570772335000,3.071335205078125,1.9599249362945557,-0.8746374845504761,1.2879624366760254
1772534570782244900,3.081244873046875,1.722599983215332,-1.1288750171661377,1.113337516784668
1772534570792155000,3.09115478515625,1.4480124711990356,-0.8468624949455261,0.7462124824523926
1772534570802064600,3.101064697265625,1.2468500137329102,-0.1999250054359436,0.304562509059906
1772534570811974400,3.110974365234375,1.0649374723434448,0.33219999074935913,-0.12223749607801437
1772534570821884000,3.1208837890625,0.8329749703407288,0.656837522983551,-0.5255249738693237
1772534570831794000,3.1307939453125,0.5828624963760376,0.7132124900817871,-0.8129000067710876
1772534570841703700,3.14070361328125,0.3305499851703644,0.57378751039505,-0.9575499892234802
1772534570851613400,3.150613525390625,0.09968750178813934,0.4078249931335449,-1.0033375024795532
1772534570861523200,3.160523193359375,-0.13983750343322754,0.2747249901294708,-0.9938499927520752
1772534570871433000,3.170432861328125,-0.3536500036716461,0.13956250250339508,-1.0033375024795532
1772534570881343000,3.180343017578125,-0.47712498903274536,0.01718750037252903,-1.0736000537872314
1772534570891252700,3.190252685546875,-0.5792874693870544,-0.04028749838471413,-1.1757625341415405
1772534570901162500,3.20016259765625,-0.767662525177002,-0.023237500339746475,-1.30239999294281
1772534570911072300,3.210072265625,-1.0604000091552734,0.08744999766349792,-1.4471875429153442
1772534570920982000,3.21998193359375,-1.4008499383926392,0.21312500536441803,-1.5972000360488892
1772534570930892000,3.22989208984375,-1.7616499662399292,0.25244998931884766,-1.719575047492981
1772534570940801500,3.239801513671875,-2.0954999923706055,0.2428250014781952,-1.7579374313354492
1772534570950711300,3.249711181640625,-2.3509750366210938,0.12787500023841858,-1.6812125444412231
1772534570960621300,3.259621337890625,-2.503187417984009,-0.09143749624490738,-1.545087456703186
1772534570970531000,3.269531005859375,-2.5297250747680664,-0.3936625123023987,-1.3704625368118286
1772534570980440800,3.27944091796875,-2.412712574005127,-0.8373749852180481,-1.125712513923645
1772534570990350600,3.2893505859375,-2.0327999591827393,-1.5578750371932983,-0.6575250029563904
1772534571000260600,3.299260498046875,-1.4793624877929688,-1.9485124349594116,-0.30951249599456787
1772534571010170400,3.30917041015625,-1.1037124395370483,-1.3993375301361084,-0.41909998655319214
1772534571020080000,3.319080078125,-0.8834375143051147,-0.9821624755859375,-0.5340499877929688
1772534571029990000,3.328989990234375,-0.7961249947547913,-0.7565249800682068,-0.5425750017166138
1772534571039899600,3.338899658203125,-0.7631250023841858,-0.5649874806404114,-0.5394124984741211
1772534571049809400,3.348809326171875,-0.6162750124931335,-0.39256250858306885,-0.596887469291687
1772534571059719400,3.358719482421875,-0.39063748717308044,-0.30002498626708984,-0.6968500018119812
1772534571069629200,3.368629150390625,-0.22893749177455902,-0.28613749146461487,-0.7713750004768372
1772534571079538700,3.37853857421875,-0.18741250038146973,-0.09459999948740005,-0.7287499904632568
1772534571089448700,3.38844873046875,-0.1979999989271164,0.42899999022483826,-0.568149983882904
1772534571099358500,3.3983583984375,-0.24268749356269836,1.5646125078201294,-0.17971250414848328
1772534571109268200,3.408268310546875,-0.3863750100135803,3.419487476348877,0.8430125117301941
1772534571119178000,3.418177978515625,-0.4054875075817108,3.772862434387207,1.3358124494552612
1772534571129088000,3.428087890625,-0.13420000672340393,1.188825011253357,-0.07851249724626541
1772534571138997500,3.43799755859375,-0.045787498354911804,-0.8831624984741211,-1.1683374643325806
1772534571148907500,3.447907470703125,-0.005362499970942736,-1.459975004196167,-0.9618124961853027
1772534571158817300,3.4578173828125,0.3244999945163727,-0.41167500615119934,-0.17861250042915344
1772534571168727000,3.46772705078125,0.39682498574256897,1.1825000047683716,0.5440874695777893
1772534571178636800,3.47763671875,0.16060000658035278,1.4463624954223633,0.6355249881744385
1772534571188546800,3.487546875,0.010587500408291817,0.7951624989509583,0.267300009727478
1772534571198456600,3.49745654296875,0.09143749624490738,0.8313249945640564,0.2971374988555908
1772534571208366000,3.507365966796875,0.06806249916553497,0.7855374813079834,0.43656250834465027
1772534571218276000,3.517276123046875,-0.038362499326467514,-0.2924624979496002,0.1311749964952469
1772534571228185900,3.527185791015625,0.1574375033378601,-0.284074991941452,0.20982499420642853
1772534571238095600,3.537095703125,0.28091248869895935,-0.10944999754428864,0.2886124849319458
1772534571248005400,3.54700537109375,0.13722500205039978,-0.24461250007152557,0.22151249647140503
1772534571257915400,3.556915283203125,-0.14904999732971191,-0.2232999950647354,0.281187504529953
1772534571267825000,3.566824951171875,-0.5513749718666077,-0.42666250467300415,0.2769249975681305
1772534571277735000,3.57673486328125,-0.9600250124931335,-0.7895249724388123,0.16940000653266907
1772534571287644700,3.586644775390625,-1.181399941444397,-0.7129374742507935,0.18012499809265137
1772534571297554400,3.596554443359375,-1.0536625385284424,-0.20954999327659607,0.2630375027656555
1772534571307464200,3.606464111328125,-0.6672874689102173,0.23746250569820404,0.11508750170469284
1772534571317374200,3.616374267578125,-0.509850025177002,0.4833124876022339,-0.15839999914169312
1772534571327284000,3.626283935546875,-0.5396875143051147,0.6599999666213989,-0.3392125070095062
1772534571337193500,3.636193359375,-0.4959625005722046,0.8802750110626221,-0.4637874960899353
1772534571347103500,3.646103515625,-0.37894999980926514,1.1389124393463135,-0.4904625117778778
1772534571357013200,3.65601318359375,-0.29809999465942383,1.2335125207901,-0.49678748846054077
1772534571366923000,3.665923095703125,-0.26510000228881836,1.2016124725341797,-0.595787525177002
1772534571376832800,3.675832763671875,-0.23746250569820404,1.3102375268936157,-0.5935875177383423
1772534571386742800,3.68574267578125,-0.23526249825954437,1.4474624395370483,-0.48399999737739563
1772534571396652300,3.69565234375,-0.23416249454021454,1.422987461090088,-0.3807374835014343
1772534571406562300,3.705562255859375,-0.16403749585151672,1.3230249881744385,-0.2648249864578247
1772534571416472000,3.71547216796875,-0.04262499883770943,1.3154624700546265,-0.15097500383853912
1772534571426381800,3.7253818359375,0.09033749997615814,1.441137433052063,-0.04028749838471413
1772534571436291600,3.73529150390625,0.20845000445842743,1.475100040435791,0.002337499987334013
1772534571446201300,3.745201416015625,0.16279999911785126,1.422987461090088,0.00976249948143959
1772534571456111400,3.755111328125,0.1116499975323677,1.2835625410079956,0.10339999943971634
1772534571466020900,3.765020751953125,0.17338749766349792,1.114437460899353,0.2704625129699707
1772534571475930600,3.7749306640625,0.27761250734329224,0.9887624979019165,0.4376625120639801
1772534571485840400,3.78484033203125,0.3702875077724457,0.929224967956543,0.5695250034332275
1772534571495750400,3.79475048828125,0.5075125098228455,0.891962468624115,0.7526749968528748
1772534571505660200,3.80466015625,0.6788374781608582,0.8185374736785889,0.9739124774932861
1772534571515570000,3.81456982421875,0.8831624984741211,0.8111125230789185,1.2282874584197998
1772534571525480000,3.82447998046875,1.1705374717712402,0.7642250061035156,1.4869250059127808
1772534571535389400,3.834389404296875,1.4707000255584717,0.5897374749183655,1.6699374914169312
1772534571545299500,3.844299560546875,1.70912504196167,0.1597750037908554,1.7327749729156494
1772534571555209200,3.854209228515625,1.8889750242233276,-0.27871251106262207,1.6986750364303589
1772534571565119000,3.864118896484375,1.9835749864578247,-0.17118750512599945,1.6369374990463257
1772534571575028700,3.87402880859375,1.9963624477386475,0.3353624939918518,1.4220249652862549
1772534571584938500,3.8839384765625,1.9421875476837158,0.7386500239372253,1.1368499994277954
1772534571594848300,3.89384814453125,1.869724988937378,0.9015874862670898,1.0324875116348267
1772534571604758300,3.90375830078125,1.7920374870300293,0.7738500237464905,1.112375020980835
1772534571614668000,3.91366796875,1.7122875452041626,0.3492499887943268,1.2028499841690063
1772534571624577800,3.923577880859375,1.619612455368042,-0.17008750140666962,1.2080750465393066
1772534571634487600,3.933487548828125,1.5079624652862549,-0.38087499141693115,1.0973875522613525
1772534571644397600,3.9433974609375,1.3164249658584595,-0.20308749377727509,0.9314249753952026
1772534571654307000,3.95330712890625,1.0439000129699707,0.1821874976158142,0.7078499794006348
1772534571664216800,3.963216796875,0.7151374816894531,0.5046250224113464,0.4536125063896179
1772534571674126800,3.973126953125,0.4288625121116638,0.7291625142097473,0.1597750037908554
1772534571684036600,3.98303662109375,0.23718750476837158,0.9132750034332275,-0.17641249299049377
1772534571693946400,3.9929462890625,0.07122500240802765,0.9537000060081482,-0.47657498717308044
1772534571703856000,4.002856201171875,-0.1331000030040741,0.963325023651123,-0.7404375076293945
1772534571713766000,4.012765869140625,-0.328900009393692,0.9909625053405762,-0.9884874820709229
1772534571723675600,4.022675537109375,-0.5035250186920166,0.9429749846458435,-1.1778249740600586
1772534571733585700,4.032585693359375,-0.6748499870300293,0.769587516784668,-1.2779250144958496
1772534571743495400,4.042495361328125,-0.8993874788284302,0.5365250110626221,-1.3183499574661255
1772534571753405200,4.0524052734375,-1.2036750316619873,0.34498751163482666,-1.3439249992370605
1772534571763315000,4.06231494140625,-1.5570499897003174,0.25561249256134033,-1.3800874948501587
1772534571773224700,4.072224609375,-1.9315999746322632,0.19593749940395355,-1.4460874795913696
1772534571783134500,4.082134521484375,-2.2923998832702637,0.05224999785423279,-1.5131875276565552
1772534571793044200,4.092044189453125,-2.5808749198913574,-0.22013749182224274,-1.5376625061035156
1772534571802954000,4.1019541015625,-2.763887405395508,-0.5627874732017517,-1.4833500385284424
1772534571812864000,4.111864013671875,-2.8638498783111572,-0.8863250017166138,-1.267337441444397
1772534571822773800,4.121773681640625,-2.791524887084961,-1.2513874769210815,-0.9490249752998352
1772534571832683500,4.13168359375,-2.1924374103546143,-1.7483124732971191,-0.6415749788284302
1772534571842593300,4.14159326171875,-1.2047749757766724,-2.2006874084472656,-0.4797374904155731
1772534571852503000,4.1515029296875,-0.4512749910354614,-1.9240374565124512,-0.5478000044822693
1772534571862412800,4.161412841796875,-0.1979999989271164,-1.0800625085830688,-0.6542249917984009
1772534571872322800,4.17132275390625,-0.2256374955177307,-0.13186250627040863,-0.7404375076293945
1772534571882232600,4.181232666015625,-0.20762500166893005,0.5673249959945679,-0.8798624873161316
1772534571892142300,4.191142333984375,-0.09693749994039536,0.8749125003814697,-1.0172250270843506
1772534571902052000,4.201052001953125,-0.09693749994039536,0.8472750186920166,-1.058750033378601
1772534571911961900,4.2109619140625,-0.20446249842643738,0.6067875027656555,-1.041700005531311
1772534571921871600,4.22087158203125,-0.47148749232292175,0.6333249807357788,-0.6308500170707703
1772534571931781600,4.23078173828125,-0.8472750186920166,1.1356124877929688,0.2055625021457672
1772534571941691100,4.240691162109375,-0.7471749782562256,1.2123374938964844,0.3279374837875366
1772534571951601000,4.250600830078125,-0.2246749997138977,0.668524980545044,-0.34251248836517334
1772534571961511000,4.260510986328125,0.16279999911785126,0.07150000333786011,-0.7489625215530396
1772534571971420700,4.270420654296875,0.1765500009059906,0.12251249700784683,-0.24034999310970306
1772534571981330400,4.280330322265625,0.15633749961853027,1.0249249935150146,0.5110874772071838
1772534571991240200,4.290240234375,0.04455000162124634,1.1037124395370483,0.7621625065803528
1772534572001150200,4.300150146484375,-0.025575000792741776,-0.05197500064969063,0.23649999499320984
1772534572011059700,4.310059814453125,-0.1288374960422516,-0.7405750155448914,-0.23925000429153442
1772534572020969700,4.3199697265625,-0.1979999989271164,0.45663750171661377,0.035337500274181366
1772534572030879500,4.32987939453125,-0.07782500237226486,1.8145874738693237,0.29919999837875366
1772534572040789200,4.339789306640625,0.05953750014305115,1.783787488937378,-0.09776250272989273
1772534572050699000,4.349698974609375,0.14258749783039093,1.5379375219345093,-0.1424500048160553
1772534572060608500,4.3596083984375,0.19249999523162842,0.7493749856948853,-0.006187499966472387
1772534572070518500,4.3695185546875,0.23512500524520874,0.14272500574588776,0.10023749619722366
1772534572080428300,4.37942822265625,0.11481250077486038,-0.05197500064969063,0.25561249256134033
1772534572090338000,4.389338134765625,-0.23100000619888306,-0.3606624901294708,0.319412499666214
1772534572100247800,4.399247802734375,-0.6301624774932861,-0.6873624920845032,0.27898749709129333
1772534572110157600,4.409157470703125,-0.9079124927520752,-0.6074749827384949,0.23649999499320984
1772534572120067300,4.4190673828125,-0.9961875081062317,-0.17971250414848328,0.16940000653266907
1772534572129977300,4.428977294921875,-0.9068124890327454,0.2363625019788742,-0.025299999862909317
1772534572139887000,4.43888720703125,-0.7855374813079834,0.6514750123023987,-0.27857500314712524
1772534572149796900,4.448796875,-0.807812511920929,1.1187000274658203,-0.39778751134872437
1772534572159706600,4.45870654296875,-0.8791750073432922,1.5208874940872192,-0.38830000162124634
1772534572169616600,4.46861669921875,-0.8131750226020813,1.726312518119812,-0.4020499885082245
1772534572179526100,4.478526123046875,-0.7375500202178955,1.7732000350952148,-0.466949999332428
1772534572189436000,4.488435791015625,-0.6631624698638916,1.7986375093460083,-0.5233250260353088
1772534572199346000,4.498345947265625,-0.5545374751091003,1.736899971961975,-0.5403749942779541
1772534572209255700,4.508255615234375,-0.4384874999523163,1.6762624979019165,-0.47437500953674316
1772534572219165400,4.51816552734375,-0.38005000352859497,1.6719999313354492,-0.37331250309944153
1772534572229075200,4.5280751953125,-0.36616250872612,1.6050374507904053,-0.29878750443458557
1772534572238985000,4.53798486328125,-0.3630000054836273,1.484724998474121,-0.22110000252723694
1772534572248894700,4.547894775390625,-0.334262490272522,1.3708750009536743,-0.1264999955892563
1772534572258804700,4.5578046875,-0.3129499852657318,1.1771374940872192,-0.07961250096559525
1772534572268714500,4.567714599609375,-0.2927374839782715,1.0004500150680542,-0.02956249937415123
1772534572278624300,4.577624267578125,-0.2778874933719635,1.0026500225067139,0.0789249986410141
1772534572288534000,4.587533935546875,-0.28737500309944153,1.1026124954223633,0.16403749585151672
1772534572298443800,4.59744384765625,-0.33742499351501465,1.1537624597549438,0.15661250054836273
1772534572308353500,4.607353515625,-0.3587374985218048,1.2132999897003174,0.19497500360012054
1772534572318263300,4.61726318359375,-0.26936250925064087,1.3708750009536743,0.3716624975204468
1772534572328173300,4.62717333984375,-0.21078750491142273,1.3538249731063843,0.5365250110626221
1772534572338083000,4.6370830078125,-0.113987497985363,1.1686124801635742,0.7037249803543091
1772534572347992800,4.646992919921875,0.08401250094175339,1.1654499769210815,1.0005874633789062
1772534572357902800,4.65690283203125,0.41071251034736633,1.2303500175476074,1.3378750085830688
1772534572367812400,4.666812255859375,0.781000018119812,1.1389124393463135,1.59871244430542
1772534572377722400,4.676722412109375,1.1514250040054321,0.8643249869346619,1.6977125406265259
1772534572387631900,4.6866318359375,1.6164499521255493,0.43216249346733093,1.6582499742507935
1772534572397542000,4.6965419921875,1.9687249660491943,0.1788875013589859,1.6571500301361084
1772534572407451600,4.70645166015625,2.0176749229431152,0.03629999980330467,1.743362545967102
1772534572417361400,4.716361328125,1.9091874361038208,0.11192499846220016,1.9211499691009521
1772534572427271200,4.726271240234375,1.8335624933242798,0.304562509059906,2.0211124420166016
1772534572437181000,4.736180908203125,1.6972999572753906,0.38005000352859497,1.9370999336242676
1772534572447090700,4.746090576171875,1.4482874870300293,0.4278999865055084,1.7476249933242798
1772534572457000700,4.756000732421875,1.1790624856948853,0.7812749743461609,1.5008125305175781
1772534572466910200,4.76591015625,0.976937472820282,1.2251249551773071,1.1453750133514404
1772534572476820200,4.7758203125,0.9246875047683716,1.5688749551773071,0.6525750160217285
1772534572486730000,4.78572998046875,1.0928499698638916,1.9817874431610107,0.14918750524520874
1772534572496639700,4.7956396484375,1.4174875020980835,2.5020875930786133,-0.2531374990940094
1772534572506549500,4.805549560546875,1.7154500484466553,2.8213624954223633,-0.5201625227928162
1772534572516459300,4.815459228515625,1.8580374717712402,2.8043124675750732,-0.6340125203132629
1772534572526369000,4.825369140625,1.821874976158142,2.4521749019622803,-0.6797999739646912
1772534572536278800,4.83527880859375,1.6494499444961548,1.911525011062622,-0.6862624883651733
1772534572546188800,4.845188720703125,1.394112467765808,1.2942874431610107,-0.6458374857902527
1772534572556098600,4.8550986328125,1.0993125438690186,0.695062518119812,-0.5787374973297119
1772534572566008300,4.86500830078125,0.7704125046730042,0.2778874933719635,-0.5116375088691711
1772534572575918000,4.87491796875,0.4298250079154968,-0.14561249315738678,-0.4244624972343445
1772534572585827800,4.884827880859375,0.07122500240802765,-0.46172499656677246,-0.345674991607666
1772534572595737600,4.894737548828125,-0.29919999837875366,-0.5575624704360962,-0.35530000925064087
1772534572605647400,4.9046474609375,-0.6589000225067139,-0.5872625112533569,-0.47341248393058777
1772534572615557000,4.91455712890625,-0.9950875043869019,-0.5872625112533569,-0.6595875024795532
1772534572625467100,4.924467041015625,-1.2867250442504883,-0.5479375123977661,-0.8948500156402588
1772534572635376600,4.934376708984375,-1.5006749629974365,-0.4351874887943268,-1.1214499473571777
1772534572645286400,4.944286376953125,-1.668837547302246,-0.18933749198913574,-1.2799874544143677
1772534572655196700,4.95419677734375,-1.8720624446868896,0.1597750037908554,-1.3237124681472778
1772534572665106200,4.964106201171875,-2.061537504196167,0.3236750066280365,-1.0927125215530396
1772534572675016000,4.974015869140625,-2.0657999515533447,-0.027499999850988388,-0.5403749942779541
1772534572684925400,4.983925537109375,-1.8741250038146973,-0.4936249852180481,0.040699999779462814
1772534572694835500,4.99383544921875,-1.5144250392913818,-0.5394124984741211,0.4109874963760376
1772534572704745200,5.0037451171875,-0.9323874711990356,-0.07644999772310257,0.4300999939441681
1772534572714655000,5.013655029296875,-0.14904999732971191,0.8248624801635742,-0.01251249946653843
1772534572724564700,5.023564697265625,0.39682498574256897,1.7880499362945557,-0.6021124720573425
1772534572734474800,5.033474853515625,0.6406124830245972,2.086012601852417,-0.9757000207901001
1772534572744384500,5.043384521484375,0.6500999927520752,1.866837501525879,-1.0405999422073364
1772534572754294300,5.053294189453125,0.42239999771118164,1.8167874813079834,-0.8670749664306641
1772534572764204000,5.0632041015625,-0.10009999573230743,2.2274999618530273,0.07259999960660934
1772534572774113800,5.07311376953125,-0.8472750186920166,2.0114874839782715,1.8210500478744507
1772534572784023600,5.0830234375,-0.8322874903678894,0.5578374862670898,2.2532124519348145
1772534572793933600,5.09293359375,0.5234624743461609,1.0579249858856201,1.2219624519348145
1772534572803843000,5.102843017578125,1.2886500358581543,2.6085124015808105,-0.05403750017285347
1772534572813753000,5.112753173828125,0.771512508392334,2.4510750770568848,-0.5383124947547913
1772534572823662800,5.122662841796875,0.1414874941110611,3.131150007247925,0.6386874914169312
1772534572833572600,5.132572509765625,-0.2256374955177307,1.7326375246047974,1.1559624671936035
1772534572843482400,5.142482421875,-0.5758500099182129,-0.28929999470710754,0.7324625253677368
1772534572853392400,5.152392333984375,-0.9739124774932861,-0.9224874973297119,0.6419875025749207
1772534572863302000,5.162302001953125,-1.197350025177002,-0.5809375047683716,0.9303249716758728
1772534572873212000,5.1722119140625,-0.9409124851226807,-0.6373124718666077,0.8142749667167664
1772534572883121700,5.18212158203125,-0.6641250252723694,-0.6404749751091003,0.5322625041007996
1772534572893031400,5.192031494140625,-0.4694249927997589,-0.6692125201225281,0.3067624866962433
1772534572902941200,5.201941162109375,-0.34911251068115234,-0.5053125023841858,0.04496249929070473
1772534572912851000,5.211850830078125,-0.320374995470047,0.10339999943971634,-0.11371249705553055
1772534572922760700,5.2217607421875,-0.3353624939918518,0.5823125243186951,-0.17544999718666077
1772534572932670500,5.23167041015625,-0.4300999939441681,0.3119874894618988,-0.27761250734329224
1772534572942580200,5.241580322265625,-0.5289624929428101,-0.19030000269412994,-0.359562486410141
1772534572952490200,5.251490234375,-0.5673249959945679,-0.3786749839782715,-0.3414124846458435
1772534572962400000,5.26139990234375,-0.5992249846458435,-0.33508750796318054,-0.3371500074863434
1772534572972309800,5.271309814453125,-0.6503750085830688,-0.1264999955892563,-0.3871999979019165
1772534572982219500,5.281219482421875,-0.6353874802589417,0.2513499855995178,-0.42762500047683716
1772534572992129300,5.29112939453125,-0.5630624890327454,0.6811749935150146,-0.44151249527931213
1772534573002039000,5.3010390625,-0.5311625003814697,1.0441750288009644,-0.4222624897956848
1772534573011948800,5.31094873046875,-0.5130124688148499,1.2462999820709229,-0.382937490940094
1772534573021858600,5.320858642578125,-0.5035250186920166,1.2548249959945679,-0.37014999985694885
1772534573031768300,5.330768310546875,-0.5152124762535095,1.140974998474121,-0.3786749839782715
1772534573041678300,5.34067822265625,-0.5268999934196472,1.0612249374389648,-0.3499374985694885
1772534573051588000,5.350588134765625,-0.5044875144958496,1.049399971961975,-0.29878750443458557
1772534573061497900,5.360497802734375,-0.46406251192092896,1.0738749504089355,-0.2615250051021576
1772534573071407400,5.370407470703125,-0.4417875111103058,1.1037124395370483,-0.23925000429153442
1772534573081317000,5.380317138671875,-0.3971000015735626,1.132449984550476,-0.21051250398159027
1772534573091227100,5.39022705078125,-0.3236750066280365,1.2112375497817993,-0.17118750512599945
1772534573101137000,5.400136962890625,-0.2586374878883362,1.308037519454956,-0.15303750336170197
1772534573111046700,5.410046630859375,-0.2512125074863434,1.366612434387207,-0.16266250610351562
1772534573120956400,5.419956298828125,-0.2320999950170517,1.2878249883651733,-0.18603749573230743
1772534573130866200,5.4298662109375,-0.17668749392032623,1.205875039100647,-0.1732500046491623
1772534573140776000,5.43977587890625,-0.11604999750852585,1.205875039100647,-0.09872499853372574
1772534573150685700,5.449685791015625,-0.08524999767541885,1.2548249959945679,0.027912499383091927
1772534573160595700,5.459595703125,-0.033137500286102295,1.2260874509811401,0.18754999339580536
1772534573170505500,5.46950537109375,0.028599999845027924,1.1005499362945557,0.3429250121116638
1772534573180415200,5.479415283203125,0.07864999771118164,0.9707499742507935,0.44398748874664307
1772534573190325000,5.489324951171875,0.10202500224113464,0.8760125041007996,0.47905001044273376
1772534573200234800,5.49923486328125,0.06806249916553497,0.8940249681472778,0.55673748254776
1772534573210144500,5.50914453125,0.0031624999828636646,0.9866999983787537,0.6547750234603882
1772534573220054300,5.51905419921875,-0.028875000774860382,1.1356124877929688,0.7174749970436096
1772534573229964000,5.528964111328125,-0.023512499406933784,1.1995500326156616,0.7206375002861023
1772534573239873800,5.538873779296875,-0.02461249940097332,1.288925051689148,0.6876375079154968
1772534573249783600,5.548783447265625,0.0031624999828636646,1.4283499717712402,0.668524980545044
1772534573259693600,5.558693603515625,0.07122500240802765,1.4559874534606934,0.6919000148773193
1772534573269603300,5.568603271484375,0.15001249313354492,1.3814624547958374,0.7866374850273132
1772534573279513000,5.57851318359375,0.2414499968290329,1.3356750011444092,0.9164375066757202
1772534573289422800,5.5884228515625,0.329862505197525,1.2047749757766724,1.021899938583374
1772534573299332600,5.59833251953125,0.4692874848842621,1.0951875448226929,1.1665500402450562
1772534573309242400,5.608242431640625,0.6576625108718872,1.2006499767303467,1.4071749448776245
1772534573319152000,5.618152099609375,0.8289874792098999,1.2027125358581543,1.6317124366760254
1772534573329062000,5.628061767578125,0.9758374691009521,1.130387544631958,1.8243499994277954
1772534573338971600,5.6379716796875,1.218387484550476,1.121862530708313,1.978624939918518
1772534573348881400,5.64788134765625,1.5164874792099,1.1569249629974365,2.09879994392395
1772534573358791200,5.657791259765625,1.7877750396728516,1.1941875219345093,2.092474937438965
1772534573368701200,5.667701171875,2.01877498626709,1.1367125511169434,1.8434624671936035
1772534573378611000,5.67761083984375,2.136887550354004,1.1771374940872192,1.4316500425338745
1772534573388520700,5.687520751953125,2.1517374515533447,1.3538249731063843,0.9579625129699707
1772534573398430500,5.697430419921875,2.220900058746338,1.4548875093460083,0.6269999742507935
1772534573408340200,5.70734033203125,2.407212495803833,1.356024980545044,0.5546749830245972
1772534573418250000,5.71725,2.6104373931884766,1.1867624521255493,0.5950999855995178
1772534573428160000,5.727159912109375,2.842400074005127,0.6854375004768372,0.5685625076293945
1772534573438069500,5.737069580078125,3.0404000282287598,0.25341248512268066,0.36629998683929443
1772534573447979500,5.7469794921875,2.8744375705718994,0.45883750915527344,0.06943749636411667
1772534573457889300,5.75688916015625,2.3720123767852783,0.8823375105857849,-0.16046249866485596
1772534573467799000,5.766799072265625,1.804824948310852,0.9143750071525574,-0.2722499966621399
1772534573477708800,5.776708740234375,1.2513874769210815,0.5790125131607056,-0.3297249972820282
1772534573487618600,5.78661865234375,0.7683500051498413,0.3151499927043915,-0.4179999828338623
1772534573497528300,5.7965283203125,0.45649999380111694,0.1289750039577484,-0.5542625188827515
1772534573507438000,5.80643798828125,0.405349999666214,-0.17544999718666077,-0.6532624959945679
1772534573517348000,5.81634814453125,0.36176249384880066,-0.47987499833106995,-0.6905249953269958
1772534573527257900,5.8262578125,0.17118750512599945,-0.679937481880188,-0.6712750196456909
1772534573537167600,5.836167724609375,-0.13956250250339508,-0.8129000067710876,-0.6128374934196472
1772534573547077400,5.846077392578125,-0.49816250801086426,-0.9107999801635742,-0.5425750017166138
1772534573556987100,5.855987060546875,-0.8131750226020813,-0.9321125149726868,-0.4988499879837036
1772534573566897000,5.86589697265625,-1.0835000276565552,-0.8416374921798706,-0.5170000195503235
1772534573576807000,5.875806884765625,-1.326050043106079,-0.651199996471405,-0.6106374859809875
1772534573586716400,5.88571630859375,-1.5303750038146973,-0.41813749074935913,-0.7682124972343445
1772534573596626200,5.895626220703125,-1.6985374689102173,-0.15523749589920044,-0.9532874822616577
1772534573606536200,5.9055361328125,-1.8305374383926392,0.1097249984741211,-1.0863875150680542
1772534573616446000,5.915446044921875,-1.9475499391555786,0.30882498621940613,-1.1246124505996704
1772534573626355700,5.925355712890625,-2.1019625663757324,0.34498751163482666,-1.0895500183105469
1772534573636265200,5.93526513671875,-2.308350086212158,0.2662000060081482,-0.9916499853134155
1772534573646175200,5.94517529296875,-2.555299997329712,0.10023749619722366,-0.9065374732017517
1772534573656085000,5.9550849609375,-2.8139374256134033,-0.07012499868869781,-0.8766999840736389
1772534573665994800,5.964994873046875,-3.0012125968933105,-0.1350249946117401,-0.8766999840736389
1772534573675904500,5.974904541015625,-3.0916874408721924,-0.12856249511241913,-0.8863250017166138
1772534573685814300,5.984814208984375,-3.0885250568389893,-0.15097500383853912,-0.8639125227928162
1772534573695724000,5.99472412109375,-2.9639499187469482,-0.26372501254081726,-0.75638747215271
1772534573705633800,6.0046337890625,-2.631887435913086,-0.568149983882904,-0.5138375163078308
1772534573715543800,6.014543701171875,-1.9848124980926514,-1.2556500434875488,-0.17215000092983246
1772534573725453600,6.02445361328125,-1.2314499616622925,-1.703624963760376,-0.09556250274181366
1772534573735363000,6.034363037109375,-0.7280625104904175,-1.4823875427246094,-0.35846251249313354
1772534573745272800,6.04427294921875,-0.4577375054359436,-1.024649977684021,-0.6532624959945679
1772534573755182800,6.054182861328125,-0.3129499852657318,-0.7863624691963196,-0.8894875049591064
1772534573765092600,6.064092529296875,-0.21821250021457672,-0.8086374998092651,-1.0650750398635864
1772534573775002400,6.07400244140625,-0.19483749568462372,-0.9065374732017517,-1.125712513923645
1772534573784912400,6.083912353515625,-0.24695000052452087,-0.755424976348877,-1.059712529182434
1772534573794822000,6.09382177734375,-0.27252501249313354,0.04702499881386757,-0.7893875241279602
1772534573804731600,6.103731689453125,-0.26936250925064087,1.7157249450683594,0.01718750037252903
1772534573814641700,6.1136416015625,-0.27678748965263367,2.8213624954223633,0.862262487411499
1772534573824551400,6.123551513671875,-0.1597750037908554,2.0114874839782715,0.7569375038146973
1772534573834461200,6.133461181640625,0.019112499430775642,0.14588749408721924,-0.17434999346733093
1772534573844370700,6.14337060546875,-0.005362499970942736,-0.9448999762535095,-0.6532624959945679
1772534573854280700,6.15328076171875,-0.018149999901652336,-1.6312999725341797,-0.6489999890327454
1772534573864190500,6.1631904296875,0.16060000658035278,-2.120800018310547,-0.5138375163078308
1772534573874100200,6.173100341796875,0.34264999628067017,-0.7671124935150146,-0.03492499887943268
1772534573884010000,6.183010009765625,0.4926624894142151,2.599025011062622,1.0176374912261963
1772534573893919700,6.192919677734375,0.5267624855041504,5.393575191497803,2.2116875648498535
1772534573903829500,6.20282958984375,0.612975001335144,4.026137351989746,2.2745249271392822
1772534573913739500,6.212739501953125,0.8725749850273132,0.9101125001907349,1.6093000173568726
1772534573923649300,6.222649169921875,1.0045750141143799,0.04702499881386757,1.4198249578475952
1772534573933558800,6.232558837890625,0.6033499836921692,-0.47657498717308044,1.030424952507019
1772534573943468500,6.242468505859375,0.20845000445842743,-1.5131875276565552,0.5302000045776367
1772534573953378600,6.252378662109375,-0.1863124966621399,-2.2251625061035156,0.24818749725818634
1772534573963288300,6.262288330078125,-0.585474967956543,-2.0580999851226807,0.25671249628067017
1772534573973198000,6.272197998046875,-0.7684875130653381,-1.3928749561309814,0.1289750039577484
1772534573983107600,6.282107666015625,-0.6737499833106995,-0.6202625036239624,-0.2700499892234802
1772534573993017600,6.292017578125,-0.5502749681472778,0.296037495136261,-0.5702124834060669
1772534574002927400,6.30192724609375,-0.44811248779296875,0.9909625053405762,-0.718162477016449
1772534574012837000,6.311837158203125,-0.4204750061035156,1.281499981880188,-0.7128000259399414
1772534574022747000,6.321746826171875,-0.48743748664855957,1.0781375169754028,-0.6180624961853027
1772534574032657000,6.331656982421875,-0.5619624853134155,0.44068750739097595,-0.4945875108242035
1772534574042566400,6.34156640625,-0.5971624851226807,-0.2605625092983246,-0.3382500112056732
1772534574052476400,6.351476318359375,-0.5971624851226807,-0.6851624846458435,-0.18383750319480896
1772534574062386200,6.36138623046875,-0.5673249959945679,-0.6830999851226807,-0.05197500064969063
1772534574072296000,6.3712958984375,-0.5374875068664551,-0.5618249773979187,0.042762499302625656
1772534574082205700,6.381205810546875,-0.5087500214576721,-0.549037516117096,0.08538749814033508
1772534574092115500,6.391115478515625,-0.4545750021934509,-0.46172499656677246,0.12264999747276306
1772534574102025200,6.401025146484375,-0.36506250500679016,-0.32339999079704285,0.1588124930858612
1772534574111935000,6.41093505859375,-0.26936250925064087,-0.37661248445510864,0.13007499277591705
1772534574121845000,6.420844970703125,-0.2022625058889389,-0.4904625117778778,0.10559999942779541
1772534574131754500,6.43075439453125,-0.18095000088214874,-0.35420000553131104,0.227974995970726
1772534574141664500,6.44066455078125,-0.24172499775886536,-0.07328750193119049,0.30992498993873596
1772534574151574300,6.45057421875,-0.3151499927043915,0.10339999943971634,0.22907499969005585
1772534574161484000,6.460484130859375,-0.35241249203681946,0.13846249878406525,0.12264999747276306
1772534574171393500,6.4703935546875,-0.3513124883174896,0.2470874935388565,0.15234999358654022
1772534574181303600,6.480303466796875,-0.30662500858306885,0.5024250149726868,0.35144999623298645
1772534574191213300,6.49021337890625,-0.2363625019788742,0.6887375116348267,0.5216749906539917
1772534574201123000,6.500123046875,-0.1331000030040741,0.7057874798774719,0.5950999855995178
1772534574211032800,6.51003271484375,-0.027775000780820847,0.7781124711036682,0.6153125166893005
1772534574220942800,6.51994287109375,-0.028875000774860382,0.8589624762535095,0.5823125243186951
1772534574230852400,6.529852294921875,0.021175000816583633,0.9068124890327454,0.5674625039100647
1772534574240762000,6.53976220703125,0.1340624988079071,0.9685499668121338,0.602524995803833
1772534574250672000,6.549672119140625,0.23196250200271606,1.1026124954223633,0.6707249879837036
1772534574260582000,6.559581787109375,0.37345001101493835,1.2038124799728394,0.7569375038146973
1772534574270491600,6.56949169921875,0.5447750091552734,1.114437460899353,0.8430125117301941
1772534574280401400,6.5794013671875,0.7151374816894531,0.954800009727478,0.9942625164985657
1772534574290311200,6.589311279296875,0.8768374919891357,0.7015249729156494,1.1261249780654907
1772534574300221000,6.599220947265625,1.0737375020980835,0.45883750915527344,1.241075038909912
1772534574310130700,6.609130615234375,1.3429625034332275,0.49390000104904175,1.559249997138977
1772534574320040400,6.61904052734375,1.5984375476837158,0.36629998683929443,1.9189499616622925
1772534574329950200,6.6289501953125,1.8165124654769897,0.05335000157356262,2.122312545776367
1772534574339860000,6.63885986328125,2.0677249431610107,-0.036024998873472214,2.1232750415802
1772534574349769700,6.648769775390625,2.2242000102996826,0.2864125072956085,1.8807250261306763
1772534574359679700,6.6586796875,2.1943624019622803,0.8376500010490417,1.4337124824523926
1772534574369589200,6.66858935546875,2.1346874237060547,1.2579874992370605,0.9846374988555908
1772534574379499000,6.6784990234375,2.2145750522613525,1.2698124647140503,0.7419499754905701
1772534574389409000,6.688408935546875,2.5199625492095947,0.8227999806404114,0.7217375040054321
1772534574399318800,6.69831884765625,2.8881874084472656,0.3003000020980835,0.816474974155426
1772534574409228500,6.708228515625,3.1041998863220215,0.12993749976158142,0.8218374848365784
1772534574419138300,6.71813818359375,2.976599931716919,0.4067249894142151,0.6408874988555908
1772534574429048000,6.728048095703125,2.532749891281128,0.9207000136375427,0.3620375096797943
1772534574438957800,6.737957763671875,1.969825029373169,1.1463375091552734,0.17159999907016754
1772534574448867600,6.74786767578125,1.450487494468689,1.0026500225067139,0.08002500236034393
1772534574458777600,6.757777587890625,0.9684125185012817,0.6546375155448914,0.03959999978542328
1772534574468687000,6.76768701171875,0.5607249736785889,0.3737249970436096,-0.005087499972432852
1772534574478596900,6.777596923828125,0.2457125037908554,0.14918750524520874,-0.11041250079870224
1772534574488506600,6.787506591796875,0.07122500240802765,-0.03712499886751175,-0.30098751187324524
1772534574498416600,6.797416748046875,0.032862499356269836,-0.20954999327659607,-0.5159000158309937
1772534574508326100,6.807326171875,-0.04152499884366989,-0.35846251249313354,-0.7085375189781189
1772534574518236000,6.81723583984375,-0.18741250038146973,-0.46598750352859497,-0.856487512588501
1772534574528146000,6.82714599609375,-0.39916250109672546,-0.47561249136924744,-0.9523249864578247
1772534574538055700,6.8370556640625,-0.6683874726295471,-0.41167500615119934,-1.007599949836731
1772534574547965400,6.84696533203125,-0.9822999835014343,-0.27761250734329224,-1.0608124732971191
1772534574557875200,6.856875244140625,-1.2878249883651733,-0.09776250272989273,-1.1555500030517578
1772534574567785000,6.866784912109375,-1.5527875423431396,0.0789249986410141,-1.2992374897003174
1772534574577694700,6.87669482421875,-1.7964375019073486,0.27156248688697815,-1.4673999547958374
1772534574587604500,6.8866044921875,-2.034862518310547,0.45237499475479126,-1.6322624683380127
1772534574597514500,6.896514404296875,-2.2743875980377197,0.5513749718666077,-1.7770500183105469
1772534574607424000,6.906424072265625,-2.5052499771118164,0.5578374862670898,-1.8855375051498413
1772534574617333800,6.916333740234375,-2.697887420654297,0.5524749755859375,-1.9665249586105347
1772534574627243500,6.926243408203125,-2.798949956893921,0.39916250109672546,-1.9973249435424805
1772534574637153500,6.936153564453125,-2.718100070953369,-0.011549999937415123,-1.8951624631881714
1772534574647063300,6.946063232421875,-2.4340250492095947,-0.550000011920929,-1.6472499370574951
1772534574656972800,6.955972900390625,-1.8401625156402588,-1.4269750118255615,-1.0736000537872314
1772534574666882800,6.9658828125,-1.1867624521255493,-2.0772125720977783,-0.5266249775886536
1772534574676792600,6.97579248046875,-0.9227625131607056,-1.8079874515533447,-0.5073750019073486
1772534574686702300,6.985702392578125,-0.8525000214576721,-1.291812539100647,-0.6308500170707703
1772534574696612000,6.995612060546875,-0.6524375081062317,-0.7991499900817871,-0.6373124718666077
1772534574706521900,7.00552197265625,-0.319412499666214,-0.23086249828338623,-0.6032124757766724
1772534574716431600,7.015431640625,-0.006462499964982271,0.4449499845504761,-0.6542249917984009
1772534574726341400,7.02534130859375,0.2063875049352646,1.0909249782562256,-0.7606499791145325
1772534574736251400,7.03525146484375,0.2798124849796295,1.4548875093460083,-0.8118000030517578
1772534574746161000,7.045160888671875,0.27871251106262207,1.5698374509811401,-0.7074375152587891
1772534574756070700,7.055070556640625,0.2798124849796295,1.7294750213623047,-0.43078750371932983
1772534574765980700,7.064980712890625,0.2712875008583069,2.189275026321411,0.08538749814033508
1772534574775890400,7.074890380859375,0.10848750174045563,2.7479374408721924,0.7515749931335449
1772534574785800000,7.084800048828125,-0.34485000371932983,1.9817874431610107,0.7983250021934509
1772534574795710000,7.0947099609375,-0.7864999771118164,0.11192499846220016,-0.10188750177621841
1772534574805619700,7.10461962890625,-0.594962477684021,-1.267337441444397,-0.6734749674797058
1772534574815529500,7.114529541015625,-0.05857500061392784,-1.6429874897003174,-0.46268749237060547
1772534574825439200,7.124439208984375,0.4830375015735626,-2.276175022125244,-0.2424124926328659
1772534574835349000,7.134348876953125,0.5757125020027161,-2.9094998836517334,-0.007287499960511923
1772534574845259000,7.144259033203125,0.23512500524520874,-1.0757999420166016,1.0665874481201172
1772534574855168800,7.154168701171875,0.07548750191926956,0.854699969291687,1.4954500198364258
1772534574865078500,7.16407861328125,0.12223749607801437,1.7487249374389648,1.0729124546051025
1772534574874988300,7.17398828125,0.367125004529953,2.363762378692627,0.8122124671936035
1772534574884897800,7.183897705078125,0.4745124876499176,1.0814374685287476,0.5993624925613403
1772534574894807800,7.193807861328125,0.4255625009536743,-0.4542999863624573,0.6344249844551086
1772534574904717600,7.203717529296875,0.3372874855995178,-0.8458999991416931,0.5429875254631042
1772534574914627300,7.21362744140625,0.045649997889995575,-0.8746374845504761,0.24598750472068787
1772534574924537000,7.223537109375,-0.27678748965263367,-0.7926874756813049,0.12361250072717667
1772534574934446800,7.23344677734375,-0.5534374713897705,-0.7576249837875366,0.11192499846220016
1772534574944356600,7.243356689453125,-0.762024998664856,-0.8151000142097473,0.05238749831914902
1772534574954266400,7.253266357421875,-0.8450750112533569,-0.7298499941825867,-0.09446249902248383
1772534574964176100,7.263176025390625,-0.8035500049591064,-0.4329875111579895,-0.27857500314712524
1772534574974086000,7.2730859375,-0.6631624698638916,-0.012649999931454659,-0.42762500047683716
1772534574983995600,7.28299560546875,-0.5332249999046326,0.2843500077724457,-0.5733749866485596
1772534574993905400,7.292905517578125,-0.6226000189781189,0.4067249894142151,-0.6914874911308289
1772534575003815400,7.3028154296875,-0.723800003528595,0.44714999198913574,-0.718162477016449
1772534575013725000,7.312724853515625,-0.7130749821662903,0.4716250002384186,-0.6276875138282776
1772534575023634700,7.322634765625,-0.6715499758720398,0.4577375054359436,-0.4680500030517578
1772534575033544700,7.332544677734375,-0.6194375157356262,0.2545124888420105,-0.38499999046325684
1772534575043454500,7.342454345703125,-0.5726875066757202,0.09913749992847443,-0.32436248660087585
1772534575053364000,7.352364013671875,-0.5013250112533569,0.1023000031709671,-0.21367499232292175
1772534575063274000,7.36227392578125,-0.39489999413490295,0.19813749194145203,-0.06998749822378159
1772534575073183700,7.372183837890625,-0.28421249985694885,0.27898749709129333,0.04702499881386757
1772534575083093500,7.382093505859375,-0.17352500557899475,0.3310999870300293,0.13956250250339508
1772534575093003300,7.392003173828125,-0.1331000030040741,0.11508750170469284,0.2012999951839447
1772534575102913000,7.4019130859375,-0.08415000140666962,-0.17338749766349792,0.2843500077724457
1772534575112822800,7.41182275390625,-0.06283749639987946,-0.24997499585151672,0.3737249970436096
1772534575122732500,7.421732666015625,-0.08208750188350677,-0.09033749997615814,0.43230000138282776
1772534575132642600,7.431642578125,-0.08951249718666077,0.12251249700784683,0.49293750524520874
1772534575142552000,7.441552001953125,-0.06710000336170197,0.24914999306201935,0.5769500136375427
1772534575152461800,7.4514619140625,-0.030937500298023224,0.113987497985363,0.58451247215271
1772534575162371600,7.46137158203125,0.01484999991953373,-0.03492499887943268,0.5493124723434448
1772534575172281600,7.471281494140625,0.03712499886751175,0.09597499668598175,0.5663625001907349
1772534575182191000,7.481191162109375,0.053075000643730164,0.24488750100135803,0.5174124836921692
1772534575192101000,7.49110107421875,0.0658624991774559,0.3097875118255615,0.39393749833106995
1772534575202011000,7.501010986328125,0.1073874980211258,0.45237499475479126,0.33329999446868896
1772534575211920600,7.510920654296875,0.20748749375343323,0.7408499717712402,0.3811500072479248
1772534575221830100,7.520830078125,0.3404499888420105,0.8856375217437744,0.4174500107765198
1772534575231740400,7.530740478515625,0.43834999203681946,0.6748499870300293,0.3811500072479248
1772534575241650000,7.54064990234375,0.5022875070571899,0.32573750615119934,0.42803749442100525
1772534575251559700,7.5505595703125,0.5299249887466431,0.07246249914169312,0.6004624962806702
1772534575261469400,7.560469482421875,0.5277249813079834,0.0032999999821186066,0.8387500047683716
1772534575271379200,7.570379150390625,0.5714499950408936,0.03629999980330467,1.12090003490448
1772534575281289000,7.5802890625,0.7192624807357788,-0.020075000822544098,1.381600022315979
1772534575291199000,7.590198974609375,0.9300500154495239,-0.0541750006377697,1.559249997138977
1772534575301108700,7.600108642578125,1.1886874437332153,-0.04881250113248825,1.699774980545044
1772534575311018500,7.6100185546875,1.4579124450683594,-0.06270000338554382,1.8477250337600708
1772534575320928000,7.619927978515625,1.685612440109253,0.01924999989569187,1.9009374380111694
1772534575330838000,7.629838134765625,1.8474500179290771,0.22687499225139618,1.8434624671936035
1772534575340747800,7.639747802734375,1.980412483215332,0.3630000054836273,1.734837532043457
1772534575350657500,7.649657470703125,2.0964624881744385,0.3854124844074249,1.5688749551773071
1772534575360567000,7.659567138671875,2.2177374362945557,0.4386250078678131,1.3102375268936157
1772534575370477000,7.66947705078125,2.286900043487549,0.619575023651123,1.0111750364303589
1772534575380386800,7.67938671875,2.3178374767303467,0.686537504196167,0.6599999666213989
1772534575390296600,7.689296630859375,2.3816375732421875,0.7493749856948853,0.28971248865127563
1772534575400206300,7.699206298828125,2.5029125213623047,1.056962490081787,0.04922499880194664
1772534575410116000,7.7091162109375,2.6221249103546143,1.3857250213623047,-0.13708749413490295
1772534575420025900,7.71902587890625,2.5370125770568848,1.2665125131607056,-0.21367499232292175
1772534575429935600,7.728935546875,2.1379873752593994,0.7397499680519104,-0.17215000092983246
1772534575439845400,7.738845458984375,1.560075044631958,0.1438249945640564,-0.09556250274181366
1772534575449755400,7.74875537109375,1.0088374614715576,-0.2733500003814697,-0.1083500012755394
1772534575459665000,7.758664794921875,0.5863000154495239,-0.5447750091552734,-0.2190375030040741
1772534575469574700,7.76857470703125,0.23086249828338623,-0.7309499979019165,-0.4361499845981598
1772534575479484700,7.778484619140625,-0.03203750029206276,-0.8151000142097473,-0.7022125124931335
1772534575489394400,7.78839453125,-0.13529999554157257,-0.7713750004768372,-0.9330750107765198
1772534575499304000,7.798303955078125,-0.23416249454021454,-0.7033125162124634,-1.0969749689102173
1772534575509214000,7.8082138671875,-0.35557499527931213,-0.7001500129699707,-1.1598124504089355
1772534575519123700,7.818123779296875,-0.4609000086784363,-0.7576249837875366,-1.1108624935150146
1772534575529033500,7.828033447265625,-0.5363875031471252,-0.8447999954223633,-0.9990749955177307
1772534575538943200,7.837943115234375,-0.6173750162124634,-0.8427374958992004,-0.9160249829292297
1772534575548853000,7.84785302734375,-0.7258625030517578,-0.7459374666213989,-0.9213874936103821
1772534575558762800,7.8577626953125,-0.8834375143051147,-0.6202625036239624,-1.015025019645691
1772534575568672500,7.867672607421875,-1.097249984741211,-0.43188750743865967,-1.1501874923706055
1772534575578582000,7.87758203125,-1.3239874839782715,-0.19139999151229858,-1.2640374898910522
1772534575588492000,7.887491943359375,-1.5453624725341797,-0.036024998873472214,-1.3194500207901
1772534575598401800,7.89740185546875,-1.7880499362945557,-0.045649997889995575,-1.3343000411987305
1772534575608311600,7.9073115234375,-2.0337624549865723,-0.18177500367164612,-1.3439249992370605
1772534575618221300,7.91722119140625,-2.277549982070923,-0.2798124849796295,-1.4099249839782715
1772534575628131000,7.927131103515625,-2.472249984741211,-0.3436124920845032,-1.526937484741211
1772534575638040800,7.937040771484375,-2.555299997329712,-0.5128750205039978,-1.5738250017166138
1772534575647950800,7.946950927734375,-2.6063125133514404,-0.8151000142097473,-1.4683624505996704
1772534575657860600,7.956860595703125,-2.6159374713897705,-1.2471250295639038,-1.226775050163269
1772534575667770400,7.966770263671875,-2.386037588119507,-1.812250018119812,-0.8703749775886536
1772534575677680000,7.97668017578125,-1.952912449836731,-2.3401124477386475,-0.5394124984741211
1772534575687590000,7.98658984375,-1.4932500123977661,-2.115575075149536,-0.5489000082015991
1772534575697499600,7.996499755859375,-1.087762475013733,-1.1705374717712402,-0.8245875239372253
1772534575707409400,8.006409423828124,-0.7503374814987183,-0.0849749967455864,-1.041700005531311
1772534575717319200,8.016319091796875,-0.4492124915122986,0.657800018787384,-0.9895874857902527
1772534575727229000,8.02622900390625,-0.17242500185966492,0.9728124737739563,-0.781962513923645
1772534575737138700,8.036138671875,0.07232499867677689,0.9781749844551086,-0.5755749940872192
1772534575747048700,8.046048583984375,0.21601249277591705,0.90048748254776,-0.41167500615119934
1772534575756958200,8.055958251953125,0.16706250607967377,0.946274995803833,-0.2839374840259552
1772534575766868000,8.065867919921875,-0.05224999785423279,1.1910250186920166,-0.16046249866485596
1772534575776778000,8.075778076171876,-0.2172500044107437,1.5273499488830566,-0.08071249723434448
1772534575786687700,8.085687744140625,-0.17668749392032623,1.792312502861023,-0.047712501138448715
1772534575796597200,8.09559716796875,-0.10009999573230743,1.9391624927520752,0.002337499987334013
1772534575806507300,8.10550732421875,-0.07672499865293503,1.9167499542236328,0.11192499846220016
1772534575816417000,8.1154169921875,-0.06187500059604645,1.9072624444961548,0.258774995803833
1772534575826326800,8.125326904296875,-0.02461249940097332,1.995537519454956,0.3301374912261963
1772534575836236500,8.135236572265624,0.0009624999947845936,1.8358999490737915,0.17682500183582306
1772534575846146300,8.145146240234375,-0.0170499999076128,1.4975124597549438,-0.08813749998807907
1772534575856056000,8.15505615234375,-0.009624999947845936,0.964287519454956,-0.3158375024795532
1772534575865965800,8.1649658203125,0.06696250289678574,0.03739999979734421,-0.34031251072883606
1772534575875875600,8.17487548828125,0.16279999911785126,-0.5297874808311462,-0.1434125006198883
1772534575885785300,8.184785400390625,0.2712875008583069,-0.9065374732017517,-0.05829999968409538
1772534575895695000,8.194695068359374,0.20102499425411224,-1.459975004196167,0.2194499969482422
1772534575905604900,8.20460498046875,0.22027499973773956,-1.3151874542236328,0.7760499715805054
1772534575915514600,8.2145146484375,0.35007500648498535,-0.7224249839782715,1.0346875190734863
1772534575925424600,8.224424560546876,0.5852000117301941,0.6972625255584717,1.1580250263214111
1772534575935334100,8.234334228515625,0.8034124970436096,1.8412624597549438,1.0973875522613525
1772534575945244000,8.244243896484376,0.7874624729156494,1.859274983406067,1.0729124546051025
1772534575955154000,8.25415380859375,0.6830999851226807,1.4634125232696533,1.1698499917984009
1772534575965063700,8.264063720703126,0.4883999824523926,0.3620375096797943,0.7845749855041504
1772534575974973400,8.273973388671875,0.3011249899864197,-0.41497498750686646,0.27582499384880066
1772534575984883000,8.283883056640626,0.04455000162124634,-0.6085749864578247,0.021449999883770943
1772534575994793000,8.29379296875,-0.3438875079154968,-0.5436750054359436,-0.16046249866485596
1772534576004702700,8.30370263671875,-0.6247999668121338,-0.22659999132156372,-0.3137750029563904
1772534576014612500,8.313612548828125,-0.6418499946594238,0.2320999950170517,-0.45746248960494995
1772534576024522200,8.323522216796874,-0.5343250036239624,0.603487491607666,-0.5616874694824219
1772534576034432000,8.333431884765625,-0.5332249999046326,0.8281624913215637,-0.5733749866485596
1772534576044341500,8.343341552734374,-0.7024874687194824,0.9068124890327454,-0.5616874694824219
1772534576054251500,8.35325146484375,-0.7961249947547913,0.947237491607666,-0.5436750054359436
1772534576064161300,8.363161376953125,-0.769587516784668,0.9036499857902527,-0.5021499991416931
1772534576074071000,8.373071044921875,-0.6982250213623047,0.7035874724388123,-0.45842498540878296
1772534576083981000,8.38298095703125,-0.6344249844551086,0.4833124876022339,-0.4127750098705292
1772534576093890600,8.392890625,-0.5812125205993652,0.33646249771118164,-0.345674991607666
1772534576103800300,8.40280029296875,-0.5630624890327454,0.23746250569820404,-0.29356250166893005
1772534576113710300,8.41271044921875,-0.5726875066757202,0.10862500220537186,-0.28503748774528503
1772534576123620000,8.4226201171875,-0.5374875068664551,-0.09239999949932098,-0.3147374987602234
1772534576133529600,8.432529541015626,-0.45663750171661377,-0.30855000019073486,-0.32120001316070557
1772534576143439400,8.442439453125,-0.3821125030517578,-0.4787749946117401,-0.3041499853134155
1772534576153349400,8.452349365234374,-0.36506250500679016,-0.6202625036239624,-0.29878750443458557
1772534576163259100,8.462259033203125,-0.3852750062942505,-0.7224249839782715,-0.30841249227523804
1772534576173168600,8.472168701171874,-0.41084998846054077,-0.7288874983787537,-0.27761250734329224
1772534576183078400,8.482078369140625,-0.4076874852180481,-0.6065124869346619,-0.19236250221729279
1772534576192988400,8.491988525390624,-0.38321250677108765,-0.4372499883174896,-0.11371249705553055
1772534576202898200,8.501898193359375,-0.3438875079154968,-0.37014999985694885,-0.06366249918937683
1772534576212808000,8.511807861328125,-0.2853125035762787,-0.2924624979496002,0.012924999929964542
1772534576222717700,8.5217177734375,-0.24268749356269836,-0.10202500224113464,0.13007499277591705
1772534576232627500,8.53162744140625,-0.24914999306201935,0.08744999766349792,0.21834999322891235
1772534576242537200,8.541537109375,-0.25437501072883606,0.267300009727478,0.2843500077724457
1772534576252447000,8.551447021484375,-0.22783750295639038,0.43326249718666077,0.34718748927116394
1772534576262356700,8.561356689453126,-0.19167499244213104,0.6077499985694885,0.4141499996185303
1772534576272266500,8.5712666015625,-0.15757499635219574,0.6727874875068665,0.44398748874664307
1772534576282176300,8.58117626953125,-0.10009999573230743,0.5950999855995178,0.45567500591278076
1772534576292086000,8.5910859375,-0.045787498354911804,0.3630000054836273,0.43972501158714294
1772534576301996000,8.60099609375,0.028599999845027924,0.14918750524520874,0.41208750009536743
1772534576311905500,8.610905517578125,0.14464999735355377,0.2363625019788742,0.4833124876022339
1772534576321815300,8.620815185546874,0.2521750032901764,0.24598750472068787,0.5333625078201294
1772534576331725000,8.63072509765625,0.3063499927520752,-0.0424874983727932,0.46309998631477356
1772534576341635000,8.640635009765624,0.29260000586509705,-0.23086249828338623,0.4525125026702881
1772534576351544800,8.650544921875,0.27018749713897705,-0.3339875042438507,0.48867499828338623
1772534576361454300,8.660454345703124,0.24255000054836273,-0.5000874996185303,0.509987473487854
1772534576371364000,8.670364013671875,0.1989624947309494,-0.6085749864578247,0.5259374976158142
1772534576381274000,8.680274169921875,0.15207499265670776,-0.5905625224113464,0.5717250108718872
1772534576391183600,8.69018359375,0.13928750157356262,-0.5010499954223633,0.6505125164985657
1772534576401093600,8.70009375,0.16376249492168427,-0.3265624940395355,0.779212474822998
1772534576411003400,8.71000341796875,0.21917499601840973,-0.23925000429153442,0.9037874937057495
1772534576420913000,8.719912841796875,0.3063499927520752,-0.08923749625682831,1.029325008392334
1772534576430822700,8.72982275390625,0.3979249894618988,0.16087499260902405,1.1389124393463135
1772534576440732700,8.739732666015625,0.5149375200271606,0.49293750524520874,1.315600037574768
1772534576450642400,8.749642333984376,0.7023500204086304,0.7759125232696533,1.5709375143051147
1772534576460552200,8.75955224609375,0.9013124704360962,0.7855374813079834,1.7976750135421753
1772534576470462000,8.7694619140625,1.0854250192642212,0.6333249807357788,1.968999981880188
1772534576480371700,8.779371826171875,1.291949987411499,0.5333625078201294,2.039262533187866
1772534576490281500,8.789281494140624,1.5057624578475952,0.7567999958992004,2.022212505340576
1772534576500191500,8.79919140625,1.6526124477386475,1.0377124547958374,1.9701000452041626
1772534576510101000,8.80910107421875,1.745287537574768,1.2208625078201294,1.9307750463485718
1772534576520010800,8.8190107421875,1.8229750394821167,1.3847625255584717,1.8380999565124512
1772534576529920500,8.82892041015625,1.8654625415802002,1.4431999921798706,1.6317124366760254
1772534576539830500,8.83883056640625,1.821874976158142,1.399612545967102,1.3294874429702759
1772534576549740300,8.848740234375,1.7675625085830688,1.4092375040054321,0.9420124888420105
1772534576559649800,8.85864990234375,1.8474500179290771,1.5527875423431396,0.5961999893188477
1772534576569559600,8.8685595703125,2.0336248874664307,1.7806249856948853,0.35144999623298645
1772534576579469600,8.878469482421876,2.18473744392395,1.8050999641418457,0.2769249975681305
1772534576589379300,8.88837939453125,2.2017874717712402,1.3794000148773193,0.29493749141693115
1772534576599289000,8.8982890625,1.979312539100647,0.7386500239372253,0.3269749879837036
1772534576609198800,8.90819873046875,1.635562539100647,0.18424999713897705,0.3067624866962433
1772534576619108600,8.918108642578124,1.2450624704360962,-0.09776250272989273,0.20239999890327454
1772534576629018400,8.928018310546875,0.8544250130653381,-0.2648249864578247,-0.0019249999895691872
1772534576638928100,8.93792822265625,0.4830375015735626,-0.45210000872612,-0.19236250221729279
1772534576648838000,8.947837890625,0.2564375102519989,-0.6235625147819519,-0.2913624942302704
1772534576658747600,8.95774755859375,0.11701250076293945,-0.6851624846458435,-0.36162498593330383
1772534576668657400,8.967657470703125,0.010587500408291817,-0.6532624959945679,-0.44247499108314514
1772534576678567200,8.977567138671875,-0.09377499669790268,-0.6159999966621399,-0.5244249701499939
1772534576688477000,8.987476806640625,-0.1905750036239624,-0.5852000117301941,-0.6159999966621399
1772534576698386700,8.99738671875,-0.27252501249313354,-0.5479375123977661,-0.7309499979019165
1772534576708296400,9.00729638671875,-0.36506250500679016,-0.46598750352859497,-0.866112470626831
1772534576718206200,9.017206298828125,-0.4629625082015991,-0.34677499532699585,-1.0087000131607056
1772534576728116000,9.027115966796876,-0.5684249997138977,-0.2073500007390976,-1.1396000385284424
1772534576738025700,9.037025634765625,-0.6822749972343445,-0.0658624991774559,-1.2471250295639038
1772534576747935700,9.046935791015626,-0.7864999771118164,0.02681249938905239,-1.3205499649047852
1772534576757845200,9.05684521484375,-0.909974992275238,0.14698749780654907,-1.3715624809265137
1772534576767755000,9.066755126953124,-1.0249249935150146,0.2895750105381012,-1.3971375226974487
1772534576777665000,9.0766650390625,-1.1398749351501465,0.37152498960494995,-1.4321999549865723
1772534576787574800,9.08657470703125,-1.255924940109253,0.3651999831199646,-1.4918749332427979
1772534576797484500,9.096484619140625,-1.3729374408721924,0.24172499775886536,-1.5833125114440918
1772534576807394000,9.10639404296875,-1.5091999769210815,0.08524999767541885,-1.6769499778747559
1772534576817304000,9.116303955078125,-1.669800043106079,-0.012649999931454659,-1.7408875226974487
1772534576827213800,9.1262138671875,-1.8666999340057373,-0.013749999925494194,-1.7909375429153442
1772534576837123600,9.13612353515625,-2.103062391281128,0.05335000157356262,-1.813212513923645
1772534576847033300,9.146033447265625,-2.3775124549865723,0.113987497985363,-1.7813124656677246
1772534576856943000,9.155943115234376,-2.6201999187469482,-0.027499999850988388,-1.635562539100647
1772534576866852900,9.165852783203125,-2.7532999515533447,-0.381974995136261,-1.4056625366210938
1772534576876762400,9.175762451171876,-2.822462558746338,-0.7767375111579895,-1.0810250043869019
1772534576886672400,9.18567236328125,-2.4956250190734863,-1.1555500030517578,-0.7585874795913696
1772534576896582100,9.19558203125,-1.6581125259399414,-0.8714749813079834,-0.8149625062942505
1772534576906492000,9.205491943359375,-0.9227625131607056,0.11082500219345093,-1.0746999979019165
1772534576916401700,9.215401611328126,-0.41827499866485596,1.038812518119812,-1.0938124656677246
1772534576926311400,9.2253115234375,-0.09803749620914459,1.6719999313354492,-0.9788625240325928
1772534576936221200,9.23522119140625,0.05953750014305115,1.9530500173568726,-0.8820624947547913
1772534576946131000,9.245130859375,0.06379999965429306,1.9295375347137451,-0.781000018119812
1772534576956040700,9.255040771484374,-0.038362499326467514,1.7656375169754028,-0.6330500245094299
1772534576965950500,9.264950439453125,-0.1331000030040741,1.5518250465393066,-0.44247499108314514
1772534576975860500,9.274860595703124,-0.11824999749660492,1.3729374408721924,-0.2679874897003174
1772534576985770200,9.284770263671875,-0.08951249718666077,1.2942874431610107,-0.10188750177621841
1772534576995680000,9.294679931640625,-0.10752499848604202,1.1270874738693237,0.020487500354647636
1772534577005589500,9.304589599609375,-0.17668749392032623,0.8270624876022339,-0.015812499448657036
1772534577015499500,9.31449951171875,-0.3885749876499176,0.48647499084472656,-0.2008875012397766
1772534577025409300,9.3244091796875,-0.5257999897003174,-0.22439999878406525,-0.40851250290870667
1772534577035319000,9.334319091796875,-0.44068750739097595,-1.309962511062622,-0.7170624732971191
1772534577045228800,9.344228759765626,-0.13529999554157257,-2.1528375148773193,-0.8501625061035156
1772534577055138600,9.354138671875,0.2798124849796295,-2.2719125747680664,-0.6032124757766724
1772534577065048300,9.36404833984375,0.7405750155448914,-1.3876500129699707,-0.027499999850988388
1772534577074958000,9.3739580078125,0.9556249976158142,0.7462124824523926,0.6696249842643738
1772534577084867800,9.383867919921874,0.7863624691963196,2.4766499996185303,0.9442124962806702
1772534577094777900,9.39377783203125,0.6938250064849854,1.9178500175476074,0.5950999855995178
1772534577104687400,9.403687255859374,0.7661499977111816,0.3268375098705292,0.6610999703407288
1772534577114597000,9.41359716796875,0.8831624984741211,-0.36492499709129333,1.1995500326156616
1772534577124507000,9.4235068359375,0.7448375225067139,-1.0513249635696411,1.392187476158142
1772534577134416600,9.433416748046875,0.39682498574256897,-1.5131875276565552,1.3623499870300293
1772534577144326400,9.443326416015625,-0.033137500286102295,-2.2219998836517334,1.0719499588012695
1772534577154236400,9.453236328125,-0.42253750562667847,-2.758387565612793,0.7004249691963196
1772534577164146000,9.46314599609375,-0.6652249693870544,-2.4411749839782715,0.5142499804496765
1772534577174055700,9.4730556640625,-0.6535375118255615,-1.4152874946594238,0.3460874855518341
1772534577183965400,9.48296533203125,-0.4427500069141388,-0.5809375047683716,-0.10518749803304672
1772534577193875500,9.49287548828125,-0.328900009393692,0.2545124888420105,-0.5648499727249146
1772534577203785000,9.502784912109375,-0.3735874891281128,1.2123374938964844,-0.7969499826431274
1772534577213695000,9.512695068359376,-0.37578749656677246,2.0806500911712646,-0.7969499826431274
1772534577223604700,9.522604736328125,-0.3086875081062317,2.5361874103546143,-0.6936874985694885
1772534577233514500,9.532514404296874,-0.20336249470710754,2.727725028991699,-0.5116375088691711
1772534577243424000,9.542424072265625,-0.17778749763965607,2.8043124675750732,-0.30524998903274536
1772534577253334000,9.552333984375,-0.31831249594688416,2.6085124015808105,-0.22439999878406525
1772534577263243800,9.562243896484375,-0.45237499475479126,2.044487476348877,-0.3041499853134155
1772534577273153500,9.572153564453124,-0.5363875031471252,1.1591249704360962,-0.4606249928474426
1772534577283063000,9.58206298828125,-0.6131125092506409,0.12993749976158142,-0.5361124873161316
1772534577292973000,9.59197314453125,-0.6481750011444092,-0.5468375086784363,-0.49252501130104065
1772534577302882800,9.6018828125,-0.5928999781608582,-0.6298875212669373,-0.4339500069618225
1772534577312792600,9.61179248046875,-0.4916999936103821,-0.368087500333786,-0.4179999828338623
1772534577322702300,9.621702392578126,-0.4193750023841858,0.021449999883770943,-0.4446749985218048
1772534577332612000,9.631612060546875,-0.4162124991416931,0.5120499730110168,-0.46598750352859497
1772534577342521900,9.64152197265625,-0.4342249929904938,1.049399971961975,-0.44673749804496765
1772534577352431400,9.651431396484375,-0.426800012588501,1.541100025177002,-0.3797749876976013
1772534577362341400,9.66134130859375,-0.4162124991416931,1.8060624599456787,-0.32010000944137573
1772534577372251100,9.671251220703125,-0.41304999589920044,1.736899971961975,-0.2870999872684479
1772534577382161000,9.681160888671876,-0.39063748717308044,1.4624500274658203,-0.2626250088214874
1772534577392070700,9.691070556640625,-0.3513124883174896,1.1643500328063965,-0.2424124926328659
1772534577401980700,9.700980712890624,-0.31404998898506165,0.8771125078201294,-0.1891999989748001
1772534577411890200,9.71089013671875,-0.3172124922275543,0.57378751039505,-0.07108750194311142
1772534577421800000,9.720800048828124,-0.357637494802475,0.36629998683929443,0.08635000139474869
1772534577431709700,9.730709716796875,-0.3746874928474426,0.33646249771118164,0.17902499437332153
1772534577441619500,9.740619384765624,-0.4278999865055084,0.4620000123977661,0.2172500044107437
1772534577451529200,9.750529296875,-0.5534374713897705,0.46736249327659607,0.2194499969482422
1772534577461439200,9.760439208984375,-0.557699978351593,0.44288748502731323,0.2704625129699707
1772534577471349000,9.770348876953125,-0.5587999820709229,0.5077875256538391,0.37482500076293945
1772534577481258500,9.780258544921875,-0.6099500060081482,0.5513749718666077,0.4408249855041504
1772534577491168300,9.790168212890626,-0.6800749897956848,0.6131125092506409,0.5077875256538391
1772534577501078000,9.800078125,-0.724762499332428,0.7844374775886536,0.6355249881744385
1772534577510988000,9.809988037109376,-0.6939625144004822,1.031387448310852,0.8090500235557556
1772534577520897500,9.8198974609375,-0.5439500212669373,1.2016124725341797,0.9983875155448914
1772534577530807300,9.829807373046876,-0.2363625019788742,1.0814374685287476,1.1665500402450562
1772534577540717300,9.83971728515625,0.14258749783039093,0.8398500084877014,1.3411749601364136
1772534577550626800,9.849626708984376,0.4511374831199646,0.7163749933242798,1.4783999919891357
1772534577560536600,9.85953662109375,0.8864625096321106,0.5205749869346619,1.4783999919891357
1772534577570446600,9.869446533203124,1.3398000001907349,0.319412499666214,1.5529249906539917
1772534577580356400,9.8793564453125,1.544124960899353,0.2470874935388565,1.8147250413894653
1772534577590266000,9.88926611328125,1.7718249559402466,0.20446249842643738,1.9934749603271484
1772534577600175900,9.89917578125,1.963362455368042,0.15015000104904175,2.0669000148773193
1772534577610085600,9.909085693359375,1.9388874769210815,0.09267500042915344,2.0446250438690186
1772534577619995400,9.918995361328125,1.7037625312805176,0.14272500574588776,1.9083625078201294
1772534577629905200,9.9289052734375,1.2610124349594116,0.4162124991416931,1.709399938583374
1772534577639815000,9.93881494140625,0.6619250178337097,0.8111125230789185,1.4539250135421753
1772534577649724700,9.948724609375,0.1190750002861023,1.3282500505447388,1.1602250337600708
1772534577659634400,9.958634521484376,-0.045787498354911804,1.9402624368667603,0.9229000210762024
1772534577669544200,9.968544189453125,0.20845000445842743,2.741612434387207,0.8079500198364258
1772534577679454000,9.978453857421876,0.6906625032424927,3.704662561416626,0.8313249945640564
1772534577689363700,9.98836376953125,1.1577500104904175,4.155937671661377,0.8398500084877014
1772534577699273500,9.9982734375,1.2897499799728394,3.79087495803833,0.5950999855995178
1772534577709183200,10.008183349609375,1.3557499647140503,3.193850040435791,0.23966249823570251
1772534577719093200,10.01809326171875,1.4217499494552612,2.488337516784668,0.06833750009536743
1772534577729002800,10.028002685546875,1.646287441253662,1.4698749780654907,0.12361250072717667
1772534577738912500,10.03791259765625,1.8196749687194824,0.4716250002384186,0.23649999499320984
1772534577748822300,10.047822265625,1.7484500408172607,-0.2297624945640564,0.32903748750686646
1772534577758732000,10.05773193359375,1.3887499570846558,-0.605412483215332,0.37908750772476196
1772534577768641800,10.067641845703125,0.9311500191688538,-0.7704125046730042,0.4258374869823456
1772534577778551600,10.077551513671875,0.5011875033378601,-0.6777374744415283,0.40136250853538513
1772534577788461300,10.08746142578125,0.15427500009536743,-0.40851250290870667,0.28654998540878296
1772534577798371000,10.09737109375,-0.1405249983072281,-0.18081249296665192,0.11838749796152115
1772534577808281000,10.107281005859376,-0.37894999980926514,-0.13282500207424164,-0.05939999967813492
1772534577818190800,10.11719091796875,-0.548212468624115,-0.15729999542236328,-0.2147749960422516
1772534577828100600,10.1271005859375,-0.6470749974250793,-0.17434999346733093,-0.3647874891757965
1772534577838010000,10.137010009765625,-0.695062518119812,-0.12966249883174896,-0.522362470626831
1772534577847920000,10.146920166015626,-0.6822749972343445,-0.011549999937415123,-0.6553249955177307
1772534577857830000,10.156829833984375,-0.6620625257492065,0.0681999996304512,-0.781000018119812
1772534577867739600,10.16673974609375,-0.7440124750137329,0.10766249895095825,-0.9235875010490417
1772534577877649400,10.1766494140625,-0.8738124966621399,0.11824999749660492,-1.0405999422073364
1772534577887559200,10.18655908203125,-0.9813374876976013,0.12787500023841858,-1.1023374795913696
1772534577897469000,10.196468994140625,-1.0430749654769897,0.1363999992609024,-1.12681245803833
1772534577907378700,10.206378662109374,-1.087762475013733,0.21504999697208405,-1.1288750171661377
1772534577917288400,10.216288330078125,-1.215362548828125,0.4844124913215637,-1.0874874591827393
1772534577927198200,10.2261982421875,-1.3994749784469604,0.7673875093460083,-0.9117624759674072
1772534577937108000,10.23610791015625,-1.4814250469207764,0.6557375192642212,-0.6276875138282776
1772534577947017500,10.246017578125,-1.3963124752044678,0.4907374978065491,-0.41593748331069946
1772534577956927500,10.255927490234376,-1.1941875219345093,0.8771125078201294,-0.41593748331069946
1772534577966837200,10.265837158203125,-0.8578624725341797,1.2676124572753906,-0.5553625226020813
1772534577976747000,10.2757470703125,-0.4470124840736389,1.8370000123977661,-0.8032749891281128
1772534577986656800,10.28565673828125,-0.010724999941885471,2.6329874992370605,-1.0289125442504883
1772534577996566500,10.29556640625,0.3287625014781952,3.380162477493286,-1.0181875228881836
1772534578006476300,10.305476318359375,0.5245624780654907,3.8548123836517334,-0.6627500057220459
1772534578016386000,10.315385986328126,0.604449987411499,3.901562452316284,-0.1317249983549118
1772534578026295800,10.3252958984375,0.5043500065803528,3.318424940109253,0.4195125102996826
1772534578036205600,10.33520556640625,-0.05115000158548355,1.9337999820709229,0.7387874722480774
1772534578046115300,10.345115234375,-0.8365499973297119,-0.81826251745224,0.4908750057220459
1772534578056025300,10.355025390625,-0.7886999845504761,-2.5348124504089355,0.28751251101493835
1772534578065934800,10.364934814453125,0.3128125071525574,-0.9502624869346619,0.44288748502731323
1772534578075844600,10.3748447265625,1.3642749786376953,1.123924970626831,0.46956250071525574
1772534578085754400,10.38475439453125,1.181262493133545,1.4016749858856201,0.8526374697685242
1772534578095664400,10.394664306640625,0.21697500348091125,0.40878748893737793,1.6135624647140503
1772534578105574100,10.40457421875,-0.6854375004768372,-0.368087500333786,1.3134000301361084
1772534578115484000,10.41448388671875,-1.2399749755859375,-0.7053750157356262,0.13323749601840973
1772534578125393700,10.4243935546875,-1.6890499591827393,-1.2875499725341797,-0.5659499764442444
1772534578145213200,10.444213134765626,-1.987012505531311,-1.702662467956543,0.09391249716281891
1772534578155123000,10.454123046875,-1.7400624752044678,-1.1364375352859497,0.5674625039100647
1772534578165032700,10.46403271484375,-1.1376750469207764,-0.24461250007152557,0.6866750121116638
1772534578174942200,10.473942138671875,-0.4162124991416931,0.5291000008583069,0.3535124957561493
1772534578184852000,10.48385205078125,-0.08304999768733978,1.1026124954223633,-0.1775124967098236
1772534578194762000,10.493761962890625,-0.013887500390410423,1.6901500225067139,-0.5073750019073486
1772534578204671700,10.503671630859374,0.020075000822544098,1.5166250467300415,-0.5542625188827515
1772534578214581500,10.51358154296875,-0.038362499326467514,0.3917374908924103,-0.4606249928474426
1772534578224491000,10.523490966796874,-0.25341248512268066,-0.6107749938964844,-0.3445749878883362
1772534578234401000,10.533401123046875,-0.40878748893737793,-0.8959500193595886,-0.30951249599456787
1772534578244310800,10.543310791015625,-0.39063748717308044,-0.7576249837875366,-0.3871999979019165
1772534578254220300,10.55322021484375,-0.3086875081062317,-0.4351874887943268,-0.4446749985218048
1772534578264130300,10.56313037109375,-0.2619374990463257,-0.055137500166893005,-0.46598750352859497
1772534578274040000,10.5730400390625,-0.23416249454021454,0.28751251101493835,-0.4776749908924103
1772534578283949800,10.58294970703125,-0.20446249842643738,0.5205749869346619,-0.47341248393058777
1772534578293859600,10.592859619140626,-0.18851250410079956,0.6525750160217285,-0.46172499656677246
1772534578303769300,10.602769287109375,-0.2022625058889389,0.6663249731063843,-0.44673749804496765
1772534578313679000,10.61267919921875,-0.24268749356269836,0.5971624851226807,-0.420199990272522
1772534578323588900,10.6225888671875,-0.29589998722076416,0.5758500099182129,-0.3636874854564667
1772534578333498600,10.63249853515625,-0.342787504196167,0.5493124723434448,-0.31267499923706055
1772534578343408400,10.642408447265625,-0.39489999413490295,0.5908374786376953,-0.2540999948978424
1772534578353318100,10.652318115234374,-0.4449499845504761,0.7078499794006348,-0.18177500367164612
1772534578363227600,10.6622275390625,-0.47148749232292175,0.8493375182151794,-0.13282500207424164
1772534578373137700,10.6721376953125,-0.46406251192092896,0.975974977016449,-0.09556250274181366
1772534578383047400,10.68204736328125,-0.426800012588501,1.0771750211715698,-0.05087500065565109
1772534578392957200,10.691957275390624,-0.4162124991416931,1.0984874963760376,-0.0008249999955296516
1772534578402867000,10.701866943359375,-0.40974998474121094,1.1378124952316284,0.05664999783039093
1772534578412776700,10.711776611328125,-0.39489999413490295,1.2006499767303467,0.11412499845027924
1772534578422686500,10.7216865234375,-0.36726251244544983,1.2218250036239624,0.17256249487400055
1772534578432596200,10.73159619140625,-0.2788499891757965,1.2175624370574951,0.23649999499320984
1772534578442506200,10.74150634765625,-0.20542499423027039,1.2665125131607056,0.27898749709129333
1772534578452415700,10.751415771484375,-0.17778749763965607,1.2516624927520752,0.3003000020980835
1772534578462325800,10.76132568359375,-0.18947499990463257,1.130387544631958,0.30566251277923584
1772534578472235500,10.771235595703125,-0.22151249647140503,1.0419750213623047,0.31735000014305115
1772534578482145000,10.78114501953125,-0.18851250410079956,1.0835000276565552,0.3918749988079071
1772534578492054800,10.7910546875,-0.0681999996304512,1.2388750314712524,0.5302000045776367
1772534578501964500,10.800964599609374,0.03506249934434891,1.3197250366210938,0.6377249956130981
1772534578511874600,10.81087451171875,-0.03629999980330467,1.0866625308990479,0.6674249768257141
1772534578521784000,10.8207841796875,-0.10862500220537186,0.9312874674797058,0.7908999919891357
1772534578531693800,10.83069384765625,-0.07246249914169312,0.8483750224113464,0.891962468624115
1772534578541603600,10.840603515625,-0.0340999998152256,0.7482749819755554,0.8515374660491943
1772534578551513600,10.850513671875,-0.0032999999821186066,0.7929624915122986,0.7441499829292297
1772534578561423000,10.860423095703124,0.06159999966621399,0.9696499705314636,0.6557375192642212
1772534578571332900,10.870332763671875,0.09253749996423721,1.0643874406814575,0.602524995803833
1772534578581242600,10.88024267578125,0.07232499867677689,0.9366499781608582,0.572825014591217
1772534578591152400,10.89015234375,0.06902500241994858,0.7132124900817871,0.585474967956543
1772534578601062100,10.900062255859375,0.16169999539852142,0.519474983215332,0.6260374784469604
1772534578610972000,10.909971923828126,0.3053874969482422,0.48647499084472656,0.7291625142097473
1772534578620882000,10.9198818359375,0.4553999900817871,0.6429499983787537,0.929224967956543
1772534578630791400,10.92979150390625,0.6096749901771545,0.648312509059906,1.1420749425888062
1772534578640701400,10.939701416015625,0.7863624691963196,0.4620000123977661,1.2740750312805176
1772534578650611200,10.949611083984376,0.9747374653816223,0.4503124952316284,1.474137544631958
1772534578660521000,10.95952099609375,1.133275032043457,0.42473748326301575,1.7060999870300293
1772534578670430700,10.9694306640625,1.2396999597549438,0.37894999980926514,1.967900037765503
1772534578680340500,10.979340576171875,1.3227499723434448,0.22687499225139618,2.1573750972747803
1772534578690250200,10.989250244140624,1.4473249912261963,0.03519999980926514,2.1553125381469727
1772534578700160000,10.999159912109375,1.6761250495910645,0.006462499964982271,2.0381624698638916
1772534578710069500,11.009069580078124,1.8921375274658203,0.17036250233650208,1.885949969291687
1772534578719979500,11.0189794921875,2.014512538909912,0.42899999022483826,1.6476625204086304
1772534578729889300,11.02888916015625,2.01877498626709,0.73232501745224,1.3050124645233154
1772534578739799000,11.038799072265626,1.969825029373169,1.131350040435791,0.9240000247955322
1772534578749708500,11.04870849609375,2.0336248874664307,1.6007750034332275,0.5589374899864197
1772534578759618300,11.058618408203126,2.2592625617980957,1.7689374685287476,0.2194499969482422
1772534578769528300,11.0685283203125,2.5093750953674316,1.643262505531311,-0.06476250290870667
1772534578779438000,11.07843798828125,2.5657498836517334,1.3197250366210938,-0.2700499892234802
1772534578789347600,11.08834765625,2.237950086593628,0.9218000173568726,-0.3903625011444092
1772534578799257300,11.09825732421875,1.6685625314712524,0.55673748254776,-0.41167500615119934
1772534578809167400,11.10816748046875,1.0939500331878662,0.23319999873638153,-0.3712500035762787
1772534578819076900,11.118076904296874,0.634149968624115,0.005499999970197678,-0.428725004196167
1772534578828986600,11.127986572265625,0.26276248693466187,-0.284074991941452,-0.6213625073432922
1772534578838896600,11.137896728515624,-0.06503749638795853,-0.5191999673843384,-0.9182249903678894
1772534578848806400,11.147806396484375,-0.26510000228881836,-0.6182000041007996,-1.209862470626831
1772534578858716000,11.1577158203125,-0.4395875036716461,-0.6649500131607056,-1.3737624883651733
1772534578868626000,11.1676259765625,-0.6481750011444092,-0.6384124755859375,-1.435362458229065
1772534578878535700,11.17753564453125,-0.8578624725341797,-0.5787374973297119,-1.4364625215530396
1772534578888445400,11.187445556640625,-1.04087495803833,-0.45210000872612,-1.435362458229065
1772534578898355000,11.19735498046875,-1.205875039100647,-0.2488749921321869,-1.4811500310897827
1772534578908265000,11.207264892578126,-1.382562518119812,-0.0424874983727932,-1.562137484550476
1772534578918174700,11.2171748046875,-1.5719000101089478,0.09693749994039536,-1.6333625316619873
1772534578928084500,11.22708447265625,-1.7688000202178955,0.1714625060558319,-1.6695250272750854
1772534578937994200,11.236994140625,-1.9401249885559082,0.1555124968290329,-1.6600375175476074
1772534578947904000,11.246904052734376,-2.08697509765625,0.016087500378489494,-1.6398249864578247
1772534578957813800,11.256813720703125,-2.2499125003814697,-0.19882500171661377,-1.6142499446868896
1772534578967723300,11.26672314453125,-2.443512439727783,-0.4596624970436096,-1.536562442779541
1772534578977633300,11.27663330078125,-2.6265249252319336,-0.7214624881744385,-1.4194124937057495
1772534578987543000,11.28654296875,-2.710675001144409,-1.040737509727478,-1.2460249662399292
1772534578997452800,11.296452880859375,-2.5530998706817627,-1.5482499599456787,-0.94159996509552
1772534579007362600,11.306362548828124,-2.148712396621704,-2.092062473297119,-0.5275874733924866
1772534579017272300,11.316272216796875,-1.710362434387207,-2.0101125240325928,-0.3063499927520752
1772534579027182000,11.32618212890625,-1.3421374559402466,-1.358912467956543,-0.40424999594688416
1772534579037091800,11.336091796875,-1.0067750215530396,-0.680899977684021,-0.5255249738693237
1772534579047001600,11.346001708984375,-0.6652249693870544,-0.25423750281333923,-0.4606249928474426
1772534579056911400,11.355911376953125,-0.2778874933719635,0.05128749832510948,-0.37441250681877136
1772534579066821000,11.365821044921875,0.15523749589920044,0.3577750027179718,-0.48510000109672546
1772534579076731000,11.37573095703125,0.41923749446868896,0.5311625003814697,-0.6649500131607056
1772534579086640600,11.385640625,0.41813749074935913,0.5598999857902527,-0.6223250031471252
1772534579096550400,11.39555029296875,0.24681249260902405,0.7599624991416931,-0.23925000429153442
1772534579106460200,11.405460205078125,0.09569999575614929,1.550724983215332,0.3811500072479248
1772534579116370200,11.4153701171875,0.13928750157356262,2.77667498588562,0.9451749920845032
1772534579126279700,11.42527978515625,0.1915374994277954,3.8898749351501465,1.365649938583374
1772534579136189400,11.435189453125,0.1190750002861023,3.218324899673462,0.8025875091552734
1772534579146099200,11.44509912109375,-0.08524999767541885,0.7110124826431274,-0.522362470626831
1772534579156009000,11.455009033203124,-0.30016249418258667,-1.1034375429153442,-0.8373749852180481
1772534579165918700,11.464918701171875,-0.11921250075101852,-1.888837456703186,-0.6584874987602234
1772534579175828500,11.474828369140624,0.5618249773979187,-0.37345001101493835,0.22151249647140503
1772534579185738200,11.48473828125,1.0993125438690186,3.8526124954223633,1.9977375268936157
1772534579195648000,11.49464794921875,0.8896250128746033,4.539012432098389,2.240424871444702
1772534579205558000,11.50455810546875,0.5874000191688538,1.6955125331878662,1.3039125204086304
1772534579215467500,11.514467529296875,0.28091248869895935,-0.772475004196167,1.0452749729156494
1772534579225377300,11.524377197265625,0.03189999982714653,-1.821874976158142,0.8387500047683716
1772534579235287000,11.534287109375,-0.08098749816417694,-2.6816625595092773,0.31735000014305115
1772534579245196800,11.54419677734375,-0.27994999289512634,-2.027162551879883,0.3162499964237213
1772534579255106800,11.55410693359375,-0.48647499084472656,-0.9150624871253967,0.4343625009059906
1772534579265016300,11.564016357421876,-0.5556374788284302,-0.3979249894618988,0.16307500004768372
1772534579274926000,11.573926025390625,-0.509850025177002,-0.06270000338554382,-0.25203749537467957
1772534579284835800,11.5838359375,-0.47795000672340393,0.3097875118255615,-0.6032124757766724
1772534579294745900,11.593745849609375,-0.5024250149726868,0.5461499691009521,-0.7862250208854675
1772534579304655400,11.6036552734375,-0.5673249959945679,0.649275004863739,-0.7660124897956848
1772534579314565400,11.6135654296875,-0.5928999781608582,0.6153125166893005,-0.6095374822616577
1772534579324475100,11.62347509765625,-0.6003249883651733,0.38651248812675476,-0.45416250824928284
1772534579334384600,11.633384521484375,-0.6237000226974487,0.03849999979138374,-0.3531000018119812
1772534579344294400,11.64329443359375,-0.6268625259399414,-0.22550000250339508,-0.24461250007152557
1772534579354204400,11.653204345703125,-0.566224992275238,-0.2957625091075897,-0.11577499657869339
1772534579364114200,11.6631142578125,-0.47148749232292175,-0.2147749960422516,0.0034374999813735485
1772534579374023700,11.673023681640625,-0.4119499921798706,-0.09143749624490738,0.08318749815225601
1772534579383933700,11.68293359375,-0.3863750100135803,-0.005224999971687794,0.10766249895095825
1772534579393843500,11.692843505859376,-0.3704249858856201,0.18424999713897705,0.18535000085830688
1772534579403753200,11.702753173828125,-0.3971000015735626,0.46626248955726624,0.28228750824928284
1772534579413662700,11.712662841796876,-0.4193750023841858,0.5024250149726868,0.27582499384880066
1772534579423572700,11.72257275390625,-0.3852750062942505,0.4716250002384186,0.27156248688697815
1772534579433482500,11.732482421875,-0.3396250009536743,0.5769500136375427,0.318450003862381
1772534579443392000,11.74239208984375,-0.3544749915599823,0.585474967956543,0.29919999837875366
1772534579453302000,11.752302001953124,-0.3396250009536743,0.5780500173568726,0.30140000581741333
1772534579463211800,11.762211669921875,-0.24268749356269836,0.7334250211715698,0.4035624861717224
1772534579473121500,11.77212158203125,-0.1331000030040741,0.9025499820709229,0.5120499730110168
1772534579483031300,11.78203125,-0.056512501090765,0.9866999983787537,0.527999997138977
1772534579492941000,11.791941162109374,0.0031624999828636646,0.9887624979019165,0.4801499843597412
1772534579502850800,11.801850830078125,0.04881250113248825,1.0931249856948853,0.4536125063896179
1772534579512760600,11.811760498046874,0.13832500576972961,1.1856625080108643,0.4269374907016754
1772534579522670300,11.82167041015625,0.26496249437332153,1.2579874992370605,0.46213749051094055
1772534579532580000,11.831580078125,0.3702875077724457,1.2942874431610107,0.611050009727478
1772534579542489900,11.84148974609375,0.4862000048160553,1.1356124877929688,0.7675250172615051
1772534579552399600,11.851399658203125,0.6437749862670898,0.9079124927520752,0.9781749844551086
1772534579562309400,11.861309326171876,0.8577250242233276,0.7386500239372253,1.2666499614715576
1772534579572219100,11.87121923828125,1.0885875225067139,0.649275004863739,1.624150037765503
1772534579582129000,11.88112890625,1.3142249584197998,0.5003625154495239,2.0127248764038086
1772534579592038700,11.89103857421875,1.5046625137329102,0.29809999465942383,2.2680625915527344
1772534579601948400,11.900948486328126,1.710087537765503,0.26826250553131104,2.3500125408172607
1772534579611858200,11.910858154296875,1.9421875476837158,0.48537498712539673,2.1977999210357666
1772534579621767700,11.920767578125,2.104987382888794,0.8888000249862671,1.7487249374389648
1772534579631677700,11.930677734375,2.1698875427246094,1.2612874507904053,1.2581249475479126
1772534579641587500,11.94058740234375,2.1804749965667725,1.3612500429153442,0.8665249943733215
1772534579651497200,11.950497314453125,2.2316250801086426,1.1187000274658203,0.5524749755859375
1772534579661406700,11.96040673828125,2.427424907684326,0.6247999668121338,0.38871249556541443
1772534579671316700,11.970316650390625,2.5561249256134033,0.007562499959021807,0.30992498993873596
1772534579681226500,11.9802265625,2.449699878692627,-0.3988874852657318,0.25671249628067017
1772534579691136300,11.99013623046875,2.0825750827789307,-0.3988874852657318,0.17586250603199005
1772534579701045800,12.000045654296875,1.4962749481201172,-0.17544999718666077,0.012924999929964542
1772534579710955800,12.009955810546876,0.8799999952316284,0.10656250268220901,-0.19456249475479126
1772534579730775300,12.029775390625,0.032862499356269836,0.38967499136924744,-0.764912486076355
1772534579740685000,12.03968505859375,-0.2204124927520752,0.22577500343322754,-1.0832250118255615
1772534579750594800,12.0495947265625,-0.4620000123977661,-0.028599999845027924,-1.349287509918213
1772534579760504600,12.059504638671875,-0.6620625257492065,-0.16692499816417694,-1.5493500232696533
1772534579770414300,12.069414306640626,-0.7844374775886536,-0.26592499017715454,-1.6780500411987305
1772534579780324000,12.079323974609375,-0.9079124927520752,-0.37014999985694885,-1.738687515258789
1772534579790233900,12.08923388671875,-1.0547624826431274,-0.42666250467300415,-1.7707250118255615
1772534579800143600,12.0991435546875,-1.1856625080108643,-0.44151249527931213,-1.8046875
1772534579810053400,12.109053466796874,-1.3154624700546265,-0.42336249351501465,-1.8408499956130981
1772534579819963100,12.118963134765625,-1.5442625284194946,-0.4127750098705292,-1.8781124353408813
1772534579829873000,12.128872802734374,-1.8412624597549438,-0.48083749413490295,-1.8919999599456787
1772534579839782700,12.13878271484375,-2.1412875652313232,-0.5692499876022339,-1.888837456703186
1772534579849692400,12.1486923828125,-2.4520375728607178,-0.6500999927520752,-1.8728874921798706
1772534579859602200,12.158602294921875,-2.729787588119507,-0.9139624834060669,-1.7983624935150146
1772534579869512000,12.168511962890625,-2.892587423324585,-1.462037444114685,-1.5588375329971313
1772534579879421700,12.178421630859376,-2.7724125385284424,-2.474174976348877,-1.0181875228881836
1772534579889331500,12.18833154296875,-2.1924374103546143,-3.7597999572753906,-0.4339500069618225
1772534579899241200,12.1982412109375,-1.440999984741211,-4.293987274169922,-0.19346250593662262
1772534579909151000,12.20815087890625,-0.8962249755859375,-3.373425006866455,-0.32010000944137573
1772534579919061000,12.21806103515625,-0.49390000104904175,-1.4918749332427979,-0.5627874732017517
1772534579928970500,12.227970458984375,0.030799999833106995,0.05224999785423279,-0.7926874756813049
1772534579938880300,12.23788037109375,0.5191999673843384,0.6802124977111816,-0.9862874746322632
1772534579948790000,12.2477900390625,0.7203624844551086,0.6802124977111816,-1.10013747215271
1772534579958699800,12.25769970703125,0.634149968624115,0.31404998898506165,-1.0012749433517456
1772534579968609500,12.267609619140625,0.3265624940395355,0.1671999990940094,-0.5425750017166138
1772534579978519300,12.277519287109374,0.027637500315904617,1.1165000200271606,0.25244998931884766
1772534579988429000,12.287428955078125,-0.0681999996304512,2.714937448501587,1.0973875522613525
1772534579998338800,12.2973388671875,-0.047987498342990875,3.1992125511169434,1.6263500452041626
1772534580008248600,12.30724853515625,0.20102499425411224,0.5982624888420105,0.39820000529289246
1772534580018158300,12.317158447265625,0.20528750121593475,-1.0641125440597534,-0.5266249775886536
1772534580028068000,12.327068115234376,0.0765874981880188,-1.9409500360488892,-0.606374979019165
1772534580037977900,12.336977783203125,0.22550000250339508,-1.7920374870300293,-0.406312495470047
1772534580047887600,12.3468876953125,0.38403749465942383,1.1515624523162842,0.7376874685287476
1772534580057797600,12.356797607421875,0.29260000586509705,2.1498124599456787,0.8835750222206116
1772534580067707100,12.36670703125,0.28833749890327454,2.346712589263916,0.5589374899864197
1772534580077617000,12.376616943359375,0.4246000051498413,2.253074884414673,0.5961999893188477
1772534580087527000,12.38652685546875,0.3096500039100647,0.668524980545044,0.3716624975204468
1772534580097436400,12.3964365234375,0.09350000321865082,-1.182224988937378,-0.008249999955296516
1772534580107346200,12.40634619140625,-0.06283749639987946,-1.830262541770935,-0.1732500046491623
1772534580117256000,12.416255859375,-0.3151499927043915,-1.7132500410079956,-0.17544999718666077
1772534580127166000,12.426166015625,-0.6428124904632568,-1.366337537765503,-0.15729999542236328
1772534580137075500,12.436075439453125,-0.8897625207901001,-0.81826251745224,-0.09556250274181366
1772534580146985500,12.4459853515625,-0.9941250085830688,-0.31597501039505005,-0.08167500048875809
1772534580156895200,12.455895263671875,-0.9674500226974487,-0.030662499368190765,-0.19139999151229858
1772534580166805000,12.465804931640625,-0.8738124966621399,0.16183750331401825,-0.3414124846458435
1772534580176714500,12.475714599609375,-0.7727500200271606,0.2927374839782715,-0.4680500030517578
1772534580186624300,12.485624267578125,-0.7386500239372253,0.27582499384880066,-0.558525025844574
1772534580196534300,12.4955341796875,-0.7981874942779541,0.1970375031232834,-0.5872625112533569
1772534580206444000,12.505444091796875,-0.8248624801635742,0.1970375031232834,-0.5329499840736389
1772534580216353500,12.515353515625,-0.7875999808311462,0.267300009727478,-0.45100000500679016
1772534580226263600,12.525263671875,-0.7045499682426453,0.38651248812675476,-0.3722124993801117
1772534580236173300,12.53517333984375,-0.612012505531311,0.6930000185966492,-0.29782500863075256
1772534580246082800,12.545082763671875,-0.5322625041007996,1.1825000047683716,-0.2125750035047531
1772534580255992600,12.55499267578125,-0.44811248779296875,1.466575026512146,-0.09556250274181366
1772534580265902300,12.56490234375,-0.320374995470047,1.188825011253357,0.06297499686479568
1772534580275812400,12.574812255859374,-0.12993749976158142,0.6535375118255615,0.28971248865127563
1772534580285721900,12.584721923828125,0.04138749837875366,0.2523125112056732,0.518512487411499
1772534580295631600,12.594631591796874,0.08401250094175339,0.1863124966621399,0.7004249691963196
1772534580305541400,12.604541259765625,0.0541750006377697,0.26510000228881836,0.7578999996185303
1772534580315451400,12.614451416015624,0.11591249704360962,0.3811500072479248,0.6909375190734863
1772534580325361000,12.62436083984375,0.2297624945640564,0.5524749755859375,0.6249374747276306
1772534580335271000,12.63427099609375,0.3011249899864197,0.5726875066757202,0.5609999895095825
1772534580345180700,12.6441806640625,0.3287625014781952,0.5120499730110168,0.5355625152587891
1772534580355090400,12.65409033203125,0.40755000710487366,0.7429124712944031,0.6536750197410583
1772534580365000000,12.664,0.4670875072479248,1.038812518119812,0.8281624913215637
