time,seconds_elapsed,z,y,x
1772534567952994800,0.251994873046875,8.962950706481934,0.6829500198364258,1.120050072669983
1772534567967858000,0.26685791015625,8.896050453186035,0.6180000305175781,0.9550500512123108
1772534567977767700,0.276767578125,9.10004997253418,0.4069500267505646,0.8130000233650208
1772534567987677400,0.286677490234375,9.303000450134277,0.21105000376701355,0.6769500374794006
1772534567997587200,0.296587158203125,9.41295051574707,0.09405000507831573,0.7080000042915344
1772534568007497200,0.306497314453125,9.459000587463379,0.10305000841617584,0.7249500155448914
1772534568017407000,0.316406982421875,9.600000381469727,0.17505000531673431,0.7150500416755676
1772534568027316700,0.326316650390625,9.720000267028809,0.32295000553131104,0.8059500455856323
1772534568037226500,0.3362265625,9.850950241088867,0.4620000123977661,0.7969500422477722
1772534568047136500,0.346136474609375,9.916050910949707,0.49605002999305725,0.7699500322341919
1772534568057046300,0.35604638671875,9.954000473022461,0.40005001425743103,0.7150500416755676
1772534568066956000,0.3659560546875,9.97800064086914,0.19905000925064087,0.6340500116348267
1772534568076865800,0.37586572265625,9.72705078125,0.11295000463724136,0.5809500217437744
1772534568086775800,0.38577587890625,9.097050666809082,0.2350500077009201,0.6409500241279602
1772534568096685600,0.395685546875,8.221050262451172,0.35895001888275146,0.8659500479698181
1772534568106595300,0.40559521484375,7.801950454711914,0.34005001187324524,0.9640500545501709
1772534568116505000,0.415505126953125,8.752950668334961,0.07905000448226929,0.9379500150680542
1772534568126414800,0.425414794921875,9.937950134277344,-0.2760000228881836,1.158000111579895
1772534568136324600,0.43532470703125,10.480950355529785,-0.6360000371932983,1.2559500932693481
1772534568146234400,0.445234375,10.675050735473633,-0.9610500335693359,1.0150500535964966
1772534568156144400,0.455144287109375,10.761000633239746,-1.141050100326538,0.7060500383377075
1772534568166054100,0.46505419921875,10.812000274658203,-1.0500000715255737,0.612000048160553
1772534568175964000,0.4749638671875,10.627050399780273,-0.6880500316619873,0.6169500350952148
1772534568185874000,0.4848740234375,10.170000076293945,-0.29805001616477966,0.6079500317573547
1772534568195783700,0.49478369140625,9.757950782775879,-0.0990000069141388,0.7660500407218933
1772534568205693400,0.504693359375,9.670050621032715,-0.08295000344514847,1.0309500694274902
1772534568215603500,0.514603515625,9.784050941467285,-0.010950000956654549,1.0219500064849854
1772534568225513200,0.52451318359375,9.835050582885742,-0.031950000673532486,0.8209500312805176
1772534568235423000,0.534423095703125,9.729000091552734,-0.19500000774860382,0.8520000576972961
1772534568245333000,0.5443330078125,9.154950141906738,-0.31200000643730164,1.1490000486373901
1772534568255242800,0.55424267578125,8.824049949645996,-0.29100000858306885,1.3999500274658203
1772534568265152500,0.564152587890625,8.749950408935547,-0.1860000044107437,1.6489500999450684
1772534568275062500,0.5740625,8.958000183105469,-0.11100000888109207,1.7470500469207764
1772534568284972300,0.58397216796875,9.07800006866455,-0.25005000829696655,1.891050100326538
1772534568294882000,0.593882080078125,9.1399507522583,-0.32895001769065857,1.7400001287460327
1772534568304792000,0.6037919921875,9.319950103759766,-0.29805001616477966,1.4620500802993774
1772534568314701800,0.613701904296875,9.27405071258545,-0.41505002975463867,1.1059499979019165
1772534568324611600,0.623611572265625,9.267000198364258,-0.42705002427101135,0.4210500121116638
1772534568334521600,0.633521484375,9.688950538635254,-0.12600000202655792,0.031050002202391624
1772534568344431000,0.64343115234375,10.041000366210938,0.2560500204563141,0.025950001552700996
1772534568354340900,0.6533408203125,10.234950065612793,0.4410000145435333,0.021000001579523087
1772534568364251100,0.663251220703125,10.32300090789795,0.15300001204013824,0.0880500078201294
1772534568374160600,0.67316064453125,10.336950302124023,-0.21405000984668732,0.0880500078201294
1772534568384070400,0.6830703125,10.564950942993164,-0.07800000160932541,-0.10500000417232513
1772534568393980400,0.69298046875,10.624950408935547,0.13695000112056732,-0.20295001566410065
1772534568403890200,0.70289013671875,11.33595085144043,0.08595000207424164,-0.4429500102996826
1772534568413800000,0.712800048828125,11.884050369262695,-0.037050001323223114,-0.7230000495910645
1772534568423710000,0.7227099609375,11.259000778198242,-0.019950000569224358,-0.6100500226020813
1772534568433619700,0.73261962890625,10.24905014038086,0.1270500123500824,-0.32295000553131104
1772534568443529500,0.742529541015625,9.166950225830078,0.031050002202391624,0
1772534568453439500,0.752439453125,8.733000755310059,-0.12105000764131546,0.3469500243663788
1772534568463349200,0.762349365234375,8.85300064086914,-0.09495000541210175,0.4849500358104706
1772534568473259000,0.772259033203125,9.064050674438477,0.07695000618696213,0.1290000081062317
1772534568483169000,0.7821689453125,9.283950805664062,0.22995001077651978,0.3060000240802765
1772534568493078800,0.792078857421875,9.612000465393066,0.14595000445842743,0.6150000095367432
1772534568502988500,0.801988525390625,9.850950241088867,0.012000000104308128,0.49995002150535583
1772534568512898600,0.811898681640625,10.086000442504883,-0.14505000412464142,0.3559500277042389
1772534568522808300,0.821808349609375,9.897000312805176,-0.4320000112056732,0.3150000274181366
1772534568532718000,0.831718017578125,9.865950584411621,-0.43695002794265747,0.21705001592636108
1772534568542628000,0.841628173828125,9.787050247192383,-0.34095001220703125,0.26295000314712524
1772534568552537600,0.85153759765625,9.496950149536133,-0.5110500454902649,0.2749500274658203
1772534568562447400,0.861447265625,9.109050750732422,-0.9610500335693359,0.22200001776218414
1772534568572357400,0.871357421875,8.508000373840332,-1.3729500770568848,-0.1789500117301941
1772534568582267100,0.88126708984375,7.821000576019287,-1.3830000162124634,0.559950053691864
1772534568592177000,0.891177001953125,7.534050464630127,-1.3060500621795654,0.6220500469207764
1772534568602087000,0.9010869140625,6.528000354766846,-1.0549499988555908,1.3399500846862793
1772534568611996700,0.91099658203125,5.860050201416016,-1.5289500951766968,0.6910500526428223
1772534568621906400,0.920906494140625,4.966950416564941,-2.508000135421753,1.8760501146316528
1772534568631816200,0.930816162109375,4.326000213623047,-3.391050100326538,3.8230502605438232
1772534568641726200,0.940726318359375,3.873000144958496,-3.7549502849578857,4.141050338745117
1772534568651636000,0.950635986328125,4.113000392913818,-4.3969502449035645,4.105050086975098
1772534568661545700,0.960545654296875,5.82705020904541,-5.221050262451172,4.381050109863281
1772534568671455700,0.970455810546875,6.616950511932373,-5.19195032119751,4.777950286865234
1772534568681365200,0.980365234375,6.796050548553467,-5.091000080108643,4.495950222015381
1772534568691275000,0.99027490234375,6.970950126647949,-5.613000392913818,3.138000249862671
1772534568701185000,1.00018505859375,7.206000328063965,-6.087000370025635,0.9739500284194946
1772534568711094800,1.0100947265625,7.231950283050537,-6.568050384521484,-0.8500500321388245
1772534568721004500,1.020004638671875,7.132050514221191,-6.7699503898620605,-2.3269500732421875
1772534568730914600,1.02991455078125,7.0219502449035645,-6.589950084686279,-2.9830501079559326
1772534568740824300,1.03982421875,6.543000221252441,-6.499050140380859,-3.0670502185821533
1772534568750734000,1.049734130859375,5.977950096130371,-6.499050140380859,-2.77905011177063
1772534568760644000,1.05964404296875,5.209050178527832,-7.062000274658203,-1.6180500984191895
1772534568770553900,1.069553955078125,4.7470502853393555,-7.312950134277344,-0.21705001592636108
1772534568780463600,1.079463623046875,5.11305046081543,-7.027950286865234,0.4159500300884247
1772534568790373400,1.089373291015625,6.289050102233887,-7.224000453948975,-0.28005000948905945
1772534568800283400,1.099283447265625,8.05305004119873,-7.806000232696533,-2.3359501361846924
1772534568810193200,1.109193115234375,8.85300064086914,-8.3899507522583,-4.375950336456299
1772534568830012700,1.1290126953125,7.314000129699707,-8.635050773620605,-7.029000282287598
1772534568839922400,1.13892236328125,6.2220001220703125,-8.95995044708252,-7.4410505294799805
1772534568849832400,1.14883251953125,5.809950351715088,-9.085050582885742,-7.486050128936768
1772534568859742200,1.1587421875,6.535050392150879,-8.9839506149292,-7.315950393676758
1772534568869652000,1.16865185546875,7.098000526428223,-8.914950370788574,-6.6220502853393555
1772534568879562000,1.17856201171875,7.669950485229492,-8.467050552368164,-5.779050350189209
1772534568889471700,1.1884716796875,8.215950012207031,-8.04104995727539,-5.410050392150879
1772534568899381500,1.198381591796875,8.143950462341309,-7.900050163269043,-6.651000499725342
1772534568909291300,1.208291259765625,7.612950325012207,-7.99500036239624,-9.046950340270996
1772534568919201000,1.218200927734375,6.7699503898620605,-8.484000205993652,-11.700000762939453
1772534568929111000,1.228111083984375,6.088050365447998,-8.392950057983398,-14.734050750732422
1772534568939020800,1.238020751953125,6.283950328826904,-8.37600040435791,-17.662050247192383
1772534568948930600,1.2479306640625,6.919050216674805,-8.68005084991455,-19.441051483154297
1772534568958840300,1.25784033203125,7.848000526428223,-8.220000267028809,-20.2309513092041
1772534568968750000,1.26775,9.193050384521484,-7.6050004959106445,-19.30605125427246
1772534568978660000,1.27766015625,9.187950134277344,-7.219950199127197,-16.536001205444336
1772534568988569900,1.28756982421875,7.759050369262695,-6.433950424194336,-13.29900074005127
1772534568998479600,1.297479736328125,6.543000221252441,-5.673000335693359,-10.975050926208496
1772534569008389600,1.3073896484375,6.01800012588501,-5.395050048828125,-10.01205062866211
1772534569018299400,1.31729931640625,8.860050201416016,-5.296950340270996,-10.01205062866211
1772534569028209200,1.327209228515625,11.245050430297852,-5.188950061798096,-10.110000610351562
1772534569038119000,1.337118896484375,12.010951042175293,-4.927950382232666,-10.326000213623047
1772534569048029000,1.34702880859375,17.326051712036133,-5.023950099945068,-5.940000057220459
1772534569057938400,1.3569384765625,20.770950317382812,-4.210050106048584,-0.8299500346183777
1772534569067848400,1.366848388671875,17.625,-3.6310501098632812,-2.382000207901001
1772534569077758200,1.37675830078125,11.926950454711914,-3.3670501708984375,-9.766050338745117
1772534569087668000,1.38666796875,3.973950147628784,-6.5970001220703125,-10.378050804138184
1772534569097578000,1.396577880859375,4.885950088500977,-8.781000137329102,-8.044050216674805
1772534569107487700,1.40648779296875,5.583000183105469,-7.174050331115723,-6.1810503005981445
1772534569117397500,1.4163974609375,3.0900001525878906,-5.00700044631958,-7.549050331115723
1772534569127307300,1.426307373046875,-0.7159500122070312,-4.6459503173828125,-12.957000732421875
1772534569137217300,1.43621728515625,-7.585050582885742,-6.406050205230713,-11.941950798034668
1772534569147126800,1.446126708984375,-6.237000465393066,-5.979000091552734,-8.365050315856934
1772534569157036800,1.456036865234375,-4.471950054168701,-3.5520002841949463,-6.556950092315674
1772534569166946800,1.46594677734375,1.1080501079559326,-3.9469501972198486,-3.4300501346588135
1772534569176856300,1.475856201171875,-0.45705002546310425,-3.76200008392334,2.0149500370025635
1772534569186766000,1.48576611328125,-2.650050163269043,-2.326050043106079,2.2980000972747803
1772534569196676000,1.495676025390625,-0.7080000042915344,-3.0319502353668213,1.065000057220459
1772534569206585900,1.5055859375,0.8329500555992126,-3.2809500694274902,-1.0459500551223755
1772534569216495600,1.51549560546875,0.7890000343322754,-3.745950222015381,-2.0590500831604004
1772534569226405600,1.525405517578125,1.8310500383377075,-5.259000301361084,-2.809950113296509
1772534569236315400,1.5353154296875,0.853950023651123,-6.103950500488281,-3.5809502601623535
1772534569246225000,1.545224853515625,-3.3730502128601074,-7.717950344085693,-3.8419501781463623
1772534569256135000,1.555135009765625,-3.109950065612793,-8.029050827026367,-1.5649501085281372
1772534569266044700,1.565044677734375,-1.5730500221252441,-8.491050720214844,-0.4900500178337097
1772534569275954400,1.574954345703125,0.07395000010728836,-8.503050804138184,-1.0669500827789307
1772534569285864400,1.584864501953125,1.8379501104354858,-8.079000473022461,-2.8819501399993896
1772534569295774200,1.594774169921875,3.516000270843506,-9.303000450134277,-3.2250001430511475
1772534569305684000,1.60468408203125,2.1780002117156982,-11.568000793457031,-1.5370501279830933
1772534569315594000,1.614593994140625,-0.26295000314712524,-11.232000350952148,-3.81600022315979
1772534569325503700,1.624503662109375,-0.43095001578330994,-10.938000679016113,-7.852950572967529
1772534569335413500,1.63441357421875,1.5580500364303589,-10.074000358581543,-7.567950248718262
1772534569345323300,1.6443232421875,1.9410001039505005,-9.657000541687012,-5.8030500411987305
1772534569355233300,1.6542333984375,1.9549500942230225,-8.244000434875488,-3.8299500942230225
1772534569365143000,1.66414306640625,1.90500009059906,-7.878000259399414,-2.782050132751465
1772534569375052800,1.674052734375,1.4959501028060913,-8.203949928283691,-1.8019500970840454
1772534569384962600,1.683962646484375,1.258950114250183,-7.993050575256348,-2.760000228881836
1772534569394872300,1.693872314453125,0.9829500317573547,-9.92805004119873,-7.110000133514404
1772534569404782300,1.7037822265625,1.3830000162124634,-11.599050521850586,-15.145051002502441
1772534569414692000,1.713692138671875,1.2919501066207886,-11.062050819396973,-19.740001678466797
1772534569424601900,1.723601806640625,0.10500000417232513,-10.074000358581543,-19.94805145263672
1772534569434511600,1.73351171875,0.7849500179290771,-7.870950222015381,-15.69105052947998
1772534569444421400,1.74342138671875,3.2599501609802246,-7.2360005378723145,-9.811050415039062
1772534569454331100,1.7533310546875,1.735050082206726,-6.841050148010254,-6.961950302124023
1772534569464241200,1.7632412109375,0.3679500222206116,-7.3470001220703125,-5.692950248718262
1772534569474151000,1.77315087890625,-0.8260500431060791,-8.110050201416016,-4.482000350952148
1772534569484060700,1.783060791015625,-0.534000039100647,-8.721000671386719,-5.0560503005981445
1772534569493970400,1.792970458984375,-0.3949500322341919,-7.393950462341309,-3.466050148010254
1772534569503880400,1.80288037109375,-0.4140000343322754,-5.722950458526611,-2.032050132751465
1772534569513790200,1.812790283203125,0.28395000100135803,-5.110050201416016,-1.0390501022338867
1772534569523700000,1.822699951171875,0.45705002546310425,-4.915950298309326,-0.41100001335144043
1772534569533609700,1.832609619140625,0.6460500359535217,-5.206050395965576,0.33900001645088196
1772534569543519500,1.84251953125,1.4359500408172607,-5.926950454711914,0.9619500637054443
1772534569553429200,1.85242919921875,3.5329501628875732,-6.433950424194336,0.9379500150680542
1772534569563339300,1.86233935546875,5.476950168609619,-6.517950534820557,0.9880500435829163
1772534569573249000,1.8722490234375,2.836050033569336,-5.853000164031982,1.2109500169754028
1772534569583158800,1.88215869140625,0.4300500154495239,-5.212950229644775,0.39195001125335693
1772534569593068800,1.89206884765625,0.2989500164985657,-4.4760003089904785,-1.0699501037597656
1772534569602978600,1.901978515625,-0.032999999821186066,-3.7549502849578857,-2.311950206756592
1772534569612888000,1.91188818359375,-0.13395000994205475,-3.6480002403259277,-3.0859501361846924
1772534569622798000,1.921798095703125,-0.9070500135421753,-3.96405029296875,-3.0550501346588135
1772534569632707800,1.931707763671875,-0.8520000576972961,-9.729000091552734,-5.901000499725342
1772534569642617600,1.94161767578125,-0.21000000834465027,-24.091951370239258,-10.504950523376465
1772534569652527400,1.95152734375,1.7179501056671143,-39.95295333862305,-14.548951148986816
1772534569662437400,1.961437255859375,3.3820502758026123,-34.474952697753906,-5.829000473022461
1772534569672347100,1.97134716796875,2.6110501289367676,-17.110050201416016,3.186000108718872
1772534569682256600,1.981256591796875,-1.1179500818252563,-8.094000816345215,1.5169501304626465
1772534569692166400,1.99116650390625,-3.1909501552581787,-4.126049995422363,0.8010000586509705
1772534569702076400,2.001076416015625,-3.6319501399993896,-2.4409501552581787,0.7609500288963318
1772534569711986200,2.010986083984375,-3.4519500732421875,-2.5729501247406006,1.4770500659942627
1772534569721896000,2.02089599609375,-0.9480000734329224,-2.4649500846862793,0.9810000658035278
1772534569731806000,2.030805908203125,1.3039500713348389,-2.4600000381469727,0.13095000386238098
1772534569741715700,2.0407158203125,0.07095000147819519,-2.2489500045776367,-0.6919500231742859
1772534569751625200,2.050625244140625,-1.7310000658035278,-2.142000198364258,-1.3399500846862793
1772534569761535200,2.06053515625,-2.0160000324249268,-2.6989500522613525,-1.4149500131607056
1772534569771445000,2.070445068359375,-0.27300000190734863,-3.741000175476074,-1.0990500450134277
1772534569781354800,2.080354736328125,2.326050043106079,-5.37600040435791,-1.5289500951766968
1772534569791264800,2.0902646484375,3.267000198364258,-7.750950336456299,-2.2290000915527344
1772534569801174500,2.100174560546875,5.5489501953125,-12.054000854492188,-2.253000020980835
1772534569811084500,2.11008447265625,8.88900089263916,-16.03995132446289,0.26295000314712524
1772534569820994300,2.119994384765625,9.406050682067871,-16.234050750732422,4.005000114440918
1772534569830904000,2.129904052734375,6.703050136566162,-12.762001037597656,4.060050010681152
1772534569840813600,2.1398134765625,3.2149500846862793,-9.963000297546387,2.616000175476074
1772534569850723600,2.1497236328125,2.3959500789642334,-8.746950149536133,0.26805001497268677
1772534569860633300,2.15963330078125,4.753950119018555,-8.304000854492188,-1.2660000324249268
1772534569870543400,2.16954345703125,4.9960503578186035,-7.926000595092773,-1.7089500427246094
1772534569880453000,2.179453125,6.418050289154053,-7.830000400543213,-2.3770501613616943
1772534569890363000,2.18936279296875,6.448950290679932,-8.434050559997559,-3.8110501766204834
1772534569900272600,2.199272705078125,4.9770002365112305,-9.777000427246094,-4.450050354003906
1772534569910182700,2.2091826171875,4.254000186920166,-12.219000816345215,-3.069000244140625
1772534569920092200,2.219092041015625,2.307000160217285,-14.340001106262207,-0.9330000281333923
1772534569930002000,2.229001953125,-0.5020500421524048,-14.839950561523438,-1.2829500436782837
1772534569939912000,2.238911865234375,-1.3000500202178955,-15.556050300598145,-1.3069500923156738
1772534569949821700,2.24882177734375,-0.9289500713348389,-16.119001388549805,-0.675000011920929
1772534569959731500,2.2587314453125,0.35100001096725464,-16.108951568603516,0.7939500212669373
1772534569969641200,2.26864111328125,1.201050043106079,-16.090051651000977,1.7419500350952148
1772534569979551200,2.27855126953125,1.7419500350952148,-15.748050689697266,1.7620500326156616
1772534569989460700,2.288460693359375,1.0669500827789307,-14.283000946044922,1.0459500551223755
1772534569999370500,2.29837060546875,0.5839500427246094,-11.896050453186035,0.7369500398635864
1772534570009280300,2.3082802734375,1.659000039100647,-9.585000038146973,0.556950032711029
1772534570019190300,2.318190185546875,2.1229500770568848,-8.509950637817383,1.1080501079559326
1772534570029100000,2.32810009765625,2.0440499782562256,-7.837050437927246,1.0150500535964966
1772534570039009800,2.338009765625,2.2240500450134277,-6.94005012512207,0.6700500249862671
1772534570048919600,2.34791943359375,2.635050058364868,-5.889000415802002,-0.009000000543892384
1772534570058829600,2.35782958984375,3.069000244140625,-5.251950263977051,-0.49800002574920654
1772534570068739000,2.367739013671875,3.205050230026245,-4.9930500984191895,-0.7729500532150269
1772534570078649000,2.377649169921875,3.375000238418579,-4.972050189971924,-0.7200000286102295
1772534570088558800,2.387558837890625,3.844050168991089,-5.386050224304199,-0.016050001606345177
1772534570098468600,2.397468505859375,4.22504997253418,-5.75700044631958,0.5929500460624695
1772534570108378400,2.40737841796875,4.182000160217285,-5.781000137329102,0.8059500455856323
1772534570118288400,2.417288330078125,3.7200002670288086,-5.781000137329102,1.065000057220459
1772534570128198100,2.4271982421875,2.989950180053711,-5.848050117492676,1.2079501152038574
1772534570138107600,2.437107666015625,2.2260000705718994,-5.640000343322754,1.543950080871582
1772534570148017700,2.447017578125,1.3830000162124634,-5.4340500831604,1.582050085067749
1772534570157927400,2.456927490234375,1.078950047492981,-5.098050117492676,1.5250500440597534
1772534570167837200,2.466837158203125,1.0410000085830688,-4.300950050354004,0.6430500149726868
1772534570177747000,2.476746826171875,1.0170000791549683,-3.982950210571289,-1.0630500316619873
1772534570187657000,2.486656982421875,1.90500009059906,-6.729000091552734,-3.2029502391815186
1772534570197566700,2.496566650390625,5.058000087738037,-12.106050491333008,-5.817000389099121
1772534570207476500,2.5064765625,6.79395055770874,-12.634950637817383,-4.884000301361084
1772534570217386200,2.51638623046875,5.938950061798096,-10.29900074005127,-3.4260001182556152
1772534570227296000,2.5262958984375,5.428950309753418,-8.515049934387207,-3.117000102996826
1772534570237206000,2.5362060546875,4.096050262451172,-7.299000263214111,-3.0949501991271973
1772534570247115800,2.54611572265625,1.9309500455856323,-6.511050224304199,-3.277050256729126
1772534570257025500,2.556025634765625,0.7080000042915344,-6.612000465393066,-3.031050205230713
1772534570266935300,2.565935302734375,-0.14805001020431519,-6.535050392150879,-2.848950147628784
1772534570276845000,2.575844970703125,0.09495000541210175,-6.505950450897217,-1.4359500408172607
1772534570286754800,2.5857548828125,7.231950283050537,-7.147950172424316,2.9730000495910645
1772534570296664600,2.59566455078125,18.21900177001953,-10.768050193786621,8.36205005645752
1772534570306574600,2.60557470703125,10.96500015258789,-15.154050827026367,6.648000240325928
1772534570316484400,2.615484375,-7.2210001945495605,-15.676051139831543,-1.333050012588501
1772534570326394000,2.62539404296875,-11.944050788879395,-13.324950218200684,-5.329050064086914
1772534570336303900,2.635303955078125,-1.5649501085281372,-13.890000343322754,-6.1810503005981445
1772534570346214000,2.6452138671875,9.222000122070312,-16.093050003051758,-7.434000492095947
1772534570356123400,2.655123291015625,-0.23205001652240753,-18.4320011138916,-5.889000415802002
1772534570366033400,2.665033447265625,1.171950101852417,-21.19005012512207,-6.873000144958496
1772534570375943200,2.674943115234375,8.104050636291504,-21.352951049804688,-10.2610502243042
1772534570385853000,2.68485302734375,5.343000411987305,-16.23900032043457,-8.319000244140625
1772534570395762700,2.6947626953125,0.361050009727478,-13.452000617980957,-1.683000087738037
1772534570405672400,2.70467236328125,-1.9009500741958618,-12.79800033569336,0.7489500641822815
1772534570415582500,2.71458251953125,-3.0520501136779785,-11.934000968933105,2.367000102996826
1772534570425492200,2.7244921875,-1.7089500427246094,-11.230050086975098,2.4340500831604004
1772534570435402000,2.734402099609375,-1.6470000743865967,-10.669950485229492,1.8880500793457031
1772534570445311700,2.744311767578125,-2.9280002117156982,-9.540000915527344,1.5889500379562378
1772534570455221500,2.754221435546875,-1.8409501314163208,-8.167950630187988,0.8419500589370728
1772534570465131500,2.764131591796875,0.46905001997947693,-7.7989501953125,-0.21000000834465027
1772534570475041300,2.774041259765625,1.2679500579833984,-7.963950157165527,-0.7560000419616699
1772534570484950800,2.78395068359375,2.1610500812530518,-8.51294994354248,-1.2829500436782837
1772534570494860800,2.79386083984375,3.129000186920166,-9.346050262451172,-1.6519501209259033
1772534570504770800,2.803770751953125,3.3610501289367676,-9.856050491333008,-2.142000198364258
1772534570514680300,2.813680419921875,3.0210001468658447,-9.724050521850586,-2.442000150680542
1772534570524590000,2.823590087890625,3.0139501094818115,-9.018000602722168,-2.6550002098083496
1772534570534500000,2.8335,3.085050106048584,-8.272950172424316,-2.7739500999450684
1772534570544409900,2.843409912109375,2.439000129699707,-7.809000492095947,-1.6609500646591187
1772534570554319400,2.8533193359375,2.0659501552581787,-7.414050579071045,-0.48600003123283386
1772534570564229400,2.8632294921875,2.2260000705718994,-7.4760003089904785,-0.08295000344514847
1772534570574139100,2.87313916015625,2.427000045776367,-7.741950511932373,-0.39900001883506775
1772534570584049000,2.883048828125,2.0869500637054443,-7.7560505867004395,-0.7270500063896179
1772534570593958700,2.892958740234375,1.9699500799179077,-7.444950580596924,-1.1899501085281372
1772534570603868700,2.90286865234375,1.527000069618225,-6.88200044631958,-1.336050033569336
1772534570613778400,2.9127783203125,1.812000036239624,-6.609000205993652,-1.4839500188827515
1772534570623688200,2.922688232421875,1.5390000343322754,-6.300000190734863,-1.38795006275177
1772534570633598000,2.932597900390625,1.350000023841858,-6.0420002937316895,-1.6710001230239868
1772534570643507700,2.9425078125,1.4479501247406006,-6.220950126647949,-2.571000099182129
1772534570653417700,2.952417724609375,2.590050220489502,-6.631050109863281,-3.358950138092041
1772534570663327500,2.962327392578125,3.526050090789795,-6.802950382232666,-4.057950019836426
1772534570673237200,2.9722373046875,5.997000217437744,-7.3660502433776855,-5.077950477600098
1772534570683147000,2.98214697265625,6.2910003662109375,-8.910000801086426,-5.620950222015381
1772534570693056800,2.992056884765625,5.152050018310547,-11.128950119018555,-5.181000232696533
1772534570702966500,3.001966552734375,4.189050197601318,-13.12605094909668,-4.443000316619873
1772534570712876300,3.011876220703125,4.0410003662109375,-14.730000495910645,-3.0330002307891846
1772534570722786300,3.021786376953125,3.397050142288208,-15.477001190185547,-1.7280000448226929
1772534570732696000,3.031696044921875,1.9120501279830933,-15.051000595092773,-1.3480501174926758
1772534570742605600,3.04160546875,1.6560001373291016,-14.212950706481934,-1.8169500827789307
1772534570752515300,3.051515380859375,2.8650002479553223,-14.271000862121582,-2.311950206756592
1772534570762425300,3.06142529296875,3.1090500354766846,-14.578950881958008,-2.013000011444092
1772534570772335000,3.071335205078125,2.2039501667022705,-14.110050201416016,-0.6700500249862671
1772534570782244900,3.081244873046875,0.8850000500679016,-12.42495059967041,1.102950096130371
1772534570792155000,3.09115478515625,0.22905001044273376,-10.630950927734375,1.8139500617980957
1772534570802064600,3.101064697265625,0.7129500508308411,-9.043950080871582,1.7209501266479492
1772534570811974400,3.110974365234375,0.853950023651123,-7.780050277709961,1.8840000629425049
1772534570821884000,3.1208837890625,0.9120000600814819,-7.224000453948975,1.5079500675201416
1772534570831794000,3.1307939453125,1.6440000534057617,-7.5960001945495605,0.48795002698898315
1772534570841703700,3.14070361328125,2.2980000972747803,-8.08905029296875,-0.5740500092506409
1772534570851613400,3.150613525390625,2.698050022125244,-8.220000267028809,-1.0170000791549683
1772534570861523200,3.160523193359375,2.9110500812530518,-7.882950305938721,-0.8350500464439392
1772534570871433000,3.170432861328125,2.719050168991089,-7.026000499725342,-0.8020500540733337
1772534570881343000,3.180343017578125,2.7240002155303955,-6.049050331115723,-0.8470500111579895
1772534570891252700,3.190252685546875,3.06600022315979,-5.3520002365112305,-0.3040500283241272
1772534570901162500,3.20016259765625,3.3390002250671387,-5.098050117492676,0.6030000448226929
1772534570911072300,3.210072265625,3.3130502700805664,-5.110050201416016,1.2160500288009644
1772534570920982000,3.21998193359375,3.1309502124786377,-5.308950424194336,1.5799500942230225
1772534570930892000,3.22989208984375,2.977950096130371,-5.484000205993652,1.8430501222610474
1772534570940801500,3.239801513671875,3.1620001792907715,-5.716050148010254,1.5580500364303589
1772534570950711300,3.249711181640625,3.1090500354766846,-6.127950191497803,0.9139500260353088
1772534570960621300,3.259621337890625,2.760000228881836,-6.517950534820557,0.05205000191926956
1772534570970531000,3.269531005859375,2.259000062942505,-6.913050174713135,-0.895050048828125
1772534570980440800,3.27944091796875,2.808000087738037,-8.9239501953125,-2.3170502185821533
1772534570990350600,3.2893505859375,3.7729501724243164,-12.781050682067871,-4.972050189971924
1772534571000260600,3.299260498046875,3.2910001277923584,-12.409950256347656,-5.398950099945068
1772534571010170400,3.30917041015625,3.544950246810913,-10.129050254821777,-4.852950096130371
1772534571020080000,3.319080078125,5.3020501136779785,-8.467050552368164,-4.716000080108643
1772534571029990000,3.328989990234375,5.57295036315918,-7.426050186157227,-3.7699501514434814
1772534571039899600,3.338899658203125,4.438050270080566,-6.886950492858887,-3.307950258255005
1772534571049809400,3.348809326171875,2.4850502014160156,-6.346050262451172,-3.1600501537323
1772534571059719400,3.358719482421875,0.5640000104904175,-5.8090500831604,-2.2789502143859863
1772534571069629200,3.368629150390625,-1.0410000085830688,-5.644050121307373,-0.9739500284194946
1772534571079538700,3.37853857421875,-1.3480501174926758,-5.920050144195557,0
1772534571089448700,3.38844873046875,-0.48795002698898315,-6.355050086975098,0.3469500243663788
1772534571099358500,3.3983583984375,5.86305046081543,-7.473000526428223,2.290950059890747
1772534571109268200,3.408268310546875,15.616950988769531,-10.78695011138916,6.250950336456299
1772534571119178000,3.418177978515625,7.2870001792907715,-15.298050880432129,4.579950332641602
1772534571129088000,3.428087890625,-6.049950122833252,-15.109050750732422,1.078950047492981
1772534571138997500,3.43799755859375,-5.502000331878662,-13.627050399780273,-0.5140500068664551
1772534571148907500,3.447907470703125,0.8059500455856323,-14.292000770568848,-3.0930001735687256
1772534571158817300,3.4578173828125,1.998000144958496,-14.200950622558594,-6.423000335693359
1772534571168727000,3.46772705078125,0.8520000576972961,-13.267050743103027,-4.564949989318848
1772534571178636800,3.47763671875,-4.573050022125244,-12.856050491333008,-3.4810502529144287
1772534571188546800,3.487546875,-1.6330500841140747,-13.318050384521484,-4.252050399780273
1772534571198456600,3.49745654296875,8.230950355529785,-16.207950592041016,-5.1160502433776855
1772534571208366000,3.507365966796875,8.227950096130371,-19.92300033569336,-3.4260001182556152
1772534571218276000,3.517276123046875,4.219950199127197,-19.75800132751465,-4.1610002517700195
1772534571228185900,3.527185791015625,3.3700501918792725,-16.44900131225586,-4.876950263977051
1772534571238095600,3.537095703125,-0.9810000658035278,-12.520051002502441,-1.540950059890747
1772534571248005400,3.54700537109375,-1.055999994277954,-10.135950088500977,1.141050100326538
1772534571257915400,3.556915283203125,-0.019050000235438347,-8.830950736999512,3.1120500564575195
1772534571267825000,3.566824951171875,-1.2160500288009644,-8.491050720214844,4.939050197601318
1772534571277735000,3.57673486328125,-1.0360500812530518,-8.002950668334961,4.821000099182129
1772534571287644700,3.586644775390625,1.3140000104904175,-7.975950241088867,3.058950185775757
1772534571297554400,3.596554443359375,1.078950047492981,-8.616000175476074,0.08595000207424164
1772534571307464200,3.606464111328125,-0.17400000989437103,-8.866950035095215,-0.8260500431060791
1772534571317374200,3.616374267578125,0.9520500302314758,-9.339000701904297,-0.3130500018596649
1772534571327284000,3.626283935546875,1.6390501260757446,-10.332000732421875,-1.1370000839233398
1772534571337193500,3.636193359375,1.5630000829696655,-10.710000038146973,-1.9099501371383667
1772534571347103500,3.646103515625,1.8859500885009766,-9.943950653076172,-1.6900501251220703
1772534571357013200,3.65601318359375,0.4249500334262848,-8.315999984741211,-0.8929500579833984
1772534571366923000,3.665923095703125,-0.3130500018596649,-6.975000381469727,-0.5809500217437744
1772534571376832800,3.675832763671875,0.8730000257492065,-6.394050121307373,-0.9259500503540039
1772534571386742800,3.68574267578125,1.1010000705718994,-6.268950462341309,-1.1989500522613525
1772534571396652300,3.69565234375,1.1680500507354736,-6.549000263214111,-2.2290000915527344
1772534571406562300,3.705562255859375,1.7040001153945923,-6.89400053024292,-3.555000066757202
1772534571416472000,3.71547216796875,2.4220499992370605,-7.179000377655029,-4.798050403594971
1772534571426381800,3.7253818359375,3.2220001220703125,-7.26300048828125,-5.580000400543213
1772534571436291600,3.73529150390625,2.8510501384735107,-7.071000099182129,-5.571000099182129
1772534571446201300,3.745201416015625,3.088050127029419,-6.975000381469727,-4.513050079345703
1772534571456111400,3.755111328125,3.586050271987915,-7.267950534820557,-3.7129502296447754
1772534571466020900,3.765020751953125,3.9499502182006836,-7.789950370788574,-2.8150501251220703
1772534571475930600,3.7749306640625,3.495000123977661,-8.128950119018555,-2.4780001640319824
1772534571485840400,3.78484033203125,3.186000108718872,-8.560050010681152,-3.1120500564575195
1772534571495750400,3.79475048828125,3.6529502868652344,-8.884050369262695,-4.015050411224365
1772534571505660200,3.80466015625,3.634050130844116,-8.749950408935547,-4.363950252532959
1772534571515570000,3.81456982421875,4.63200044631958,-9.043950080871582,-4.798050403594971
1772534571525480000,3.82447998046875,5.0370001792907715,-9.613950729370117,-5.014950275421143
1772534571535389400,3.834389404296875,5.389050483703613,-10.252950668334961,-4.036050319671631
1772534571545299500,3.844299560546875,4.666050434112549,-11.268000602722168,-2.389050006866455
1772534571555209200,3.854209228515625,4.546050071716309,-12.700050354003906,-0.5689499974250793
1772534571565119000,3.864118896484375,3.3700501918792725,-14.035950660705566,0.7699500322341919
1772534571575028700,3.87402880859375,0.43995001912117004,-14.43600082397461,1.1059499979019165
1772534571584938500,3.8839384765625,-0.3060000240802765,-13.909050941467285,0.7369500398635864
1772534571594848300,3.89384814453125,1.998000144958496,-14.42400074005127,-0.16695000231266022
1772534571604758300,3.90375830078125,3.436950206756592,-15.136950492858887,-0.8089500665664673
1772534571614668000,3.91366796875,3.114000082015991,-15.516000747680664,-1.024049997329712
1772534571624577800,3.923577880859375,1.6110000610351562,-15.649950981140137,-0.6799500584602356
1772534571634487600,3.933487548828125,0.021000001579523087,-14.371050834655762,0.5550000071525574
1772534571644397600,3.9433974609375,-0.5239500403404236,-11.829000473022461,1.7929500341415405
1772534571654307000,3.95330712890625,-0.534000039100647,-9.300000190734863,3.118950128555298
1772534571664216800,3.963216796875,-0.20100000500679016,-6.886950492858887,3.6289501190185547
1772534571674126800,3.973126953125,-0.18900001049041748,-4.938000202178955,2.9509501457214355
1772534571684036600,3.98303662109375,-0.09495000541210175,-4.207950115203857,1.9099501371383667
1772534571693946400,3.9929462890625,0.28905001282691956,-5.082000255584717,1.3570500612258911
1772534571703856000,4.002856201171875,0.19305001199245453,-5.773950099945068,1.3090500831604004
1772534571713766000,4.012765869140625,0.31095001101493835,-5.817000389099121,1.2300000190734863
1772534571723675600,4.022675537109375,0.9949500560760498,-5.440950393676758,1.2520500421524048
1772534571733585700,4.032585693359375,1.864050030708313,-4.713000297546387,1.3069500923156738
1772534571743495400,4.042495361328125,2.608950138092041,-3.961050271987915,1.4140501022338867
1772534571753405200,4.0524052734375,3.366000175476074,-3.3630001544952393,1.0860000848770142
1772534571763315000,4.06231494140625,4.0219502449035645,-3.2689502239227295,0.226950004696846
1772534571773224700,4.072224609375,4.41195011138916,-3.6310501098632812,-0.739050030708313
1772534571783134500,4.082134521484375,4.6180500984191895,-4.378050327301025,-2.080049991607666
1772534571793044200,4.092044189453125,4.582050323486328,-5.443050384521484,-3.4900500774383545
1772534571802954000,4.1019541015625,4.599000453948975,-6.826950550079346,-4.302000045776367
1772534571812864000,4.111864013671875,4.62000036239624,-9.420000076293945,-4.9360504150390625
1772534571822773800,4.121773681640625,3.8560502529144287,-13.449000358581543,-8.03700065612793
1772534571832683500,4.13168359375,3.3820502758026123,-16.279050827026367,-11.377050399780273
1772534571842593300,4.14159326171875,2.4460501670837402,-13.485000610351562,-10.480950355529785
1772534571852503000,4.1515029296875,1.64205002784729,-10.7989501953125,-6.631950378417969
1772534571862412800,4.161412841796875,1.3639500141143799,-9.37695026397705,-3.0949501991271973
1772534571872322800,4.17132275390625,0.9979500770568848,-8.383049964904785,-1.8360000848770142
1772534571882232600,4.181232666015625,-0.15495000779628754,-7.52400016784668,-1.9150501489639282
1772534571892142300,4.191142333984375,-0.41100001335144043,-6.801000118255615,-1.2330000400543213
1772534571902052000,4.201052001953125,-0.39195001125335693,-6.523050308227539,0.39000001549720764
1772534571911961900,4.2109619140625,1.6009501218795776,-6.9370503425598145,1.8790501356124878
1772534571921871600,4.22087158203125,11.701951026916504,-7.963950157165527,6.60705041885376
1772534571931781600,4.23078173828125,14.046000480651855,-11.284950256347656,7.612950325012207
1772534571941691100,4.240691162109375,2.218950033187866,-13.557001113891602,3.475950241088867
1772534571951601200,4.25060107421875,-6.076050281524658,-12.985050201416016,-0.46905001997947693
1772534571961511000,4.260510986328125,-2.4469501972198486,-12.171000480651855,-0.07605000585317612
1772534571971420700,4.270420654296875,3.487950086593628,-12.328950881958008,-0.024000000208616257
1772534571981330400,4.280330322265625,4.612950325012207,-12.015000343322754,0.28005000948905945
1772534571991240200,4.290240234375,-3.0139501094818115,-10.678950309753418,0.12600000202655792
1772534572001150200,4.300150146484375,-7.623000144958496,-9.003000259399414,-1.9170000553131104
1772534572011059700,4.310059814453125,-2.1760501861572266,-9.808050155639648,-0.9570000171661377
1772534572020969700,4.3199697265625,6.598050117492676,-15.25200080871582,-1.76895010471344
1772534572030879500,4.32987939453125,5.410050392150879,-23.5030517578125,-2.8560001850128174
1772534572040789200,4.339789306640625,4.960050106048584,-26.457000732421875,-5.722050189971924
1772534572050699000,4.349698974609375,3.68595027923584,-19.369951248168945,-6.502050399780273
1772534572060608500,4.3596083984375,-0.8299500346183777,-12.451050758361816,-4.453050136566162
1772534572070518500,4.3695185546875,-0.8520000576972961,-9.41295051574707,-2.0470499992370605
1772534572080428300,4.37942822265625,-0.286950021982193,-8.022000312805176,1.0120500326156616
1772534572090338000,4.389338134765625,-0.8230500221252441,-8.541000366210938,3.378000259399414
1772534572100247800,4.399247802734375,-0.5359500050544739,-9.796050071716309,4.024050235748291
1772534572110157600,4.409157470703125,0.11700000613927841,-10.630950927734375,3.835050106048584
1772534572120067300,4.4190673828125,-0.3850500285625458,-11.002950668334961,2.989950180053711
1772534572129977300,4.428977294921875,-1.615950107574463,-10.384950637817383,2.5540502071380615
1772534572139887000,4.43888720703125,-1.429050087928772,-9.370050430297852,3.028050184249878
1772534572149796900,4.448796875,-0.16500000655651093,-8.785050392150879,3.3630001544952393
1772534572159706600,4.45870654296875,0.4159500300884247,-8.683050155639648,1.446000099182129
1772534572169616600,4.46861669921875,0.2959500253200531,-8.692049980163574,-0.6649500131607056
1772534572179526100,4.478526123046875,0.7249500155448914,-8.962950706481934,-1.924950122833252
1772534572189436000,4.488435791015625,0.8130000233650208,-9.340950012207031,-2.880000114440918
1772534572199346000,4.498345947265625,1.2709500789642334,-9.544050216674805,-3.4810502529144287
1772534572209255700,4.508255615234375,2.110949993133545,-9.588000297546387,-3.469050168991089
1772534572219165400,4.51816552734375,2.508000135421753,-9.406050682067871,-3.6319501399993896
1772534572229075200,4.5280751953125,2.350050210952759,-8.8410005569458,-3.555000066757202
1772534572238985000,4.53798486328125,2.650050163269043,-8.224950790405273,-3.736950159072876
1772534572248895000,4.54789501953125,2.0680501461029053,-8.055000305175781,-3.7320001125335693
1772534572258804700,4.5578046875,1.2160500288009644,-8.25195026397705,-3.835050106048584
1772534572268714500,4.567714599609375,1.0840500593185425,-8.308950424194336,-3.8809502124786377
1772534572278624300,4.577624267578125,1.467000126838684,-8.425950050354004,-4.1610002517700195
1772534572288534000,4.587533935546875,0.9330000281333923,-8.35004997253418,-4.242000102996826
1772534572298443800,4.59744384765625,0.18105000257492065,-8.170050621032715,-3.7609500885009766
1772534572308353500,4.607353515625,1.2510000467300415,-7.7749505043029785,-3.9880502223968506
1772534572318263300,4.61726318359375,2.5159502029418945,-7.215000152587891,-3.6480002403259277
1772534572328173300,4.62717333984375,2.5060501098632812,-6.6160502433776855,-3.280050039291382
1772534572338083000,4.6370830078125,3.5119502544403076,-5.979000091552734,-3.996000289916992
1772534572347992800,4.646992919921875,4.900050163269043,-5.553000450134277,-4.831050395965576
1772534572357902800,4.65690283203125,5.389050483703613,-5.47005033493042,-5.2860002517700195
1772534572367812400,4.666812255859375,7.756950378417969,-6.279000282287598,-4.477050304412842
1772534572377722400,4.676722412109375,8.367000579833984,-9.999000549316406,-3.945000171661377
1772534572387631900,4.6866318359375,6.262950420379639,-14.73495101928711,-3.4999501705169678
1772534572397542000,4.6965419921875,3.658050060272217,-17.532001495361328,-2.0590500831604004
1772534572407451600,4.70645166015625,2.073000192642212,-17.341951370239258,-0.895050048828125
1772534572417361400,4.716361328125,1.7730001211166382,-17.43105125427246,-0.44505003094673157
1772534572427271200,4.726271240234375,0.7270500063896179,-17.632051467895508,0.4330500066280365
1772534572437181000,4.736180908203125,0.10905000567436218,-17.224950790405273,1.6080000400543213
1772534572447090700,4.746090576171875,0.8400000333786011,-16.864049911499023,3.061950206756592
1772534572457000700,4.756000732421875,1.8760501146316528,-17.128950119018555,3.873000144958496
1772534572466910200,4.76591015625,1.0219500064849854,-17.098051071166992,3.639000177383423
1772534572476820000,4.775820068359375,-1.0360500812530518,-16.746000289916992,1.711050033569336
1772534572486730000,4.78572998046875,-1.4239500761032104,-16.26300048828125,-0.3060000240802765
1772534572496639700,4.7956396484375,-0.9910500645637512,-15.487051010131836,-1.7230501174926758
1772534572506549500,4.805549560546875,0.4210500121116638,-14.395051002502441,-1.7880001068115234
1772534572516459300,4.815459228515625,1.7779500484466553,-13.08495044708252,-1.3069500923156738
1772534572526369000,4.825369140625,2.379000186920166,-11.647050857543945,-0.700950026512146
1772534572536278800,4.83527880859375,2.8630502223968506,-9.997050285339355,-0.2959500253200531
1772534572546188800,4.845188720703125,2.989950180053711,-8.601000785827637,-0.09300000220537186
1772534572556098600,4.8550986328125,2.6950502395629883,-7.131000518798828,-0.20295001566410065
1772534572566008300,4.86500830078125,2.4409501552581787,-5.982000350952148,-0.1360500007867813
1772534572575918000,4.87491796875,2.7169501781463623,-5.391000270843506,-0.10695000737905502
1772534572585827800,4.884827880859375,2.329050064086914,-4.858950138092041,0.5140500068664551
1772534572595737600,4.894737548828125,1.696950078010559,-4.267950057983398,1.3590000867843628
1772534572605647400,4.9046474609375,1.4239500761032104,-3.640050172805786,2.058000087738037
1772534572615557000,4.91455712890625,1.3039500713348389,-2.986950159072876,2.628000020980835
1772534572625467100,4.924467041015625,1.350000023841858,-2.367000102996826,2.6670000553131104
1772534572635376600,4.934376708984375,1.5460500717163086,-2.098050117492676,2.121000051498413
1772534572645286400,4.944286376953125,1.7760001420974731,-2.1319501399993896,1.7950501441955566
1772534572655196700,4.95419677734375,2.619000196456909,-3.015000104904175,2.0970001220703125
1772534572665106200,4.964106201171875,5.190000057220459,-4.9519500732421875,1.1389501094818115
1772534572675016000,4.974015869140625,7.338000297546387,-6.604050159454346,-0.9120000600814819
1772534572684925400,4.983925537109375,7.669950485229492,-8.446050643920898,-3.0139501094818115
1772534572694835500,4.99383544921875,6.625950336456299,-10.581000328063965,-5.784000396728516
1772534572704745200,5.0037451171875,3.5020501613616943,-12.336000442504883,-10.042950630187988
1772534572714655000,5.013655029296875,-0.5239500403404236,-12.073050498962402,-11.848050117492676
1772534572724564700,5.023564697265625,-3.355950117111206,-10.615050315856934,-10.333050727844238
1772534572734474800,5.033474853515625,-5.035050392150879,-8.593950271606445,-8.224050521850586
1772534572744384500,5.043384521484375,-4.39995002746582,-6.415050506591797,-4.743000030517578
1772534572754294300,5.053294189453125,-0.15105000138282776,-6.007950305938721,0.032999999821186066
1772534572764204000,5.0632041015625,19.969051361083984,-11.11305046081543,8.121000289916992
1772534572774113800,5.07311376953125,33.46095275878906,-21.168001174926758,12.753000259399414
1772534572784023600,5.0830234375,11.326050758361816,-24.544050216674805,2.590050220489502
1772534572793933600,5.09293359375,-10.98900032043457,-22.248001098632812,-7.117950439453125
1772534572803843000,5.102843017578125,-14.362051010131836,-17.1510009765625,-0.984000027179718
1772534572813752800,5.1127529296875,2.2330501079559326,-9.882000923156738,3.7219502925872803
1772534572823662800,5.122662841796875,13.419000625610352,-5.587050437927246,5.005950450897217
1772534572833572600,5.132572509765625,-2.190000057220459,-6.529950141906738,2.7169501781463623
1772534572843482400,5.142482421875,-5.164050102233887,-9.571050643920898,2.427000045776367
1772534572853392400,5.152392333984375,0.9499500393867493,-11.66100025177002,2.1760501861572266
1772534572863302000,5.162302001953125,1.0170000791549683,-12.901050567626953,-1.2229501008987427
1772534572873212000,5.1722119140625,-2.8540501594543457,-13.236001014709473,-4.113000392913818
1772534572883121700,5.18212158203125,-1.9699500799179077,-12.598950386047363,-3.177000045776367
1772534572893031400,5.192031494140625,-2.499000072479248,-12.745950698852539,-3.7699501514434814
1772534572902941200,5.201941162109375,-1.6660500764846802,-12.223950386047363,-3.258000135421753
1772534572912851000,5.211850830078125,0.2650500237941742,-11.055000305175781,-2.620950222015381
1772534572922760700,5.2217607421875,0.5620500445365906,-9.991950035095215,-1.3690500259399414
1772534572932670500,5.23167041015625,-0.11505000293254852,-9.688050270080566,-0.05205000191926956
1772534572942580200,5.241580322265625,0.5140500068664551,-9.79800033569336,0.37995001673698425
1772534572952490200,5.251490234375,0.7339500188827515,-9.951000213623047,0.4830000102519989
1772534572962400000,5.26139990234375,-0.18900001049041748,-10.015950202941895,0.8659500479698181
1772534572972309800,5.271309814453125,-0.46905001997947693,-9.784050941467285,0.7080000042915344
1772534572982219500,5.281219482421875,-0.04500000178813934,-9.346050262451172,0.12195000797510147
1772534572992129300,5.29112939453125,0.6720000505447388,-8.8410005569458,0.1189500093460083
1772534573002039000,5.3010390625,1.6080000400543213,-8.484000205993652,0.361050009727478
1772534573011948800,5.31094873046875,1.9290001392364502,-8.218050003051758,0.3630000054836273
1772534573021858600,5.320858642578125,1.6060501337051392,-7.81095027923584,0.20100000500679016
1772534573031768300,5.330768310546875,1.2660000324249268,-7.504950523376465,-0.16005000472068787
1772534573041678300,5.34067822265625,1.3639500141143799,-7.414050579071045,-0.6889500617980957
1772534573051588000,5.350588134765625,1.1440500020980835,-7.495050430297852,-1.4959501028060913
1772534573061497900,5.360497802734375,0.9619500637054443,-7.7149505615234375,-1.7950501441955566
1772534573071407400,5.370407470703125,0.8970000147819519,-7.948050498962402,-2.1690001487731934
1772534573081317000,5.380317138671875,1.1890500783920288,-8.017050743103027,-2.590050220489502
1772534573091227100,5.39022705078125,1.194000005722046,-7.8160505294799805,-2.9760000705718994
1772534573101137000,5.400136962890625,0.9430500268936157,-7.372950553894043,-2.908950090408325
1772534573111046700,5.410046630859375,0.3820500075817108,-6.94005012512207,-2.8510501384735107
1772534573120956400,5.419956298828125,0.21495001018047333,-6.7819504737854,-3.0829501152038574
1772534573130866200,5.4298662109375,0.4830000102519989,-6.907950401306152,-3.330000162124634
1772534573140776000,5.43977587890625,1.0669500827789307,-7.189050197601318,-3.205050230026245
1772534573150685700,5.449685791015625,1.6900501251220703,-7.512000560760498,-3.1740002632141113
1772534573160595700,5.459595703125,2.350050210952759,-7.603050231933594,-3.3199501037597656
1772534573170505500,5.46950537109375,2.499000072479248,-7.552050590515137,-3.1530001163482666
1772534573180415200,5.479415283203125,1.9390500783920288,-7.464000225067139,-2.7649500370025635
1772534573190325000,5.489324951171875,1.5720000267028809,-7.272000312805176,-1.924950122833252
1772534573200234800,5.49923486328125,2.182950019836426,-6.991950511932373,-0.4830000102519989
1772534573210144500,5.50914453125,1.9699500799179077,-6.89400053024292,0.21000000834465027
1772534573220054500,5.519054443359375,1.812000036239624,-6.834000110626221,0.1570500135421753
1772534573229964000,5.528964111328125,1.3980001211166382,-6.334050178527832,-0.1960500031709671
1772534573239873800,5.538873779296875,1.2300000190734863,-6.03000020980835,-0.9859500527381897
1772534573249783600,5.548783447265625,1.0909500122070312,-6.408000469207764,-2.1469500064849854
1772534573259693600,5.558693603515625,1.5460500717163086,-6.898950099945068,-2.9230501651763916
1772534573269603300,5.568603271484375,2.5660500526428223,-7.191000461578369,-3.4620001316070557
1772534573279513000,5.57851318359375,3.258000135421753,-7.573950290679932,-3.9840002059936523
1772534573289422800,5.5884228515625,3.556950092315674,-7.933050155639648,-4.342950344085693
1772534573299332600,5.59833251953125,4.752000331878662,-8.010000228881836,-4.774050235748291
1772534573309242400,5.608242431640625,5.620950222015381,-7.8160505294799805,-4.549050331115723
1772534573319152000,5.618152099609375,5.551050186157227,-7.504950523376465,-3.397050142288208
1772534573329062000,5.628061767578125,5.797950267791748,-8.242050170898438,-2.6260502338409424
1772534573338971600,5.6379716796875,5.53695011138916,-10.246050834655762,-2.7619500160217285
1772534573348881400,5.64788134765625,5.926950454711914,-12.652050971984863,-2.623950242996216
1772534573358791200,5.657791259765625,4.897950172424316,-15.604050636291504,-2.0179500579833984
1772534573368701200,5.667701171875,2.2039501667022705,-18.20400047302246,-0.9499500393867493
1772534573378611000,5.67761083984375,-1.2280501127243042,-18.520050048828125,-0.06195000186562538
1772534573388520400,5.6875205078125,-3.526050090789795,-17.138999938964844,-0.15300001204013824
1772534573398430500,5.697430419921875,-1.8139500617980957,-16.25295066833496,-2.4180002212524414
1772534573408340200,5.70734033203125,1.311000108718872,-16.28205108642578,-4.024050235748291
1772534573418250000,5.71725,2.6020500659942627,-17.182050704956055,-4.522050380706787
1772534573428160000,5.727159912109375,2.118000030517578,-17.833051681518555,-5.311950206756592
1772534573438069500,5.737069580078125,1.3260000944137573,-17.447999954223633,-4.3909502029418945
1772534573447979500,5.7469794921875,0.9520500302314758,-15.295050621032715,-1.4790000915527344
1772534573457889300,5.75688916015625,1.8259501457214355,-12.283050537109375,-1.1560500860214233
1772534573467799000,5.766799072265625,2.680950164794922,-10.639050483703613,-1.9840500354766846
1772534573477708800,5.776708740234375,3.106950044631958,-10.093050003051758,-2.7739500999450684
1772534573487618600,5.78661865234375,3.2479500770568848,-9.690000534057617,-3.3420002460479736
1772534573497528300,5.7965283203125,3.7729501724243164,-9.324000358581543,-3.9499502182006836
1772534573507438000,5.80643798828125,3.910950183868408,-8.800050735473633,-3.3610501289367676
1772534573517348000,5.81634814453125,3.8110501766204834,-7.581000328063965,-1.9870500564575195
1772534573527257900,5.8262578125,3.8299500942230225,-6.127950191497803,-0.921000063419342
1772534573537167600,5.836167724609375,3.8899502754211426,-5.031000137329102,-0.19095000624656677
1772534573547077400,5.846077392578125,3.5880000591278076,-4.573950290679932,0.18900001049041748
1772534573556987100,5.855987060546875,2.8129501342773438,-4.701000213623047,0.4810500144958496
1772534573566897000,5.86589697265625,1.9549500942230225,-4.846950054168701,1.0500000715255737
1772534573576807000,5.875806884765625,1.429050087928772,-4.543050289154053,1.3830000162124634
1772534573586716400,5.88571630859375,1.102950096130371,-4.006950378417969,1.596000075340271
1772534573596626200,5.895626220703125,1.218000054359436,-3.5329501628875732,1.5480000972747803
1772534573606536200,5.9055361328125,1.9099501371383667,-3.4080002307891846,1.234950065612793
1772534573616446000,5.915446044921875,2.6740500926971436,-3.3199501037597656,0.6820500493049622
1772534573626355700,5.925355712890625,3.2220001220703125,-3.3700501918792725,0.34905001521110535
1772534573636265200,5.93526513671875,3.397050142288208,-3.6090002059936523,0.21000000834465027
1772534573646175200,5.94517529296875,2.9509501457214355,-3.934950113296509,0.33000001311302185
1772534573656085000,5.9550849609375,2.4850502014160156,-4.162050247192383,-0.04500000178813934
1772534573665994800,5.964994873046875,2.269050121307373,-4.267950057983398,-0.7300500273704529
1772534573675904500,5.974904541015625,1.9429501295089722,-4.162050247192383,-1.5630000829696655
1772534573685814300,5.984814208984375,1.9120501279830933,-4.52400016784668,-2.359950065612793
1772534573695724000,5.99472412109375,2.745000123977661,-6.384000301361084,-3.607950210571289
1772534573705633800,6.0046337890625,3.4300501346588135,-10.039950370788574,-5.311950206756592
1772534573715543800,6.014543701171875,3.96405029296875,-11.991000175476074,-7.422000408172607
1772534573725453600,6.02445361328125,3.061950206756592,-9.745950698852539,-6.478050231933594
1772534573735363000,6.034363037109375,2.089050054550171,-8.440950393676758,-5.065950393676758
1772534573745272800,6.04427294921875,0.4759500324726105,-8.191950798034668,-3.856950283050537
1772534573755182800,6.054182861328125,-1.9270501136779785,-8.268000602722168,-3.6480002403259277
1772534573765092600,6.064092529296875,-3.249000072479248,-7.897050380706787,-3.567000150680542
1772534573775002400,6.07400244140625,-3.177000045776367,-7.33905029296875,-2.8849501609802246
1772534573784912400,6.083912353515625,-1.977000117301941,-6.789000511169434,-1.9009500741958618
1772534573794822000,6.09382177734375,3.0349502563476562,-6.481950283050537,-1.0150500535964966
1772534573804731600,6.103731689453125,9.937950134277344,-7.2360005378723145,0.921000063419342
1772534573814641700,6.1136416015625,12.760050773620605,-9.22605037689209,3.1720502376556396
1772534573824551400,6.123551513671875,10.924050331115723,-12.927000999450684,4.3660502433776855
1772534573834461200,6.133461181640625,3.892050266265869,-15.463050842285156,3.3730502128601074
1772534573844370700,6.14337060546875,-0.5790000557899475,-16.528051376342773,-0.33705002069473267
1772534573854280700,6.15328076171875,-4.486050128936768,-17.29905128479004,-4.6369500160217285
1772534573864190500,6.1631904296875,-5.188050270080566,-16.636051177978516,-6.3919501304626465
1772534573874100200,6.173100341796875,1.6110000610351562,-17.433000564575195,-4.836000442504883
1772534573884010000,6.183010009765625,10.167000770568848,-22.471050262451172,-2.6620500087738037
1772534573893919700,6.192919677734375,11.082000732421875,-27.60900115966797,-1.6009501218795776
1772534573903829500,6.20282958984375,4.359000205993652,-26.152952194213867,-5.338950157165527
1772534573913739500,6.212739501953125,5.194950103759766,-16.30095100402832,-9.675000190734863
1772534573923649300,6.222649169921875,1.8240001201629639,-10.06605052947998,-4.81695032119751
1772534573933558800,6.232558837890625,-5.122950077056885,-8.167950630187988,0.5070000290870667
1772534573943468500,6.242468505859375,-7.225050449371338,-8.304000854492188,2.3620500564575195
1772534573953378600,6.252378662109375,-4.398000240325928,-9.211950302124023,3.985950231552124
1772534573963288300,6.262288330078125,-1.8600001335144043,-10.933050155639648,3.4999501705169678
1772534573973198000,6.272197998046875,-3.6750001907348633,-12.918000221252441,0.44505003094673157
1772534573983107600,6.282107666015625,-3.5310001373291016,-13.360950469970703,-1.102950096130371
1772534573993017600,6.292017578125,-1.1080501079559326,-11.647050857543945,-1.290000081062317
1772534574002927400,6.30192724609375,0.6390000581741333,-9.838950157165527,-1.891050100326538
1772534574012837000,6.311837158203125,2.4679501056671143,-9.111000061035156,-1.9170000553131104
1772534574022747000,6.321746826171875,3.05400013923645,-9.135000228881836,-2.080049991607666
1772534574032657000,6.331656982421875,3.4780502319335938,-9.070050239562988,-2.739000082015991
1772534574042566400,6.34156640625,3.741000175476074,-8.782950401306152,-3.1459500789642334
1772534574052476400,6.351476318359375,3.4180500507354736,-8.12700080871582,-3.2719502449035645
1772534574062386200,6.36138623046875,3.1549501419067383,-7.485000133514404,-3.049950122833252
1772534574072296000,6.3712958984375,2.401050090789795,-6.889050483703613,-2.320050001144409
1772534574082205700,6.381205810546875,1.9549500942230225,-6.487050533294678,-1.6440000534057617
1772534574092115500,6.391115478515625,1.8960001468658447,-6.232950210571289,-1.2370500564575195
1772534574102025200,6.401025146484375,1.2660000324249268,-6.106050491333008,-1.0000500679016113
1772534574111935000,6.41093505859375,0.23400001227855682,-6.20205020904541,-0.5119500160217285
1772534574121845000,6.420844970703125,1.1839500665664673,-6.472950458526611,-0.5020500421524048
1772534574131754500,6.43075439453125,2.5039501190185547,-7.074000358581543,-0.28200000524520874
1772534574141664300,6.440664306640625,1.38795006275177,-7.903950214385986,0.1380000114440918
1772534574151574300,6.45057421875,0.4729500114917755,-8.484000205993652,0.0690000057220459
1772534574161484000,6.460484130859375,0.46905001997947693,-8.254050254821777,-0.04005000367760658
1772534574171393500,6.4703935546875,2.061000108718872,-7.959000587463379,-0.8809500336647034
1772534574181303600,6.480303466796875,2.7550501823425293,-7.7659502029418945,-1.6950000524520874
1772534574191213300,6.49021337890625,2.2380001544952393,-7.404000282287598,-2.230950117111206
1772534574201123000,6.500123046875,2.2710001468658447,-6.978000164031982,-2.889000177383423
1772534574211032800,6.51003271484375,2.367000102996826,-6.0319504737854,-2.410950183868408
1772534574220942800,6.51994287109375,1.8720000982284546,-5.503050327301025,-1.3690500259399414
1772534574230852400,6.529852294921875,2.073000192642212,-5.557950496673584,-1.3759500980377197
1772534574240762000,6.53976220703125,1.8400501012802124,-5.749950408935547,-1.467000126838684
1772534574250672000,6.549672119140625,2.070000171661377,-5.814000129699707,-2.013000011444092
1772534574260582000,6.559581787109375,2.1559500694274902,-6.0610504150390625,-2.6670000553131104
1772534574270491600,6.56949169921875,3.0730502605438232,-6.244950294494629,-3.2700002193450928
1772534574280401400,6.5794013671875,4.51200008392334,-6.8610005378723145,-3.756000280380249
1772534574290311200,6.589311279296875,3.616950273513794,-7.468950271606445,-4.153950214385986
1772534574300221000,6.599220947265625,4.222949981689453,-8.138999938964844,-4.933950424194336
1772534574310130700,6.609130615234375,6.001950263977051,-9.717000007629395,-5.14995002746582
1772534574320040400,6.61904052734375,6.313050270080566,-11.839950561523438,-4.522050380706787
1772534574329950200,6.6289501953125,6.543000221252441,-14.73495101928711,-3.7420501708984375
1772534574339860000,6.63885986328125,6.949950218200684,-18.496051788330078,-2.6740500926971436
1772534574349769700,6.648769775390625,4.776000022888184,-21.132001876831055,0.23595000803470612
1772534574359679700,6.6586796875,1.8570001125335693,-21.373950958251953,1.2709500789642334
1772534574369589200,6.66858935546875,1.4929500818252563,-20.24700164794922,0.3850500285625458
1772534574379499000,6.6784990234375,3.2340002059936523,-18.76905059814453,-2.209050178527832
1772534574389408800,6.68840869140625,4.528950214385986,-16.45905113220215,-3.4069502353668213
1772534574399318800,6.69831884765625,4.833000183105469,-14.842950820922852,-2.4250500202178955
1772534574409228500,6.708228515625,3.8370001316070557,-13.794000625610352,-0.0019500000635161996
1772534574419138300,6.71813818359375,2.370000123977661,-12.184950828552246,2.0490000247955322
1772534574429048000,6.728048095703125,2.247000217437744,-10.234050750732422,2.180999994277954
1772534574438957800,6.737957763671875,2.8600502014160156,-8.824049949645996,0.6889500617980957
1772534574448867600,6.74786767578125,2.76705002784729,-8.082000732421875,-0.9619500637054443
1772534574458777600,6.757777587890625,2.722050189971924,-7.7149505615234375,-2.095050096511841
1772534574468687000,6.76768701171875,2.9250001907348633,-7.738950252532959,-3.2320501804351807
1772534574478596900,6.777596923828125,2.608950138092041,-7.930950164794922,-3.5119502544403076
1772534574488506600,6.787506591796875,2.0940001010894775,-7.672050476074219,-3.129000186920166
1772534574498416600,6.797416748046875,1.4650501012802124,-6.77400016784668,-1.6300500631332397
1772534574508326100,6.807326171875,1.1269500255584717,-5.488950252532959,-0.04305000230669975
1772534574518236000,6.81723583984375,1.117050051689148,-4.348950386047363,1.2520500421524048
1772534574528146000,6.82714599609375,1.27305006980896,-3.541950225830078,2.092050075531006
1772534574538055700,6.8370556640625,1.4140501022338867,-3.0679502487182617,2.3479502201080322
1772534574547965400,6.84696533203125,1.371000051498413,-2.994000196456909,2.1850500106811523
1772534574557875200,6.856875244140625,1.2540000677108765,-3.2719502449035645,1.6300500631332397
1772534574567785000,6.866784912109375,1.1269500255584717,-3.6160502433776855,1.2130500078201294
1772534574577694700,6.87669482421875,1.2370500564575195,-3.9900002479553223,0.9930000305175781
1772534574587604500,6.8866044921875,1.1700000762939453,-4.2870001792907715,0.7630500197410583
1772534574597514500,6.896514404296875,1.4620500802993774,-4.5960001945495605,0.361050009727478
1772534574607424000,6.906424072265625,1.5840001106262207,-4.912050247192383,-0.11700000613927841
1772534574617333800,6.916333740234375,1.6200001239776611,-5.338050365447998,-0.8640000224113464
1772534574627243500,6.926243408203125,1.659000039100647,-6.073050498962402,-1.8649500608444214
1772534574637153500,6.936153564453125,1.7419500350952148,-7.25100040435791,-3.4740002155303955
1772534574647063300,6.946063232421875,2.2669501304626465,-9.44895076751709,-5.38200044631958
1772534574656972800,6.955972900390625,4.303950309753418,-12.26205062866211,-7.654050350189209
1772534574666882800,6.9658828125,3.955050230026245,-10.452000617980957,-5.4970502853393555
1772534574676792600,6.97579248046875,3.945000171661377,-9.340950012207031,-2.8219501972198486
1772534574686702300,6.985702392578125,5.085000038146973,-9.025050163269043,-1.6710001230239868
1772534574696612000,6.995612060546875,6.009000301361084,-8.69895076751709,-1.9360500574111938
1772534574706521900,7.00552197265625,5.00100040435791,-8.589000701904297,-2.4780001640319824
1772534574716431600,7.015431640625,2.580000162124634,-8.398050308227539,-2.9010000228881836
1772534574726341400,7.02534130859375,0.32295000553131104,-7.153050422668457,-3.0019500255584717
1772534574736251400,7.03525146484375,-0.2970000207424164,-5.734950065612793,-2.7529501914978027
1772534574746161000,7.045160888671875,0.7060500383377075,-5.086050033569336,-3.0349502563476562
1772534574756070700,7.055070556640625,2.9800500869750977,-4.9830002784729,-3.358950138092041
1772534574765980700,7.064980712890625,7.615050315856934,-5.176950454711914,-2.5039501190185547
1772534574775890400,7.074890380859375,11.344950675964355,-6.327000141143799,-0.2650500237941742
1772534574785800000,7.084800048828125,13.28700065612793,-10.552050590515137,2.6569502353668213
1772534574795710000,7.0947099609375,8.209050178527832,-16.138050079345703,2.0299501419067383
1772534574805619700,7.10461962890625,2.1780002117156982,-17.529001235961914,-2.200050115585327
1772534574815529500,7.114529541015625,-0.6169500350952148,-17.983951568603516,-5.242950439453125
1772534574825439200,7.124439208984375,-8.140049934387207,-16.368000030517578,-7.836000442504883
1772534574835349000,7.134348876953125,-2.205000162124634,-14.086050987243652,-3.4110002517700195
1772534574845259000,7.144259033203125,5.680950164794922,-15.81195068359375,-2.0299501419067383
1772534574855168800,7.154168701171875,-1.1490000486373901,-16.227001190185547,-1.4980500936508179
1772534574865078500,7.16407861328125,1.3470001220703125,-17.505001068115234,-1.0200001001358032
1772534574874988300,7.17398828125,5.551050186157227,-18.874950408935547,-3.037950038909912
1772534574884897800,7.183897705078125,4.587000370025635,-18.553951263427734,-4.4070000648498535
1772534574894807800,7.193807861328125,5.293050289154053,-17.51205062866211,-6.511950492858887
1772534574904717600,7.203717529296875,-0.739050030708313,-15.496050834655762,-4.302000045776367
1772534574914627300,7.21362744140625,-2.797950029373169,-13.545001029968262,-1.1179500818252563
1772534574924537000,7.223537109375,-1.429050087928772,-11.95305061340332,0.9400500655174255
1772534574934446800,7.23344677734375,-1.3260000944137573,-11.25195026397705,2.041949987411499
1772534574944356600,7.243356689453125,-1.2300000190734863,-11.40195083618164,2.4030001163482666
1772534574954266400,7.253266357421875,-1.3999500274658203,-11.569950103759766,1.8720000982284546
1772534574964176100,7.263176025390625,-0.9409500360488892,-10.380000114440918,1.2610501050949097
1772534574974086000,7.2730859375,-0.42600002884864807,-9.09000015258789,0.2460000067949295
1772534574983995600,7.28299560546875,-0.28005000948905945,-8.256000518798828,0.021000001579523087
1772534574993905400,7.292905517578125,0.28200000524520874,-8.11500072479248,-0.286950021982193
1772534575003815400,7.3028154296875,1.1869500875473022,-8.520000457763672,-1.6080000400543213
1772534575013725000,7.312724853515625,2.5470001697540283,-8.778000831604004,-2.509050130844116
1772534575023634700,7.322634765625,2.5060501098632812,-8.878950119018555,-2.6260502338409424
1772534575033544700,7.332544677734375,1.7850000858306885,-8.553000450134277,-2.7739500999450684
1772534575043454500,7.342454345703125,1.8090001344680786,-7.82295036315918,-2.611950159072876
1772534575053364000,7.352364013671875,2.227950096130371,-7.378050327301025,-2.8630502223968506
1772534575063274000,7.36227392578125,2.461050033569336,-7.533000469207764,-2.892000198364258
1772534575073183700,7.372183837890625,2.7619500160217285,-7.938000202178955,-2.845950126647949
1772534575083093500,7.382093505859375,3.0109500885009766,-7.99500036239624,-2.620950222015381
1772534575093003300,7.392003173828125,2.6950502395629883,-7.726950168609619,-1.9390500783920288
1772534575102913000,7.4019130859375,2.1850500106811523,-7.23900032043457,-1.7310000658035278
1772534575112822800,7.41182275390625,1.218000054359436,-7.093050479888916,-1.0120500326156616
1772534575122732500,7.421732666015625,0.8299500346183777,-7.31505012512207,-0.9049500226974487
1772534575132642300,7.431642333984375,1.4070000648498535,-7.569000244140625,-1.4620500802993774
1772534575142552000,7.441552001953125,2.137050151824951,-7.5960001945495605,-1.7760001420974731
1772534575152461800,7.4514619140625,1.3590000867843628,-6.961050510406494,-1.6399500370025635
1772534575162371600,7.46137158203125,1.4449501037597656,-6.376950263977051,-1.218000054359436
1772534575172281600,7.471281494140625,1.0770000219345093,-6.208950519561768,-0.9570000171661377
1772534575182191000,7.481191162109375,-0.39000001549720764,-5.9239501953125,-0.8880000710487366
1772534575192101000,7.49110107421875,-1.0440000295639038,-5.742000102996826,-1.1100000143051147
1772534575202011000,7.501010986328125,0.07095000147819519,-5.734950065612793,-1.9390500783920288
1772534575211920600,7.510920654296875,1.4790000915527344,-5.946000099182129,-3.1410000324249268
1772534575221830100,7.520830078125,1.864050030708313,-6.384000301361084,-3.973950147628784
1772534575231740400,7.530740478515625,2.5039501190185547,-7.132950305938721,-4.288050174713135
1772534575241650000,7.54064990234375,3.5209500789642334,-7.72005033493042,-4.756950378417969
1772534575251559700,7.5505595703125,3.696000099182129,-7.921050548553467,-4.539000034332275
1772534575261469400,7.560469482421875,3.922950267791748,-7.368000507354736,-4.1509504318237305
1772534575271379200,7.570379150390625,5.061000347137451,-7.023000240325928,-3.766050100326538
1772534575281289000,7.5802890625,5.583000183105469,-7.681950569152832,-3.3510000705718994
1772534575291199000,7.590198974609375,5.683050155639648,-8.580000877380371,-3.249000072479248
1772534575301108700,7.600108642578125,6.034950256347656,-10.047000885009766,-3.058950185775757
1772534575311018500,7.6100185546875,6.009000301361084,-12.937050819396973,-2.4460501670837402
1772534575320928000,7.619927978515625,5.194950103759766,-16.536001205444336,-1.7070001363754272
1772534575330838000,7.629838134765625,4.273050308227539,-18.810001373291016,-1.5150001049041748
1772534575340747800,7.639747802734375,3.163950204849243,-18.949050903320312,-1.7590501308441162
1772534575350657500,7.649657470703125,2.053950071334839,-18.52305030822754,-2.0470499992370605
1772534575360567000,7.659567138671875,1.6630500555038452,-17.409000396728516,-1.64205002784729
1772534575370477000,7.66947705078125,2.3340001106262207,-16.75094985961914,-0.7320000529289246
1772534575380386800,7.67938671875,1.738050103187561,-16.38195037841797,-0.4620000123977661
1772534575390296600,7.689296630859375,2.1640501022338867,-16.744050979614258,-1.0290000438690186
1772534575400206300,7.699206298828125,2.121000051498413,-16.621950149536133,-1.810050129890442
1772534575410116000,7.7091162109375,1.9290001392364502,-14.895000457763672,-2.205000162124634
1772534575420025900,7.71902587890625,2.6569502353668213,-12.421950340270996,-0.8160000443458557
1772534575429935600,7.728935546875,3.337050199508667,-9.825000762939453,-0.35895001888275146
1772534575439845600,7.738845703125,3.44700026512146,-7.540950298309326,-1.051050066947937
1772534575449755400,7.74875537109375,3.4800002574920654,-5.998950481414795,-2.8180501461029053
1772534575459665000,7.758664794921875,3.466050148010254,-5.7019500732421875,-4.110000133514404
1772534575469574700,7.76857470703125,2.86995005607605,-6.039000511169434,-4.429050445556641
1772534575479484700,7.778484619140625,2.1040501594543457,-6.375000476837158,-4.486050128936768
1772534575489394400,7.78839453125,1.3900500535964966,-6.553950309753418,-3.3109500408172607
1772534575499304000,7.798303955078125,1.2469500303268433,-6.469950199127197,-1.90500009059906
1772534575509214000,7.8082138671875,1.6390501260757446,-6.300000190734863,-0.9670500755310059
1772534575519123700,7.818123779296875,2.1130499839782715,-5.91195011138916,-0.31095001101493835
1772534575529033500,7.828033447265625,2.1540000438690186,-5.17995023727417,0.23895001411437988
1772534575538943200,7.837943115234375,1.821000099182129,-4.276950359344482,0.89205002784729
1772534575548853000,7.84785302734375,1.4530500173568726,-3.4609501361846924,1.4100000858306885
1772534575558762800,7.8577626953125,1.4239500761032104,-3.15405011177063,1.5580500364303589
1772534575568672500,7.867672607421875,1.659000039100647,-3.097050189971924,1.333050012588501
1772534575578582000,7.87758203125,1.9150501489639282,-3.3580501079559326,0.7180500626564026
1772534575588492000,7.887491943359375,2.25,-3.6040501594543457,0.34905001521110535
1772534575598401800,7.89740185546875,2.290950059890747,-4.074000358581543,0.39195001125335693
1772534575608311600,7.9073115234375,1.9099501371383667,-4.5169501304626465,0.30300000309944153
1772534575618221300,7.91722119140625,1.1959500312805176,-4.98105001449585,0.24105000495910645
1772534575628131000,7.927131103515625,0.7800000309944153,-5.473950386047363,-0.20805001258850098
1772534575638040800,7.937040771484375,1.2400500774383545,-6.130050182342529,-0.47805002331733704
1772534575647950800,7.946950927734375,1.5630000829696655,-7.368000507354736,0.07095000147819519
1772534575657860600,7.956860595703125,1.5510001182556152,-9.682950019836426,-1.1149500608444214
1772534575667770400,7.966770263671875,1.960050106048584,-13.147950172424316,-2.728950023651123
1772534575677680000,7.97668017578125,2.3340001106262207,-13.782000541687012,-2.7120001316070557
1772534575687590000,7.98658984375,2.6430001258850098,-12.589950561523438,-2.092050075531006
1772534575697499600,7.996499755859375,3.217050075531006,-12.058050155639648,-1.9960501194000244
1772534575707409400,8.006409423828124,4.666050434112549,-11.644050598144531,-2.1259500980377197
1772534575717319200,8.016319091796875,5.749950408935547,-10.797000885009766,-2.5849502086639404
1772534575727229000,8.02622900390625,5.425050258636475,-9.894000053405762,-3.4710001945495605
1772534575737138700,8.036138671875,4.2109503746032715,-9.406050682067871,-4.552950382232666
1772534575747048700,8.046048583984375,3.1879501342773438,-8.797050476074219,-4.744950294494629
1772534575756958200,8.055958251953125,2.82705020904541,-7.926000595092773,-3.9619503021240234
1772534575766868000,8.065867919921875,3.20805025100708,-7.195950508117676,-3.121950149536133
1772534575776778000,8.075778076171876,3.5929501056671143,-6.694950103759766,-2.8650002479553223
1772534575786687700,8.085687744140625,4.263000011444092,-6.394050121307373,-2.061000108718872
1772534575796597200,8.09559716796875,4.960050106048584,-6.130050182342529,-1.0120500326156616
1772534575806507300,8.10550732421875,5.122950077056885,-5.865000247955322,-0.6919500231742859
1772534575816417000,8.1154169921875,4.354050159454346,-5.941050052642822,-1.350000023841858
1772534575826326800,8.125326904296875,2.640000104904175,-6.730950355529785,-2.1160500049591064
1772534575836236500,8.135236572265624,1.0530000925064087,-8.38800048828125,-2.3050501346588135
1772534575846146300,8.145146240234375,1.8310500383377075,-11.770950317382812,-2.3479502201080322
1772534575856056000,8.15505615234375,1.7850000858306885,-15.211950302124023,-2.473050117492676
1772534575865965800,8.1649658203125,2.1660001277923584,-16.520999908447266,-2.9059500694274902
1772534575875875600,8.17487548828125,1.4620500802993774,-16.650001525878906,-2.9710500240325928
1772534575885785300,8.184785400390625,-1.5919500589370728,-14.421000480651855,-2.427000045776367
1772534575895695000,8.194695068359374,1.4239500761032104,-12.68595027923584,-1.6249500513076782
1772534575905604900,8.20460498046875,1.8600001335144043,-13.135951042175293,-1.7449500560760498
1772534575915514600,8.2145146484375,2.5159502029418945,-16.12605094909668,-0.3540000021457672
1772534575925424600,8.224424560546876,3.564000129699707,-19.356000900268555,-0.49800002574920654
1772534575935334100,8.234334228515625,1.8739501237869263,-19.54305076599121,-0.7180500626564026
1772534575945244000,8.244243896484376,3.6910502910614014,-16.08795166015625,-2.899050235748291
1772534575955154000,8.25415380859375,2.2759501934051514,-13.10205078125,-3.687000274658203
1772534575965063700,8.264063720703126,-3.14805006980896,-12.25200080871582,-1.8550500869750977
1772534575974973200,8.27397314453125,-3.475950241088867,-12.702000617980957,0.6360000371932983
1772534575984883200,8.28388330078125,-2.947050094604492,-13.356000900268555,3.177000045776367
1772534575994793000,8.29379296875,-2.9760000705718994,-13.55505084991455,4.052999973297119
1772534576004702700,8.30370263671875,-2.092050075531006,-12.895950317382812,2.551950216293335
1772534576014612500,8.313612548828125,-1.6639500856399536,-12.154050827026367,0.35895001888275146
1772534576024522200,8.323522216796874,-0.3660000264644623,-11.433000564575195,-0.5220000147819519
1772534576034432000,8.333431884765625,0.598050057888031,-10.53600025177002,-0.016050001606345177
1772534576044341500,8.343341552734374,1.141050100326538,-10.426050186157227,-0.6700500249862671
1772534576054251500,8.35325146484375,1.812000036239624,-10.58595085144043,-2.427000045776367
1772534576064161300,8.363161376953125,2.0370001792907715,-10.738950729370117,-3.916950225830078
1772534576074071000,8.373071044921875,1.6699501276016235,-10.564050674438477,-4.570050239562988
1772534576083980800,8.382980712890625,1.5510001182556152,-9.766950607299805,-4.5199503898620605
1772534576093890600,8.392890625,1.6900501251220703,-8.63700008392334,-4.314000129699707
1772534576103800300,8.40280029296875,1.6060501337051392,-7.615050315856934,-3.775050163269043
1772534576113710300,8.41271044921875,1.38795006275177,-7.150050163269043,-3.1620001792907715
1772534576123620000,8.4226201171875,1.5000001192092896,-7.054050445556641,-3.280050039291382
1772534576133529600,8.432529541015626,1.7809500694274902,-7.1449503898620605,-2.8339500427246094
1772534576143439400,8.442439453125,1.9720500707626343,-7.405950546264648,-2.5489501953125
1772534576153349400,8.452349365234374,1.6200001239776611,-7.7659502029418945,-2.083050012588501
1772534576163259100,8.462259033203125,1.752000093460083,-7.998000144958496,-1.8310500383377075
1772534576173168600,8.472168701171874,2.242950201034546,-8.118000030517578,-1.7500500679016113
1772534576183078400,8.482078369140625,2.6539502143859863,-8.164950370788574,-1.6279500722885132
1772534576192988400,8.491988525390624,2.3770501613616943,-8.197050094604492,-1.4860501289367676
1772534576202898200,8.501898193359375,2.0749499797821045,-8.11305046081543,-1.4620500802993774
1772534576212808000,8.511807861328125,2.2950000762939453,-7.963950157165527,-1.4620500802993774
1772534576222717700,8.5217177734375,1.9960501194000244,-7.789950370788574,-1.0120500326156616
1772534576232627500,8.53162744140625,1.3159500360488892,-7.7149505615234375,-0.6169500350952148
1772534576242537200,8.541537109375,1.0579500198364258,-7.62000036239624,-0.547950029373169
1772534576252447000,8.551447021484375,1.1509500741958618,-7.414050579071045,-0.7660500407218933
1772534576262356700,8.561356689453126,1.366050124168396,-7.444950580596924,-1.1269500255584717
1772534576272266500,8.5712666015625,1.1100000143051147,-7.737000465393066,-2.02305006980896
1772534576282176300,8.58117626953125,0.9520500302314758,-8.06505012512207,-2.7960002422332764
1772534576292086000,8.5910859375,0.25095000863075256,-8.299050331115723,-3.118950128555298
1772534576301996000,8.60099609375,0.739050030708313,-7.7440505027771,-3.6720001697540283
1772534576311905500,8.610905517578125,2.1880500316619873,-6.865050315856934,-4.085999965667725
1772534576321815300,8.620815185546874,1.2439500093460083,-6.657000541687012,-4.255949974060059
1772534576331725000,8.63072509765625,0.8400000333786011,-6.760050296783447,-3.6600000858306885
1772534576341635000,8.640635009765624,1.5840001106262207,-7.1449503898620605,-3.0450000762939453
1772534576351544800,8.650544921875,1.6990500688552856,-7.4160003662109375,-2.2480502128601074
1772534576361454300,8.660454345703124,1.3980001211166382,-7.308000564575195,-1.4359500408172607
1772534576371364000,8.670364013671875,1.4140501022338867,-7.444950580596924,-0.9619500637054443
1772534576381274000,8.680274169921875,1.6630500555038452,-7.722000598907471,-0.9859500527381897
1772534576391183600,8.69018359375,2.4370501041412354,-7.761000156402588,-1.0720500946044922
1772534576401093600,8.70009375,3.255000114440918,-7.636050224304199,-0.9979500770568848
1772534576411003400,8.71000341796875,3.4639501571655273,-7.600050449371338,-1.024049997329712
1772534576420913000,8.719912841796875,3.5400002002716064,-7.864050388336182,-1.165950059890747
1772534576430822700,8.72982275390625,3.175950050354004,-8.098050117492676,-1.2280501127243042
1772534576440732700,8.739732666015625,4.417050361633301,-8.521950721740723,-1.672950029373169
1772534576450642400,8.749642333984376,5.419950485229492,-9.24000072479248,-2.257050037384033
1772534576460552200,8.75955224609375,6.475950241088867,-10.35105037689209,-2.2260000705718994
1772534576470462000,8.7694619140625,6.808050155639648,-12.394050598144531,-2.073000192642212
1772534576480371700,8.779371826171875,6.436950206756592,-14.842950820922852,-1.755000114440918
1772534576490281500,8.789281494140624,5.698050498962402,-16.66200065612793,-1.1509500741958618
1772534576500191500,8.79919140625,5.0970001220703125,-17.270999908447266,-0.8160000443458557
1772534576510101000,8.80910107421875,4.717950344085693,-17.311050415039062,-1.1130000352859497
1772534576520010800,8.8190107421875,3.454050064086914,-16.854000091552734,-1.1610000133514404
1772534576529920500,8.82892041015625,2.4820501804351807,-16.588050842285156,-0.9910500645637512
1772534576539830500,8.83883056640625,1.4790000915527344,-16.267051696777344,-0.30105000734329224
1772534576549740300,8.848740234375,0.9330000281333923,-15.85995101928711,-1.0909500122070312
1772534576559649800,8.85864990234375,1.1389501094818115,-15.556050300598145,-2.611950159072876
1772534576569559800,8.868559814453125,1.752000093460083,-14.884050369262695,-3.258000135421753
1772534576579469600,8.878469482421876,2.986950159072876,-13.82805061340332,-3.5239500999450684
1772534576589379300,8.88837939453125,4.218000411987305,-12.37695026397705,-3.166950225830078
1772534576599289000,8.8982890625,4.51200008392334,-10.797000885009766,-3.3040502071380615
1772534576609198800,8.90819873046875,4.065000057220459,-9.781050682067871,-3.8140501976013184
1772534576619108600,8.918108642578124,3.0180001258850098,-9.031949996948242,-4.102950096130371
1772534576629018400,8.928018310546875,2.200050115585327,-8.13705062866211,-3.7900502681732178
1772534576638928100,8.93792822265625,2.290950059890747,-7.132950305938721,-3.186000108718872
1772534576648838000,8.947837890625,2.359950065612793,-6.3409504890441895,-2.449050188064575
1772534576658747600,8.95774755859375,1.8840000629425049,-5.4310503005981445,-1.6180500984191895
1772534576668657400,8.967657470703125,1.5460500717163086,-4.495050430297852,-0.8059500455856323
1772534576678567200,8.977567138671875,1.4719500541687012,-3.9370501041412354,-0.05505000427365303
1772534576688477000,8.987476806640625,1.4500501155853271,-3.7099502086639404,0.3469500243663788
1772534576698386700,8.99738671875,1.366050124168396,-3.7669501304626465,0.5550000071525574
1772534576708296400,9.00729638671875,1.2280501127243042,-4.06695032119751,0.5959500074386597
1772534576718206200,9.017206298828125,1.1560500860214233,-4.320000171661377,0.4540500342845917
1772534576728116000,9.027115966796876,1.162950038909912,-4.5169501304626465,0.4540500342845917
1772534576738025700,9.037025634765625,1.158000111579895,-4.549950122833252,0.3940500319004059
1772534576747935700,9.046935791015626,1.1610000133514404,-4.394999980926514,0.42795002460479736
1772534576757845200,9.05684521484375,1.1700000762939453,-4.11899995803833,0.5879999995231628
1772534576767755000,9.066755126953124,1.2630000114440918,-3.8869502544403076,0.5410500168800354
1772534576777665000,9.0766650390625,1.0770000219345093,-3.81000018119812,0.6030000448226929
1772534576787574800,9.08657470703125,0.922950029373169,-3.6910502910614014,0.4759500324726105
1772534576797484500,9.096484619140625,0.7699500322341919,-3.454050064086914,0.5550000071525574
1772534576807394000,9.10639404296875,0.8419500589370728,-3.2430002689361572,0.8710500597953796
1772534576817304000,9.116303955078125,0.8230500221252441,-3.3600001335144043,1.5049500465393066
1772534576827213800,9.1262138671875,0.7800000309944153,-3.5470502376556396,2.092050075531006
1772534576837123600,9.13612353515625,1.1010000705718994,-3.813000202178955,2.6569502353668213
1772534576847033300,9.146033447265625,1.9099501371383667,-4.588050365447998,3.0930001735687256
1772534576856943000,9.155943115234376,3.0139501094818115,-6.1020002365112305,2.158950090408325
1772534576866852900,9.165852783203125,4.038000106811523,-8.371050834655762,1.0909500122070312
1772534576876762400,9.175762451171876,4.768950462341309,-12.480000495910645,-0.9910500645637512
1772534576886672400,9.18567236328125,5.556000232696533,-18.844051361083984,-6.531000137329102
1772534576896582100,9.19558203125,5.476950168609619,-18.243000030517578,-8.506050109863281
1772534576906492000,9.205491943359375,6.139950275421143,-15.26205062866211,-7.896000385284424
1772534576916401700,9.215401611328126,6.361050128936768,-13.162050247192383,-7.788000583648682
1772534576926311400,9.2253115234375,4.79295015335083,-11.572050094604492,-8.038949966430664
1772534576936221200,9.23522119140625,3.1740002632141113,-10.098000526428223,-8.01300048828125
1772534576946131000,9.245130859375,2.479950189590454,-8.581950187683105,-7.077000141143799
1772534576956040700,9.255040771484374,2.2210500240325928,-7.354050159454346,-5.676000118255615
1772534576965950500,9.264950439453125,2.200050115585327,-6.784050464630127,-4.786050319671631
1772534576975860200,9.274860107421874,1.4530500173568726,-6.6190505027771,-3.8929502964019775
1772534576985770200,9.284770263671875,1.1050500869750977,-6.535050392150879,-2.7619500160217285
1772534576995680000,9.294679931640625,1.990950107574463,-6.634950160980225,-1.5919500589370728
1772534577005589800,9.30458984375,5.760000228881836,-8.128950119018555,0.6990000605583191
1772534577015499500,9.31449951171875,7.927050590515137,-11.881050109863281,1.4959501028060913
1772534577025409300,9.3244091796875,1.1650500297546387,-12.385951042175293,-1.1989500522613525
1772534577035319000,9.334319091796875,-4.723050117492676,-10.300950050354004,-4.458000183105469
1772534577045228800,9.344228759765626,-4.723050117492676,-8.572050094604492,-7.069950103759766
1772534577055138600,9.354138671875,-2.1640501022338867,-8.991000175476074,-7.642050266265869
1772534577065048300,9.36404833984375,2.1540000438690186,-13.093050956726074,-7.141050338745117
1772534577074958000,9.3739580078125,5.221050262451172,-17.670000076293945,-2.0370001792907715
1772534577084867800,9.383867919921874,5.590050220489502,-24.738000869750977,0.10005000233650208
1772534577094777900,9.39377783203125,5.7019500732421875,-30.522001266479492,-1.9339500665664673
1772534577104687400,9.403687255859374,10.924050331115723,-27.21105194091797,-4.39995002746582
1772534577114597000,9.41359716796875,5.896050453186035,-15.868050575256348,-3.598050117492676
1772534577124507000,9.4235068359375,-0.04305000230669975,-10.294050216674805,1.3429501056671143
1772534577134416600,9.433416748046875,-3.8400001525878906,-9.243000030517578,5.233050346374512
1772534577144326400,9.443326416015625,-6.250950336456299,-9.373950004577637,6.841950416564941
1772534577154236400,9.453236328125,-4.929000377655029,-9.406050682067871,6.303000450134277
1772534577164146000,9.46314599609375,-1.276050090789795,-9.331050872802734,5.038950443267822
1772534577174055700,9.4730556640625,-2.9449501037597656,-9.577950477600098,2.2450501918792725
1772534577183965400,9.48296533203125,-4.672950267791748,-9.135000228881836,1.6540501117706299
1772534577193875500,9.49287548828125,-3.4639501571655273,-8.842950820922852,2.5440001487731934
1772534577203785000,9.502784912109375,-1.3810501098632812,-9.967950820922852,2.7769501209259033
1772534577213695000,9.512695068359376,-0.5500500202178955,-11.40195083618164,-0.013950000517070293
1772534577223604700,9.522604736328125,-0.27000001072883606,-11.476950645446777,-1.7710500955581665
1772534577233514500,9.532514404296874,1.0890001058578491,-11.3860502243042,-2.719050168991089
1772534577243424000,9.542424072265625,1.6609500646591187,-10.903950691223145,-2.1949501037597656
1772534577253334000,9.552333984375,1.8840000629425049,-10.186050415039062,-2.0710501670837402
1772534577263243800,9.562243896484375,2.997000217437744,-9.640050888061523,-3.136050224304199
1772534577273153500,9.572153564453124,3.409050226211548,-8.994000434875488,-3.7540502548217773
1772534577283063000,9.58206298828125,2.3310000896453857,-8.315999984741211,-3.138000249862671
1772534577292973000,9.59197314453125,1.1100000143051147,-7.762950420379639,-2.5279500484466553
1772534577302882800,9.6018828125,0.18105000257492065,-7.485000133514404,-2.1160500049591064
1772534577312792600,9.61179248046875,-0.6010500192642212,-7.213050365447998,-1.4700000286102295
1772534577322702300,9.621702392578126,-0.7060500383377075,-6.826950550079346,-0.6360000371932983
1772534577332612000,9.631612060546875,-0.27300000190734863,-6.327000141143799,-0.05700000375509262
1772534577342521900,9.64152197265625,0.6190500259399414,-6.324000358581543,-0.14100000262260437
1772534577352431400,9.651431396484375,1.6150500774383545,-6.8959503173828125,-0.8970000147819519
1772534577362341400,9.66134130859375,2.2069501876831055,-7.135950565338135,-1.3450500965118408
1772534577372251100,9.671251220703125,2.7310500144958496,-7.485000133514404,-2.0370001792907715
1772534577382161000,9.681160888671876,2.539950132369995,-8.08395004272461,-2.6070001125335693
1772534577392070700,9.691070556640625,1.8979500532150269,-8.98905086517334,-3.046950101852417
1772534577401980700,9.700980712890624,1.002000093460083,-9.53700065612793,-3.061950206756592
1772534577411890200,9.71089013671875,0.8440500497817993,-10.129050254821777,-2.9659502506256104
1772534577421800000,9.720800048828124,0.9640500545501709,-10.701000213623047,-3.265050172805786
1772534577431709700,9.730709716796875,1.3140000104904175,-11.010000228881836,-3.766050100326538
1772534577441619500,9.740619384765624,1.8190500736236572,-10.087950706481934,-2.593050241470337
1772534577451529200,9.750529296875,2.4679501056671143,-8.97705078125,-2.1040501594543457
1772534577461439200,9.760439208984375,3.544950246810913,-8.632050514221191,-1.4479501247406006
1772534577471349000,9.770348876953125,3.775050163269043,-8.701950073242188,-0.4069500267505646
1772534577481258500,9.780258544921875,3.2100000381469727,-8.754000663757324,-0.22500000894069672
1772534577491168300,9.790168212890626,3.0930001735687256,-8.557950019836426,-0.5650500059127808
1772534577501078000,9.800078125,3.4330501556396484,-8.242050170898438,-1.4599500894546509
1772534577510988000,9.809988037109376,3.982950210571289,-7.761000156402588,-2.4630000591278076
1772534577520897500,9.8198974609375,3.8419501781463623,-7.600050449371338,-3.6630001068115234
1772534577530807300,9.829807373046876,2.937000036239624,-7.6459503173828125,-4.957950115203857
1772534577540717000,9.839717041015625,3.0210001468658447,-7.642950534820557,-4.9870500564575195
1772534577550626800,9.849626708984376,2.994000196456909,-9.825000762939453,-5.362950325012207
1772534577560536600,9.85953662109375,2.307000160217285,-13.095000267028809,-7.0219502449035645
1772534577570446600,9.869446533203124,3.555000066757202,-14.055000305175781,-5.700000286102295
1772534577580356400,9.8793564453125,4.204050064086914,-14.776050567626953,-3.2290501594543457
1772534577590266000,9.88926611328125,3.385050058364868,-15.259050369262695,-2.1450002193450928
1772534577600175900,9.89917578125,2.82705020904541,-15.499051094055176,-0.028050001710653305
1772534577610085600,9.909085693359375,1.9480501413345337,-16.342050552368164,1.9720500707626343
1772534577619995400,9.918995361328125,1.6200001239776611,-17.950050354003906,3.765000104904175
1772534577629905200,9.9289052734375,1.9030500650405884,-19.41105079650879,5.781000137329102
1772534577639815000,9.93881494140625,1.1839500665664673,-19.08300018310547,7.219950199127197
1772534577649724700,9.948724609375,0.3079500198364258,-17.17500114440918,6.1840500831604
1772534577659634400,9.958634521484376,0.11400000751018524,-15.838951110839844,3.1930501461029053
1772534577669544200,9.968544189453125,1.002000093460083,-15.552000999450684,1.2079501152038574
1772534577679454000,9.978453857421876,2.0749499797821045,-15.511051177978516,-0.2370000183582306
1772534577689363700,9.98836376953125,1.6320000886917114,-15.22605037689209,-0.7750500440597534
1772534577699273500,9.9982734375,0.7339500188827515,-14.247000694274902,-2.241000175476074
1772534577709183200,10.008183349609375,1.5360000133514404,-12.814950942993164,-4.126950263977051
1772534577719093200,10.01809326171875,3.7099502086639404,-11.898000717163086,-6.022950172424316
1772534577729002800,10.028002685546875,4.038000106811523,-10.732050895690918,-7.062000274658203
1772534577738912500,10.03791259765625,3.5239500999450684,-9.544050216674805,-5.844000339508057
1772534577748822300,10.047822265625,2.63100004196167,-8.266050338745117,-2.892000198364258
1772534577758732000,10.05773193359375,2.0179500579833984,-6.7819504737854,-0.814050018787384
1772534577768641800,10.067641845703125,1.5679501295089722,-5.485950469970703,0.21195000410079956
1772534577778551800,10.0775517578125,0.781950056552887,-4.744050025939941,0.89205002784729
1772534577788461300,10.08746142578125,0.2989500164985657,-3.973050117492676,1.5049500465393066
1772534577798371000,10.09737109375,0.10500000417232513,-3.544950246810913,2.2829999923706055
1772534577808280800,10.10728076171875,0.37005001306533813,-3.075000047683716,2.6329500675201416
1772534577818190800,10.11719091796875,0.5020500421524048,-2.934000253677368,2.9010000228881836
1772534577828100600,10.1271005859375,0.29100000858306885,-2.884050130844116,3.049950122833252
1772534577838010000,10.137010009765625,0.14295001327991486,-2.968050241470337,3.2119500637054443
1772534577847920000,10.146920166015626,0.10905000567436218,-3.2119500637054443,3.007050037384033
1772534577857830000,10.156829833984375,-0.16500000655651093,-3.561000108718872,3.016050100326538
1772534577867739600,10.16673974609375,-0.226950004696846,-3.9090001583099365,2.748000144958496
1772534577877649400,10.1766494140625,0.26295000314712524,-4.179000377655029,1.891050100326538
1772534577887559200,10.18655908203125,0.934950053691864,-4.372950077056885,0.909000039100647
1772534577897469000,10.196468994140625,1.5510001182556152,-4.569000244140625,0.04305000230669975
1772534577907378700,10.206378662109374,2.110949993133545,-5.151000022888184,0.07395000010728836
1772534577917288400,10.216288330078125,2.9629502296447754,-6.517950534820557,1.1920500993728638
1772534577927198200,10.2261982421875,4.783050060272217,-8.541000366210938,0.9160500168800354
1772534577937108000,10.23610791015625,6.03795051574707,-10.465950965881348,-0.6220500469207764
1772534577947017500,10.246017578125,5.781000137329102,-11.713950157165527,-1.9650001525878906
1772534577956927500,10.255927490234376,5.37000036239624,-12.394050598144531,-3.4330501556396484
1772534577966837200,10.265837158203125,4.5769500732421875,-12.877050399780273,-5.92995023727417
1772534577976747000,10.2757470703125,2.4649500846862793,-12.142050743103027,-8.230950355529785
1772534577986656800,10.28565673828125,0.25095000863075256,-10.924050331115723,-9.433050155639648
1772534577996566500,10.29556640625,-0.1960500031709671,-10.404000282287598,-9.766050338745117
1772534578006476300,10.305476318359375,-0.17205001413822174,-9.717000007629395,-9.634050369262695
1772534578016386000,10.315385986328126,-0.15495000779628754,-8.697000503540039,-8.760000228881836
1772534578026295800,10.3252958984375,1.7179501056671143,-8.926950454711914,-6.9310503005981445
1772534578036205600,10.33520556640625,8.977950096130371,-15.637950897216797,-2.3910000324249268
1772534578046115600,10.345115478515625,12.235950469970703,-24.514951705932617,-0.28395000100135803
1772534578056025000,10.355025146484374,5.47005033493042,-23.728050231933594,-7.491000175476074
1772534578065934800,10.364934814453125,-0.15105000138282776,-18.05805015563965,-14.008050918579102
1772534578075844600,10.3748447265625,-1.951050043106079,-11.821050643920898,-7.764000415802002
1772534578085754400,10.38475439453125,11.254050254821777,-6.994950294494629,4.73805046081543
1772534578095664400,10.394664306640625,12.817950248718262,-4.723050117492676,11.83905029296875
1772534578105574100,10.40457421875,-4.342950344085693,-4.260000228881836,8.689949989318848
1772534578115484000,10.41448388671875,-10.267950057983398,-6.250050067901611,5.347950458526611
1772534578125393700,10.4243935546875,-5.607000350952148,-8.896050453186035,3.8680500984191895
1772534578135303400,10.434303466796875,0.08295000344514847,-10.878000259399414,2.868000030517578
1772534578145213200,10.444213134765626,2.0029501914978027,-11.460000991821289,1.7779500484466553
1772534578155123000,10.454123046875,0.7609500288963318,-11.544000625610352,-0.09495000541210175
1772534578165032700,10.46403271484375,-1.4959501028060913,-12.340950965881348,-2.7619500160217285
1772534578174942200,10.473942138671875,-3.8970000743865967,-12.087000846862793,-3.0109500885009766
1772534578184852000,10.48385205078125,-2.6170501708984375,-11.64900016784668,-2.0869500637054443
1772534578194762000,10.493761962890625,0.3660000264644623,-10.969050407409668,-2.623950242996216
1772534578204671700,10.503671630859374,1.6060501337051392,-10.357950210571289,-3.2149500846862793
1772534578214581500,10.51358154296875,1.6699501276016235,-10.2649507522583,-2.257050037384033
1772534578224491000,10.523490966796874,1.76895010471344,-10.8589506149292,-2.001000165939331
1772534578234401000,10.533401123046875,0.544950008392334,-11.25195026397705,-2.9040000438690186
1772534578244310800,10.543310791015625,-0.31800001859664917,-10.9350004196167,-3.4860000610351562
1772534578254220300,10.55322021484375,-0.3060000240802765,-10.384950637817383,-2.439000129699707
1772534578264130300,10.56313037109375,-0.1360500007867813,-9.955950736999512,-1.1269500255584717
1772534578274040000,10.5730400390625,0.41805002093315125,-9.6739501953125,-0.3750000298023224
1772534578283949800,10.58294970703125,1.1440500020980835,-9.5110502243042,0.19305001199245453
1772534578293859600,10.592859619140626,1.7299500703811646,-9.279000282287598,0.6550500392913818
1772534578303769300,10.602769287109375,1.8310500383377075,-8.970000267028809,0.7729500532150269
1772534578313679000,10.61267919921875,1.960050106048584,-8.613000869750977,0.9550500512123108
1772534578323588900,10.6225888671875,1.9270501136779785,-8.227950096130371,0.687000036239624
1772534578333498600,10.63249853515625,1.7160000801086426,-8.128950119018555,0.6289500594139099
1772534578343408400,10.642408447265625,1.8760501146316528,-8.047950744628906,0.6390000581741333
1772534578353318100,10.652318115234374,2.089050054550171,-8.08395004272461,0.5020500421524048
1772534578363227600,10.6622275390625,2.0220000743865967,-8.206049919128418,0.1960500031709671
1772534578373137700,10.6721376953125,1.9240500926971436,-8.41200065612793,-0.013950000517070293
1772534578383047400,10.68204736328125,1.7040001153945923,-8.592000007629395,-0.2749500274658203
1772534578392957200,10.691957275390624,1.4050500392913818,-8.695050239562988,-0.226950004696846
1772534578402867000,10.701866943359375,1.4190000295639038,-8.52495002746582,-0.6390000581741333
1772534578412776700,10.711776611328125,1.5049500465393066,-8.176950454711914,-1.2330000400543213
1772534578422686500,10.7216865234375,1.4599500894546509,-7.948050498962402,-1.828950047492981
1772534578432596200,10.73159619140625,2.050950050354004,-7.902000427246094,-2.8849501609802246
1772534578442506200,10.74150634765625,1.7329500913619995,-7.797000408172607,-2.9730000495910645
1772534578452415700,10.751415771484375,1.2469500303268433,-7.7659502029418945,-2.9230501651763916
1772534578462325800,10.76132568359375,0.544950008392334,-7.70805025100708,-2.8750500679016113
1772534578472235500,10.771235595703125,0.38700002431869507,-7.597950458526611,-3.0979502201080322
1772534578482145000,10.78114501953125,1.1749500036239624,-7.44195032119751,-3.9880502223968506
1772534578492054800,10.7910546875,1.9240500926971436,-7.464000225067139,-4.491000175476074
1772534578501964500,10.800964599609374,1.6270500421524048,-7.027950286865234,-3.865950107574463
1772534578511874600,10.81087451171875,1.5319501161575317,-6.6910505294799805,-2.521050214767456
1772534578521784000,10.8207841796875,2.788950204849243,-6.6160502433776855,-2.4460501670837402
1772534578531693800,10.83069384765625,1.4119501113891602,-6.484950542449951,-2.193000078201294
1772534578541603600,10.840603515625,0.37800002098083496,-6.262050151824951,-2.0440499782562256
1772534578551513600,10.850513671875,-0.07605000585317612,-6.418050289154053,-2.808000087738037
1772534578561423000,10.860423095703124,0.5860500335693359,-6.817050457000732,-3.3990001678466797
1772534578571332900,10.870332763671875,0.7080000042915344,-7.320000171661377,-3.246000051498413
1772534578581242600,10.88024267578125,1.002000093460083,-7.381950378417969,-3.177000045776367
1772534578591152400,10.89015234375,1.3300501108169556,-7.192950248718262,-3.703050136566162
1772534578601062100,10.900062255859375,1.5649501085281372,-6.784050464630127,-4.371000289916992
1772534578610972000,10.909971923828126,2.5990500450134277,-6.547050476074219,-4.465050220489502
1772534578620882000,10.9198818359375,4.132050037384033,-6.358050346374512,-4.441050052642822
1772534578630791400,10.92979150390625,4.338000297546387,-6.3100504875183105,-4.173000335693359
1772534578640701400,10.939701416015625,4.402050018310547,-6.163950443267822,-3.828000068664551
1772534578650611200,10.949611083984376,5.487000465393066,-6.943950176239014,-3.4330501556396484
1772534578660521000,10.95952099609375,5.650050163269043,-8.447999954223633,-2.8129501342773438
1772534578670430700,10.9694306640625,6.889950275421143,-10.21500015258789,-2.0590500831604004
1772534578680340500,10.979340576171875,6.456000328063965,-12.592050552368164,-1.276050090789795
1772534578690250200,10.989250244140624,5.2669501304626465,-15.292950630187988,-1.1320500373840332
1772534578700160000,10.999159912109375,3.913950204849243,-17.21295166015625,-1.3570500612258911
1772534578710069500,11.009069580078124,2.8150501251220703,-18.130050659179688,-0.8809500336647034
1772534578719979500,11.0189794921875,1.4650501012802124,-18.118051528930664,-0.5839500427246094
1772534578729889300,11.02888916015625,0.7800000309944153,-17.61495018005371,-0.10005000233650208
1772534578739799000,11.038799072265626,1.162950038909912,-17.067001342773438,-0.4210500121116638
1772534578749708800,11.048708740234375,1.2919501066207886,-16.678951263427734,-1.7860500812530518
1772534578759618300,11.058618408203126,1.333050012588501,-16.0260009765625,-3.0949501991271973
1772534578769528300,11.0685283203125,1.2469500303268433,-14.893051147460938,-3.3630001544952393
1772534578779438000,11.07843798828125,1.5600000619888306,-13.192950248718262,-1.7950501441955566
1772534578789347600,11.08834765625,1.5049500465393066,-10.773000717163086,-0.11505000293254852
1772534578799257300,11.09825732421875,2.3580000400543213,-8.395050048828125,-0.4429500102996826
1772534578809167400,11.10816748046875,2.7499501705169678,-7.2270002365112305,-2.061000108718872
1772534578819076900,11.118076904296874,2.7720000743865967,-7.25100040435791,-4.24500036239624
1772534578828986600,11.127986572265625,2.7930002212524414,-7.82295036315918,-5.038950443267822
1772534578838896600,11.137896728515624,2.427000045776367,-7.974000453948975,-4.575000286102295
1772534578848806400,11.147806396484375,2.379000186920166,-7.627050399780273,-3.129000186920166
1772534578858716000,11.1577158203125,2.5489501953125,-7.1260504722595215,-1.141950011253357
1772534578868626000,11.1676259765625,2.476950168609619,-6.48900032043457,0.37800002098083496
1772534578878535700,11.17753564453125,2.4940500259399414,-5.7900004386901855,1.4599500894546509
1772534578888445400,11.187445556640625,2.07705020904541,-5.07705020904541,2.1469500064849854
1772534578898355000,11.19735498046875,1.4980500936508179,-4.402050018310547,2.6640000343322754
1772534578908265000,11.207264892578126,1.2780001163482666,-4.069050312042236,2.949000120162964
1772534578918174700,11.2171748046875,1.4550000429153442,-4.087950229644775,2.9280002117156982
1772534578928084500,11.22708447265625,1.7779500484466553,-4.198050022125244,2.6070001125335693
1772534578937994200,11.236994140625,1.9669500589370728,-4.219950199127197,1.8790501356124878
1772534578947904000,11.246904052734376,1.8790501356124878,-4.342050075531006,1.1650500297546387
1772534578957813800,11.256813720703125,1.918950080871582,-4.723050117492676,0.781950056552887
1772534578967723300,11.26672314453125,1.9579501152038574,-5.118000030517578,0.7200000286102295
1772534578977633300,11.27663330078125,1.807050108909607,-5.416950225830078,0.0690000057220459
1772534578987543000,11.28654296875,2.281050205230713,-6.640050411224365,-1.38795006275177
1772534578997452800,11.296452880859375,3.475950241088867,-9.24000072479248,-3.95205020904541
1772534579007362600,11.306362548828124,4.79295015335083,-10.344000816345215,-4.635000228881836
1772534579017272300,11.316272216796875,5.118000030517578,-9.070050239562988,-3.5880000591278076
1772534579027182000,11.32618212890625,4.986000061035156,-8.580000877380371,-2.868000030517578
1772534579037091800,11.336091796875,5.94195032119751,-8.668050765991211,-2.7240002155303955
1772534579047001600,11.346001708984375,6.733950138092041,-8.592000007629395,-3.106950044631958
1772534579056911400,11.355911376953125,4.630050182342529,-8.331000328063965,-4.249050140380859
1772534579066821000,11.365821044921875,1.162950038909912,-7.753950595855713,-4.857000350952148
1772534579076731000,11.37573095703125,-0.4350000321865082,-6.700050354003906,-3.856950283050537
1772534579086640600,11.385640625,0.6049500107765198,-5.671050071716309,-2.3959500789642334
1772534579096550400,11.39555029296875,2.6040000915527344,-4.81095027923584,-1.4190000295639038
1772534579106460200,11.405460205078125,4.1010003089904785,-5.962950229644775,-1.2610501050949097
1772534579116370200,11.4153701171875,4.954950332641602,-9.111000061035156,-0.7849500179290771
1772534579126279700,11.42527978515625,6.919050216674805,-13.318050384521484,1.8840000629425049
1772534579136189400,11.435189453125,4.299000263214111,-18.061050415039062,4.552950382232666
1772534579146099200,11.44509912109375,-0.5689499974250793,-18.664051055908203,4.182000160217285
1772534579156009000,11.455009033203124,-2.454000234603882,-16.854000091552734,0.27000001072883606
1772534579165918700,11.464918701171875,-5.260050296783447,-16.10700035095215,-6.073950290679932
1772534579175828500,11.474828369140624,9.634050369262695,-19.303050994873047,-11.55405044555664
1772534579185738200,11.48473828125,11.191950798034668,-22.732051849365234,-6.897000312805176
1772534579195648000,11.49464794921875,2.7769501209259033,-24.505950927734375,-4.108050346374512
1772534579205558000,11.50455810546875,7.1010003089904785,-20.61495018005371,-6.213000297546387
1772534579215467500,11.514467529296875,5.218950271606445,-14.068950653076172,-1.6660500764846802
1772534579225377300,11.524377197265625,-7.306950569152832,-11.764050483703613,-0.598050057888031
1772534579235287000,11.534287109375,-7.684950351715088,-11.347050666809082,0.3630000054836273
1772534579245196800,11.54419677734375,-1.5079500675201416,-11.517000198364258,1.6609500646591187
1772534579255106800,11.55410693359375,-2.86995005607605,-12.529950141906738,0.9259500503540039
1772534579265016300,11.564016357421876,-4.402950286865234,-12.496950149536133,-0.1980000138282776
1772534579274926000,11.573926025390625,-3.3229501247406006,-11.224950790405273,-0.8209500312805176
1772534579284835800,11.5838359375,-1.8600001335144043,-9.870000839233398,-0.6340500116348267
1772534579294745900,11.593745849609375,-0.11505000293254852,-9.279000282287598,-0.4020000100135803
1772534579304655400,11.6036552734375,1.8000000715255737,-9.20205020904541,-0.5809500217437744
1772534579314565400,11.6135654296875,3.106950044631958,-9.50100040435791,-1.327950119972229
1772534579324475100,11.62347509765625,3.2719502449035645,-9.25005054473877,-1.852950096130371
1772534579334384600,11.633384521484375,3.3490500450134277,-8.343000411987305,-2.02305006980896
1772534579344294400,11.64329443359375,3.3420002460479736,-7.483050346374512,-2.2210500240325928
1772534579354204400,11.653204345703125,3.2100000381469727,-6.966000556945801,-2.302950143814087
1772534579364114200,11.6631142578125,2.880000114440918,-6.820050239562988,-2.0710501670837402
1772534579374023700,11.673023681640625,2.4100501537323,-7.051950454711914,-1.4740500450134277
1772534579383933700,11.68293359375,2.0850000381469727,-7.248000144958496,-1.1700000762939453
1772534579393843500,11.692843505859376,2.740950107574463,-7.270050525665283,-0.34200000762939453
1772534579403753200,11.702753173828125,1.9390500783920288,-6.892050266265869,0.43800002336502075
1772534579413662700,11.712662841796876,0.6169500350952148,-6.469950199127197,0.49500003457069397
1772534579423572700,11.72257275390625,0.9739500284194946,-6.046950340270996,-0.0880500078201294
1772534579433482500,11.732482421875,0.33705002069473267,-5.818950176239014,-0.598050057888031
1772534579443392000,11.74239208984375,-0.700950026512146,-5.659050464630127,-1.0459500551223755
1772534579453302000,11.752302001953124,0.032999999821186066,-5.356950283050537,-2.16195011138916
1772534579463211800,11.762211669921875,1.1460000276565552,-5.142000198364258,-3.0640501976013184
1772534579473121500,11.77212158203125,1.4070000648498535,-5.038950443267822,-3.295950174331665
1772534579483031300,11.78203125,1.290000081062317,-4.966950416564941,-3.2530500888824463
1772534579492941000,11.791941162109374,1.8930001258850098,-5.248950481414795,-3.6630001068115234
1772534579502850800,11.801850830078125,2.2789502143859863,-5.998950481414795,-3.4860000610351562
1772534579512760600,11.811760498046874,2.058000087738037,-6.910950183868408,-3.5380501747131348
1772534579522670300,11.82167041015625,3.325050115585327,-7.26300048828125,-3.4830002784729004
1772534579532580000,11.831580078125,4.120050430297852,-7.047000408172607,-3.4930500984191895
1772534579542489900,11.84148974609375,4.207950115203857,-6.6190505027771,-3.80400013923645
1772534579552399600,11.851399658203125,4.462050437927246,-6.207000255584717,-4.06695032119751
1772534579562309400,11.861309326171876,4.383000373840332,-6.063000202178955,-4.267950057983398
1772534579572219100,11.87121923828125,5.3959503173828125,-7.006950378417969,-4.1419501304626465
1772534579582129000,11.88112890625,6.148050308227539,-9.112950325012207,-3.6120002269744873
1772534579592038700,11.89103857421875,5.496000289916992,-11.587050437927246,-3.1459500789642334
1772534579601948400,11.900948486328126,5.2260003089904785,-14.6850004196167,-3.198000192642212
1772534579611858200,11.910858154296875,3.696000099182129,-17.75895118713379,-3.0550501346588135
1772534579621767700,11.920767578125,1.5840001106262207,-19.58100128173828,-2.5849502086639404
1772534579631677700,11.930677734375,1.4740500450134277,-20.96700096130371,-3.007050037384033
1772534579641587500,11.94058740234375,1.2799500226974487,-21.385950088500977,-3.5209500789642334
1772534579651497200,11.950497314453125,2.2240500450134277,-20.7679500579834,-4.81695032119751
1772534579661406700,11.96040673828125,3.3199501037597656,-18.83595085144043,-4.80495023727417
1772534579671316700,11.970316650390625,2.239950180053711,-16.47300148010254,-2.3770501613616943
1772534579681226500,11.9802265625,1.3690500259399414,-14.158050537109375,0.6700500249862671
1772534579691136300,11.99013623046875,0.5640000104904175,-10.873050689697266,3.14805006980896
1772534579701045800,12.000045654296875,0.39705002307891846,-7.35105037689209,4.141050338745117
1772534579710955800,12.009955810546876,0.8059500455856323,-4.801950454711914,3.0400500297546387
1772534579730775300,12.029775390625,0.8730000257492065,-4.6650004386901855,-1.4050500392913818
1772534579740685000,12.03968505859375,0.6739500164985657,-5.817000389099121,-2.2240500450134277
1772534579750594800,12.0495947265625,0.8640000224113464,-6.468000411987305,-2.098950147628784
1772534579760504600,12.059504638671875,1.1050500869750977,-6.5400004386901855,-1.2610501050949097
1772534579770414300,12.069414306640626,1.5720000267028809,-6.12600040435791,0.07605000585317612
1772534579780324000,12.079323974609375,1.9579501152038574,-5.484000205993652,1.443000078201294
1772534579790233900,12.08923388671875,2.0250000953674316,-4.6080002784729,2.0250000953674316
1772534579800143600,12.0991435546875,2.1660001277923584,-3.6259500980377197,1.7280000448226929
1772534579810053400,12.109053466796874,2.386050224304199,-3.123000144958496,1.1770501136779785
1772534579819963100,12.118963134765625,2.725950241088867,-2.914950132369995,0.7800000309944153
1772534579829873000,12.128872802734374,2.9389500617980957,-3.1180500984191895,0.1770000010728836
1772534579839782700,12.13878271484375,2.740950107574463,-3.66195011138916,-0.07095000147819519
1772534579849692400,12.1486923828125,2.5440001487731934,-4.368000030517578,0.1189500093460083
1772534579859602200,12.158602294921875,2.757000207901001,-4.974000453948975,-0.37095001339912415
1772534579869512000,12.168511962890625,3.907050132751465,-6.288000106811523,-1.6200001239776611
1772534579879421700,12.178421630859376,5.025000095367432,-9.81705093383789,-4.683000087738037
1772534579889331500,12.18833154296875,4.630050182342529,-11.617950439453125,-6.603000164031982
1772534579899241200,12.1982412109375,4.588950157165527,-10.330050468444824,-5.1060004234313965
1772534579909151000,12.20815087890625,5.392950057983398,-9.616050720214844,-2.9920501708984375
1772534579919061000,12.21806103515625,5.257050037384033,-9.327000617980957,-2.868000030517578
1772534579928970500,12.227970458984375,3.6220502853393555,-8.863950729370117,-4.876950263977051
1772534579938880300,12.23788037109375,1.7160000801086426,-7.933050155639648,-4.122000217437744
1772534579948790000,12.2477900390625,-0.06195000186562538,-6.89400053024292,-2.571000099182129
1772534579958699800,12.25769970703125,-0.6490500569343567,-5.656050205230713,-1.1989500522613525
1772534579968609500,12.267609619140625,1.9939501285552979,-4.821000099182129,0.14505000412464142
1772534579978519300,12.277519287109374,5.398050308227539,-6.382050514221191,0.909000039100647
1772534579988429000,12.287428955078125,9.295950889587402,-10.39905071258545,2.9200501441955566
1772534579998338800,12.2973388671875,10.062000274658203,-15.41295051574707,4.764000415802002
1772534580008248600,12.30724853515625,0.9259500503540039,-18.657001495361328,4.62000036239624
1772534580018158300,12.317158447265625,-0.20295001566410065,-17.93895149230957,3.556950092315674
1772534580028068000,12.327068115234376,-5.911050319671631,-16.30095100402832,-1.6849501132965088
1772534580037977900,12.336977783203125,1.3540500402450562,-15.298050880432129,-3.337050199508667
1772534580047887600,12.3468876953125,5.010000228881836,-17.433000564575195,-3.358950138092041
1772534580057797600,12.356797607421875,-5.4370503425598145,-19.954050064086914,-2.9440500736236572
1772534580067707100,12.36670703125,2.740950107574463,-21.58005142211914,-6.712950229644775
1772534580077617000,12.376616943359375,9.337050437927246,-20.36895179748535,-8.293050765991211
1772534580087526700,12.386526611328126,6.958950519561768,-17.994001388549805,-6.438000202178955
1772534580097436400,12.3964365234375,0.09000000357627869,-15.970050811767578,-3.283950090408325
1772534580107346200,12.40634619140625,-2.611950159072876,-14.508000373840332,-0.23400001227855682
1772534580117256000,12.416255859375,-3.220050096511841,-12.844050407409668,2.1229500770568848
1772534580127166000,12.426166015625,-2.461050033569336,-11.38800048828125,3.129000186920166
1772534580137075500,12.436075439453125,-1.2540000677108765,-9.741000175476074,2.737950086593628
1772534580146985500,12.4459853515625,-1.2229501008987427,-8.671050071716309,2.0250000953674316
1772534580156895200,12.455895263671875,-1.327950119972229,-7.789950370788574,1.38795006275177
1772534580166805000,12.465804931640625,-0.5190000534057617,-7.27500057220459,0.9979500770568848
1772534580176714500,12.475714599609375,-0.32505002617836,-7.179000377655029,0.8590500354766846
1772534580186624300,12.485624267578125,-0.32805001735687256,-7.198050498962402,0.8659500479698181
1772534580196534300,12.4955341796875,0.08100000023841858,-7.119000434875488,0.10200000554323196
1772534580206444000,12.505444091796875,0.6720000505447388,-7.210050106048584,-1.0990500450134277
1772534580216353500,12.515353515625,1.0360500812530518,-7.72005033493042,-2.2290000915527344
1772534580226263600,12.525263671875,1.8840000629425049,-8.343000411987305,-3.0040502548217773
1772534580236173300,12.53517333984375,2.6710500717163086,-8.647050857543945,-3.3349502086639404
1772534580246082800,12.545082763671875,3.6409502029418945,-8.359050750732422,-3.706050157546997
1772534580255992600,12.55499267578125,3.7920002937316895,-7.690950393676758,-4.125
1772534580265902300,12.56490234375,3.487950086593628,-6.772050380706787,-4.494000434875488
1772534580275812400,12.574812255859374,2.974950075149536,-5.929050445556641,-4.5960001945495605
1772534580285721900,12.584721923828125,2.149049997329712,-5.410050392150879,-3.7680001258850098
1772534580295631600,12.594631591796874,1.7400001287460327,-5.529000282287598,-2.230950117111206
1772534580305541400,12.604541259765625,1.327950119972229,-5.968050479888916,-1.2370500564575195
1772534580315451400,12.614451416015624,1.8430501222610474,-6.3409504890441895,-0.6240000128746033
1772534580325361000,12.62436083984375,1.9960501194000244,-6.77400016784668,0.16500000655651093
1772534580335271000,12.63427099609375,0.7729500532150269,-6.8610005378723145,0.8470500111579895
1772534580345180700,12.6441806640625,1.1509500741958618,-7.150050163269043,0.5020500421524048
1772534580355090400,12.65409033203125,2.4030001163482666,-7.5450005531311035,-0.4710000157356262
1772534580365000000,12.664,3.163950204849243,-7.882950305938721,-0.8419500589370728
1772534580374909700,12.67390966796875,3.166950225830078,-7.399050235748291,-1.2330000400543213
1772534580384819700,12.68381982421875,4.126950263977051,-6.577950477600098,-1.9480501413345337
1772534580394729200,12.693729248046875,4.924050331115723,-6.123000144958496,-2.6479501724243164
1772534580404639000,12.703638916015626,5.06505012512207,-6.0199503898620605,-2.623950242996216
1772534580414549000,12.713549072265625,5.2759504318237305,-7.204950332641602,-2.2260000705718994
1772534580424458500,12.72345849609375,5.91795015335083,-8.778000831604004,-1.7760001420974731
1772534580434368300,12.7333681640625,5.797950267791748,-10.825050354003906,-1.9099501371383667
1772534580444278000,12.743278076171874,4.821000099182129,-13.665000915527344,-1.9390500783920288
1772534580454188000,12.75318798828125,3.7680001258850098,-16.471050262451172,-2.6359500885009766
1772534580464097800,12.763097900390624,1.4980500936508179,-17.566951751708984,-3.4210500717163086
1772534580474007300,12.77300732421875,0.8520000576972961,-19.255050659179688,-4.374000072479248
1772534580483917000,12.7829169921875,1.2610501050949097,-20.22705078125,-4.3120503425598145
1772534580493826800,12.792826904296875,2.6760001182556152,-18.516000747680664,-3.0949501991271973
1772534580503736600,12.802736572265625,3.058950185775757,-16.33395004272461,-1.7590501308441162
1772534580513646300,12.812646240234375,1.3900500535964966,-15.202051162719727,-0.7780500650405884
1772534580523556400,12.822556396484375,-0.6490500569343567,-14.341950416564941,-0.547950029373169
1772534580533466000,12.832466064453126,-1.2420001029968262,-13.117050170898438,0.1789500117301941
