time,seconds_elapsed,z,y,x
1772727582931610400,0.0846103515625,0,0,0
1772727582941610500,0.094610595703125,-0.10944104194641113,0.022153854370117188,-0.028694510459899902
1772727582951610400,0.1046103515625,0.002534151077270508,-0.09486770629882812,0.12204575538635254
1772727582961610500,0.114610595703125,-0.12209081649780273,-0.10230159759521484,0.11473226547241211
1772727582971610400,0.1246103515625,-0.06301641464233398,-0.07128429412841797,0.08248710632324219
1772727582981610500,0.134610595703125,0.09409022331237793,0.0022754669189453125,0.01346743106842041
1772727582991610400,0.1446103515625,0.09276652336120605,0.13164520263671875,-0.28269290924072266
1772727583001610500,0.154610595703125,0.13684701919555664,0.23997783660888672,-0.5241323709487915
1772727583011610400,0.1646103515625,0.23163652420043945,0.3451509475708008,-0.7419837713241577
1772727583021610500,0.174610595703125,0.2803051471710205,0.18035221099853516,-0.757601261138916
1772727583031610400,0.1846103515625,0.399852991104126,-0.08734416961669922,-0.7907653450965881
1772727583041610500,0.194610595703125,0.8308136463165283,-0.34930896759033203,-0.7641956806182861
1772727583051610400,0.2046103515625,1.0313730239868164,-0.6538267135620117,-0.7535197138786316
1772727583061610500,0.214610595703125,1.16033935546875,-0.9422979354858398,-0.7952426671981812
1772727583071610400,0.2246103515625,1.2616961002349854,-1.0544538497924805,-0.9585791230201721
1772727583081610500,0.234610595703125,1.2446274757385254,-0.9840660095214844,-1.1102454662322998
1772727583091610400,0.2446103515625,1.3162143230438232,-0.7444849014282227,-1.3381569385528564
1772727583101610500,0.254610595703125,0.9846715927124023,-0.4380950927734375,-1.6413300037384033
1772727583111610400,0.2646103515625,0.7148840427398682,-0.106842041015625,-1.7155590057373047
1772727583121610500,0.274610595703125,0.49279046058654785,0.12059593200683594,-1.5672016143798828
1772727583131610400,0.2846103515625,0.46805500984191895,0.3374671936035156,-1.1905176639556885
1772727583141610500,0.294610595703125,0.5946019887924194,0.4379739761352539,-0.662308394908905
1772727583151610400,0.3046103515625,0.7859505414962769,0.3869209289550781,-0.05886852741241455
1772727583161610500,0.314610595703125,0.8533945083618164,0.25871753692626953,0.23398423194885254
1772727583171610400,0.3246103515625,1.0736504793167114,0.15446090698242188,0.4758954644203186
1772727583181610500,0.334610595703125,1.4444166421890259,0.24177837371826172,0.5191986560821533
1772727583191610400,0.3446103515625,1.4405620098114014,0.3135824203491211,0.28265029191970825
1772727583201610500,0.354610595703125,1.1322468519210815,0.5405244827270508,0.18383225798606873
1772727583211610400,0.3646103515625,0.7459961175918579,1.0500173568725586,0.1875869631767273
1772727583221610500,0.374610595703125,0.8680597543716431,1.1641597747802734,0.5860885977745056
1772727583231610400,0.3846103515625,1.2427494525909424,0.9219083786010742,0.9409163594245911
1772727583241610500,0.394610595703125,1.4454395771026611,0.5100975036621094,1.297090768814087
1772727583251610400,0.4046103515625,1.6335375308990479,0.6649837493896484,1.4245150089263916
1772727583261610500,0.414610595703125,1.566530704498291,1.185990333557129,1.1128588914871216
1772727583271610400,0.4246103515625,1.594763994216919,1.6180839538574219,0.7641439437866211
1772727583281610500,0.434610595703125,1.649656891822815,1.8528833389282227,0.2705422639846802
1772727583291610400,0.4446103515625,1.6821556091308594,1.8251209259033203,-0.30908799171447754
1772727583301610500,0.454610595703125,2.1019446849823,1.5057487487792969,-0.5843238234519958
1772727583311610400,0.4646103515625,2.590095043182373,0.9586572647094727,-0.8024146556854248
1772727583321610500,0.474610595703125,2.6575207710266113,0.28484439849853516,-1.0351344347000122
1772727583331610400,0.4846103515625,2.3680410385131836,-0.309661865234375,-1.1423838138580322
1772727583341610500,0.494610595703125,2.2855048179626465,-0.5498781204223633,-1.2857860326766968
1772727583351610400,0.5046103515625,2.3064494132995605,-0.7552328109741211,-1.4031370878219604
1772727583361610500,0.514610595703125,2.0731778144836426,-0.8622541427612305,-1.4830013513565063
1772727583371610400,0.5246103515625,1.904601812362671,-1.3279218673706055,-1.2402769327163696
1772727583381610500,0.534610595703125,1.86787748336792,-1.667917251586914,-0.8796495199203491
1772727583391610400,0.5446103515625,1.4511733055114746,-1.5719938278198242,-0.7609206438064575
1772727583401610500,0.554610595703125,0.5458176136016846,-1.122659683227539,-0.5183901786804199
1772727583411610400,0.5646103515625,-0.2554439306259155,-0.38786983489990234,-0.23474669456481934
1772727583421610500,0.574610595703125,-0.863290548324585,0.06428337097167969,0.2083728313446045
1772727583431610400,0.5846103515625,-1.1444772481918335,0.45726680755615234,0.4199787378311157
1772727583441610500,0.594610595703125,-1.2599035501480103,0.5787868499755859,0.3649716377258301
1772727583451610400,0.6046103515625,-1.3416359424591064,0.23478984832763672,0.21535372734069824
1772727583461610500,0.614610595703125,-1.0323909521102905,-0.3996009826660156,0.16780853271484375
1772727583471610400,0.6246103515625,-0.8900634050369263,-0.8813724517822266,0.13367033004760742
1772727583481610500,0.634610595703125,-0.7087557315826416,-0.9186792373657227,-0.10928726196289062
1772727583491610400,0.6446103515625,-0.6810173988342285,-0.6577539443969727,-0.6577862501144409
1772727583501610500,0.654610595703125,-0.6206844449043274,-0.7367982864379883,-1.022359848022461
1772727583511610400,0.6646103515625,-0.5146171450614929,-1.0697450637817383,-0.8631715774536133
1772727583521610500,0.674610595703125,-0.70937579870224,-1.1029510498046875,-0.2866058349609375
1772727583531610400,0.6846103515625,-1.085301399230957,-0.8254537582397461,0.33702731132507324
1772727583541610500,0.694610595703125,-1.3677650690078735,-0.4559650421142578,0.8333544731140137
1772727583551610400,0.7046103515625,-1.4516916275024414,-0.15120697021484375,1.0186431407928467
1772727583561610500,0.714610595703125,-1.3242661952972412,0.1609039306640625,0.974909782409668
1772727583571610400,0.7246103515625,-1.3036930561065674,0.5969734191894531,1.0982887744903564
1772727583581610500,0.734610595703125,-1.2962532043457031,1.1352720260620117,0.7489573955535889
1772727583591610400,0.7446103515625,-1.1882507801055908,1.1060523986816406,0.5596377849578857
1772727583601610500,0.754610595703125,-0.8632473349571228,0.5844755172729492,0.564023494720459
1772727583611610400,0.7646103515625,-0.27301812171936035,0.5966262817382812,0.7446253299713135
1772727583621610500,0.774610595703125,-0.18712729215621948,0.777623176574707,1.1061115264892578
1772727583631610400,0.7846103515625,-0.1180877834558487,0.6030244827270508,1.1241421699523926
1772727583641610500,0.794610595703125,0.15745502710342407,0.40166473388671875,0.9297490119934082
1772727583651610400,0.8046103515625,0.1219126507639885,0.2547035217285156,0.8768649101257324
1772727583661610500,0.814610595703125,-0.03430550545454025,0.38747406005859375,0.6817846298217773
1772727583671610400,0.8246103515625,-0.09211196005344391,0.9493875503540039,0.7574224472045898
1772727583681610500,0.834610595703125,-0.364773690700531,0.8132514953613281,1.4090352058410645
1772727583691610400,0.8446103515625,-0.2055104672908783,0.045383453369140625,2.0243334770202637
1772727583701610500,0.854610595703125,-0.4378124475479126,-0.1563882827758789,2.355043411254883
1772727583711610400,0.8646103515625,-1.177019715309143,0.6224460601806641,2.012725353240967
1772727583721610500,0.874610595703125,-1.4208307266235352,1.5517072677612305,1.5656909942626953
1772727583731610400,0.8846103515625,-0.9514877200126648,1.8878536224365234,0.8521790504455566
1772727583741610500,0.894610595703125,-0.13838434219360352,1.6169853210449219,0.2649664878845215
1772727583751610400,0.9046103515625,0.32246875762939453,0.9164190292358398,0.03907060623168945
1772727583761610500,0.914610595703125,0.8440415859222412,-0.23711776733398438,0.03568696975708008
1772727583771610400,0.9246103515625,0.9785066843032837,-1.2923383712768555,0.35841846466064453
1772727583781610500,0.934610595703125,0.32998037338256836,-1.776209831237793,0.5831575393676758
1772727583791610400,0.9446103515625,-0.5897765159606934,-1.5323467254638672,1.1837830543518066
1772727583801610500,0.954610595703125,-0.4736701250076294,-1.8215208053588867,1.2530980110168457
1772727583811610400,0.9646103515625,0.005335688591003418,-2.749730110168457,1.0483455657958984
1772727583821610500,0.974610595703125,-0.5418367385864258,-2.881662368774414,0.8279590606689453
1772727583831610400,0.9846103515625,-1.1024549007415771,-1.9787626266479492,0.9948797225952148
1772727583841610500,0.994610595703125,-1.5272986888885498,-0.3052711486816406,1.4399819374084473
1772727583851610400,1.0046103515625,-1.6556203365325928,1.052896499633789,1.2563366889953613
1772727583861610500,1.014610595703125,-1.8491506576538086,2.0467529296875,0.789891242980957
1772727583871610400,1.0246103515625,-1.965735673904419,2.0652313232421875,0.7389044761657715
1772727583881610500,1.034610595703125,-1.3604185581207275,0.9698877334594727,0.6280570030212402
1772727583891610400,1.0446103515625,-0.661027193069458,-0.10310649871826172,0.33690381050109863
1772727583901610500,1.054610595703125,-0.5837607383728027,-1.2913084030151367,-0.432511568069458
1772727583911610400,1.0646103515625,-1.1636595726013184,-3.1699142456054688,-1.14589262008667
1772727583921610500,1.074610595703125,0.535698413848877,-4.311396598815918,-1.5570642948150635
1772727583931610400,1.0846103515625,0.38414669036865234,-4.851503372192383,-1.7046058177947998
1772727583941610500,1.094610595703125,0.023531436920166016,-4.831080436706543,-1.9701144695281982
1772727583951610400,1.1046103515625,0.5976858139038086,-3.720061779022217,-1.002183437347412
1772727583961610500,1.114610595703125,-0.5832433700561523,-2.2010040283203125,0.14861536026000977
1772727583971610400,1.1246103515625,-1.0554676055908203,-0.48241281509399414,0.7174694538116455
1772727583981610500,1.134610595703125,-1.435800552368164,0.012471199035644531,0.4692344665527344
1772727583991610400,1.1446103515625,-1.2426862716674805,-0.43066835403442383,0.0061190128326416016
1772727584001610500,1.154610595703125,-0.39593505859375,-1.3343567848205566,-0.19495415687561035
1772727584011610400,1.1646103515625,0.2861661911010742,-2.288440227508545,-0.2313218116760254
1772727584021610500,1.174610595703125,0.5108053684234619,-4.134729862213135,-0.500138521194458
1772727584031610400,1.1846103515625,1.1656556129455566,-5.9620137214660645,-1.1348605155944824
1772727584041610500,1.194610595703125,-0.49435853958129883,-2.708761215209961,-1.5836409330368042
1772727584051610400,1.2046103515625,-2.264132499694824,0.05940723419189453,-2.7955563068389893
1772727584061610500,1.214610595703125,-7.909783363342285,2.790395736694336,-2.3657872676849365
1772727584071610400,1.2246103515625,-5.171638488769531,4.568194389343262,-1.5018866062164307
1772727584081610500,1.234610595703125,-4.631814002990723,6.388813495635986,0.06212782859802246
1772727584091610400,1.2446103515625,-7.394797325134277,9.166786193847656,-2.1502246856689453
1772727584101610500,1.254610595703125,-1.0470571517944336,3.64630126953125,-1.8825501203536987
1772727584111610400,1.2646103515625,-2.174319267272949,3.909348487854004,0.22800254821777344
1772727584121610500,1.274610595703125,-3.6536309719085693,3.6913347244262695,1.2602229118347168
1772727584131609600,1.284609619140625,1.2474310398101807,1.4481840133666992,3.423130512237549
1772727584141609700,1.294609619140625,3.6344940662384033,0.9296674728393555,2.4099607467651367
1772727584151609600,1.304609619140625,4.783143520355225,0.8025312423706055,1.539031744003296
1772727584161609700,1.314609619140625,4.782540321350098,0.7627220153808594,0.731722354888916
1772727584171609600,1.324609619140625,4.649232864379883,1.3786659240722656,-0.7237286567687988
1772727584181609700,1.334609619140625,2.591472864151001,2.242521286010742,-2.0499870777130127
1772727584191609600,1.344609619140625,0.9733576774597168,2.836925506591797,-2.6651692390441895
1772727584201609700,1.354609619140625,0.41782093048095703,3.5336618423461914,-2.9316234588623047
1772727584211609600,1.364609619140625,2.467327356338501,3.396200180053711,-1.8816964626312256
1772727584221609700,1.374609619140625,0.055550575256347656,2.550173759460449,0.23682332038879395
1772727584231609600,1.384609619140625,-3.2582266330718994,1.2857847213745117,1.6971852779388428
1772727584241609700,1.394609619140625,-2.0487425327301025,0.5574789047241211,1.802027940750122
1772727584251609600,1.404609619140625,0.6780428886413574,0.11170482635498047,0.8641777038574219
1772727584261609700,1.414609619140625,1.17198646068573,-0.13726234436035156,-0.21645116806030273
1772727584271609600,1.424609619140625,0.5651862621307373,-0.169891357421875,-0.3635857105255127
1772727584281609700,1.434609619140625,-0.7683603763580322,-0.3357362747192383,-0.25460028648376465
1772727584291609600,1.444609619140625,-0.7754766941070557,-0.4905815124511719,-0.1588747501373291
1772727584301609700,1.454609619140625,-0.3474438190460205,-0.4955930709838867,-0.06531667709350586
1772727584311609600,1.464609619140625,-0.002601146697998047,-0.32173633575439453,0.07360219955444336
1772727584321609700,1.474609619140625,-0.00519561767578125,-0.052824974060058594,0.12799382209777832
1772727584331609600,1.484609619140625,-0.15442204475402832,0.08158016204833984,0.17505121231079102
1772727584341609700,1.494609619140625,-0.2595376968383789,0.1302328109741211,0.22128558158874512
1772727584351609600,1.504609619140625,-0.25465893745422363,0.10118675231933594,0.2526240348815918
1772727584361609700,1.514609619140625,-0.1695723533630371,0.10573768615722656,0.18462657928466797
1772727584371609600,1.524609619140625,-0.1078650951385498,0.10375690460205078,-0.027068376541137695
1772727584381609700,1.534609619140625,-0.10324859619140625,0.02921295166015625,-0.1859748363494873
1772727584391609600,1.544609619140625,-0.1803908348083496,-0.055088043212890625,-0.24985051155090332
1772727584401609700,1.554609619140625,-0.18054819107055664,-0.10713386535644531,-0.14400649070739746
1772727584411609600,1.564609619140625,0.34050488471984863,0.16962242126464844,-0.22028017044067383
1772727584421609700,1.574609619140625,-0.31763482093811035,-0.17171764373779297,-0.1253070831298828
1772727584431609600,1.584609619140625,-0.4510533809661865,-0.21026897430419922,0.11364054679870605
1772727584441609700,1.594609619140625,-0.3615694046020508,0.1678333282470703,0.14409112930297852
1772727584451609600,1.604609619140625,-0.5199968814849854,0.1738910675048828,0.042375802993774414
1772727584461609700,1.614609619140625,-0.004137992858886719,0.010424613952636719,-0.021213769912719727
1772727584471609600,1.624609619140625,-0.18555378913879395,-0.036284446716308594,-0.07052946090698242
1772727584481609700,1.634609619140625,-0.25720906257629395,-0.04219341278076172,0.002747774124145508
1772727584491609600,1.644609619140625,-0.3144667148590088,-0.18550395965576172,0.04134702682495117
1772727584501609700,1.654609619140625,-0.3572044372558594,-0.18170642852783203,0.11581611633300781
1772727584511609600,1.664609619140625,-0.3255574703216553,-0.11042308807373047,0.1312875747680664
1772727584521609700,1.674609619140625,-0.32091665267944336,-0.0980997085571289,0.1370375156402588
1772727584531609600,1.684609619140625,-0.302121639251709,-0.11155414581298828,0.05987238883972168
1772727584541609700,1.694609619140625,-0.28850793838500977,-0.18556976318359375,-0.006968498229980469
1772727584551609600,1.704609619140625,-0.3128368854522705,-0.25888633728027344,-0.008637189865112305
1772727584561609700,1.714609619140625,-0.3988487720489502,-0.44090747833251953,0.03079986572265625
1772727584571609600,1.724609619140625,-0.5203795433044434,-0.5703315734863281,0.012283802032470703
1772727584581609700,1.734609619140625,-0.5169379711151123,-0.6503486633300781,0.06502604484558105
1772727584591609600,1.744609619140625,-0.49968814849853516,-0.5753498077392578,0.07713961601257324
1772727584601609700,1.754609619140625,-0.4850349426269531,-0.4258594512939453,0.04984879493713379
1772727584611609600,1.764609619140625,-0.44181060791015625,-0.27552127838134766,0.07245969772338867
1772727584621609700,1.774609619140625,-0.35344457626342773,-0.16871261596679688,0.1472458839416504
1772727584631609600,1.784609619140625,-0.18459177017211914,-0.14265155792236328,0.11813569068908691
1772727584641609700,1.794609619140625,-0.06190204620361328,-0.15448856353759766,-0.0248415470123291
1772727584651609600,1.804609619140625,-0.016170501708984375,-0.2773141860961914,-0.16656947135925293
1772727584661609700,1.814609619140625,0.00649714469909668,-0.4801807403564453,-0.1847231388092041
1772727584671609600,1.824609619140625,0.0037183761596679688,-0.6697158813476562,-0.14790582656860352
1772727584681609700,1.834609619140625,-0.08942699432373047,-0.7801494598388672,-0.04221916198730469
1772727584691609600,1.844609619140625,-0.1839008331298828,-0.7402143478393555,0.007530689239501953
1772727584701609700,1.854609619140625,-0.20166826248168945,-0.6026649475097656,0.05951690673828125
1772727584711609600,1.864609619140625,-0.14612269401550293,-0.41225147247314453,0.08213496208190918
1772727584721609700,1.874609619140625,-0.09494447708129883,-0.16395187377929688,0.09007048606872559
1772727584731609600,1.884609619140625,-0.08684706687927246,0.0829629898071289,-0.023972511291503906
1772727584741609700,1.894609619140625,-0.0443415641784668,0.1933917999267578,-0.23132848739624023
1772727584751609600,1.904609619140625,0.002225637435913086,0.09693527221679688,-0.42461180686950684
1772727584761609700,1.914609619140625,0.031893014907836914,-0.13396739959716797,-0.4799680709838867
1772727584771609600,1.924609619140625,-0.009235858917236328,-0.39821815490722656,-0.412306547164917
1772727584781609700,1.934609619140625,-0.09206557273864746,-0.5779209136962891,-0.16345500946044922
1772727584791609600,1.944609619140625,-0.17036867141723633,-0.5880975723266602,0.04439091682434082
1772727584801609700,1.954609619140625,-0.3143656253814697,-0.5622949600219727,0.20075535774230957
1772727584811609600,1.964609619140625,-0.37337279319763184,-0.39911937713623047,0.3236966133117676
1772727584821609700,1.974609619140625,-0.31224751472473145,-0.190185546875,0.3705253601074219
1772727584831609600,1.984609619140625,-0.22359609603881836,0.030945777893066406,0.27782750129699707
1772727584841609700,1.994609619140625,-0.2229166030883789,0.2315359115600586,0.2847929000854492
1772727584851609600,2.004609619140625,-0.23783135414123535,0.3621225357055664,0.18081951141357422
1772727584861609700,2.014609619140625,-0.2402946949005127,0.3882179260253906,-0.04496574401855469
1772727584871609600,2.024609619140625,-0.20661211013793945,0.29750728607177734,-0.2359929084777832
1772727584881609700,2.034609619140625,-0.2853689193725586,0.16022396087646484,-0.29679274559020996
1772727584891609600,2.044609619140625,-0.40117692947387695,0.05646228790283203,-0.2534182071685791
1772727584901609700,2.054609619140625,-0.4964742660522461,-0.0058078765869140625,-0.13219237327575684
1772727584911609600,2.064609619140625,-0.47054028511047363,-0.015869140625,0.016672849655151367
1772727584921609700,2.074609619140625,-0.41500258445739746,0.05677604675292969,0.11913037300109863
1772727584931609600,2.084609619140625,-0.3603627681732178,0.16890621185302734,0.17734289169311523
1772727584941609700,2.094609619140625,-0.3302006721496582,0.2680854797363281,0.19519567489624023
1772727584951609600,2.104609619140625,-0.3276042938232422,0.3291654586791992,0.19090867042541504
1772727584961609700,2.114609619140625,-0.2998507022857666,0.3517189025878906,0.14254999160766602
1772727584971609600,2.124609619140625,-0.308760404586792,0.33768463134765625,0.09674334526062012
1772727584981609700,2.134609619140625,-0.3021371364593506,0.2441539764404297,0.045154571533203125
1772727584991609600,2.144609619140625,-0.30572056770324707,0.13328170776367188,-0.0049953460693359375
1772727585001609700,2.154609619140625,-0.25356316566467285,0.047149658203125,-0.02055215835571289
1772727585011609600,2.164609619140625,-0.22933077812194824,-0.02651500701904297,0.0169827938079834
1772727585021609700,2.174609619140625,-0.1796860694885254,-0.06472110748291016,0.1014108657836914
1772727585031609600,2.184609619140625,-0.1252129077911377,-0.03726673126220703,0.08881449699401855
1772727585041609700,2.194609619140625,-0.1207423210144043,-0.004626274108886719,0.10789036750793457
1772727585051609600,2.204609619140625,-0.14631247520446777,0.02548694610595703,0.10479164123535156
1772727585061609700,2.214609619140625,-0.17889690399169922,0.03395366668701172,0.09184432029724121
1772727585071609600,2.224609619140625,-0.14877104759216309,0.05535697937011719,0.05582761764526367
1772727585081609700,2.234609619140625,-0.11942481994628906,0.0522308349609375,-0.005671977996826172
1772727585091609600,2.244609619140625,-0.11986732482910156,0.0789794921875,-0.007616281509399414
1772727585101609700,2.254609619140625,-0.06304287910461426,0.06846809387207031,-0.021596908569335938
1772727585111609600,2.264609619140625,-0.03156924247741699,0.020532608032226562,-0.040325164794921875
1772727585121609700,2.274609619140625,-0.0007686614990234375,-0.05621623992919922,-0.00485992431640625
1772727585131609600,2.284609619140625,-0.050606727600097656,-0.11028480529785156,0.03305768966674805
1772727585141609700,2.294609619140625,-0.06743574142456055,-0.18962574005126953,0.16883563995361328
1772727585151609600,2.304609619140625,0.06176185607910156,-0.18395137786865234,0.29546213150024414
1772727585161609700,2.314609619140625,0.14371490478515625,-0.17704296112060547,0.25745177268981934
1772727585171609600,2.324609619140625,0.10176491737365723,-0.11789417266845703,0.13303923606872559
1772727585181609700,2.334609619140625,0.018430471420288086,-0.043938636779785156,-0.007410287857055664
1772727585191609600,2.344609619140625,0.02099752426147461,0.017192840576171875,-0.12581443786621094
1772727585201609700,2.354609619140625,0.015599489212036133,0.07575702667236328,-0.15764927864074707
1772727585211609600,2.364609619140625,0.035501956939697266,0.0786285400390625,-0.09558987617492676
1772727585221609700,2.374609619140625,0.07992124557495117,0.020493507385253906,-0.07432842254638672
1772727585231609600,2.384609619140625,0.1373891830444336,-0.05525493621826172,-0.07796525955200195
1772727585241609700,2.394609619140625,0.20013809204101562,-0.1600208282470703,-0.11397290229797363
1772727585251609600,2.404609619140625,0.21904563903808594,-0.24859046936035156,-0.13080430030822754
1772727585261609700,2.414609619140625,0.25670480728149414,-0.3263521194458008,-0.1405651569366455
1772727585271609600,2.424609619140625,0.2593870162963867,-0.3711090087890625,-0.12897467613220215
1772727585281609700,2.434609619140625,0.24144887924194336,-0.35407447814941406,-0.14954400062561035
1772727585291609600,2.444609619140625,0.2282400131225586,-0.28481197357177734,-0.11718201637268066
1772727585301609700,2.454609619140625,0.2159125804901123,-0.21593761444091797,-0.10523533821105957
1772727585311609600,2.464609619140625,0.2174978256225586,-0.14711666107177734,-0.060082197189331055
1772727585321609700,2.474609619140625,0.23639202117919922,-0.15691184997558594,-0.02843952178955078
1772727585331609600,2.484609619140625,0.2684354782104492,-0.16756820678710938,-0.008902311325073242
1772727585341609700,2.494609619140625,0.2600066661834717,-0.2144012451171875,-0.06974387168884277
1772727585351609600,2.504609619140625,0.20300579071044922,-0.2887754440307617,-0.09934043884277344
1772727585361609700,2.514609619140625,0.13732194900512695,-0.35306835174560547,-0.12164831161499023
1772727585371609600,2.524609619140625,0.09674644470214844,-0.3780097961425781,-0.14185357093811035
1772727585381609700,2.534609619140625,0.0717611312866211,-0.3456544876098633,-0.1470499038696289
1772727585391609600,2.544609619140625,0.036644697189331055,-0.29010677337646484,-0.16128015518188477
1772727585401609700,2.554609619140625,0.02660989761352539,-0.2583284378051758,-0.12854838371276855
1772727585411609600,2.564609619140625,0.04372835159301758,-0.2562074661254883,-0.07840514183044434
1772727585421609700,2.574609619140625,0.09341669082641602,-0.21572303771972656,-0.03574681282043457
1772727585431609600,2.584609619140625,0.09283685684204102,-0.16578292846679688,-0.06339764595031738
1772727585441609700,2.594609619140625,0.06888604164123535,-0.17052555084228516,-0.10013532638549805
1772727585451609600,2.604609619140625,0.03914332389831543,-0.21789169311523438,-0.1057589054107666
1772727585461609700,2.614609619140625,0.019549131393432617,-0.2887430191040039,-0.05735635757446289
1772727585471609600,2.624609619140625,-0.008768081665039062,-0.2891416549682617,-0.0431523323059082
1772727585481609700,2.634609619140625,-0.0717315673828125,-0.26119136810302734,-0.01631617546081543
1772727585491609600,2.644609619140625,-0.10985136032104492,-0.19917869567871094,0.06033515930175781
1772727585501609700,2.654609619140625,-0.1166379451751709,-0.11107540130615234,0.0680243968963623
1772727585511609600,2.664609619140625,-0.13313674926757812,-0.027757644653320312,0.08471894264221191
1772727585521609700,2.674609619140625,-0.12491631507873535,0.03887462615966797,0.10319066047668457
1772727585531609600,2.684609619140625,-0.07364678382873535,0.058818817138671875,0.10618972778320312
1772727585541609700,2.694609619140625,-0.010242462158203125,0.041561126708984375,0.049308061599731445
1772727585551609600,2.704609619140625,-0.035547494888305664,-0.046608924865722656,0.028110504150390625
1772727585561609700,2.714609619140625,-0.13362503051757812,-0.080474853515625,0.06207275390625
1772727585571609600,2.724609619140625,-0.2472841739654541,-0.05545234680175781,0.11172723770141602
1772727585581609700,2.734609619140625,-0.2650632858276367,0.01291656494140625,0.13244152069091797
1772727585591609600,2.744609619140625,-0.24936413764953613,0.08963394165039062,0.11348247528076172
1772727585601609700,2.754609619140625,-0.22275829315185547,0.22990703582763672,0.05951404571533203
1772727585611609600,2.764609619140625,-0.19304537773132324,0.30933666229248047,-0.0030965805053710938
1772727585621609700,2.774609619140625,-0.18239712715148926,0.3595008850097656,-0.006504058837890625
1772727585631609600,2.784609619140625,-0.20184779167175293,0.3288154602050781,-0.02940845489501953
1772727585641609700,2.794609619140625,-0.23757457733154297,0.24846458435058594,-0.010487556457519531
1772727585651609600,2.804609619140625,-0.26767587661743164,0.20218944549560547,0.06896090507507324
1772727585661609700,2.814609619140625,-0.33499860763549805,0.22136402130126953,0.13850784301757812
1772727585671609600,2.824609619140625,-0.33353471755981445,0.2774791717529297,0.1406254768371582
1772727585681609700,2.834609619140625,-0.33513784408569336,0.33135128021240234,0.16845250129699707
1772727585691609600,2.844609619140625,-0.3267850875854492,0.3846702575683594,0.15696382522583008
1772727585701609700,2.854609619140625,-0.3250765800476074,0.4296426773071289,0.10478639602661133
1772727585711609600,2.864609619140625,-0.30846619606018066,0.4151601791381836,0.018214702606201172
1772727585721609700,2.874609619140625,-0.33510255813598633,0.34930992126464844,-0.04429292678833008
1772727585731609600,2.884609619140625,-0.3651716709136963,0.27417755126953125,-0.011190176010131836
1772727585741609700,2.894609619140625,-0.3913450241088867,0.2242422103881836,0.0438690185546875
1772727585751609600,2.904609619140625,-0.3631758689880371,0.19496440887451172,0.09668135643005371
1772727585761609700,2.914609619140625,-0.30655407905578613,0.1763477325439453,0.11933517456054688
1772727585771609600,2.924609619140625,-0.25255274772644043,0.1433734893798828,0.10685515403747559
1772727585781609700,2.934609619140625,-0.2483663558959961,0.08558464050292969,0.05203843116760254
1772727585791609600,2.944609619140625,-0.21840405464172363,0.03289222717285156,0.01708078384399414
1772727585801609700,2.954609619140625,-0.20847511291503906,-0.007737159729003906,-0.019733905792236328
1772727585811609600,2.964609619140625,-0.2218329906463623,-0.0033044815063476562,0.009250879287719727
1772727585821609700,2.974609619140625,-0.2024683952331543,0.0041370391845703125,0.02446126937866211
1772727585831609600,2.984609619140625,-0.1347947120666504,0.044460296630859375,-0.010906457901000977
1772727585841609700,2.994609619140625,-0.05920863151550293,0.1036376953125,-0.06648707389831543
1772727585851609600,3.004609619140625,-0.01836085319519043,0.14070701599121094,-0.0845649242401123
1772727585861609700,3.014609619140625,0.016994953155517578,0.11565208435058594,-0.07125210762023926
1772727585871609600,3.024609619140625,0.06623196601867676,0.011750221252441406,-0.07520198822021484
1772727585881609700,3.034609619140625,0.13706374168395996,-0.12935638427734375,-0.07480454444885254
1772727585891609600,3.044609619140625,0.18648529052734375,-0.2741518020629883,-0.1104893684387207
1772727585901609700,3.054609619140625,0.17228341102600098,-0.40503501892089844,-0.10706329345703125
1772727585911609600,3.064609619140625,0.12974238395690918,-0.4704914093017578,-0.08502650260925293
1772727585921609700,3.074609619140625,0.08955025672912598,-0.5226974487304688,-0.023844003677368164
1772727585931609600,3.084609619140625,0.05147719383239746,-0.44130516052246094,0.011655807495117188
1772727585941609700,3.094609619140625,0.026627063751220703,-0.3214292526245117,0.05872941017150879
1772727585951609600,3.104609619140625,0.08705949783325195,-0.22171688079833984,0.08819460868835449
1772727585961609700,3.114609619140625,0.19359159469604492,-0.16568565368652344,-0.0008480548858642578
1772727585971609600,3.124609619140625,0.23846125602722168,-0.21541118621826172,-0.08064031600952148
1772727585981609700,3.134609619140625,0.20256876945495605,-0.25496673583984375,-0.11205244064331055
1772727585991609600,3.144609619140625,0.192490816116333,-0.31177711486816406,-0.11379814147949219
1772727586001609700,3.154609619140625,0.16026735305786133,-0.35094642639160156,-0.09792590141296387
1772727586011609600,3.164609619140625,0.15189504623413086,-0.3737630844116211,-0.09363293647766113
1772727586021609700,3.174609619140625,0.1674482822418213,-0.3265523910522461,-0.1169424057006836
1772727586031609600,3.184609619140625,0.2339951992034912,-0.2897472381591797,-0.15441465377807617
1772727586041609700,3.194609619140625,0.2855048179626465,-0.26728153228759766,-0.17022204399108887
1772727586051609600,3.204609619140625,0.31448960304260254,-0.2950420379638672,-0.15725445747375488
1772727586061609700,3.214609619140625,0.29750561714172363,-0.34282970428466797,-0.12708806991577148
1772727586071609600,3.224609619140625,0.2721974849700928,-0.36586666107177734,-0.06352615356445312
1772727586081609700,3.234609619140625,0.26645922660827637,-0.36661624908447266,-0.003711223602294922
1772727586091609600,3.244609619140625,0.2735874652862549,-0.34383583068847656,0.036917924880981445
1772727586101609700,3.254609619140625,0.2865316867828369,-0.2881937026977539,0.07076311111450195
1772727586111609600,3.264609619140625,0.2727816104888916,-0.1919574737548828,0.10027337074279785
1772727586121609700,3.274609619140625,0.25681447982788086,-0.054961204528808594,0.06187105178833008
1772727586131609600,3.284609619140625,0.25526905059814453,0.049284934997558594,0.05574464797973633
1772727586141609700,3.294609619140625,0.21569108963012695,0.1276397705078125,-0.002615213394165039
1772727586151609600,3.304609619140625,0.13756418228149414,0.1582632064819336,-0.09263014793395996
1772727586161609700,3.314609619140625,0.06108808517456055,0.19962787628173828,-0.19164562225341797
1772727586171609600,3.324609619140625,-0.05134248733520508,0.19295024871826172,-0.20651817321777344
1772727586181609700,3.334609619140625,-0.03227543830871582,0.22660350799560547,-0.14165186882019043
1772727586191609600,3.344609619140625,-0.018208980560302734,0.20748329162597656,-0.07013368606567383
1772727586201609700,3.354609619140625,-0.024461746215820312,0.19560718536376953,-0.02999401092529297
1772727586211609600,3.364609619140625,-0.05936121940612793,0.20569229125976562,-0.04864215850830078
1772727586221609700,3.374609619140625,-0.05168342590332031,0.1908092498779297,-0.06785893440246582
1772727586231609600,3.384609619140625,-0.09026861190795898,0.16841983795166016,0.011818647384643555
1772727586241609700,3.394609619140625,-0.13042616844177246,0.1542949676513672,0.09586095809936523
1772727586251609600,3.404609619140625,-0.17489838600158691,0.21238994598388672,0.10586071014404297
1772727586261609700,3.414609619140625,-0.23312020301818848,0.29576683044433594,0.0984811782836914
1772727586271609600,3.424609619140625,-0.2878909111022949,0.4361886978149414,0.13124585151672363
1772727586281609700,3.434609619140625,-0.30020737648010254,0.5159788131713867,0.17641067504882812
1772727586291609600,3.444609619140625,-0.2645735740661621,0.517822265625,0.20682072639465332
1772727586301609700,3.454609619140625,-0.23117733001708984,0.44777584075927734,0.19774317741394043
1772727586311609600,3.464609619140625,-0.17080926895141602,0.3145265579223633,0.13269853591918945
1772727586321609700,3.474609619140625,-0.19571733474731445,0.1596355438232422,0.07842493057250977
1772727586331609600,3.484609619140625,-0.24599909782409668,0.011358261108398438,0.025945663452148438
1772727586341609700,3.494609619140625,-0.3147585391998291,-0.05730724334716797,0.010528326034545898
1772727586351609600,3.504609619140625,-0.3881847858428955,0.01905059814453125,0.06651902198791504
1772727586361609700,3.514609619140625,-0.44158244132995605,0.19207286834716797,0.09730005264282227
1772727586371609600,3.524609619140625,-0.43181371688842773,0.4122657775878906,0.11087846755981445
1772727586381609700,3.534609619140625,-0.3521125316619873,0.5457582473754883,0.05850338935852051
1772727586391609600,3.544609619140625,-0.274688720703125,0.5870199203491211,-0.02478814125061035
1772727586401609700,3.554609619140625,-0.20657563209533691,0.4481163024902344,-0.14410018920898438
1772727586411609600,3.564609619140625,-0.165541410446167,0.19976234436035156,-0.20658564567565918
1772727586421609700,3.574609619140625,-0.12801051139831543,-0.1050882339477539,-0.1991868019104004
1772727586431609600,3.584609619140625,-0.1309196949005127,-0.35495948791503906,-0.04515671730041504
1772727586441609700,3.594609619140625,-0.07680845260620117,-0.4868326187133789,0.1819448471069336
1772727586451609600,3.604609619140625,-0.02074122428894043,-0.4982481002807617,0.29726719856262207
1772727586461609700,3.614609619140625,-0.034119606018066406,-0.3497962951660156,0.35568785667419434
1772727586471609600,3.624609619140625,-0.06250762939453125,-0.12790203094482422,0.298325777053833
1772727586481609700,3.634609619140625,-0.08253908157348633,0.04703521728515625,0.2614259719848633
1772727586491609600,3.644609619140625,-0.06943392753601074,0.14921188354492188,0.12372565269470215
1772727586501609700,3.654609619140625,-0.04470705986022949,0.1533641815185547,-0.07885885238647461
1772727586511609600,3.664609619140625,-0.007388114929199219,0.03202629089355469,-0.23189711570739746
1772727586521609700,3.674609619140625,0.014023065567016602,-0.12359046936035156,-0.27399659156799316
1772727586531609600,3.684609619140625,0.05117058753967285,-0.29161548614501953,-0.24822354316711426
1772727586541609700,3.694609619140625,0.09542965888977051,-0.4181089401245117,-0.2147073745727539
1772727586551609600,3.704609619140625,0.13146281242370605,-0.4603843688964844,-0.17149782180786133
1772727586561609700,3.714609619140625,0.12052035331726074,-0.4491758346557617,-0.05938148498535156
1772727586571609600,3.724609619140625,0.1308598518371582,-0.3564491271972656,0.06760168075561523
1772727586581609700,3.734609619140625,0.1296546459197998,-0.26497840881347656,0.10930514335632324
1772727586591609600,3.744609619140625,0.12975525856018066,-0.17118263244628906,0.10009264945983887
1772727586601609700,3.754609619140625,0.1608128547668457,-0.10624313354492188,0.013056755065917969
1772727586611609600,3.764609619140625,0.1641528606414795,-0.10573101043701172,-0.05717873573303223
1772727586621609700,3.774609619140625,0.12965798377990723,-0.18407249450683594,-0.09827685356140137
1772727586631609600,3.784609619140625,0.0755763053894043,-0.2661018371582031,-0.09252643585205078
1772727586641609700,3.794609619140625,0.052420854568481445,-0.30323123931884766,-0.0623316764831543
1772727586651609600,3.804609619140625,0.052411794662475586,-0.22633075714111328,-0.06443071365356445
1772727586661609700,3.814609619140625,0.06015205383300781,-0.09226417541503906,-0.08096051216125488
1772727586671609600,3.824609619140625,0.009316682815551758,0.0072650909423828125,-0.10125613212585449
1772727586681609700,3.834609619140625,-0.03990340232849121,0.07996463775634766,-0.13103699684143066
1772727586691609600,3.844609619140625,-0.04836297035217285,0.1701803207397461,-0.17581653594970703
1772727586701609700,3.854609619140625,-0.07921981811523438,0.2163238525390625,-0.15726423263549805
1772727586711609600,3.864609619140625,-0.07284045219421387,0.178131103515625,-0.0989844799041748
1772727586721609700,3.874609619140625,-0.03627324104309082,0.09038925170898438,-0.044193267822265625
1772727586731609600,3.884609619140625,-0.0038022994995117188,-0.026340484619140625,0.017109155654907227
1772727586741609700,3.894609619140625,-0.006223201751708984,-0.10298442840576172,0.11599159240722656
1772727586751609600,3.904609619140625,0.007250070571899414,-0.12498092651367188,0.11584138870239258
1772727586761609700,3.914609619140625,-0.01551365852355957,-0.10680675506591797,0.10880589485168457
1772727586771609600,3.924609619140625,-0.11209654808044434,-0.03463554382324219,0.10351800918579102
1772727586781609700,3.934609619140625,-0.21126437187194824,0.0867624282836914,0.0501708984375
1772727586791609600,3.944609619140625,-0.25307393074035645,0.21448707580566406,0.03683900833129883
1772727586801609700,3.954609619140625,-0.2065753936767578,0.3115997314453125,-0.03358864784240723
1772727586811609600,3.964609619140625,-0.16899824142456055,0.3492603302001953,-0.0737462043762207
1772727586821609700,3.974609619140625,-0.14014244079589844,0.3136119842529297,-0.08620166778564453
1772727586831609600,3.984609619140625,-0.08155298233032227,0.1908407211303711,-0.1110985279083252
1772727586841609700,3.994609619140625,-0.09828066825866699,0.00539398193359375,-0.10390806198120117
1772727586851609600,4.004609619140625,-0.06452059745788574,-0.14906597137451172,-0.08360075950622559
1772727586861609700,4.014609619140625,-0.013410091400146484,-0.3029451370239258,-0.01813030242919922
1772727586871609600,4.024609619140625,0.042778968811035156,-0.38153553009033203,0.07444047927856445
1772727586881609700,4.034609619140625,0.019738435745239258,-0.34256649017333984,0.09940934181213379
1772727586891609600,4.044609619140625,0.016776561737060547,-0.2414875030517578,0.12338042259216309
1772727586901609700,4.054609619140625,0.04609036445617676,-0.1381521224975586,0.12489056587219238
1772727586911609600,4.064609619140625,0.07035303115844727,-0.008985519409179688,0.1140906810760498
1772727586921609700,4.074609619140625,0.07501220703125,0.06636333465576172,0.07273030281066895
1772727586931609600,4.084609619140625,0.04127073287963867,0.09631824493408203,0.037928104400634766
1772727586941609700,4.094609619140625,0.025314807891845703,0.06926631927490234,0.006360769271850586
1772727586951609600,4.104609619140625,0.045816659927368164,0.021184921264648438,-0.05236172676086426
1772727586961609700,4.114609619140625,0.07534265518188477,-0.0365142822265625,-0.11655521392822266
1772727586971609600,4.124609619140625,0.10916972160339355,-0.10132598876953125,-0.13285446166992188
1772727586981609700,4.134609619140625,0.10928010940551758,-0.115020751953125,-0.029891252517700195
1772727586991609600,4.144609619140625,0.13313841819763184,-0.11560916900634766,0.04684305191040039
1772727587001609700,4.154609619140625,0.10114145278930664,-0.04351043701171875,0.08957076072692871
1772727587011609600,4.164609619140625,0.09503817558288574,0.10160160064697266,0.11184453964233398
1772727587021609700,4.174609619140625,0.13292598724365234,0.22725677490234375,0.12997031211853027
1772727587031609600,4.184609619140625,0.139876127243042,0.3119983673095703,0.1260514259338379
1772727587041609700,4.194609619140625,0.1310713291168213,0.30939674377441406,0.05013108253479004
1772727587051609600,4.204609619140625,0.08470320701599121,0.2369832992553711,0.02126622200012207
1772727587061609700,4.214609619140625,0.03160977363586426,0.1522998809814453,-0.03130054473876953
1772727587071609600,4.224609619140625,0.02905583381652832,0.15087223052978516,-0.023379802703857422
1772727587081609700,4.234609619140625,0.0793917179107666,0.1453723907470703,0.009871482849121094
1772727587091609600,4.244609619140625,0.10743236541748047,0.19860363006591797,0.05517721176147461
1772727587101609700,4.254609619140625,0.08748769760131836,0.24631595611572266,-0.045966148376464844
1772727587111609600,4.264609619140625,0.059952735900878906,0.2808265686035156,-0.2008066177368164
1772727587121609700,4.274609619140625,-0.0385434627532959,0.3117351531982422,-0.2786703109741211
1772727587131609600,4.284609619140625,-0.05041980743408203,0.30564403533935547,-0.2131359577178955
1772727587141609700,4.294609619140625,-0.05459284782409668,0.23077964782714844,-0.07436752319335938
1772727587151609600,4.304609619140625,-0.0588529109954834,0.15692615509033203,0.03961324691772461
1772727587161609700,4.314609619140625,-0.04396247863769531,0.12714099884033203,0.11109733581542969
1772727587171609600,4.324609619140625,0.08346843719482422,0.06763267517089844,0.10603022575378418
1772727587181609700,4.334609619140625,0.1652817726135254,-0.02557373046875,0.10037612915039062
1772727587191609600,4.344609619140625,0.15902280807495117,-0.14532089233398438,0.0610198974609375
1772727587201609700,4.354609619140625,0.07759523391723633,-0.2940530776977539,0.007542133331298828
1772727587211609600,4.364609619140625,0.013516902923583984,-0.37552452087402344,-0.012833595275878906
1772727587221609700,4.374609619140625,-0.017052888870239258,-0.3794689178466797,-0.026114702224731445
1772727587231609600,4.384609619140625,-0.0941619873046875,-0.2534666061401367,-0.07833290100097656
1772727587241609700,4.394609619140625,-0.27849602699279785,-0.08232784271240234,-0.10426735877990723
1772727587251609600,4.404609619140625,-0.28534889221191406,0.12450885772705078,-0.11342382431030273
1772727587261609700,4.414609619140625,-0.11069130897521973,0.20894527435302734,-0.10146427154541016
1772727587271609600,4.424609619140625,0.11627721786499023,0.1638040542602539,-0.13190531730651855
1772727587281609700,4.434609619140625,0.2342236042022705,-0.04866504669189453,-0.1966257095336914
1772727587291609600,4.444609619140625,0.1921682357788086,-0.3151674270629883,-0.22733712196350098
1772727587301609700,4.454609619140625,0.11497020721435547,-0.5400838851928711,-0.1932682991027832
1772727587311609600,4.464609619140625,0.05278372764587402,-0.6669912338256836,-0.11687970161437988
1772727587321609700,4.474609619140625,0.027321815490722656,-0.6634664535522461,0.040787458419799805
1772727587331609600,4.484609619140625,-0.02604389190673828,-0.5463590621948242,0.21044659614562988
1772727587341609700,4.494609619140625,-0.04426312446594238,-0.3323707580566406,0.30779242515563965
1772727587351609600,4.504609619140625,-0.028985977172851562,-0.06381797790527344,0.3319571018218994
1772727587361609700,4.514609619140625,0.019979476928710938,0.1807394027709961,0.22535228729248047
1772727587371609600,4.524609619140625,0.10067558288574219,0.2978830337524414,0.013522863388061523
1772727587381609700,4.534609619140625,0.13326430320739746,0.1833648681640625,-0.24744033813476562
1772727587391609600,4.544609619140625,0.08395123481750488,-0.018854141235351562,-0.4081108570098877
1772727587401609700,4.554609619140625,-0.0034475326538085938,-0.2240314483642578,-0.39691853523254395
1772727587411609600,4.564609619140625,-0.09512925148010254,-0.3950033187866211,-0.24413323402404785
1772727587421609700,4.574609619140625,-0.1422891616821289,-0.37981128692626953,-0.00064849853515625
1772727587431609600,4.584609619140625,-0.1065065860748291,-0.20052242279052734,0.2099289894104004
1772727587441609700,4.594609619140625,-0.04732871055603027,0.020157814025878906,0.376910924911499
1772727587451609600,4.604609619140625,0.018617630004882812,0.21497631072998047,0.4455883502960205
1772727587461609700,4.614609619140625,0.08094596862792969,0.30078792572021484,0.33760714530944824
1772727587471609600,4.624609619140625,0.08035993576049805,0.23746776580810547,0.10803461074829102
1772727587481609700,4.634609619140625,-0.04549145698547363,0.11599922180175781,-0.07228684425354004
1772727587491609600,4.644609619140625,-0.11995577812194824,0.02118682861328125,-0.1504366397857666
1772727587501609700,4.654609619140625,-0.18406009674072266,-0.02582550048828125,-0.08894801139831543
1772727587511609600,4.664609619140625,-0.2127535343170166,0.02556133270263672,-0.0019364356994628906
1772727587521609700,4.674609619140625,-0.20268869400024414,0.14841747283935547,0.09989094734191895
1772727587531609600,4.684609619140625,-0.08763766288757324,0.30448055267333984,0.1155862808227539
1772727587541609700,4.694609619140625,-0.01602005958557129,0.42623138427734375,0.08825039863586426
1772727587551609600,4.704609619140625,-0.01074361801147461,0.48601341247558594,0.04165387153625488
1772727587561609700,4.714609619140625,-0.08244538307189941,0.4056129455566406,-0.03263711929321289
1772727587571609600,4.724609619140625,-0.11935758590698242,0.26345348358154297,-0.07677650451660156
1772727587581609700,4.734609619140625,-0.12426137924194336,0.1307821273803711,-0.12674975395202637
1772727587591609600,4.744609619140625,-0.15332722663879395,0.09325981140136719,-0.09448528289794922
1772727587601609700,4.754609619140625,-0.19544339179992676,0.1291513442993164,0.011851787567138672
1772727587611609600,4.764609619140625,-0.1656513214111328,0.18259716033935547,0.16536879539489746
1772727587621609700,4.774609619140625,-0.039720773696899414,0.21878814697265625,0.18239736557006836
1772727587631609600,4.784609619140625,0.03631949424743652,0.24062061309814453,0.1041872501373291
1772727587641609700,4.794609619140625,0.04082822799682617,0.2164316177368164,0.011812448501586914
1772727587651609600,4.804609619140625,0.004914999008178711,0.10845947265625,-0.08701205253601074
1772727587661609700,4.814609619140625,-0.04135417938232422,0.003948211669921875,-0.14315462112426758
1772727587671609600,4.824609619140625,-0.06372666358947754,-0.0727376937866211,-0.20085597038269043
1772727587681609700,4.834609619140625,-0.11778044700622559,-0.08461570739746094,-0.1316845417022705
1772727587691609600,4.844609619140625,-0.10050153732299805,-0.011943817138671875,-0.03545808792114258
1772727587701609700,4.854609619140625,0.014459371566772461,0.000720977783203125,0.030644893646240234
1772727587711609600,4.864609619140625,0.14185428619384766,-0.02187347412109375,0.05143904685974121
1772727587721609700,4.874609619140625,0.20712661743164062,-0.073089599609375,0.028169631958007812
1772727587731609600,4.884609619140625,0.2175004482269287,-0.14190006256103516,-0.03489208221435547
1772727587741609700,4.894609619140625,0.16611647605895996,-0.23857498168945312,-0.06197810173034668
1772727587751609600,4.904609619140625,0.07807540893554688,-0.31841278076171875,-0.06741213798522949
1772727587761609700,4.914609619140625,0.0015950202941894531,-0.33967018127441406,-0.052466630935668945
1772727587771609600,4.924609619140625,-0.07262420654296875,-0.2812023162841797,-0.020960092544555664
1772727587781609700,4.934609619140625,-0.07575106620788574,-0.15613842010498047,0.04873180389404297
1772727587791609600,4.944609619140625,-0.02047562599182129,-0.014539718627929688,-0.008399486541748047
1772727587801609700,4.954609619140625,0.0206906795501709,0.06379222869873047,-0.08952021598815918
1772727587811609600,4.964609619140625,0.008155345916748047,0.039656639099121094,-0.14693355560302734
1772727587821609700,4.974609619140625,0.004759311676025391,-0.029508590698242188,-0.1641542911529541
1772727587831609600,4.984609619140625,0.011548757553100586,-0.1277637481689453,-0.1620645523071289
1772727587841609700,4.994609619140625,0.021862268447875977,-0.21220779418945312,-0.1007833480834961
1772727587851609600,5.004609619140625,0.016659021377563477,-0.2721681594848633,0.01579880714416504
1772727587861609700,5.014609619140625,0.0019969940185546875,-0.3077373504638672,0.1079094409942627
1772727587871609600,5.024609619140625,0.021504640579223633,-0.29065513610839844,0.19535589218139648
1772727587881609700,5.034609619140625,0.06423664093017578,-0.2571296691894531,0.22348785400390625
1772727587891609600,5.044609619140625,0.11744523048400879,-0.21219825744628906,0.19792795181274414
1772727587901609700,5.054609619140625,0.10235095024108887,-0.155853271484375,0.07817697525024414
1772727587911609600,5.064609619140625,0.04926156997680664,-0.08985519409179688,-0.05602741241455078
1772727587921609700,5.074609619140625,0.004911661148071289,-0.028106689453125,-0.15705657005310059
1772727587931609600,5.084609619140625,0.005293607711791992,0.0259552001953125,-0.1842198371887207
1772727587941609700,5.094609619140625,0.022310733795166016,0.036787986755371094,-0.1792905330657959
1772727587951609600,5.104609619140625,0.08977389335632324,0.045609474182128906,-0.16524291038513184
1772727587961609700,5.114609619140625,0.11687231063842773,0.03093433380126953,-0.1983788013458252
1772727587971609600,5.124609619140625,0.12510418891906738,-0.001644134521484375,-0.19796133041381836
1772727587981609700,5.134609619140625,0.1178445816040039,-0.059441566467285156,-0.10904240608215332
1772727587991609600,5.144609619140625,0.0952460765838623,-0.0690460205078125,-0.0433349609375
1772727588001609700,5.154609619140625,0.06105613708496094,-0.047504425048828125,-0.011477231979370117
1772727588011609600,5.164609619140625,0.012077093124389648,0.006275177001953125,0.014576435089111328
1772727588021609700,5.174609619140625,-0.016252517700195312,0.08790874481201172,0.017519712448120117
1772727588031609600,5.184609619140625,0.012926816940307617,0.13000869750976562,-0.014842748641967773
1772727588041609700,5.194609619140625,0.10061860084533691,0.11463737487792969,-0.016534090042114258
1772727588051609600,5.204609619140625,0.1800706386566162,0.05420875549316406,-0.009293317794799805
1772727588061609700,5.214609619140625,0.12891411781311035,-0.016280174255371094,0.06277894973754883
1772727588071609600,5.224609619140625,0.03399991989135742,-0.10207939147949219,0.12241363525390625
1772727588081609700,5.234609619140625,-0.023389577865600586,-0.13341140747070312,0.2010359764099121
1772727588091609600,5.244609619140625,0.0182037353515625,-0.06613922119140625,0.1871201992034912
1772727588101609700,5.254609619140625,0.004584074020385742,0.0376129150390625,0.11233925819396973
1772727588111609600,5.264609619140625,-0.006983280181884766,0.08684730529785156,0.07447123527526855
1772727588121609700,5.274609619140625,-0.010368585586547852,0.10161590576171875,0.031543731689453125
1772727588131609600,5.284609619140625,-0.0018775463104248047,0.08467960357666016,-0.0343022346496582
1772727588141609700,5.294609619140625,-0.05482125282287598,0.09985542297363281,-0.08820533752441406
1772727588151609600,5.304609619140625,-0.0968167781829834,0.11556720733642578,-0.08984184265136719
1772727588161609700,5.314609619140625,-0.06554198265075684,0.0973367691040039,-0.08685851097106934
1772727588171609600,5.324609619140625,0.006026744842529297,0.10124397277832031,-0.06650805473327637
1772727588181609700,5.334609619140625,0.06061673164367676,0.17237091064453125,-0.03157329559326172
1772727588191609600,5.344609619140625,0.023707151412963867,0.22756004333496094,-0.011902570724487305
1772727588201609700,5.354609619140625,-0.02504110336303711,0.2845191955566406,0.037068843841552734
1772727588211609600,5.364609619140625,-0.016132593154907227,0.23552322387695312,0.029974937438964844
1772727588221609700,5.374609619140625,0.04756903648376465,0.22073745727539062,0.008884668350219727
1772727588231609600,5.384609619140625,0.009953022003173828,0.2020559310913086,0.0014309883117675781
1772727588241609700,5.394609619140625,-0.11985421180725098,0.17183399200439453,0.07161736488342285
1772727588251609600,5.404609619140625,-0.14600610733032227,0.16402530670166016,0.14425253868103027
1772727588261609700,5.414609619140625,-0.08478403091430664,0.18515586853027344,0.18848276138305664
1772727588271609600,5.424609619140625,-0.03584098815917969,0.22127342224121094,0.20873379707336426
1772727588281609700,5.434609619140625,-0.03273200988769531,0.28791046142578125,0.15003395080566406
1772727588291609600,5.444609619140625,0.013073205947875977,0.2675666809082031,0.0665597915649414
1772727588301609700,5.454609619140625,0.04923200607299805,0.21538066864013672,-0.03864884376525879
1772727588311609600,5.464609619140625,0.0056302547454833984,0.12206077575683594,-0.1087956428527832
1772727588321609700,5.474609619140625,-0.12418556213378906,0.006653785705566406,-0.08753347396850586
1772727588331609600,5.484609619140625,-0.17163395881652832,-0.08554553985595703,-0.033492088317871094
1772727588341609700,5.494609619140625,-0.1435105800628662,-0.14991283416748047,0.016781330108642578
1772727588351609600,5.504609619140625,-0.11301779747009277,-0.1044607162475586,-0.007418155670166016
1772727588361609700,5.514609619140625,-0.208665132522583,-0.02725982666015625,-0.043964385986328125
1772727588371609600,5.524609619140625,-0.23941493034362793,0.021240234375,-0.06587624549865723
1772727588381609700,5.534609619140625,-0.16724252700805664,-0.051219940185546875,-0.05313873291015625
1772727588391609600,5.544609619140625,-0.09409427642822266,-0.143096923828125,-0.017871618270874023
1772727588401609700,5.554609619140625,-0.08219265937805176,-0.23723697662353516,0.011500835418701172
1772727588411609600,5.564609619140625,-0.0625770092010498,-0.34774303436279297,-0.02695918083190918
1772727588421609700,5.574609619140625,-0.09880566596984863,-0.35980796813964844,-0.05383014678955078
1772727588431609600,5.584609619140625,-0.13588762283325195,-0.2696704864501953,-0.039742469787597656
1772727588441609700,5.594609619140625,-0.15796589851379395,-0.12019824981689453,-0.00011515617370605469
1772727588451609600,5.604609619140625,-0.1429147720336914,-0.011188507080078125,0.019068241119384766
1772727588461609700,5.614609619140625,-0.1993415355682373,0.07349395751953125,-0.030858993530273438
1772727588471609600,5.624609619140625,-0.13320517539978027,0.06789112091064453,-0.11015915870666504
1772727588481609700,5.634609619140625,-0.023324251174926758,-0.020758628845214844,-0.19978833198547363
1772727588491609600,5.644609619140625,0.13033318519592285,-0.15035057067871094,-0.22294902801513672
1772727588501609700,5.654609619140625,0.17060351371765137,-0.27148914337158203,-0.26744842529296875
1772727588511609600,5.664609619140625,0.07773780822753906,-0.35631561279296875,-0.17455768585205078
1772727588521609700,5.674609619140625,-0.05868983268737793,-0.3557701110839844,-0.03131747245788574
1772727588531609600,5.684609619140625,-0.07740330696105957,-0.24521350860595703,0.1314702033996582
1772727588541609700,5.694609619140625,0.043295860290527344,-0.049713134765625,0.23320388793945312
1772727588551609600,5.704609619140625,0.10515761375427246,0.15284252166748047,0.24489545822143555
1772727588561609700,5.714609619140625,0.07642579078674316,0.2595024108886719,0.1801586151123047
1772727588571609600,5.724609619140625,0.058361053466796875,0.2670726776123047,0.013028144836425781
1772727588581609700,5.734609619140625,0.1297745704650879,0.146728515625,-0.15951085090637207
1772727588591609600,5.744609619140625,0.15598130226135254,-0.051169395446777344,-0.24805569648742676
1772727588601609700,5.754609619140625,0.06885695457458496,-0.2089691162109375,-0.24728846549987793
1772727588611609600,5.764609619140625,-0.03838658332824707,-0.29903697967529297,-0.1853337287902832
1772727588621609700,5.774609619140625,-0.06595301628112793,-0.2393665313720703,-0.045953989028930664
1772727588631609600,5.784609619140625,-0.025920391082763672,-0.05393505096435547,0.0424656867980957
1772727588641609700,5.794609619140625,0.026516437530517578,0.14087486267089844,0.12440705299377441
1772727588651609600,5.804609619140625,0.07317709922790527,0.2601032257080078,0.1577291488647461
1772727588661609700,5.814609619140625,0.09172844886779785,0.29195594787597656,0.09239625930786133
1772727588671609600,5.824609619140625,0.12971115112304688,0.1887369155883789,-0.06623387336730957
1772727588681609700,5.834609619140625,0.056514739990234375,0.05571746826171875,-0.13790249824523926
1772727588691609600,5.844609619140625,0.020026683807373047,-0.0992279052734375,-0.14078640937805176
1772727588701609700,5.854609619140625,0.02295851707458496,-0.1901397705078125,-0.06225323677062988
1772727588711609600,5.864609619140625,0.05413651466369629,-0.18436431884765625,0.026012420654296875
1772727588721609700,5.874609619140625,0.009951114654541016,-0.11071491241455078,0.11426663398742676
1772727588731609600,5.884609619140625,-0.014498233795166016,-0.009169578552246094,0.2933223247528076
1772727588741609700,5.894609619140625,0.07169651985168457,0.06766510009765625,0.32102346420288086
1772727588751609600,5.904609619140625,0.24736547470092773,0.09102439880371094,0.24226999282836914
1772727588761609700,5.914609619140625,0.22427892684936523,0.10799407958984375,0.09550976753234863
1772727588771609600,5.924609619140625,0.09527230262756348,0.1585369110107422,-0.08121156692504883
1772727588781609700,5.934609619140625,0.04956173896789551,0.1136789321899414,-0.19013166427612305
1772727588791609600,5.944609619140625,0.04750370979309082,0.023607254028320312,-0.20068693161010742
1772727588801609700,5.954609619140625,0.1111135482788086,-0.006754875183105469,-0.1631639003753662
1772727588811609600,5.964609619140625,0.05983924865722656,-0.010787010192871094,-0.16034555435180664
1772727588821609700,5.974609619140625,0.06955742835998535,-0.03170585632324219,-0.07190823554992676
1772727588831609600,5.984609619140625,0.15460515022277832,-0.019997596740722656,-0.0063440799713134766
1772727588841609700,5.994609619140625,0.15999317169189453,-0.03066253662109375,-0.004923343658447266
1772727588851609600,6.004609619140625,0.011789321899414062,-0.036083221435546875,-0.06220817565917969
1772727588861609700,6.014609619140625,-0.1303555965423584,-0.07161521911621094,-0.016042709350585938
1772727588871609600,6.024609619140625,-0.09018301963806152,-0.10963153839111328,0.03943920135498047
1772727588881609700,6.034609619140625,0.012058258056640625,-0.11188793182373047,0.09401226043701172
1772727588891609600,6.044609619140625,0.08597898483276367,-0.08420085906982422,0.11560487747192383
1772727588901609700,6.054609619140625,0.09213423728942871,-0.07448482513427734,0.10750198364257812
1772727588911609600,6.064609619140625,0.12965798377990723,-0.10659599304199219,0.11538481712341309
1772727588921609700,6.074609619140625,0.053130388259887695,-0.17269420623779297,0.08888840675354004
1772727588931609600,6.084609619140625,-0.026119709014892578,-0.20732688903808594,0.04890608787536621
1772727588941609700,6.094609619140625,-0.08993792533874512,-0.19266033172607422,-0.05168771743774414
1772727588951609600,6.104609619140625,-0.11672353744506836,-0.14379596710205078,-0.11629104614257812
1772727588961609700,6.114609619140625,-0.15150856971740723,-0.029180526733398438,-0.1298229694366455
1772727588971609600,6.124609619140625,-0.19970035552978516,0.08483219146728516,-0.08849596977233887
1772727588981609700,6.134609619140625,-0.2446911334991455,0.16717529296875,-0.019454002380371094
1772727588991609600,6.144609619140625,-0.11787605285644531,0.18306732177734375,0.035790443420410156
1772727589001609700,6.154609619140625,0.16586017608642578,0.0931243896484375,0.02828049659729004
1772727589011609600,6.164609619140625,0.24728918075561523,-0.016608238220214844,-0.045076847076416016
1772727589021609700,6.174609619140625,0.06611299514770508,-0.10821151733398438,-0.0601193904876709
1772727589031609600,6.184609619140625,-0.07500386238098145,-0.12364768981933594,-0.018991708755493164
1772727589041609700,6.194609619140625,-0.014358758926391602,-0.0521697998046875,0.09292817115783691
1772727589051609600,6.204609619140625,0.13205337524414062,0.1391286849975586,0.10072922706604004
1772727589061609700,6.214609619140625,0.07214140892028809,0.3165283203125,0.028154611587524414
1772727589071609600,6.224609619140625,-0.05777454376220703,0.4689950942993164,-0.09107804298400879
1772727589081609700,6.234609619140625,-0.12226700782775879,0.5434207916259766,-0.18724727630615234
1772727589091609600,6.244609619140625,-0.04913949966430664,0.4845561981201172,-0.23456716537475586
1772727589101609700,6.254609619140625,-0.013051033020019531,0.33382320404052734,-0.1345205307006836
1772727589111609600,6.264609619140625,-0.0009007453918457031,0.1373910903930664,0.006429433822631836
1772727589121609700,6.274609619140625,-0.10376667976379395,-0.01801586151123047,0.13156628608703613
1772727589131609600,6.284609619140625,-0.08640146255493164,-0.06251716613769531,0.20746207237243652
1772727589141609700,6.294609619140625,-0.04244565963745117,0.015944480895996094,0.2798752784729004
1772727589151609600,6.304609619140625,-0.0064182281494140625,0.10259342193603516,0.3637573719024658
1772727589161609700,6.314609619140625,-0.03733181953430176,0.16384410858154297,0.2986156940460205
1772727589171609600,6.324609619140625,-0.09229660034179688,0.1432361602783203,0.15661048889160156
1772727589181609700,6.334609619140625,-0.11023759841918945,0.14258956909179688,0.0016932487487792969
1772727589191609600,6.344609619140625,-0.14182043075561523,0.1806173324584961,-0.18750524520874023
1772727589201609700,6.354609619140625,-0.3536489009857178,0.19266128540039062,-0.2145235538482666
1772727589211609600,6.364609619140625,-0.46437525749206543,0.2514190673828125,-0.1476609706878662
1772727589221609700,6.374609619140625,-0.43881964683532715,0.19202613830566406,-0.0789480209350586
1772727589231609600,6.384609619140625,-0.3341844081878662,0.1318359375,-0.004012584686279297
1772727589241609700,6.394609619140625,-0.19806528091430664,-0.009401321411132812,-0.0303497314453125
1772727589251609600,6.404609619140625,-0.010357856750488281,-0.11682415008544922,-0.08398795127868652
1772727589261609700,6.414609619140625,0.11380529403686523,-0.2318258285522461,-0.11552309989929199
1772727589271609600,6.424609619140625,0.06090688705444336,-0.30118370056152344,-0.0055468082427978516
1772727589281609700,6.434609619140625,-0.03038787841796875,-0.30974578857421875,0.1311042308807373
1772727589291609600,6.444609619140625,-0.04795217514038086,-0.25067806243896484,0.24293303489685059
1772727589301609700,6.454609619140625,0.026520967483520508,-0.13006210327148438,0.30517005920410156
1772727589311609600,6.464609619140625,0.03241848945617676,-0.0042057037353515625,0.2996699810028076
1772727589321609700,6.474609619140625,0.09766626358032227,0.09287166595458984,0.1814432144165039
1772727589331609600,6.484609619140625,0.15044593811035156,0.12186050415039062,-0.023322343826293945
1772727589341609700,6.494609619140625,0.1764202117919922,0.11649036407470703,-0.21143078804016113
1772727589351609600,6.504609619140625,0.1555185317993164,0.035572052001953125,-0.3178102970123291
1772727589361609700,6.514609619140625,0.1369614601135254,-0.05723094940185547,-0.35326504707336426
1772727589371609600,6.524609619140625,0.10305309295654297,-0.08363914489746094,-0.299938440322876
1772727589381609700,6.534609619140625,0.05110979080200195,0.023118019104003906,-0.19100403785705566
1772727589391609600,6.544609619140625,0.06864619255065918,0.1679239273071289,-0.08067870140075684
1772727589401609700,6.554609619140625,0.14066123962402344,0.2552347183227539,-0.023596525192260742
1772727589411609600,6.564609619140625,0.2551255226135254,0.18984317779541016,-0.042339324951171875
1772727589421609700,6.574609619140625,0.3211643695831299,-0.0093994140625,-0.06716442108154297
1772727589431609600,6.584609619140625,0.26409387588500977,-0.23319625854492188,-0.08026528358459473
1772727589441609700,6.594609619140625,0.18358802795410156,-0.4244813919067383,-0.048816680908203125
1772727589451609600,6.604609619140625,0.16097784042358398,-0.508875846862793,0.04962897300720215
1772727589461609700,6.614609619140625,0.16267704963684082,-0.499786376953125,0.15402674674987793
1772727589471609600,6.624609619140625,0.16772866249084473,-0.3415641784667969,0.20258045196533203
1772727589481609700,6.634609619140625,0.213515043258667,-0.15970325469970703,0.1195976734161377
1772727589491609600,6.644609619140625,0.28948116302490234,-0.026381492614746094,-0.03259992599487305
1772727589501609700,6.654609619140625,0.31001949310302734,0.006890296936035156,-0.15286755561828613
1772727589511609600,6.664609619140625,0.2993009090423584,-0.08669471740722656,-0.22961735725402832
1772727589521609700,6.674609619140625,0.2863647937774658,-0.2161865234375,-0.26508092880249023
1772727589531609600,6.684609619140625,0.2485792636871338,-0.3604879379272461,-0.28924131393432617
1772727589541609700,6.694609619140625,0.20616674423217773,-0.4813699722290039,-0.22885537147521973
1772727589551609600,6.704609619140625,0.21962523460388184,-0.5433464050292969,-0.13399052619934082
1772727589561609700,6.714609619140625,0.28703951835632324,-0.5826692581176758,-0.006145000457763672
1772727589571609600,6.724609619140625,0.3617725372314453,-0.5770330429077148,0.06592297554016113
1772727589581609700,6.734609619140625,0.3760526180267334,-0.5222196578979492,0.09306859970092773
1772727589591609600,6.744609619140625,0.41957974433898926,-0.47671985626220703,0.08091855049133301
1772727589601609700,6.754609619140625,0.4184117317199707,-0.3820381164550781,0.025870084762573242
1772727589611609600,6.764609619140625,0.3983497619628906,-0.2502250671386719,-0.04956483840942383
1772727589621609700,6.774609619140625,0.31995058059692383,-0.11218929290771484,-0.11702895164489746
1772727589631609600,6.784609619140625,0.2480790615081787,0.021124839782714844,-0.11171221733093262
1772727589641609700,6.794609619140625,0.1898353099822998,0.08751392364501953,-0.1172490119934082
1772727589651609600,6.804609619140625,0.2190694808959961,0.0649251937866211,-0.10368132591247559
1772727589661609700,6.814609619140625,0.23479247093200684,-0.012495994567871094,-0.13807368278503418
1772727589671609600,6.824609619140625,0.25436902046203613,-0.09549903869628906,-0.17150115966796875
1772727589681609700,6.834609619140625,0.14301013946533203,-0.193267822265625,-0.18670105934143066
1772727589691609600,6.844609619140625,0.0413813591003418,-0.22314071655273438,-0.12409138679504395
1772727589701609700,6.854609619140625,-0.027597427368164062,-0.2233448028564453,0.010875701904296875
1772727589711609600,6.864609619140625,-0.05751228332519531,-0.09633541107177734,0.17234444618225098
1772727589721609700,6.874609619140625,-0.13541388511657715,0.10064220428466797,0.1811389923095703
1772727589731609600,6.884609619140625,-0.2178947925567627,0.33954524993896484,0.1349482536315918
1772727589741609700,6.894609619140625,-0.18665623664855957,0.5445327758789062,0.12468075752258301
1772727589751609600,6.904609619140625,-0.20056724548339844,0.6651096343994141,0.09922003746032715
1772727589761609700,6.914609619140625,-0.23661255836486816,0.6325235366821289,0.07506871223449707
1772727589771609600,6.924609619140625,-0.3364882469177246,0.5162410736083984,0.037368059158325195
1772727589781609700,6.934609619140625,-0.4028773307800293,0.3680887222290039,0.026065826416015625
1772727589791609600,6.944609619140625,-0.4816129207611084,0.29129791259765625,0.04283595085144043
1772727589801609700,6.954609619140625,-0.5320258140563965,0.29070186614990234,0.11149811744689941
1772727589811609600,6.964609619140625,-0.5637037754058838,0.34725093841552734,0.19608831405639648
1772727589821609700,6.974609619140625,-0.5343029499053955,0.4341163635253906,0.301161527633667
1772727589831609600,6.984609619140625,-0.5118329524993896,0.5520725250244141,0.37255239486694336
1772727589841609700,6.994609619140625,-0.47834014892578125,0.6711864471435547,0.35345911979675293
1772727589851609600,7.004609619140625,-0.47443532943725586,0.7168951034545898,0.17089462280273438
1772727589861609700,7.014609619140625,-0.4340810775756836,0.6169309616088867,0.03415846824645996
1772727589871609600,7.024609619140625,-0.5276963710784912,0.6726436614990234,0.07175874710083008
1772727589881609700,7.034609619140625,-0.5785655975341797,0.8350152969360352,0.0018885135650634766
1772727589891609600,7.044609619140625,-0.6320018768310547,0.7655477523803711,-0.04093313217163086
1772727589901609700,7.054609619140625,-0.5185790061950684,0.6240577697753906,-0.10449671745300293
1772727589911609600,7.064609619140625,-0.38866209983825684,0.39513683319091797,-0.1504805088043213
1772727589921609700,7.074609619140625,-0.3188822269439697,0.23216724395751953,-0.1247565746307373
1772727589931609600,7.084609619140625,-0.323488712310791,0.13178539276123047,-0.07463884353637695
1772727589941609700,7.094609619140625,-0.31676292419433594,0.0920867919921875,-0.015210151672363281
1772727589951609600,7.104609619140625,-0.3003389835357666,0.05623817443847656,0.11365699768066406
1772727589961609700,7.114609619140625,-0.3094813823699951,0.080596923828125,0.24567365646362305
1772727589971609600,7.124609619140625,-0.23903369903564453,0.11770820617675781,0.3255293369293213
1772727589981609700,7.134609619140625,-0.10143041610717773,0.12158489227294922,0.14917230606079102
1772727589991609600,7.144609619140625,-0.05690884590148926,0.04213523864746094,0.0021893978118896484
1772727590001609700,7.154609619140625,-0.06083345413208008,-0.06483650207519531,-0.10830450057983398
1772727590011609600,7.164609619140625,-0.047991037368774414,-0.2850780487060547,-0.17061448097229004
1772727590021609700,7.174609619140625,-0.043364524841308594,-0.4850759506225586,-0.1668856143951416
1772727590031609600,7.184609619140625,-0.08346867561340332,-0.6421270370483398,-0.1624584197998047
1772727590041609700,7.194609619140625,-0.13628411293029785,-0.6810894012451172,-0.1307365894317627
1772727590051609600,7.204609619140625,-0.15686655044555664,-0.6596755981445312,-0.03459644317626953
1772727590061609700,7.214609619140625,-0.10842180252075195,-0.5154581069946289,0.09908819198608398
1772727590071609600,7.224609619140625,-0.005499124526977539,-0.4011354446411133,0.11516714096069336
1772727590081609700,7.234609619140625,0.05370521545410156,-0.2529563903808594,0.04289555549621582
1772727590091609600,7.244609619140625,0.09024262428283691,-0.2201986312866211,-0.058719635009765625
1772727590101609700,7.254609619140625,0.07817482948303223,-0.2998781204223633,-0.14510774612426758
1772727590111609600,7.264609619140625,0.11675214767456055,-0.4005889892578125,-0.14160871505737305
1772727590121609700,7.274609619140625,0.10404658317565918,-0.5034275054931641,-0.13426756858825684
1772727590131609600,7.284609619140625,0.053435325622558594,-0.5338163375854492,-0.12538957595825195
1772727590141609700,7.294609619140625,0.04711151123046875,-0.5142898559570312,-0.10630989074707031
1772727590151609600,7.304609619140625,0.12987661361694336,-0.4557037353515625,-0.07811450958251953
1772727590161609700,7.314609619140625,0.2219862937927246,-0.3915872573852539,-0.13266992568969727
1772727590171609600,7.324609619140625,0.22347283363342285,-0.30950927734375,-0.21738386154174805
1772727590181609700,7.334609619140625,0.07579779624938965,-0.26673412322998047,-0.3220500946044922
1772727590191609600,7.344609619140625,-0.03590798377990723,-0.21239662170410156,-0.31423521041870117
1772727590201609700,7.354609619140625,-0.013113260269165039,-0.17143535614013672,-0.22799277305603027
1772727590211609600,7.364609619140625,0.05788588523864746,-0.12404918670654297,-0.08760762214660645
1772727590221609700,7.374609619140625,0.08973312377929688,-0.07685565948486328,-0.0033545494079589844
1772727590231609600,7.384609619140625,0.06502366065979004,-0.07774829864501953,0.04713702201843262
1772727590241609700,7.394609619140625,0.08890724182128906,-0.15770912170410156,0.05259203910827637
1772727590251609600,7.404609619140625,0.1612398624420166,-0.23607540130615234,0.08184361457824707
1772727590261609700,7.414609619140625,0.25054359436035156,-0.2936229705810547,0.08287954330444336
1772727590271609600,7.424609619140625,0.11964702606201172,-0.271331787109375,0.06187558174133301
1772727590281609700,7.434609619140625,-0.00639033317565918,-0.16019725799560547,0.07998800277709961
1772727590291609600,7.444609619140625,-0.05582022666931152,0.040851593017578125,0.09408712387084961
1772727590301609700,7.454609619140625,-0.03940892219543457,0.2638673782348633,0.06836509704589844
1772727590311609600,7.464609619140625,-0.01583719253540039,0.4666252136230469,-0.0029883384704589844
1772727590321609700,7.474609619140625,0.016596078872680664,0.5604658126831055,-0.11692523956298828
1772727590331609600,7.484609619140625,0.06058907508850098,0.49207496643066406,-0.22960615158081055
1772727590341609700,7.494609619140625,0.10074210166931152,0.324371337890625,-0.2670629024505615
1772727590351609600,7.504609619140625,0.10354161262512207,0.1423168182373047,-0.22638511657714844
1772727590361609700,7.514609619140625,0.1129004955291748,0.0027894973754882812,-0.11803817749023438
1772727590371609600,7.524609619140625,0.13942599296569824,-0.08787918090820312,0.01575446128845215
1772727590381609700,7.534609619140625,0.15168046951293945,-0.0943460464477539,0.13958048820495605
1772727590391609600,7.544609619140625,0.22797632217407227,-0.09792613983154297,0.16758108139038086
1772727590401609700,7.554609619140625,0.3238236904144287,-0.1134023666381836,0.11973237991333008
1772727590411609600,7.564609619140625,0.38736581802368164,-0.14777374267578125,0.05523276329040527
1772727590421609700,7.574609619140625,0.39197635650634766,-0.18900299072265625,-0.011592626571655273
1772727590431609600,7.584609619140625,0.3653748035430908,-0.2192535400390625,0.0003752708435058594
1772727590441609700,7.594609619140625,0.2951359748840332,-0.1367654800415039,0.11128878593444824
1772727590451609600,7.604609619140625,0.21301722526550293,0.05245780944824219,0.31494975090026855
1772727590461609700,7.614609619140625,0.22909927368164062,0.29294300079345703,0.4762117862701416
1772727590471609600,7.624609619140625,0.33091163635253906,0.389678955078125,0.47008299827575684
1772727590481609700,7.634609619140625,0.4595186710357666,0.2748556137084961,0.25222253799438477
1772727590491609600,7.644609619140625,0.5507614612579346,0.004078865051269531,-0.04844403266906738
1772727590501609700,7.654609619140625,0.5469491481781006,-0.24747085571289062,-0.25533580780029297
1772727590511609600,7.664609619140625,0.5002346038818359,-0.3968982696533203,-0.39577460289001465
1772727590521609700,7.674609619140625,0.42020225524902344,-0.46866321563720703,-0.4248790740966797
1772727590531609600,7.684609619140625,0.25365185737609863,-0.3762531280517578,-0.24329805374145508
1772727590541609700,7.694609619140625,0.046957969665527344,-0.10310745239257812,0.031201839447021484
1772727590551609600,7.704609619140625,-0.0650017261505127,0.23623943328857422,0.2584223747253418
1772727590561609700,7.714609619140625,-0.004888057708740234,0.5951099395751953,0.3657104969024658
1772727590571609600,7.724609619140625,0.14359068870544434,0.8694486618041992,0.31489062309265137
1772727590581609700,7.734609619140625,0.2680797576904297,0.9858798980712891,0.16374802589416504
1772727590591609600,7.744609619140625,0.2816951274871826,0.9035701751708984,0.006035327911376953
1772727590601609700,7.754609619140625,0.22897648811340332,0.7131967544555664,-0.07671308517456055
1772727590611609600,7.764609619140625,0.08172821998596191,0.4727773666381836,-0.13064861297607422
1772727590621609700,7.774609619140625,-0.11550736427307129,0.3171844482421875,-0.1235804557800293
1772727590631609600,7.784609619140625,-0.270784854888916,0.2904481887817383,0.04466414451599121
1772727590641609700,7.794609619140625,-0.24203824996948242,0.3848237991333008,0.22096467018127441
1772727590651609600,7.804609619140625,-0.11294770240783691,0.5209798812866211,0.32664966583251953
1772727590661609700,7.814609619140625,-0.04479813575744629,0.6483707427978516,0.27064085006713867
1772727590671609600,7.824609619140625,0.009593725204467773,0.6697206497192383,0.174025297164917
1772727590681609700,7.834609619140625,0.03780317306518555,0.6356945037841797,0.10115504264831543
1772727590691609600,7.844609619140625,0.014583110809326172,0.5495586395263672,0.05649876594543457
1772727590701609700,7.854609619140625,-0.06574106216430664,0.4462165832519531,0.04982876777648926
1772727590711609600,7.864609619140625,-0.12997889518737793,0.3302488327026367,0.009626626968383789
1772727590721609700,7.874609619140625,-0.2095508575439453,0.26609230041503906,-0.042554616928100586
1772727590731609600,7.884609619140625,-0.232452392578125,0.2422170639038086,-0.12535977363586426
1772727590741609700,7.894609619140625,-0.24623441696166992,0.21757030487060547,-0.1804494857788086
1772727590751609600,7.904609619140625,-0.24688720703125,0.14680004119873047,-0.22076630592346191
1772727590761609700,7.914609619140625,-0.29798007011413574,0.024512290954589844,-0.21004080772399902
1772727590771609600,7.924609619140625,-0.3356645107269287,-0.09714221954345703,-0.12353157997131348
1772727590781609700,7.934609619140625,-0.39466428756713867,-0.17594242095947266,-0.06538248062133789
1772727590791609600,7.944609619140625,-0.42983174324035645,-0.2072162628173828,-0.008694648742675781
1772727590801609700,7.954609619140625,-0.4542980194091797,-0.23244667053222656,-0.002756834030151367
1772727590811609600,7.964609619140625,-0.43854331970214844,-0.21009254455566406,-0.02803802490234375
1772727590821609700,7.974609619140625,-0.4054911136627197,-0.16106128692626953,-0.04918694496154785
1772727590831609600,7.984609619140625,-0.3581986427307129,-0.09823322296142578,-0.04675865173339844
1772727590841609700,7.994609619140625,-0.35019826889038086,-0.061298370361328125,-0.01215982437133789
1772727590851609600,8.004609619140625,-0.3321096897125244,-0.09051227569580078,0.03645634651184082
1772727590861609700,8.014609619140625,-0.30297160148620605,-0.17789745330810547,0.07678556442260742
1772727590871609600,8.024609619140625,-0.2612171173095703,-0.2748594284057617,0.07472538948059082
1772727590881609700,8.034609619140625,-0.1423029899597168,-0.36094093322753906,0.1038508415222168
1772727590891609600,8.044609619140624,-0.031574249267578125,-0.46138763427734375,0.12586450576782227
1772727590901609700,8.054609619140624,0.020423412322998047,-0.5118608474731445,0.1070244312286377
1772727590911609600,8.064609619140626,-0.013406753540039062,-0.5283126831054688,0.03783106803894043
1772727590921609700,8.074609619140626,0.0041484832763671875,-0.5221672058105469,-0.027631044387817383
1772727590931609600,8.084609619140625,0.05586099624633789,-0.520167350769043,-0.10548853874206543
1772727590941609700,8.094609619140625,0.032668352127075195,-0.5025596618652344,-0.17034626007080078
1772727590951609600,8.104609619140625,-0.03498959541320801,-0.45905399322509766,-0.22904253005981445
1772727590961609700,8.114609619140625,-0.08340167999267578,-0.4161262512207031,-0.2413330078125
1772727590971609600,8.124609619140625,-0.06074666976928711,-0.39020824432373047,-0.2438819408416748
1772727590981609700,8.134609619140624,-0.012799263000488281,-0.40749454498291016,-0.28463149070739746
1772727590991609600,8.144609619140626,0.011565923690795898,-0.46959686279296875,-0.3015170097351074
1772727591001609700,8.154609619140626,-0.0017702579498291016,-0.5295696258544922,-0.30486631393432617
1772727591011609600,8.164609619140625,-0.07689189910888672,-0.6249799728393555,-0.23053455352783203
1772727591021609700,8.174609619140625,-0.09481620788574219,-0.6912803649902344,-0.19187617301940918
1772727591031609600,8.184609619140625,-0.05149340629577637,-0.728358268737793,-0.1076200008392334
1772727591041609700,8.194609619140625,0.018715381622314453,-0.7576074600219727,0.0007836818695068359
1772727591051609600,8.204609619140625,0.055556535720825195,-0.7504615783691406,0.1491849422454834
1772727591061609700,8.214609619140624,0.11170434951782227,-0.6939859390258789,0.23326754570007324
1772727591071609600,8.224609619140624,0.10813593864440918,-0.5852222442626953,0.20118308067321777
1772727591081609700,8.234609619140626,0.0444793701171875,-0.4183330535888672,0.16252851486206055
1772727591091609600,8.244609619140626,0.011499166488647461,-0.24835205078125,0.09818077087402344
1772727591101609700,8.254609619140625,0.002521514892578125,-0.1399068832397461,0.008097171783447266
1772727591111609600,8.264609619140625,0.06858229637145996,-0.011820793151855469,-0.08950018882751465
1772727591121609700,8.274609619140625,0.05574846267700195,0.08710002899169922,-0.1538233757019043
1772727591131609600,8.284609619140625,0.040000200271606445,0.13841915130615234,-0.20929408073425293
1772727591141609700,8.294609619140624,0.0652167797088623,0.19533538818359375,-0.2575221061706543
1772727591151609600,8.304609619140624,0.13277816772460938,0.2220897674560547,-0.2671990394592285
1772727591161609700,8.314609619140626,0.14973211288452148,0.2667217254638672,-0.1938152313232422
1772727591171609600,8.324609619140626,0.06764364242553711,0.2744178771972656,-0.0712592601776123
1772727591181609700,8.334609619140625,-0.018004655838012695,0.3060131072998047,0.06409406661987305
1772727591191609600,8.344609619140625,-0.04354119300842285,0.3884572982788086,0.15102648735046387
1772727591201609700,8.354609619140625,-0.022746801376342773,0.5072135925292969,0.23608827590942383
1772727591211609600,8.364609619140625,0.022429704666137695,0.6197824478149414,0.27675437927246094
1772727591221609700,8.374609619140625,0.05603766441345215,0.6562910079956055,0.2627394199371338
1772727591231609600,8.384609619140624,0.08564090728759766,0.6227855682373047,0.2067573070526123
1772727591241609700,8.394609619140626,0.06208610534667969,0.5794811248779297,0.17860698699951172
1772727591251609600,8.404609619140626,-0.0025479793548583984,0.4879293441772461,0.14149928092956543
1772727591261609700,8.414609619140625,-0.12021279335021973,0.42247867584228516,0.10069513320922852
1772727591271609600,8.424609619140625,-0.23600411415100098,0.42028141021728516,0.10982894897460938
1772727591281609700,8.434609619140625,-0.26740193367004395,0.47339630126953125,0.17685842514038086
1772727591291609600,8.444609619140625,-0.18293094635009766,0.555842399597168,0.23681282997131348
1772727591301609700,8.454609619140625,-0.08000755310058594,0.6516122817993164,0.2198169231414795
1772727591311609600,8.464609619140624,0.007460594177246094,0.7033662796020508,0.1550884246826172
1772727591321609700,8.474609619140624,0.06718039512634277,0.6397686004638672,0.08829545974731445
1772727591331609600,8.484609619140626,0.03208804130554199,0.5205011367797852,0.01671600341796875
1772727591341609700,8.494609619140626,-0.0427701473236084,0.3237142562866211,-0.012223958969116211
1772727591351609600,8.504609619140625,-0.051322221755981445,0.24221324920654297,0.04180622100830078
1772727591361609700,8.514609619140625,0.02561163902282715,0.16156673431396484,0.09122920036315918
1772727591371609600,8.524609619140625,0.015211343765258789,0.16946029663085938,0.14587759971618652
1772727591381609700,8.534609619140625,0.0774383544921875,0.2023181915283203,0.11023402214050293
1772727591391609600,8.544609619140624,0.16887450218200684,0.2070770263671875,0.01279902458190918
1772727591401609700,8.554609619140624,0.2523174285888672,0.2115163803100586,-0.05898737907409668
1772727591411609600,8.564609619140626,0.2425551414489746,0.17696571350097656,-0.09051680564880371
1772727591421609700,8.574609619140626,0.22521591186523438,0.055110931396484375,-0.07897186279296875
1772727591431609600,8.584609619140625,0.22706031799316406,-0.031482696533203125,-0.0842897891998291
1772727591441609700,8.594609619140625,0.2164621353149414,-0.08694744110107422,-0.10361433029174805
1772727591451609600,8.604609619140625,0.22477436065673828,-0.0795888900756836,-0.09200096130371094
1772727591461609700,8.614609619140625,0.26791858673095703,-0.10031318664550781,-0.07448291778564453
1772727591471609600,8.624609619140625,0.3250412940979004,-0.1715373992919922,-0.12699151039123535
1772727591481609700,8.634609619140624,0.34935712814331055,-0.2544069290161133,-0.17297005653381348
1772727591491609600,8.644609619140626,0.3443784713745117,-0.3091545104980469,-0.21586108207702637
1772727591501609700,8.654609619140626,0.2980320453643799,-0.4205150604248047,-0.24875259399414062
1772727591511609600,8.664609619140625,0.23599028587341309,-0.5387706756591797,-0.17095470428466797
1772727591521609700,8.674609619140625,0.150984525680542,-0.5370874404907227,0.0033538341522216797
1772727591531609600,8.684609619140625,0.11823511123657227,-0.4899444580078125,0.13020801544189453
1772727591541609700,8.694609619140625,0.049051523208618164,-0.3553028106689453,0.08480000495910645
1772727591551609600,8.704609619140625,0.053360700607299805,-0.25972747802734375,0.08511018753051758
1772727591561609700,8.714609619140624,0.07613420486450195,-0.16090869903564453,0.01304769515991211
1772727591571609600,8.724609619140624,0.1303541660308838,-0.12912750244140625,-0.10945510864257812
1772727591581609700,8.734609619140626,0.05309724807739258,-0.18192768096923828,-0.21652674674987793
1772727591591609600,8.744609619140626,-0.03286886215209961,-0.26119518280029297,-0.301652193069458
1772727591601609700,8.754609619140625,-0.09650850296020508,-0.32285022735595703,-0.2646801471710205
1772727591611609600,8.764609619140625,-0.13216137886047363,-0.3684215545654297,-0.1687788963317871
1772727591621609700,8.774609619140625,-0.15866422653198242,-0.3642387390136719,-0.05408048629760742
1772727591631609600,8.784609619140625,-0.14598941802978516,-0.3113069534301758,0.05652117729187012
1772727591641609700,8.794609619140624,-0.1382617950439453,-0.21120166778564453,0.13798284530639648
1772727591651609600,8.804609619140624,-0.13047313690185547,-0.0911703109741211,0.20664286613464355
1772727591661609700,8.814609619140626,-0.10860466957092285,0.010721206665039062,0.1704418659210205
1772727591671609600,8.824609619140626,-0.09775042533874512,0.07512378692626953,0.07038688659667969
1772727591681609700,8.834609619140625,-0.1442422866821289,0.14509868621826172,-0.057106971740722656
1772727591691609600,8.844609619140625,-0.18874073028564453,0.21569538116455078,-0.1536576747894287
1772727591701609700,8.854609619140625,-0.20144891738891602,0.2407388687133789,-0.1569352149963379
1772727591711609600,8.864609619140625,-0.13927841186523438,0.2164926528930664,-0.09856176376342773
1772727591721609700,8.874609619140625,-0.10081672668457031,0.16038036346435547,-0.10323047637939453
1772727591731609600,8.884609619140624,-0.16349363327026367,0.08576488494873047,-0.08502769470214844
1772727591741609700,8.894609619140626,-0.20276403427124023,0.03236103057861328,-0.06083822250366211
1772727591751609600,8.904609619140626,-0.19416165351867676,-0.008715629577636719,0.0012350082397460938
1772727591761609700,8.914609619140625,-0.14715027809143066,-0.01813983917236328,0.08919620513916016
1772727591771609600,8.924609619140625,-0.11986255645751953,-0.0024099349975585938,0.17644166946411133
1772727591781609700,8.934609619140625,-0.09894251823425293,-0.0026378631591796875,0.1709151268005371
1772727591791609600,8.944609619140625,-0.07846307754516602,0.008453369140625,0.10761642456054688
1772727591801609700,8.954609619140625,-0.04645228385925293,0.017398834228515625,0.0017766952514648438
1772727591811609600,8.964609619140624,-0.07374072074890137,0.035943031311035156,-0.00808572769165039
1772727591821609700,8.974609619140624,-0.08008503913879395,0.016353607177734375,0.061228036880493164
1772727591831609600,8.984609619140626,-0.0523834228515625,-0.0052928924560546875,0.021509408950805664
1772727591841609700,8.994609619140626,-0.07765793800354004,-0.029888153076171875,0.006312370300292969
1772727591851609600,9.004609619140625,-0.07183837890625,-0.016714096069335938,0.040911197662353516
1772727591861609700,9.014609619140625,-0.02649974822998047,-0.04033851623535156,0.07326030731201172
1772727591871609600,9.024609619140625,0.05892443656921387,-0.07193565368652344,0.13721418380737305
1772727591881609700,9.034609619140625,0.029950857162475586,-0.08638286590576172,0.13263654708862305
1772727591891609600,9.044609619140624,-0.01061248779296875,-0.08199882507324219,0.08843779563903809
1772727591901609700,9.054609619140624,-0.04653358459472656,-0.08071041107177734,-0.002128124237060547
1772727591911609600,9.064609619140626,-0.017502784729003906,-0.053704261779785156,-0.09697628021240234
1772727591921609700,9.074609619140626,-0.03279232978820801,0.021887779235839844,-0.07975006103515625
1772727591931609600,9.084609619140625,-0.05951547622680664,0.13829803466796875,-0.03409719467163086
1772727591941609700,9.094609619140625,-0.032840728759765625,0.22946548461914062,-0.009783267974853516
1772727591951609600,9.104609619140625,0.05352902412414551,0.25559425354003906,-0.07831668853759766
1772727591961609700,9.114609619140625,0.068267822265625,0.15576553344726562,-0.13017535209655762
1772727591971609600,9.124609619140625,0.08604216575622559,-0.01837635040283203,-0.17720270156860352
1772727591981609700,9.134609619140624,0.05087089538574219,-0.19517803192138672,-0.18790078163146973
1772727591991609600,9.144609619140626,0.01576066017150879,-0.32968902587890625,-0.14282488822937012
1772727592001609700,9.154609619140626,0.011226892471313477,-0.35469913482666016,-0.026232481002807617
1772727592011609600,9.164609619140625,0.02864217758178711,-0.27236366271972656,0.06378865242004395
1772727592021609700,9.174609619140625,0.06862020492553711,-0.13308238983154297,0.10139107704162598
1772727592031609600,9.184609619140625,0.1116173267364502,0.0069065093994140625,0.13610029220581055
1772727592041609700,9.194609619140625,0.16530942916870117,0.057982444763183594,0.14262628555297852
1772727592051609600,9.204609619140625,0.26254916191101074,0.03832435607910156,0.09674334526062012
1772727592061609700,9.214609619140624,0.23368215560913086,-0.008281707763671875,-0.013070106506347656
1772727592071609600,9.224609619140624,0.14403629302978516,-0.048684120178222656,-0.1365067958831787
1772727592081609700,9.234609619140626,0.0742185115814209,-0.050665855407714844,-0.19231510162353516
1772727592091609600,9.244609619140626,0.07857537269592285,-0.03267478942871094,-0.10569453239440918
1772727592101609700,9.254609619140625,0.09408450126647949,0.04622650146484375,-0.03227639198303223
1772727592111609600,9.264609619140625,0.13962769508361816,0.11119270324707031,0.004982709884643555
1772727592121609700,9.274609619140625,0.2028212547302246,0.1501922607421875,-0.058701515197753906
1772727592131609600,9.284609619140625,0.212493896484375,0.1754627227783203,-0.09433746337890625
1772727592141609700,9.294609619140624,0.12968134880065918,0.21251964569091797,-0.09517192840576172
1772727592151609600,9.304609619140624,0.025299072265625,0.21889400482177734,-0.07550287246704102
1772727592161609700,9.314609619140626,-0.001504659652709961,0.23303699493408203,-0.06173419952392578
1772727592171609600,9.324609619140626,-0.04142498970031738,0.2822084426879883,0.004675865173339844
1772727592181609700,9.334609619140625,-0.051955461502075195,0.3184185028076172,0.11245584487915039
1772727592191609600,9.344609619140625,-0.05916786193847656,0.3092918395996094,0.2565746307373047
1772727592201609700,9.354609619140625,0.06912612915039062,0.24566936492919922,0.2617955207824707
1772727592211609600,9.364609619140625,0.10520148277282715,0.1698007583618164,0.14066147804260254
1772727592221609700,9.374609619140625,0.0564730167388916,0.09845352172851562,0.07265877723693848
1772727592231609600,9.384609619140624,-0.08129739761352539,-0.0044918060302734375,0.13129806518554688
1772727592241609700,9.394609619140626,-0.1336503028869629,-0.040436744689941406,0.18982362747192383
1772727592251609600,9.404609619140626,-0.19781804084777832,-0.0037641525268554688,0.1607210636138916
1772727592261609700,9.414609619140625,-0.27268195152282715,0.12879085540771484,0.10794997215270996
1772727592271609600,9.424609619140625,-0.28625988960266113,0.2901039123535156,0.06767439842224121
1772727592281609700,9.434609619140625,-0.22536063194274902,0.3588447570800781,0.0332796573638916
1772727592291609600,9.444609619140625,-0.11219573020935059,0.3329591751098633,-0.004782676696777344
1772727592301609700,9.454609619140625,-0.04195833206176758,0.2759733200073242,-0.04874014854431152
1772727592311609600,9.464609619140624,0.008334159851074219,0.19606304168701172,-0.1526172161102295
1772727592321609700,9.474609619140624,-0.02969813346862793,0.09418392181396484,-0.2129204273223877
1772727592331609600,9.484609619140626,-0.07820725440979004,0.025241851806640625,-0.15966010093688965
1772727592341609700,9.494609619140626,-0.06254315376281738,-0.06465911865234375,-0.0687105655670166
1772727592351609600,9.504609619140625,-0.03642725944519043,-0.13740253448486328,0.005899190902709961
1772727592361609700,9.514609619140625,-0.03013014793395996,-0.15240859985351562,0.08375906944274902
1772727592371609600,9.524609619140625,-0.03326249122619629,-0.12030601501464844,0.10103178024291992
1772727592381609700,9.534609619140625,-0.12746167182922363,-0.08245086669921875,0.09540057182312012
1772727592391609600,9.544609619140624,-0.1615898609161377,-0.027238845825195312,0.1365807056427002
1772727592401609700,9.554609619140624,0.002220630645751953,0.03551197052001953,0.15424847602844238
1772727592411609600,9.564609619140626,0.1546008586883545,0.0672454833984375,0.06479763984680176
1772727592421609700,9.574609619140626,0.1056220531463623,0.07662582397460938,-0.015996217727661133
1772727592431609600,9.584609619140625,0.045684099197387695,-0.024972915649414062,-0.14728331565856934
1772727592441609700,9.594609619140625,0.0961005687713623,-0.1759471893310547,-0.2942030429840088
1772727592451609600,9.604609619140625,0.17171907424926758,-0.31508350372314453,-0.3902323246002197
1772727592461609700,9.614609619140625,0.06474137306213379,-0.39496707916259766,-0.3602156639099121
1772727592471609600,9.624609619140625,-0.07550477981567383,-0.41484642028808594,-0.2182302474975586
1772727592481609700,9.634609619140624,-0.20192646980285645,-0.3286561965942383,-0.04951620101928711
1772727592491609600,9.644609619140626,-0.18399906158447266,-0.1935873031616211,0.08690571784973145
1772727592501609700,9.654609619140626,-0.038114309310913086,-0.039463043212890625,0.12818503379821777
1772727592511609600,9.664609619140625,0.12197422981262207,0.04562187194824219,0.09931302070617676
1772727592521609700,9.674609619140625,0.2458033561706543,-0.03320884704589844,-0.009218215942382812
1772727592531609600,9.684609619140625,0.23164606094360352,-0.20592212677001953,-0.13938665390014648
1772727592541609700,9.694609619140625,0.1689145565032959,-0.35411643981933594,-0.23413610458374023
1772727592551609600,9.704609619140625,0.09412169456481934,-0.44739532470703125,-0.24585247039794922
1772727592561609700,9.714609619140624,0.029719114303588867,-0.4798774719238281,-0.1257612705230713
1772727592571609600,9.724609619140624,-0.0742788314819336,-0.4252023696899414,0.02785205841064453
1772727592581609700,9.734609619140626,-0.09960675239562988,-0.37714576721191406,0.17307376861572266
1772727592591609600,9.744609619140626,-0.04736495018005371,-0.22499656677246094,0.23431634902954102
1772727592601609700,9.754609619140625,-0.023006200790405273,-0.11944770812988281,0.0802149772644043
1772727592611609600,9.764609619140625,-0.07537341117858887,-0.09518909454345703,-0.04398536682128906
1772727592621609700,9.774609619140625,0.01915907859802246,-0.14551353454589844,-0.14674806594848633
1772727592631609600,9.784609619140625,0.10083365440368652,-0.29751014709472656,-0.27335405349731445
1772727592641609700,9.794609619140624,0.07027769088745117,-0.4014701843261719,-0.3190927505493164
1772727592651609600,9.804609619140624,-0.0765993595123291,-0.43187999725341797,-0.3112912178039551
1772727592661609700,9.814609619140626,-0.1299271583557129,-0.38950252532958984,-0.18154573440551758
1772727592671609600,9.824609619140626,-0.11734557151794434,-0.2518129348754883,0.002622365951538086
1772727592681609700,9.834609619140625,-0.02274775505065918,-0.13803863525390625,0.16170024871826172
1772727592691609600,9.844609619140625,0.08031034469604492,-0.10654163360595703,0.20575356483459473
1772727592701609700,9.854609619140625,0.13050246238708496,-0.10149288177490234,0.12542462348937988
1772727592711609600,9.864609619140625,0.05276894569396973,-0.14612293243408203,0.026628494262695312
1772727592721609700,9.874609619140625,-0.04942727088928223,-0.18239116668701172,0.02214217185974121
1772727592731609600,9.884609619140624,-0.0698544979095459,-0.17809200286865234,0.0595395565032959
1772727592741609700,9.894609619140626,-0.11347627639770508,-0.11914253234863281,0.09313106536865234
1772727592751609600,9.904609619140626,-0.17110180854797363,0.0076007843017578125,0.1327052116394043
1772727592761609700,9.914609619140625,-0.09478616714477539,0.17572593688964844,0.07018542289733887
1772727592771609600,9.924609619140625,0.02459120750427246,0.3100128173828125,-0.0303647518157959
1772727592781609700,9.934609619140625,0.03345751762390137,0.4410972595214844,-0.03441119194030762
1772727592791609600,9.944609619140625,-0.014907598495483398,0.4759683609008789,-0.01747727394104004
1772727592801609700,9.954609619140625,-0.054157257080078125,0.45049476623535156,-0.0031235218048095703
1772727592811609600,9.964609619140624,-0.08813285827636719,0.36887550354003906,0.025886058807373047
1772727592821609700,9.974609619140624,-0.029389381408691406,0.35007572174072266,0.05190420150756836
1772727592831609600,9.984609619140626,0.014026165008544922,0.2977933883666992,0.0825197696685791
1772727592841609700,9.994609619140626,0.033887624740600586,0.2706947326660156,0.12888240814208984
1772727592851609600,10.004609619140625,0.02613520622253418,0.25978946685791016,0.14997005462646484
1772727592861609700,10.014609619140625,0.01096963882446289,0.2839164733886719,0.19150114059448242
1772727592871609600,10.024609619140625,-0.04117274284362793,0.28627490997314453,0.15169048309326172
1772727592881609700,10.034609619140625,-0.15665340423583984,0.3423004150390625,0.09767293930053711
1772727592891609600,10.044609619140624,-0.2260727882385254,0.41079044342041016,0.07181143760681152
1772727592901609700,10.054609619140624,-0.21925783157348633,0.4559621810913086,0.06188821792602539
1772727592911609600,10.064609619140626,-0.16379928588867188,0.4709653854370117,0.015669822692871094
1772727592921609700,10.074609619140626,-0.11339306831359863,0.40715885162353516,-0.07274341583251953
1772727592931609600,10.084609619140625,-0.04522228240966797,0.3141441345214844,-0.11392593383789062
1772727592941609700,10.094609619140625,-0.035491228103637695,0.22493934631347656,-0.10653948783874512
1772727592951609600,10.104609619140625,-0.02722477912902832,0.14533233642578125,-0.07559823989868164
1772727592961609700,10.114609619140625,-0.013287782669067383,0.1295633316040039,0.028860807418823242
1772727592971609600,10.124609619140625,-0.007595062255859375,0.16248607635498047,0.13644003868103027
1772727592981609700,10.134609619140624,-0.08821344375610352,0.22036361694335938,0.29790258407592773
1772727592991609600,10.144609619140626,0.07157492637634277,0.30344200134277344,0.30799293518066406
1772727593001609700,10.154609619140626,0.17380356788635254,0.32477378845214844,0.18889117240905762
1772727593011609600,10.164609619140625,0.15396785736083984,0.2961769104003906,0.03587031364440918
1772727593021609700,10.174609619140625,0.1444993019104004,0.2497272491455078,-0.1175544261932373
1772727593031609600,10.184609619140625,0.24314641952514648,0.16900253295898438,-0.20186376571655273
1772727593041609700,10.194609619140625,0.2654569149017334,0.09215450286865234,-0.18743681907653809
1772727593051609600,10.204609619140625,0.18651175498962402,0.034984588623046875,-0.08390665054321289
1772727593061609700,10.214609619140624,0.12192106246948242,0.0039463043212890625,0.0058383941650390625
1772727593071609600,10.224609619140624,0.1286778450012207,0.03546619415283203,0.058718204498291016
1772727593081609700,10.234609619140626,0.18415498733520508,0.11839580535888672,0.06105756759643555
1772727593091609600,10.244609619140626,0.18313980102539062,0.15268230438232422,0.006393909454345703
1772727593101609700,10.254609619140625,0.16509485244750977,0.1311025619506836,-0.05679464340209961
1772727593111609600,10.264609619140625,0.0819847583770752,0.04254627227783203,-0.10607409477233887
1772727593121609700,10.274609619140625,0.018270015716552734,-0.044811248779296875,-0.15574097633361816
1772727593131609600,10.284609619140625,0.01949453353881836,-0.1284351348876953,-0.17261266708374023
1772727593141609700,10.294609619140624,0.06568765640258789,-0.2070903778076172,-0.13097405433654785
1772727593151609600,10.304609619140624,0.08319711685180664,-0.24414730072021484,-0.10482549667358398
1772727593161609700,10.314609619140626,0.07460880279541016,-0.2735939025878906,-0.04165029525756836
1772727593171609600,10.324609619140626,0.0643925666809082,-0.3259429931640625,0.04010343551635742
1772727593181609700,10.334609619140625,0.05417776107788086,-0.3742971420288086,0.09682273864746094
1772727593191609600,10.344609619140625,0.0714273452758789,-0.3767108917236328,0.13733625411987305
1772727593201609700,10.354609619140625,0.04672574996948242,-0.3029451370239258,0.10043120384216309
1772727593211609600,10.364609619140625,-0.048203468322753906,-0.2110157012939453,0.049681901931762695
1772727593221609700,10.374609619140625,-0.034940242767333984,-0.12799835205078125,-0.014381170272827148
1772727593231609600,10.384609619140624,0.010138750076293945,-0.09386920928955078,-0.1607823371887207
1772727593241609700,10.394609619140626,0.07283163070678711,-0.11804676055908203,-0.29511547088623047
1772727593251609600,10.404609619140626,0.05548214912414551,-0.19088459014892578,-0.3766360282897949
1772727593261609700,10.414609619140625,0.04850506782531738,-0.3040790557861328,-0.37693047523498535
1772727593271609600,10.424609619140625,0.06266427040100098,-0.4814739227294922,-0.2979123592376709
1772727593281609700,10.434609619140625,0.018719911575317383,-0.5381832122802734,-0.13372468948364258
1772727593291609600,10.444609619140625,-0.029226064682006836,-0.512883186340332,0.06845808029174805
1772727593301609700,10.454609619140625,-0.03981614112854004,-0.3980674743652344,0.20372414588928223
1772727593311609600,10.464609619140624,-0.009354114532470703,-0.25154876708984375,0.2473008632659912
1772727593321609700,10.474609619140624,0.05489397048950195,-0.1457509994506836,0.1806950569152832
1772727593331609600,10.484609619140626,0.12348580360412598,-0.10894203186035156,-0.00481724739074707
1772727593341609700,10.494609619140626,0.12251448631286621,-0.15673160552978516,-0.17026686668395996
1772727593351609600,10.504609619140625,0.04994535446166992,-0.215362548828125,-0.24525237083435059
1772727593361609700,10.514609619140625,-0.04133415222167969,-0.24956893920898438,-0.24158072471618652
1772727593371609600,10.524609619140625,-0.137800931930542,-0.2666511535644531,-0.15836048126220703
1772727593381609700,10.534609619140625,-0.10871696472167969,-0.18544673919677734,-0.06400871276855469
1772727593391609600,10.544609619140624,-0.07129859924316406,-0.11284065246582031,0.008340835571289062
1772727593401609700,10.554609619140624,-0.03528761863708496,-0.05744743347167969,0.11496281623840332
1772727593411609600,10.564609619140626,0.006440401077270508,-0.07299137115478516,0.1171412467956543
1772727593421609700,10.574609619140626,0.05855512619018555,-0.12022113800048828,0.059952497482299805
1772727593431609600,10.584609619140625,0.04342842102050781,-0.21428966522216797,-0.02289414405822754
1772727593441609700,10.594609619140625,-0.07182025909423828,-0.2873516082763672,-0.05603981018066406
1772727593451609600,10.604609619140625,-0.18346714973449707,-0.3332996368408203,0.020555496215820312
1772727593461609700,10.614609619140625,-0.20977997779846191,-0.26343441009521484,0.1481027603149414
1772727593471609600,10.624609619140625,-0.125579833984375,-0.12058162689208984,0.20058751106262207
1772727593481609700,10.634609619140624,-0.03596901893615723,0.07283687591552734,0.19408464431762695
1772727593491609600,10.644609619140626,0.045076608657836914,0.2142200469970703,0.10524129867553711
1772727593501609700,10.654609619140626,0.06763911247253418,0.21727371215820312,0.008832454681396484
1772727593511609600,10.664609619140625,0.060131072998046875,0.13551712036132812,-0.07866597175598145
1772727593521609700,10.674609619140625,0.03584718704223633,0.012194633483886719,-0.10134506225585938
1772727593531609600,10.684609619140625,0.02860856056213379,-0.09696197509765625,-0.09778523445129395
1772727593541609700,10.694609619140625,-0.0486757755279541,-0.10715770721435547,-0.0010833740234375
1772727593551609600,10.704609619140625,-0.11547160148620605,-0.016335487365722656,0.11793231964111328
1772727593561609700,10.714609619140624,-0.12607407569885254,0.13596248626708984,0.24876022338867188
1772727593571609600,10.724609619140624,-0.09695982933044434,0.3424243927001953,0.2331068515777588
1772727593581609700,10.734609619140626,-0.11616039276123047,0.5297174453735352,0.142564058303833
1772727593591609600,10.744609619140626,-0.18174004554748535,0.6428432464599609,0.025525331497192383
1772727593601609700,10.754609619140625,-0.18840360641479492,0.6723489761352539,-0.09369087219238281
1772727593611609600,10.764609619140625,-0.18390583992004395,0.5973787307739258,-0.1610572338104248
1772727593621609700,10.774609619140625,-0.22792482376098633,0.5012264251708984,-0.1889641284942627
1772727593631609600,10.784609619140625,-0.2991466522216797,0.3825263977050781,-0.13010835647583008
1772727593641609700,10.794609619140624,-0.27459287643432617,0.2717905044555664,0.003591299057006836
1772727593651609600,10.804609619140624,-0.20491695404052734,0.22272586822509766,0.1820223331451416
1772727593661609700,10.814609619140626,-0.14182591438293457,0.23212814331054688,0.3470897674560547
1772727593671609600,10.824609619140626,-0.1313631534576416,0.25890541076660156,0.45641160011291504
1772727593681609700,10.834609619140625,-0.12448501586914062,0.3060035705566406,0.4029197692871094
1772727593691609600,10.844609619140625,-0.14911460876464844,0.3587503433227539,0.2637927532196045
1772727593701609700,10.854609619140625,-0.16220903396606445,0.3734722137451172,0.11038780212402344
1772727593711609600,10.864609619140625,-0.19559884071350098,0.3879547119140625,0.019933700561523438
1772727593721609700,10.874609619140625,-0.1581423282623291,0.36658573150634766,-0.06286978721618652
1772727593731609600,10.884609619140624,-0.1909029483795166,0.3559598922729492,-0.12494850158691406
1772727593741609700,10.894609619140626,-0.15596723556518555,0.32132434844970703,-0.21096372604370117
1772727593751609600,10.904609619140626,-0.11703705787658691,0.25003623962402344,-0.26797056198120117
1772727593761609700,10.914609619140625,-0.029439449310302734,0.16906452178955078,-0.27791547775268555
1772727593771609600,10.924609619140625,0.042368412017822266,0.08167839050292969,-0.2229907512664795
1772727593781609700,10.934609619140625,0.08078289031982422,-0.008113861083984375,-0.10636210441589355
1772727593791609600,10.944609619140625,0.08201932907104492,-0.10650634765625,0.014089107513427734
1772727593801609700,10.954609619140625,0.11613273620605469,-0.21062088012695312,0.10145163536071777
1772727593811609600,10.964609619140624,0.10770654678344727,-0.25214672088623047,0.14342474937438965
1772727593821609700,10.974609619140624,0.058016061782836914,-0.25523948669433594,0.18329715728759766
1772727593831609600,10.984609619140626,0.016492366790771484,-0.2232646942138672,0.18920493125915527
1772727593841609700,10.994609619140626,0.05397176742553711,-0.1812267303466797,0.10708975791931152
1772727593851609600,11.004609619140625,0.10006356239318848,-0.10802173614501953,-0.017905235290527344
1772727593861609700,11.014609619140625,0.1033022403717041,-0.037136077880859375,-0.10933232307434082
1772727593871609600,11.024609619140625,0.11256933212280273,0.0016107559204101562,-0.18056917190551758
1772727593881609700,11.034609619140625,0.17641472816467285,-0.10131263732910156,-0.19843268394470215
1772727593891609600,11.044609619140624,0.23192143440246582,-0.2046499252319336,-0.12654352188110352
1772727593901609700,11.054609619140624,0.26262736320495605,-0.30071353912353516,-0.08427667617797852
1772727593911609600,11.064609619140626,0.1648423671722412,-0.3612232208251953,-0.0809786319732666
1772727593921609700,11.074609619140626,0.10205292701721191,-0.36628246307373047,-0.053643226623535156
1772727593931609600,11.084609619140625,0.12095832824707031,-0.2930784225463867,-0.03132939338684082
1772727593941609700,11.094609619140625,0.19633841514587402,-0.22101593017578125,-0.00895380973815918
1772727593951609600,11.104609619140625,0.24905681610107422,-0.1627979278564453,-0.03194856643676758
1772727593961609700,11.114609619140625,0.24361610412597656,-0.1888561248779297,-0.0945444107055664
1772727593971609600,11.124609619140625,0.2735025882720947,-0.21223831176757812,-0.13234281539916992
1772727593981609700,11.134609619140624,0.2795870304107666,-0.2585277557373047,-0.12536120414733887
1772727593991609600,11.144609619140626,0.29728126525878906,-0.2652902603149414,-0.12912297248840332
1772727594001609700,11.154609619140626,0.24692511558532715,-0.2642345428466797,-0.0942544937133789
1772727594011609600,11.164609619140625,0.1569983959197998,-0.2263011932373047,-0.03458666801452637
1772727594021609700,11.174609619140625,0.12813949584960938,-0.19441699981689453,-0.003056764602661133
1772727594031609600,11.184609619140625,0.16112780570983887,-0.15543556213378906,0.006589651107788086
1772727594041609700,11.194609619140625,0.23878836631774902,-0.16213130950927734,-0.006201028823852539
1772727594051609600,11.204609619140625,0.2512223720550537,-0.2230062484741211,-0.054572105407714844
1772727594061609700,11.214609619140624,0.18914508819580078,-0.34210681915283203,-0.06627035140991211
1772727594071609600,11.224609619140624,0.09290742874145508,-0.42681312561035156,-0.07837533950805664
1772727594081609700,11.234609619140626,0.03289794921875,-0.43949127197265625,0.002523183822631836
1772727594091609600,11.244609619140626,-0.03301405906677246,-0.3686361312866211,0.11110639572143555
1772727594101609700,11.254609619140625,-0.0774087905883789,-0.22960662841796875,0.19824481010437012
1772727594111609600,11.264609619140625,-0.0028672218322753906,-0.06282997131347656,0.17847681045532227
1772727594121609700,11.274609619140625,0.0919504165649414,0.1119546890258789,0.060654401779174805
1772727594131609600,11.284609619140625,0.10304045677185059,0.16734790802001953,-0.08665895462036133
1772727594141609700,11.294609619140624,0.02794504165649414,0.10287666320800781,-0.16450142860412598
1772727594151609600,11.304609619140624,0.0006120204925537109,-0.02966022491455078,-0.24828577041625977
1772727594161609700,11.314609619140626,-0.046090126037597656,-0.1040802001953125,-0.26755452156066895
1772727594171609600,11.324609619140626,-0.11532092094421387,-0.10728836059570312,-0.17943596839904785
1772727594181609700,11.334609619140625,-0.16363978385925293,-0.05997276306152344,-0.02840423583984375
1772727594191609600,11.344609619140625,-0.0017266273498535156,-0.026643753051757812,0.1325087547302246
1772727594201609700,11.354609619140625,0.09456777572631836,0.06817626953125,0.20189476013183594
1772727594211609600,11.364609619140625,0.05140376091003418,0.1780080795288086,0.20281171798706055
1772727594221609700,11.374609619140625,-0.03730344772338867,0.23945236206054688,0.21187186241149902
1772727594231609600,11.384609619140624,-0.06279659271240234,0.2424020767211914,0.1658611297607422
1772727594241609700,11.394609619140626,-0.08739948272705078,0.24262237548828125,0.09122705459594727
1772727594251609600,11.404609619140626,-0.09618020057678223,0.2747001647949219,0.03916764259338379
1772727594261609700,11.414609619140625,-0.133652925491333,0.29050731658935547,0.02635955810546875
1772727594271609600,11.424609619140625,-0.09394955635070801,0.2680025100708008,0.04855632781982422
1772727594281609700,11.434609619140625,-0.07505989074707031,0.2256174087524414,0.030689477920532227
1772727594291609600,11.444609619140625,-0.10814261436462402,0.2219982147216797,-0.009350776672363281
1772727594301609700,11.454609619140625,-0.21161699295043945,0.2656745910644531,0.07362794876098633
1772727594311609600,11.464609619140624,-0.2438664436340332,0.3016624450683594,0.1710035800933838
1772727594321609700,11.474609619140624,-0.1850752830505371,0.3610086441040039,0.2187967300415039
1772727594331609600,11.484609619140626,-0.15404248237609863,0.4411277770996094,0.1787247657775879
1772727594341609700,11.494609619140626,-0.15065646171569824,0.46425819396972656,0.11054062843322754
1772727594351609600,11.504609619140625,-0.0644693374633789,0.42792701721191406,0.004894256591796875
1772727594361609700,11.514609619140625,-0.0174252986907959,0.3454275131225586,-0.12193894386291504
1772727594371609600,11.524609619140625,-0.0901632308959961,0.23406600952148438,-0.21170926094055176
1772727594381609700,11.534609619140625,-0.18457365036010742,0.1794109344482422,-0.15465831756591797
1772727594391609600,11.544609619140624,-0.22864580154418945,0.16871356964111328,-0.03413701057434082
1772727594401609700,11.554609619140624,-0.21301555633544922,0.2391519546508789,0.08243727684020996
1772727594411609600,11.564609619140626,-0.16965532302856445,0.3234443664550781,0.15695548057556152
1772727594421609700,11.574609619140626,-0.08423495292663574,0.3758525848388672,0.12746095657348633
1772727594431609600,11.584609619140625,-0.034038543701171875,0.30003929138183594,-0.048781633377075195
1772727594441609700,11.594609619140625,-0.1125950813293457,0.18820858001708984,-0.14802002906799316
1772727594451609600,11.604609619140625,-0.1212916374206543,0.0697784423828125,-0.14757847785949707
1772727594461609700,11.614609619140625,-0.06830906867980957,-0.08306884765625,-0.07285881042480469
1772727594471609600,11.624609619140625,-0.07806754112243652,-0.20017719268798828,0.016781330108642578
1772727594481609700,11.634609619140624,-0.17570281028747559,-0.24779319763183594,0.1369166374206543
1772727594491609600,11.644609619140626,-0.16512203216552734,-0.22366905212402344,0.2038106918334961
1772727594501609700,11.654609619140626,-0.07398009300231934,-0.16006183624267578,0.1848163604736328
1772727594511609600,11.664609619140625,-0.007767438888549805,-0.08541011810302734,0.17029261589050293
1772727594521609700,11.674609619140625,-0.03410840034484863,-0.06824493408203125,0.11107778549194336
1772727594531609600,11.684609619140625,-0.1050262451171875,-0.07659721374511719,0.01655125617980957
1772727594541609700,11.694609619140625,-0.16663455963134766,-0.08510398864746094,-0.07995295524597168
1772727594551609600,11.704609619140625,-0.2028791904449463,-0.07284259796142578,-0.15084409713745117
1772727594561609700,11.714609619140624,-0.17790961265563965,-0.07311344146728516,-0.2741110324859619
1772727594571609600,11.724609619140624,-0.07808184623718262,-0.11667919158935547,-0.3615562915802002
1772727594581609700,11.734609619140626,0.03442025184631348,-0.22141361236572266,-0.39860081672668457
1772727594591609600,11.744609619140626,0.12712788581848145,-0.30890369415283203,-0.32292890548706055
1772727594601609700,11.754609619140625,0.1771717071533203,-0.3829631805419922,-0.16318321228027344
1772727594611609600,11.764609619140625,0.17183423042297363,-0.41522216796875,0.013692855834960938
1772727594621609700,11.774609619140625,0.1403026580810547,-0.42520904541015625,0.1716923713684082
1772727594631609600,11.784609619140625,0.15002679824829102,-0.4003715515136719,0.27878713607788086
1772727594641609700,11.794609619140624,0.22560381889343262,-0.34600353240966797,0.3503608703613281
1772727594651609600,11.804609619140624,0.25481700897216797,-0.3101224899291992,0.32047080993652344
1772727594661609700,11.814609619140626,0.2875831127166748,-0.2976560592651367,0.19112348556518555
1772727594671609600,11.824609619140626,0.2941138744354248,-0.2766714096069336,-0.01280975341796875
1772727594681609700,11.834609619140625,0.31584906578063965,-0.25239086151123047,-0.17433524131774902
1772727594691609600,11.844609619140625,0.2871432304382324,-0.2675943374633789,-0.2316265106201172
1772727594701609700,11.854609619140625,0.265949010848999,-0.2862567901611328,-0.23212456703186035
1772727594711609600,11.864609619140625,0.19260811805725098,-0.2789020538330078,-0.19660449028015137
1772727594721609700,11.874609619140625,0.16644835472106934,-0.18036556243896484,-0.1504228115081787
1772727594731609600,11.884609619140624,0.22386932373046875,-0.056817054748535156,-0.14331698417663574
1772727594741609700,11.894609619140626,0.34198641777038574,0.021735191345214844,-0.19062447547912598
1772727594751609600,11.904609619140626,0.32756900787353516,0.016756057739257812,-0.20926785469055176
1772727594761609700,11.914609619140625,0.2909092903137207,-0.05257225036621094,-0.15086650848388672
1772727594771609600,11.924609619140625,0.19574713706970215,-0.10800743103027344,-0.11394357681274414
1772727594781609700,11.934609619140625,0.06921076774597168,-0.11884498596191406,-0.06669259071350098
1772727594791609600,11.944609619140625,-0.04163002967834473,-0.07219886779785156,0.025745391845703125
1772727594801609700,11.954609619140625,-0.040421485900878906,-0.012188911437988281,0.12596487998962402
1772727594811609600,11.964609619140624,-0.03654289245605469,0.037575721740722656,0.2147541046142578
1772727594821609700,11.974609619140624,-0.03001236915588379,0.12492179870605469,0.24750876426696777
1772727594831609600,11.984609619140626,-0.04535079002380371,0.22451305389404297,0.17670631408691406
1772727594841609700,11.994609619140626,-0.07335615158081055,0.25768280029296875,0.1494462490081787
1772727594851609600,12.004609619140625,-0.04832601547241211,0.2764425277709961,0.10861849784851074
1772727594861609700,12.014609619140625,-0.0037310123443603516,0.26003456115722656,0.06363797187805176
1772727594871609600,12.024609619140625,0.006451606750488281,0.25295066833496094,0.0073702335357666016
1772727594881609700,12.034609619140625,-0.03996682167053223,0.2799339294433594,-0.023792028427124023
1772727594891609600,12.044609619140624,-0.05695152282714844,0.28022193908691406,0.007428884506225586
1772727594901609700,12.054609619140624,-0.023189067840576172,0.30715465545654297,0.026767969131469727
1772727594911609600,12.064609619140626,-0.04371190071105957,0.3506612777709961,0.01656365394592285
1772727594921609700,12.074609619140626,-0.09892725944519043,0.3685131072998047,0.02656388282775879
1772727594931609600,12.084609619140625,-0.15957355499267578,0.35152626037597656,0.01629924774169922
1772727594941609700,12.094609619140625,-0.19782495498657227,0.2933197021484375,0.06966209411621094
1772727594951609600,12.104609619140625,-0.15340733528137207,0.26876354217529297,0.15258002281188965
1772727594961609700,12.114609619140625,-0.17180681228637695,0.3110370635986328,0.08520984649658203
1772727594971609600,12.124609619140625,-0.301358699798584,0.253570556640625,0.07603263854980469
1772727594981609700,12.134609619140624,-0.28116631507873535,0.28144168853759766,0.05049014091491699
1772727594991609600,12.144609619140626,-0.15401268005371094,0.23057079315185547,-0.003426790237426758
1772727595001609700,12.154609619140626,-0.15247774124145508,0.2067089080810547,0.02336406707763672
1772727595011609600,12.164609619140625,-0.28098082542419434,0.19701576232910156,0.04604077339172363
1772727595021609700,12.174609619140625,-0.29797840118408203,0.21733856201171875,0.04370236396789551
1772727595031609600,12.184609619140625,-0.1921224594116211,0.22754669189453125,0.005829811096191406
1772727595041609700,12.194609619140625,-0.15798330307006836,0.22118854522705078,0.005309104919433594
1772727595051609600,12.204609619140625,-0.2109675407409668,0.12116718292236328,0.03385567665100098
