time,seconds_elapsed,z,y,x
1772727582932010200,0.08501025390625,-0.5131264328956604,-0.6206386089324951,0.19181154668331146
1772727582949355800,0.102355712890625,-0.4667007029056549,-0.7171552777290344,0.26878049969673157
1772727582966701000,0.119701171875,-0.5516108870506287,-0.758083164691925,0.4263836145401001
1772727582984046300,0.13704638671875,-0.7128791809082031,-0.7880155444145203,0.6340776681900024
1772727583001391900,0.154391845703125,-0.7916807532310486,-0.9450078010559082,0.7538071274757385
1772727583018737200,0.171737060546875,-0.8338304162025452,-1.1630865335464478,0.8081740736961365
1772727583036082700,0.189082763671875,-0.8991929292678833,-1.397047758102417,0.8717040419578552
1772727583053428000,0.206427978515625,-0.9786053895950317,-1.7305799722671509,1.0421353578567505
1772727583070773200,0.223773193359375,-0.9938769936561584,-2.033568859100342,1.2608249187469482
1772727583088118800,0.241118896484375,-0.8772017955780029,-2.2418737411499023,1.4434734582901
1772727583105464000,0.258464111328125,-0.6096430420875549,-2.517984628677368,1.472795009613037
1772727583122809300,0.275809326171875,-0.3787361681461334,-2.733009099960327,1.368947982788086
1772727583140155000,0.29315478515625,-0.3707949221134186,-2.7281219959259033,1.3084723949432373
1772727583157500200,0.310500244140625,-0.5186241865158081,-2.4801111221313477,1.3463460206985474
1772727583174845400,0.327845458984375,-0.545502245426178,-2.0934336185455322,1.3988803625106812
1772727583192191000,0.34519091796875,-0.2724456787109375,-1.9816453456878662,1.3658936023712158
1772727583209536300,0.362536376953125,0.15821397304534912,-1.784335970878601,1.1624757051467896
1772727583226881500,0.379881591796875,0.4508182108402252,-1.2235621213912964,0.9376774430274963
1772727583244227000,0.39722705078125,0.5137372612953186,-0.6823359727859497,0.7391464114189148
1772727583261572400,0.414572265625,0.5406153202056885,-0.05558869615197182,0.5656607747077942
1772727583278917600,0.431917724609375,0.7018836140632629,0.3139844834804535,0.26022839546203613
1772727583296263200,0.44926318359375,0.9279035925865173,0.4563159942626953,-0.09529490768909454
1772727583313608400,0.4666083984375,0.9798271059989929,0.36285367608070374,-0.30604326725006104
1772727583330953700,0.48395361328125,0.8179479241371155,0.2107483446598053,-0.4202749729156494
1772727583348299300,0.50129931640625,0.49968740344047546,0.12217295914888382,-0.4880809485912323
1772727583365644500,0.51864453125,0.2816086709499359,-0.1588248461484909,-0.5198459029197693
1772727583382989800,0.53598974609375,0.21991132199764252,-0.44470956921577454,-0.35796675086021423
1772727583400335400,0.55333544921875,0.39889469742774963,-0.7043271064758301,-0.08002328872680664
1772727583417680600,0.5706806640625,0.5522217750549316,-0.5711585879325867,0.1997527778148651
1772727583435026000,0.58802587890625,0.6261364221572876,-0.27366742491722107,0.4159989058971405
1772727583452371500,0.605371337890625,0.7727439403533936,-0.010384701192378998,0.535728394985199
1772727583469716700,0.622716796875,0.9071341753005981,0.06230820715427399,0.6145299673080444
1772727583487062000,0.64006201171875,1.1081087589263916,-0.1893680840730667,0.6493492722511292
1772727583504407600,0.657407470703125,1.4776818752288818,-0.8338304162025452,0.6542361974716187
1772727583521752800,0.6747529296875,1.561981201171875,-1.4300343990325928,0.8240565657615662
1772727583539098000,0.69209814453125,1.1911863088607788,-1.4844014644622803,1.1142174005508423
1772727583556443600,0.709443603515625,0.833219587802887,-1.2021819353103638,1.3292417526245117
1772727583573789000,0.726788818359375,0.8087849617004395,-1.0030399560928345,1.2315033674240112
1772727583591134500,0.744134521484375,1.0873392820358276,-0.880256175994873,0.7550288438796997
1772727583608479700,0.761479736328125,1.3420698642730713,-0.9230166673660278,0.12217295914888382
1772727583625825000,0.778824951171875,1.4569125175476074,-1.0586286783218384,-0.36651885509490967
1772727583643170300,0.79617041015625,1.4294235706329346,-1.2632683515548706,-0.5222893953323364
1772727583660515800,0.813515869140625,1.2760965824127197,-1.6022982597351074,-0.44470956921577454
1772727583677861000,0.830861083984375,1.0286962985992432,-1.7537927627563477,-0.2724456787109375
1772727583695206700,0.84820654296875,0.7031053900718689,-1.694538950920105,0.20280711352825165
1772727583712552000,0.865552001953125,0.3451386094093323,-1.3310743570327759,0.8894191384315491
1772727583729897200,0.882897216796875,0.3127627670764923,-0.9352339506149292,1.1252129077911377
1772727583747242800,0.90024267578125,0.4740310609340668,-0.9950987100601196,0.7953459620475769
1772727583764588000,0.917588134765625,0.47525280714035034,-1.3518437147140503,0.5540543794631958
1772727583781933300,0.934933349609375,0.24434591829776764,-1.7256929874420166,0.7171552777290344
1772727583799278800,0.95227880859375,-0.23457208275794983,-1.6713260412216187,1.166751742362976
1772727583816624000,0.9696240234375,-1.0800089836120605,-1.6676608324050903,1.7091996669769287
1772727583833969400,0.986969482421875,-1.8081597089767456,-1.219896912574768,2.109316110610962
1772727583851315000,1.00431494140625,-1.7910555601119995,-0.5998691916465759,1.9987496137619019
1772727583868660200,1.02166015625,-1.2327251434326172,-0.19120067358016968,1.469740629196167
1772727583886005500,1.039005615234375,-0.8710931539535522,0.10934479534626007,1.0739002227783203
1772727583903351000,1.05635107421875,-0.8387173414230347,0.03237583488225937,0.8998038172721863
1772727583920696300,1.0736962890625,-0.8698714375495911,-0.3084867000579834,0.9388991594314575
1772727583938041600,1.09104150390625,-1.1172716617584229,-0.7990111112594604,1.046411395072937
1772727583955387100,1.10838720703125,-1.5320488214492798,-0.5907062292098999,0.9028581380844116
1772727583972732400,1.125732421875,-1.6578869819641113,-0.06108647957444191,1.1184934377670288
1772727583990077700,1.14307763671875,-1.6218459606170654,0.759304940700531,1.1783581972122192
1772727584007423200,1.16042333984375,-1.4312561750411987,1.397047758102417,1.2828160524368286
1772727584024768500,1.1777685546875,-1.1997383832931519,1.8729114532470703,1.32985258102417
1772727584042113800,1.19511376953125,-0.924238383769989,1.8405355215072632,1.164919137954712
1772727584059459300,1.212459228515625,-0.5900954008102417,0.9547816514968872,0.5687150955200195
1772727584076804600,1.2298046875,-0.370184063911438,0.8955277800559998,-0.389120876789093
1772727584094150100,1.247150146484375,0.15088360011577606,1.9535455703735352,-2.1080944538116455
1772727584111495400,1.264495361328125,0.401949018239975,1.4886775016784668,-3.0610435009002686
1772727584128840700,1.2818408203125,0.17226386070251465,2.388481378555298,-3.5075855255126953
1772727584146185200,1.299185302734375,-0.4312705397605896,2.288299560546875,-2.866177558898926
1772727584163530800,1.31653076171875,-0.8057306408882141,1.5515965223312378,-1.673769474029541
1772727584180876000,1.3338759765625,-0.6432406306266785,0.03481929376721382,-0.13439024984836578
1772727584198221600,1.3512216796875,-0.043982263654470444,-0.12950333952903748,0.2419024556875229
1772727584215566800,1.36856689453125,0.5204567909240723,-0.04825831577181816,0.4880809485912323
1772727584232912100,1.385912109375,0.1698204129934311,-0.050090912729501724,0.10934479534626007
1772727584250257700,1.403257568359375,-0.012217295356094837,-0.05070177838206291,-0.07330377399921417
1772727584267603000,1.42060302734375,0.001832594396546483,-0.0360410213470459,0.11911863088607788
1772727584284948200,1.4379482421875,0.006719512399286032,0.001221729558892548,0.06597339361906052
1772727584302293800,1.455293701171875,0.0030543238390237093,0.008552107028663158,-0.01954767294228077
1772727584319639000,1.47263916015625,0.007941242307424545,-0.010384701192378998,-0.009773836471140385
1772727584336984600,1.489984619140625,0.004886918235570192,-0.01588248461484909,0.012217295356094837
1772727584354329900,1.507329833984375,0.001221729558892548,-0.0256563201546669,0
1772727584371675100,1.524675048828125,0.002443459117785096,-0.034208428114652634,0.014660755172371864
1772727584389020400,1.5420205078125,0.014049889519810677,-0.030543239787220955,0.026878049597144127
1772727584406366000,1.559365966796875,0.026878049597144127,-0.08368847519159317,-0.01588248461484909
1772727584423711200,1.576711181640625,0.020769402384757996,-0.09468404203653336,-0.037262752652168274
1772727584441056500,1.594056396484375,0.006108647678047419,-0.050090912729501724,0.07024945318698883
1772727584458402000,1.611402099609375,0.013439024798572063,-0.001832594396546483,-0.004276053514331579
1772727584475747300,1.628747314453125,0.01588248461484909,0.008552107028663158,0.05925388261675835
1772727584493092600,1.646092529296875,0.008552107028663158,0.003665188793092966,0.026878049597144127
1772727584510438100,1.663438232421875,0.004886918235570192,0.006108647678047419,0.020769402384757996
1772727584527783400,1.680783447265625,0.006108647678047419,0.0054977829568088055,0.027488915249705315
1772727584545129000,1.69812890625,0.013439024798572063,0.006108647678047419,0.04825831577181816
1772727584562474200,1.71547412109375,0.017715077847242355,-0.003665188793092966,0.06230820715427399
1772727584579819500,1.732819580078125,0.010384701192378998,-0.009162971749901772,0.03909534588456154
1772727584597164800,1.750164794921875,0.003665188793092966,-0.010995565913617611,0.009773836471140385
1772727584614510300,1.76751025390625,0.003665188793092966,-0.012217295356094837,0.004276053514331579
1772727584631855600,1.784855712890625,0.000610864779446274,-0.024434590712189674,0.010995565913617611
1772727584649201200,1.802201171875,0.014049889519810677,-0.02626718580722809,0.043371398001909256
1772727584666546400,1.81954638671875,0.0256563201546669,-0.020158538594841957,0.05558869615197182
1772727584683891700,1.8368916015625,0.014660755172371864,-0.01893680728971958,0.037262752652168274
1772727584701237200,1.8542373046875,-0.004276053514331579,-0.011606430634856224,-0.001221729558892548
1772727584718582500,1.87158251953125,-0.024434590712189674,-0.014660755172371864,-0.017715077847242355
1772727584735927800,1.888927734375,-0.028099779039621353,-0.020158538594841957,0.000610864779446274
1772727584753273300,1.9062734375,-0.001221729558892548,-0.010995565913617611,0.0409279391169548
1772727584770618600,1.92361865234375,0.021991131827235222,0.002443459117785096,0.056810423731803894
1772727584787964200,1.940964111328125,0.021991131827235222,0.015271619893610477,0.033597562462091446
1772727584805309400,1.958309326171875,0.0030543238390237093,0.013439024798572063,0.007330377586185932
1772727584822654700,1.97565478515625,-0.018325943499803543,-0.001221729558892548,-0.023823726922273636
1772727584840000000,1.993,-0.02260199747979641,-0.01893680728971958,-0.009773836471140385
1772727584857345500,2.010345458984375,-0.024434590712189674,-0.023212861269712448,0.002443459117785096
1772727584874690800,2.02769091796875,-0.009162971749901772,-0.017104214057326317,0.024434590712189674
1772727584892036000,2.0450361328125,0.007330377586185932,-0.001832594396546483,0.023212861269712448
1772727584909381600,2.062381591796875,0.007330377586185932,0.006108647678047419,-0.002443459117785096
1772727584926727000,2.079726806640625,-0.000610864779446274,0.000610864779446274,-0.020158538594841957
1772727584944072200,2.097072265625,-0.004886918235570192,-0.000610864779446274,-0.014049889519810677
1772727584961417700,2.114417724609375,-0.004276053514331579,-0.004886918235570192,-0.004886918235570192
1772727584978763000,2.131762939453125,0.000610864779446274,-0.004886918235570192,0.008552107028663158
1772727584996108500,2.149108642578125,0.007941242307424545,-0.000610864779446274,0.007330377586185932
1772727585013453800,2.166453857421875,0.012217295356094837,0.000610864779446274,0.001832594396546483
1772727585030799000,2.183799072265625,0.007941242307424545,-0.001832594396546483,-0.004276053514331579
1772727585048144600,2.20114453125,0.001832594396546483,-0.004886918235570192,-0.000610864779446274
1772727585065490000,2.218489990234375,-0.0030543238390237093,-0.004886918235570192,0
1772727585082835200,2.235835205078125,-0.0030543238390237093,-0.004886918235570192,0.0030543238390237093
1772727585100180700,2.2531806640625,0.001221729558892548,-0.0054977829568088055,0.009162971749901772
1772727585117526000,2.270526123046875,0.007941242307424545,-0.001832594396546483,0.01893680728971958
1772727585134871300,2.287871337890625,0.006108647678047419,0.000610864779446274,0.021991131827235222
1772727585152216800,2.305216796875,-0.006719512399286032,-0.006719512399286032,0.006108647678047419
1772727585169562000,2.32256201171875,-0.013439024798572063,-0.02260199747979641,0.013439024798572063
1772727585186907400,2.339907470703125,-0.009162971749901772,-0.021991131827235222,0.007941242307424545
1772727585204253000,2.3572529296875,-0.001832594396546483,-0.01649334840476513,0.01649334840476513
1772727585221598200,2.37459814453125,0.001221729558892548,-0.018325943499803543,0.021991131827235222
1772727585238943700,2.39194384765625,0.007941242307424545,-0.021380268037319183,0.028099779039621353
1772727585256289000,2.4092890625,0.012217295356094837,-0.021380268037319183,0.02626718580722809
1772727585273634300,2.42663427734375,0.007941242307424545,-0.021991131827235222,0.017715077847242355
1772727585290979800,2.443979736328125,0.007330377586185932,-0.018325943499803543,0.008552107028663158
1772727585308325000,2.4613251953125,0.007330377586185932,-0.01649334840476513,0.007941242307424545
1772727585325670400,2.47867041015625,0.004276053514331579,-0.020158538594841957,0.015271619893610477
1772727585343015700,2.496015625,0.002443459117785096,-0.01893680728971958,0.023823726922273636
1772727585360361200,2.513361328125,-0.001221729558892548,-0.015271619893610477,0.024434590712189674
1772727585377706500,2.53070654296875,-0.006719512399286032,-0.014660755172371864,0.01588248461484909
1772727585395052000,2.548052001953125,-0.001832594396546483,-0.008552107028663158,0.011606430634856224
1772727585412397300,2.565397216796875,0.004276053514331579,-0.007330377586185932,0.007330377586185932
1772727585429742600,2.58274267578125,0.001221729558892548,-0.011606430634856224,0.009773836471140385
1772727585447088000,2.600088134765625,0.003665188793092966,-0.010995565913617611,0.020769402384757996
1772727585464433400,2.617433349609375,0.004886918235570192,-0.006719512399286032,0.01588248461484909
1772727585481779000,2.634779052734375,0.004276053514331579,-0.004886918235570192,0.013439024798572063
1772727585499124200,2.652124267578125,-0.001221729558892548,-0.0054977829568088055,0.004886918235570192
1772727585516469500,2.669469482421875,-0.0054977829568088055,-0.006108647678047419,0.007330377586185932
1772727585533815000,2.68681494140625,-0.004886918235570192,-0.008552107028663158,0.014049889519810677
1772727585551160300,2.704160400390625,-0.001221729558892548,-0.012217295356094837,0.026878049597144127
1772727585568505600,2.721505615234375,-0.004886918235570192,-0.010995565913617611,0.014660755172371864
1772727585585851100,2.73885107421875,-0.01282816007733345,-0.012217295356094837,0.000610864779446274
1772727585603196400,2.756196533203125,-0.014660755172371864,-0.012217295356094837,-0.001221729558892548
1772727585620541700,2.773541748046875,-0.0030543238390237093,-0.007941242307424545,0.017104214057326317
1772727585637887200,2.79088720703125,0.011606430634856224,-0.009773836471140385,0.031154103577136993
1772727585655232500,2.808232421875,0.007941242307424545,-0.007330377586185932,0.02260199747979641
1772727585672577800,2.825577880859375,0.003665188793092966,-0.007941242307424545,0.015271619893610477
1772727585689923300,2.84292333984375,-0.001832594396546483,-0.010384701192378998,0.014660755172371864
1772727585707268600,2.8602685546875,-0.001221729558892548,-0.007330377586185932,0.023823726922273636
1772727585724614000,2.87761376953125,0.006108647678047419,-0.004276053514331579,0.03237583488225937
1772727585741959400,2.89495947265625,0.009162971749901772,-0.002443459117785096,0.025045456364750862
1772727585759304700,2.9123046875,0.010384701192378998,-0.004886918235570192,0.017715077847242355
1772727585776650000,2.92964990234375,0.010995565913617611,-0.009773836471140385,0.021991131827235222
1772727585793995500,2.94699560546875,0.008552107028663158,-0.011606430634856224,0.020769402384757996
1772727585811340800,2.9643408203125,0.006108647678047419,-0.01282816007733345,0.017104214057326317
1772727585828686300,2.981686279296875,0.0030543238390237093,-0.013439024798572063,0.004276053514331579
1772727585846031600,2.999031494140625,0.004886918235570192,-0.012217295356094837,0.009773836471140385
1772727585863377000,3.016376953125,0.010384701192378998,-0.007330377586185932,0.020158538594841957
1772727585880722400,3.033722412109375,0.014660755172371864,-0.0054977829568088055,0.029932374134659767
1772727585898067700,3.051067626953125,0.017715077847242355,-0.0030543238390237093,0.03298669680953026
1772727585915413000,3.0684130859375,0.01649334840476513,-0.001832594396546483,0.020769402384757996
1772727585932758500,3.085758544921875,0.0054977829568088055,-0.000610864779446274,0.004886918235570192
1772727585950103800,3.103103759765625,-0.004276053514331579,-0.0054977829568088055,-0.006108647678047419
1772727585967449000,3.120448974609375,-0.0030543238390237093,-0.010995565913617611,0.013439024798572063
1772727585984794600,3.137794677734375,0.001221729558892548,-0.01282816007733345,0.020158538594841957
1772727586002140000,3.155139892578125,-0.002443459117785096,-0.015271619893610477,0.01588248461484909
1772727586019485200,3.172485107421875,-0.006108647678047419,-0.01649334840476513,0.004276053514331579
1772727586036830700,3.189830810546875,-0.001832594396546483,-0.017104214057326317,0.010384701192378998
1772727586054176000,3.207176025390625,0.006719512399286032,-0.01282816007733345,0.018325943499803543
1772727586071521300,3.224521240234375,0.010384701192378998,-0.01282816007733345,0.01588248461484909
1772727586088866800,3.24186669921875,0.0054977829568088055,-0.014049889519810677,0.008552107028663158
1772727586106212000,3.259212158203125,-0.001221729558892548,-0.017104214057326317,0.003665188793092966
1772727586123557600,3.2765576171875,-0.006719512399286032,-0.017715077847242355,-0.000610864779446274
1772727586140903000,3.29390283203125,-0.012217295356094837,-0.02260199747979641,0.008552107028663158
1772727586158248200,3.311248291015625,-0.017104214057326317,-0.01893680728971958,0.01649334840476513
1772727586175593700,3.32859375,-0.008552107028663158,-0.006719512399286032,0.018325943499803543
1772727586192939000,3.34593896484375,-0.0030543238390237093,-0.004886918235570192,0.01649334840476513
1772727586210284300,3.3632841796875,0.001832594396546483,-0.0054977829568088055,0.021380268037319183
1772727586227629800,3.3806298828125,0.004886918235570192,-0.004276053514331579,0.023823726922273636
1772727586244975000,3.39797509765625,-0.000610864779446274,-0.006719512399286032,0.015271619893610477
1772727586262320400,3.4153203125,-0.007330377586185932,-0.004276053514331579,0.010384701192378998
1772727586279666000,3.432666015625,-0.004886918235570192,-0.0030543238390237093,0.011606430634856224
1772727586297011200,3.45001123046875,0.003665188793092966,-0.006719512399286032,0.027488915249705315
1772727586314356500,3.4673564453125,0.013439024798572063,-0.010995565913617611,0.0409279391169548
1772727586331702000,3.484701904296875,0.014049889519810677,-0.012217295356094837,0.04214967042207718
1772727586349047300,3.50204736328125,-0.000610864779446274,-0.008552107028663158,0.01649334840476513
1772727586366392600,3.519392578125,-0.014049889519810677,-0.006108647678047419,-0.0030543238390237093
1772727586383738000,3.536738037109375,-0.011606430634856224,-0.009773836471140385,0.004276053514331579
1772727586401083400,3.55408349609375,0.007330377586185932,-0.010995565913617611,0.03848448023200035
1772727586418429000,3.571428955078125,0.02932151034474373,-0.006108647678047419,0.05558869615197182
1772727586435774200,3.588774169921875,0.0360410213470459,0.0030543238390237093,0.03848448023200035
1772727586453119500,3.606119384765625,0.015271619893610477,-0.0030543238390237093,0.004886918235570192
1772727586470465000,3.623465087890625,-0.010384701192378998,-0.006719512399286032,-0.006719512399286032
1772727586487810300,3.640810302734375,-0.01954767294228077,-0.017104214057326317,0.001221729558892548
1772727586505155600,3.658155517578125,-0.007330377586185932,-0.018325943499803543,0.023212861269712448
1772727586522501000,3.675501220703125,0.013439024798572063,-0.015271619893610477,0.03543015569448471
1772727586539846400,3.692846435546875,0.01954767294228077,-0.010995565913617611,0.023823726922273636
1772727586557191700,3.710191650390625,0.015271619893610477,-0.003665188793092966,0.01282816007733345
1772727586574537200,3.727537109375,0.004276053514331579,-0.002443459117785096,-0.001832594396546483
1772727586591882500,3.744882568359375,-0.0054977829568088055,-0.006108647678047419,0
1772727586609227800,3.762227783203125,-0.003665188793092966,-0.009162971749901772,0.015271619893610477
1772727586626573300,3.7795732421875,0.002443459117785096,-0.010384701192378998,0.021380268037319183
1772727586643918600,3.796918701171875,-0.0030543238390237093,-0.013439024798572063,0.006719512399286032
1772727586661264100,3.81426416015625,-0.010995565913617611,-0.013439024798572063,-0.003665188793092966
1772727586678609400,3.831609375,-0.010995565913617611,-0.010384701192378998,0
1772727586695954700,3.84895458984375,-0.003665188793092966,-0.006719512399286032,0.007941242307424545
1772727586713300200,3.86630029296875,0.008552107028663158,-0.0030543238390237093,0.020158538594841957
1772727586730645500,3.8836455078125,0.015271619893610477,-0.0030543238390237093,0.023212861269712448
1772727586747990800,3.90099072265625,0.012217295356094837,-0.001832594396546483,0.014660755172371864
1772727586765336300,3.91833642578125,-0.001221729558892548,-0.008552107028663158,0.009162971749901772
1772727586782681600,3.935681640625,-0.011606430634856224,-0.009773836471140385,0
1772727586800027000,3.95302685546875,-0.01282816007733345,-0.009773836471140385,-0.001832594396546483
1772727586817372400,3.970372314453125,0,-0.009162971749901772,0.017715077847242355
1772727586834717700,3.9877177734375,0.013439024798572063,-0.009773836471140385,0.03176496922969818
1772727586852063200,4.005063232421875,0.021380268037319183,-0.004886918235570192,0.031154103577136993
1772727586869408500,4.022408447265625,0.017104214057326317,-0.003665188793092966,0.018325943499803543
1772727586886753800,4.03975390625,0.006719512399286032,-0.004276053514331579,0.004276053514331579
1772727586904099300,4.057099365234375,-0.000610864779446274,-0.004276053514331579,0.001832594396546483
1772727586921444600,4.074444580078125,-0.004276053514331579,-0.011606430634856224,0.010384701192378998
1772727586938790100,4.0917900390625,-0.001832594396546483,-0.014049889519810677,0.01893680728971958
1772727586956135400,4.109135498046875,-0.001221729558892548,-0.013439024798572063,0.021991131827235222
1772727586973480700,4.126480712890625,0.001832594396546483,-0.007330377586185932,0.02626718580722809
1772727586990826200,4.143826171875,0.001221729558892548,-0.009773836471140385,0.01282816007733345
1772727587008171500,4.161171630859375,-0.0030543238390237093,-0.009773836471140385,0
1772727587025516800,4.178516845703125,-0.006719512399286032,-0.011606430634856224,0.003665188793092966
1772727587042862300,4.1958623046875,-0.007330377586185932,-0.01588248461484909,0.024434590712189674
1772727587060207600,4.21320751953125,-0.006108647678047419,-0.013439024798572063,0.026878049597144127
1772727587077553000,4.230552978515625,-0.004886918235570192,-0.014049889519810677,0.013439024798572063
1772727587094898400,4.2478984375,-0.006108647678047419,-0.018325943499803543,0.006719512399286032
1772727587112243700,4.26524365234375,-0.004886918235570192,-0.01649334840476513,0.01588248461484909
1772727587129589200,4.28258935546875,0.007941242307424545,-0.0030543238390237093,0.024434590712189674
1772727587146934500,4.2999345703125,0.01282816007733345,-0.001221729558892548,0.027488915249705315
1772727587164279800,4.31727978515625,0.01282816007733345,-0.001832594396546483,0.017104214057326317
1772727587181625300,4.334625244140625,0.014049889519810677,-0.0054977829568088055,0.027488915249705315
1772727587198970600,4.351970703125,0.01282816007733345,-0.011606430634856224,0.039706211537122726
1772727587216316000,4.36931591796875,0.007941242307424545,-0.010995565913617611,0.020158538594841957
1772727587233661400,4.386661376953125,-0.006108647678047419,-0.013439024798572063,0.003665188793092966
1772727587251006700,4.4040068359375,-0.011606430634856224,-0.006719512399286032,-0.006108647678047419
1772727587268352000,4.42135205078125,0,-0.009773836471140385,0.01588248461484909
1772727587285697500,4.438697509765625,0.01954767294228077,-0.013439024798572063,0.049480047076940536
1772727587303042800,4.456042724609375,0.02871064469218254,-0.0054977829568088055,0.043371398001909256
1772727587320388000,4.47338818359375,0.01649334840476513,0.0030543238390237093,0.017104214057326317
1772727587337733600,4.490733642578125,-0.007330377586185932,0,-0.011606430634856224
1772727587355079000,4.508078857421875,-0.024434590712189674,-0.010384701192378998,-0.017715077847242355
1772727587372424400,4.525424560546875,-0.020769402384757996,-0.01954767294228077,0.010384701192378998
1772727587389769700,4.542769775390625,0.002443459117785096,-0.01893680728971958,0.04886918142437935
1772727587407115000,4.560114990234375,0.020158538594841957,-0.002443459117785096,0.037262752652168274
1772727587424460500,4.57746044921875,0.011606430634856224,0.007941242307424545,0.001221729558892548
1772727587441805800,4.594805908203125,-0.007941242307424545,0.0030543238390237093,-0.01282816007733345
1772727587459151000,4.612151123046875,-0.01893680728971958,-0.014049889519810677,0.010384701192378998
1772727587476496600,4.62949658203125,-0.010995565913617611,-0.023212861269712448,0.03909534588456154
1772727587493842000,4.646842041015625,-0.000610864779446274,-0.01588248461484909,0.02871064469218254
1772727587511187500,4.6641875,0.000610864779446274,-0.009773836471140385,0.009773836471140385
1772727587528532700,4.68153271484375,-0.003665188793092966,-0.010995565913617611,-0.009162971749901772
1772727587545878000,4.6988779296875,-0.002443459117785096,-0.015271619893610477,0.012217295356094837
1772727587563223600,4.7162236328125,0.002443459117785096,-0.015271619893610477,0.034208428114652634
1772727587580568800,4.73356884765625,0.007330377586185932,-0.012217295356094837,0.030543239787220955
1772727587597914400,4.750914306640625,0.013439024798572063,-0.001221729558892548,0.01588248461484909
1772727587615259600,4.768259765625,0.009162971749901772,-0.006108647678047419,0.002443459117785096
1772727587632605000,4.78560498046875,0.002443459117785096,-0.014049889519810677,0.013439024798572063
1772727587649950200,4.8029501953125,0.003665188793092966,-0.017104214057326317,0.029932374134659767
1772727587667295700,4.820295654296875,0.007941242307424545,-0.01282816007733345,0.023823726922273636
1772727587684641000,4.83764111328125,0.012217295356094837,-0.004276053514331579,0.010384701192378998
1772727587701986600,4.854986572265625,0.014049889519810677,-0.001832594396546483,0
1772727587719331800,4.872331787109375,0.015271619893610477,-0.009162971749901772,0.015271619893610477
1772727587736677000,4.889677001953125,0.01282816007733345,-0.009162971749901772,0.028099779039621353
1772727587754022700,4.907022705078125,0.004886918235570192,-0.007941242307424545,0.021991131827235222
1772727587771368000,4.924367919921875,-0.006719512399286032,-0.0030543238390237093,0.001832594396546483
1772727587788713200,4.941713134765625,-0.01282816007733345,-0.006719512399286032,-0.009162971749901772
1772727587806058800,4.959058837890625,-0.006108647678047419,-0.009162971749901772,0.010384701192378998
1772727587823404000,4.976404052734375,0.001832594396546483,-0.007330377586185932,0.021991131827235222
1772727587840749600,4.99374951171875,0.009773836471140385,-0.003665188793092966,0.024434590712189674
1772727587858094800,5.0110947265625,0.008552107028663158,-0.001221729558892548,0.017104214057326317
1772727587875440000,5.028440185546875,0.001221729558892548,-0.008552107028663158,0.0054977829568088055
1772727587892785700,5.04578564453125,-0.008552107028663158,-0.020769402384757996,0.0030543238390237093
1772727587910131000,5.063130859375,-0.013439024798572063,-0.025045456364750862,0.006719512399286032
1772727587927476500,5.0804765625,-0.006719512399286032,-0.01893680728971958,0.0054977829568088055
1772727587944821800,5.09782177734375,0.001221729558892548,-0.014049889519810677,0.007941242307424545
1772727587962167000,5.1151669921875,0.009162971749901772,-0.010995565913617611,0.01649334840476513
1772727587979512600,5.1325126953125,0.012217295356094837,-0.006719512399286032,0.017104214057326317
1772727587996857900,5.14985791015625,0.004276053514331579,-0.003665188793092966,0.015271619893610477
1772727588014203100,5.167203125,-0.004276053514331579,-0.0054977829568088055,0.010384701192378998
1772727588031548700,5.184548583984375,0.001221729558892548,-0.003665188793092966,0.010995565913617611
1772727588048894000,5.20189404296875,0.011606430634856224,-0.004276053514331579,0.020769402384757996
1772727588066239200,5.2192392578125,0.012217295356094837,-0.006108647678047419,0.02871064469218254
1772727588083584800,5.236584716796875,0,-0.007941242307424545,0.009162971749901772
1772727588100930000,5.253929931640625,-0.009162971749901772,-0.012217295356094837,0.010384701192378998
1772727588118275600,5.271275634765625,-0.006719512399286032,-0.01282816007733345,0.017104214057326317
1772727588135620900,5.288620849609375,-0.0030543238390237093,-0.017104214057326317,0.01893680728971958
1772727588152966100,5.305966064453125,0,-0.01588248461484909,0.014660755172371864
1772727588170311700,5.323311767578125,0.001221729558892548,-0.014049889519810677,0.006719512399286032
1772727588187657000,5.340656982421875,0.000610864779446274,-0.006719512399286032,0.009773836471140385
1772727588205002200,5.358002197265625,-0.000610864779446274,-0.004276053514331579,0.017715077847242355
1772727588222347800,5.37534765625,0.001221729558892548,-0.001221729558892548,0.018325943499803543
1772727588239693000,5.392693115234375,0.002443459117785096,0.001221729558892548,0.02871064469218254
1772727588257038300,5.410038330078125,-0.000610864779446274,0,0.009162971749901772
1772727588274384000,5.4273837890625,-0.006108647678047419,-0.007330377586185932,0.008552107028663158
1772727588291729200,5.444729248046875,-0.004886918235570192,-0.010384701192378998,0.015271619893610477
1772727588309074700,5.46207470703125,0.004276053514331579,-0.007330377586185932,0.031154103577136993
1772727588326420000,5.479419921875,0.010384701192378998,-0.000610864779446274,0.034208428114652634
1772727588343765200,5.49676513671875,0.010384701192378998,-0.001832594396546483,0.009162971749901772
1772727588361110800,5.51411083984375,0.007941242307424545,-0.002443459117785096,0.017104214057326317
1772727588378456000,5.5314560546875,0.009773836471140385,-0.001221729558892548,0.020769402384757996
1772727588395801600,5.548801513671875,0.012217295356094837,-0.004886918235570192,0.031154103577136993
1772727588413147000,5.56614697265625,0.009162971749901772,-0.010995565913617611,0.021380268037319183
1772727588430492200,5.5834921875,0.004886918235570192,-0.007330377586185932,0.009773836471140385
1772727588447837700,5.600837646484375,-0.007330377586185932,-0.0054977829568088055,0.004276053514331579
1772727588465183000,5.618182861328125,-0.010384701192378998,-0.008552107028663158,0.013439024798572063
1772727588482528300,5.6355283203125,0.004276053514331579,-0.007941242307424545,0.021991131827235222
1772727588499873800,5.652873779296875,0.020769402384757996,-0.006719512399286032,0.029932374134659767
1772727588517219000,5.670218994140625,0.01893680728971958,0.002443459117785096,0.023823726922273636
1772727588534564600,5.687564697265625,0.000610864779446274,0.006108647678047419,-0.010995565913617611
1772727588551910000,5.704909912109375,-0.010995565913617611,0.001221729558892548,-0.007941242307424545
1772727588569255200,5.722255126953125,-0.009162971749901772,-0.009162971749901772,0.017104214057326317
1772727588586600700,5.7396005859375,0.007330377586185932,-0.010384701192378998,0.03848448023200035
1772727588603946000,5.756946044921875,0.014049889519810677,-0.004886918235570192,0.03481929376721382
1772727588621291300,5.774291259765625,0.009162971749901772,0.002443459117785096,0.003665188793092966
1772727588638636800,5.79163671875,0.000610864779446274,0.002443459117785096,-0.009162971749901772
1772727588655982000,5.808982177734375,-0.0030543238390237093,-0.0054977829568088055,0.01282816007733345
1772727588673327600,5.82632763671875,0.003665188793092966,-0.010995565913617611,0.033597562462091446
1772727588690673000,5.8436728515625,0.01649334840476513,-0.006719512399286032,0.03481929376721382
1772727588708018200,5.86101806640625,0.01649334840476513,0.002443459117785096,0.017104214057326317
1772727588725363700,5.87836376953125,0.008552107028663158,0.002443459117785096,0.009773836471140385
1772727588742709000,5.895708984375,-0.001832594396546483,-0.007330377586185932,0.001221729558892548
1772727588760054300,5.91305419921875,-0.008552107028663158,-0.021380268037319183,0.015271619893610477
1772727588777399800,5.93039990234375,-0.001832594396546483,-0.017715077847242355,0.023212861269712448
1772727588794745000,5.9477451171875,0.0030543238390237093,-0.009773836471140385,0.021991131827235222
1772727588812090600,5.965090576171875,0.007941242307424545,-0.008552107028663158,0.01893680728971958
1772727588829436000,5.982435791015625,0.007941242307424545,-0.003665188793092966,0.013439024798572063
1772727588846781400,5.999781494140625,0.003665188793092966,-0.006108647678047419,0.029932374134659767
1772727588864126700,6.017126708984375,0.0054977829568088055,0.0030543238390237093,0.023212861269712448
1772727588881472000,6.034471923828125,0.004886918235570192,-0.001221729558892548,0.01282816007733345
1772727588898817500,6.051817626953125,0.006719512399286032,-0.006719512399286032,0.017715077847242355
1772727588916162800,6.069162841796875,0.001221729558892548,-0.014049889519810677,0.0256563201546669
1772727588933508000,6.086508056640625,-0.010995565913617611,-0.021380268037319183,0.023212861269712448
1772727588950853600,6.103853515625,-0.010995565913617611,-0.013439024798572063,0.011606430634856224
1772727588968199000,6.121198974609375,-0.0054977829568088055,-0.007941242307424545,0.0054977829568088055
1772727588985544400,6.13854443359375,-0.001221729558892548,-0.007941242307424545,0.010995565913617611
1772727589002889700,6.1558896484375,0.004886918235570192,-0.015271619893610477,0.014660755172371864
1772727589020235000,6.173235107421875,0.006108647678047419,-0.017104214057326317,0.03481929376721382
1772727589037580500,6.19058056640625,-0.006108647678047419,-0.012217295356094837,0.001221729558892548
1772727589054925800,6.20792578125,-0.017715077847242355,-0.018325943499803543,-0.010384701192378998
1772727589072271000,6.22527099609375,-0.01893680728971958,-0.01649334840476513,0.003665188793092966
1772727589089616600,6.24261669921875,-0.001832594396546483,-0.007330377586185932,0.02260199747979641
1772727589106962000,6.2599619140625,0.017715077847242355,0,0.03481929376721382
1772727589124307500,6.277307373046875,0.017104214057326317,0.003665188793092966,0.021380268037319183
1772727589141652700,6.29465283203125,0.0054977829568088055,0.001832594396546483,0
1772727589158998000,6.311998046875,-0.008552107028663158,-0.009162971749901772,0.012217295356094837
1772727589176343600,6.329343505859375,-0.010995565913617611,-0.017104214057326317,0.01588248461484909
1772727589193688800,6.346688720703125,-0.001832594396546483,-0.018325943499803543,0.01893680728971958
1772727589211034400,6.364034423828125,0.001221729558892548,-0.001221729558892548,0.020769402384757996
1772727589228379600,6.381379638671875,0.004276053514331579,-0.001832594396546483,0.021380268037319183
1772727589245725000,6.398724853515625,0.01893680728971958,-0.009773836471140385,0.021380268037319183
1772727589263070500,6.416070556640625,0.037262752652168274,-0.008552107028663158,0.029932374134659767
1772727589280415700,6.433415771484375,0.02932151034474373,-0.008552107028663158,0.021991131827235222
1772727589297761300,6.45076123046875,0.0054977829568088055,-0.010995565913617611,0.0030543238390237093
1772727589315106600,6.4681064453125,-0.010995565913617611,-0.021991131827235222,0
1772727589332451800,6.485451904296875,-0.01282816007733345,-0.029932374134659767,0.014660755172371864
1772727589349797400,6.50279736328125,-0.0030543238390237093,-0.026878049597144127,0.030543239787220955
1772727589367142700,6.520142578125,0.002443459117785096,-0.014049889519810677,0.020769402384757996
1772727589384488000,6.537488037109375,0.003665188793092966,-0.0030543238390237093,-0.000610864779446274
1772727589401833500,6.55483349609375,0.009773836471140385,-0.000610864779446274,0.007330377586185932
1772727589419178800,6.5721787109375,0.01893680728971958,-0.006108647678047419,0.03909534588456154
1772727589436524300,6.589524169921875,0.02260199747979641,-0.008552107028663158,0.04886918142437935
1772727589453869600,6.60686962890625,0.014660755172371864,-0.006719512399286032,0.01893680728971958
1772727589471214800,6.62421484375,-0.001832594396546483,-0.01588248461484909,-0.008552107028663158
1772727589488560400,6.641560302734375,-0.006719512399286032,-0.021991131827235222,-0.006108647678047419
1772727589505905700,6.65890576171875,0.0030543238390237093,-0.024434590712189674,0.023823726922273636
1772727589523251200,6.676251220703125,0.013439024798572063,-0.020158538594841957,0.03787361457943916
1772727589540596500,6.693596435546875,0.017715077847242355,-0.014049889519810677,0.0360410213470459
1772727589557941800,6.710941650390625,0.018325943499803543,-0.011606430634856224,0.01649334840476513
1772727589575287300,6.728287353515625,0.012217295356094837,-0.017715077847242355,0.004276053514331579
1772727589592632600,6.745632568359375,0.003665188793092966,-0.02626718580722809,-0.002443459117785096
1772727589609978000,6.76297802734375,-0.010384701192378998,-0.028099779039621353,0
1772727589627323400,6.780323486328125,-0.01893680728971958,-0.021991131827235222,0.006719512399286032
1772727589644668700,6.797668701171875,-0.017104214057326317,-0.01588248461484909,0.01954767294228077
1772727589662014200,6.81501416015625,-0.007941242307424545,-0.015271619893610477,0.025045456364750862
1772727589679359500,6.832359375,-0.000610864779446274,-0.012217295356094837,0.03298669680953026
1772727589696704800,6.849704833984375,-0.002443459117785096,-0.003665188793092966,0.021991131827235222
1772727589714050300,6.86705029296875,-0.01588248461484909,-0.004886918235570192,-0.0030543238390237093
1772727589731395600,6.8843955078125,-0.025045456364750862,-0.006719512399286032,-0.0054977829568088055
1772727589748741000,6.9017412109375,-0.020769402384757996,-0.010384701192378998,0.009162971749901772
1772727589766086400,6.91908642578125,-0.012217295356094837,-0.01282816007733345,0.043982263654470444
1772727589783431700,6.936431640625,-0.004276053514331579,-0.009773836471140385,0.043982263654470444
1772727589800777200,6.953777099609375,0,-0.004276053514331579,0.03176496922969818
1772727589818122500,6.97112255859375,0.000610864779446274,-0.001832594396546483,0.014049889519810677
1772727589835468000,6.988468017578125,-0.007330377586185932,-0.010995565913617611,0.009773836471140385
1772727589852813300,7.005813232421875,0.002443459117785096,-0.024434590712189674,0.020769402384757996
1772727589870158800,7.023158935546875,-0.014049889519810677,-0.02626718580722809,0.04153880476951599
1772727589887504100,7.040504150390625,0.004886918235570192,-0.02260199747979641,0.03237583488225937
1772727589904849400,7.057849365234375,0.01649334840476513,-0.011606430634856224,0.03909534588456154
1772727589922195000,7.07519482421875,0.030543239787220955,-0.009773836471140385,0.037262752652168274
1772727589939540200,7.092540283203125,0.029932374134659767,0.0030543238390237093,0.03176496922969818
1772727589956885500,7.109885498046875,0.017104214057326317,0.006108647678047419,0.020158538594841957
1772727589974231000,7.12723095703125,0.0054977829568088055,0.000610864779446274,0.009773836471140385
1772727589991576300,7.144576416015625,0.010384701192378998,-0.006719512399286032,0.03909534588456154
1772727590008921900,7.161921875,0.023212861269712448,-0.007941242307424545,0.049480047076940536
1772727590026267100,7.17926708984375,0.02260199747979641,-0.008552107028663158,0.04581485688686371
1772727590043612400,7.1966123046875,0.017104214057326317,0.0030543238390237093,0.017104214057326317
1772727590060958000,7.2139580078125,0.007330377586185932,0.007941242307424545,-0.01282816007733345
1772727590078303200,7.23130322265625,-0.0030543238390237093,-0.0030543238390237093,-0.007330377586185932
1772727590095648800,7.248648681640625,0.001221729558892548,-0.009773836471140385,0.018325943499803543
1772727590112994000,7.265994140625,0.007941242307424545,-0.010995565913617611,0.023212861269712448
1772727590130339300,7.28333935546875,0.0054977829568088055,-0.0054977829568088055,0.012217295356094837
1772727590147684900,7.300684814453125,-0.002443459117785096,-0.003665188793092966,-0.007330377586185932
1772727590165030100,7.318030029296875,-0.006108647678047419,-0.006719512399286032,-0.007330377586185932
1772727590182375400,7.33537548828125,-0.002443459117785096,-0.004276053514331579,0.007330377586185932
1772727590199721000,7.352720947265625,0.006719512399286032,0.008552107028663158,-0.003665188793092966
1772727590217066200,7.370066162109375,0.008552107028663158,0.010384701192378998,-0.002443459117785096
1772727590234411800,7.387411865234375,0.008552107028663158,0.007941242307424545,0.008552107028663158
1772727590251757000,7.404757080078125,0.009773836471140385,0.0030543238390237093,0.010384701192378998
1772727590269102600,7.4221025390625,0.003665188793092966,-0.004886918235570192,0.006719512399286032
1772727590286447900,7.43944775390625,-0.009773836471140385,-0.006719512399286032,-0.01588248461484909
1772727590303793200,7.456793212890625,-0.020158538594841957,-0.010384701192378998,-0.021380268037319183
1772727590321138700,7.474138671875,-0.01282816007733345,-0.010384701192378998,-0.001832594396546483
1772727590338484000,7.49148388671875,0.010995565913617611,-0.004276053514331579,0.025045456364750862
1772727590355829500,7.50882958984375,0.026878049597144127,-0.001832594396546483,0.025045456364750862
1772727590373174800,7.5261748046875,0.027488915249705315,0.000610864779446274,0.010995565913617611
1772727590390520000,7.54352001953125,0.023823726922273636,-0.004276053514331579,-0.004276053514331579
1772727590407865600,7.560865478515625,0.026878049597144127,-0.009162971749901772,0.002443459117785096
1772727590425211000,7.5782109375,0.026878049597144127,-0.007941242307424545,0.009773836471140385
1772727590442556200,7.59555615234375,0.011606430634856224,-0.006108647678047419,-0.001221729558892548
1772727590459901700,7.612901611328125,-0.012217295356094837,-0.017104214057326317,-0.0054977829568088055
1772727590477247000,7.6302470703125,-0.017715077847242355,-0.036651886999607086,0.021991131827235222
1772727590494592500,7.647592529296875,-0.003665188793092966,-0.04276053607463837,0.049480047076940536
1772727590511937800,7.664937744140625,0.0054977829568088055,-0.029932374134659767,0.04825831577181816
1772727590529283000,7.682282958984375,0,-0.011606430634856224,0.023212861269712448
1772727590546628600,7.699628662109375,-0.021380268037319183,-0.007941242307424545,-0.014660755172371864
1772727590563974000,7.716973876953125,-0.03848448023200035,-0.017715077847242355,-0.024434590712189674
1772727590581319400,7.7343193359375,-0.034208428114652634,-0.030543239787220955,0.017715077847242355
1772727590598664700,7.751664794921875,-0.014049889519810677,-0.026878049597144127,0.056199558079242706
1772727590616010200,7.76901025390625,-0.001832594396546483,-0.014660755172371864,0.05864302068948746
1772727590633355500,7.78635546875,0.000610864779446274,-0.002443459117785096,0.02260199747979641
1772727590650700800,7.80370068359375,0.000610864779446274,-0.006719512399286032,-0.001832594396546483
1772727590668046300,7.82104638671875,0.004276053514331579,-0.017104214057326317,0.01649334840476513
1772727590685391600,7.8383916015625,0.0054977829568088055,-0.01893680728971958,0.03909534588456154
1772727590702737200,7.855737060546875,0.004276053514331579,-0.01893680728971958,0.040317077189683914
1772727590720082400,7.87308251953125,0.007941242307424545,-0.013439024798572063,0.03298669680953026
1772727590737427700,7.890427734375,0.014660755172371864,-0.003665188793092966,0.027488915249705315
1772727590754773200,7.907773193359375,0.01954767294228077,0.007941242307424545,0.04520399495959282
1772727590772118500,7.925118408203125,0.01649334840476513,0.01282816007733345,0.04825831577181816
1772727590789464000,7.942464111328125,0.007941242307424545,0.01588248461484909,0.03481929376721382
1772727590806809300,7.959809326171875,0.004886918235570192,0.014660755172371864,0.021991131827235222
1772727590824155000,7.97715478515625,0.006108647678047419,0.009773836471140385,0.013439024798572063
1772727590841500200,7.994500244140625,0.010384701192378998,0.002443459117785096,0.024434590712189674
1772727590858845400,8.011845458984375,0.011606430634856224,-0.009773836471140385,0.02932151034474373
1772727590876191000,8.02919091796875,0.01954767294228077,-0.011606430634856224,0.021991131827235222
1772727590893536300,8.046536376953124,0.020158538594841957,-0.017104214057326317,0.014049889519810677
1772727590910881500,8.063881591796875,0.011606430634856224,-0.02260199747979641,0.011606430634856224
1772727590928227000,8.08122705078125,0.004886918235570192,-0.021380268037319183,0.006719512399286032
1772727590945572400,8.098572265625,-0.000610864779446274,-0.015271619893610477,0.007941242307424545
1772727590962918000,8.11591796875,-0.001832594396546483,-0.007941242307424545,0.004886918235570192
1772727590980263200,8.13326318359375,0.002443459117785096,-0.0030543238390237093,0.009162971749901772
1772727590997608400,8.1506083984375,0.011606430634856224,0.0030543238390237093,0.017104214057326317
1772727591014954000,8.1679541015625,0.01893680728971958,0.0054977829568088055,0.021991131827235222
1772727591032299300,8.18529931640625,0.023212861269712448,0.010384701192378998,0.012217295356094837
1772727591049644800,8.202644775390626,0.017715077847242355,0.007330377586185932,0.003665188793092966
1772727591066990000,8.219989990234374,0.0030543238390237093,-0.007941242307424545,-0.011606430634856224
1772727591084335600,8.237335693359375,-0.013439024798572063,-0.01588248461484909,-0.015271619893610477
1772727591101681000,8.254680908203126,-0.023823726922273636,-0.020769402384757996,-0.014660755172371864
1772727591119026200,8.272026123046874,-0.021380268037319183,-0.018325943499803543,-0.007330377586185932
1772727591136371700,8.289371826171875,-0.009773836471140385,-0.01649334840476513,-0.004276053514331579
1772727591153717000,8.306717041015625,0.0030543238390237093,-0.010384701192378998,0.000610864779446274
1772727591171062500,8.3240625,0.006719512399286032,-0.004886918235570192,0.008552107028663158
1772727591188407800,8.34140771484375,-0.002443459117785096,-0.0030543238390237093,-0.004886918235570192
1772727591205753000,8.358753173828125,-0.008552107028663158,-0.004276053514331579,-0.006719512399286032
1772727591223098600,8.3760986328125,-0.009773836471140385,-0.007941242307424545,0.0054977829568088055
1772727591240444000,8.39344384765625,-0.007330377586185932,-0.009162971749901772,0.021380268037319183
1772727591257789400,8.41078955078125,-0.007941242307424545,-0.010384701192378998,0.026878049597144127
1772727591275134700,8.428134765625,-0.009162971749901772,-0.0054977829568088055,0.010384701192378998
1772727591292480000,8.44547998046875,-0.011606430634856224,-0.006719512399286032,-0.004886918235570192
1772727591309825500,8.462825439453125,-0.006108647678047419,-0.012217295356094837,0.009773836471140385
1772727591327170800,8.4801708984375,0.002443459117785096,-0.01588248461484909,0.03481929376721382
1772727591344516400,8.497516357421874,0.007941242307424545,-0.01588248461484909,0.04153880476951599
1772727591361861600,8.514861572265625,0.008552107028663158,-0.01649334840476513,0.01649334840476513
1772727591379207200,8.532207275390626,0.004276053514331579,-0.020158538594841957,0.008552107028663158
1772727591396552400,8.549552490234374,0.0054977829568088055,-0.023823726922273636,0.017104214057326317
1772727591413897700,8.566897705078125,0.009773836471140385,-0.02260199747979641,0.031154103577136993
1772727591431243300,8.5842431640625,0.009773836471140385,-0.021380268037319183,0.030543239787220955
1772727591448588500,8.601588623046876,0.008552107028663158,-0.01588248461484909,0.01893680728971958
1772727591465934000,8.61893408203125,0.009773836471140385,-0.014660755172371864,0.023212861269712448
1772727591483279400,8.636279296875,0.01282816007733345,-0.010384701192378998,0.03298669680953026
1772727591500624600,8.653624755859376,0.015271619893610477,-0.001832594396546483,0.040317077189683914
1772727591517970200,8.67097021484375,0.008552107028663158,0.002443459117785096,0.029932374134659767
1772727591535315500,8.6883154296875,-0.004886918235570192,-0.000610864779446274,0.006108647678047419
1772727591552661000,8.705660888671876,-0.011606430634856224,-0.009162971749901772,0.001221729558892548
1772727591570006300,8.72300634765625,-0.014049889519810677,-0.014660755172371864,0.01588248461484909
1772727591587351800,8.740351806640625,-0.004886918235570192,-0.010995565913617611,0.03298669680953026
1772727591604697000,8.757697021484375,0.0054977829568088055,-0.001832594396546483,0.0256563201546669
1772727591622042400,8.77504248046875,0.007941242307424545,0.004276053514331579,0.011606430634856224
1772727591639388000,8.792387939453125,0.001832594396546483,-0.001832594396546483,0.001221729558892548
1772727591656733200,8.809733154296875,-0.008552107028663158,-0.011606430634856224,-0.000610864779446274
1772727591674078700,8.82707861328125,-0.01282816007733345,-0.01893680728971958,0.002443459117785096
1772727591691424000,8.844424072265625,-0.0054977829568088055,-0.014049889519810677,0.007941242307424545
1772727591708769300,8.861769287109375,0.007330377586185932,-0.006719512399286032,0.012217295356094837
1772727591726114800,8.87911474609375,0.015271619893610477,-0.006108647678047419,0.01649334840476513
1772727591743460000,8.896460205078125,0.01649334840476513,-0.002443459117785096,0.014049889519810677
1772727591760805600,8.9138056640625,0.01282816007733345,0.001221729558892548,0.009773836471140385
1772727591778151000,8.93115087890625,0.004886918235570192,-0.003665188793092966,0.006108647678047419
1772727591795496400,8.948496337890624,0.003665188793092966,-0.009773836471140385,0.006719512399286032
1772727591812841700,8.965841796875,0.007941242307424545,-0.006719512399286032,0.010995565913617611
1772727591830187000,8.98318701171875,0.006108647678047419,-0.008552107028663158,0.009162971749901772
1772727591847532500,9.000532470703124,0.007941242307424545,-0.006108647678047419,0.01588248461484909
1772727591864877800,9.0178779296875,0.010995565913617611,-0.003665188793092966,0.011606430634856224
1772727591882223400,9.035223388671875,0.0054977829568088055,-0.010995565913617611,0.017104214057326317
1772727591899568600,9.052568603515626,-0.000610864779446274,-0.015271619893610477,0.014049889519810677
1772727591916914000,9.069913818359375,-0.0054977829568088055,-0.013439024798572063,0.004886918235570192
1772727591934259500,9.087259521484375,-0.007330377586185932,-0.011606430634856224,0.002443459117785096
1772727591951604700,9.104604736328126,-0.004886918235570192,-0.013439024798572063,0.01649334840476513
1772727591968950300,9.1219501953125,0.004276053514331579,-0.014049889519810677,0.03909534588456154
1772727591986295600,9.139295654296875,0.013439024798572063,-0.007941242307424545,0.036651886999607086
1772727592003641000,9.15664111328125,0.01282816007733345,-0.004276053514331579,0.01282816007733345
1772727592020986400,9.173986328125,-0.000610864779446274,-0.007941242307424545,0.000610864779446274
1772727592038331600,9.19133154296875,-0.007330377586185932,-0.013439024798572063,0.01282816007733345
1772727592055677200,9.20867724609375,-0.007941242307424545,-0.021380268037319183,0.021991131827235222
1772727592073022500,9.2260224609375,-0.003665188793092966,-0.020158538594841957,0.026878049597144127
1772727592090368000,9.243367919921875,-0.000610864779446274,-0.010384701192378998,0.011606430634856224
1772727592107713300,9.26071337890625,-0.003665188793092966,-0.010384701192378998,0.007330377586185932
1772727592125058600,9.27805859375,-0.0030543238390237093,-0.010384701192378998,0.015271619893610477
1772727592142404000,9.295404052734375,0,-0.006719512399286032,0.023212861269712448
1772727592159749400,9.312749267578125,-0.002443459117785096,-0.002443459117785096,0.020158538594841957
1772727592177095000,9.330094970703126,0.001221729558892548,0.0054977829568088055,0.01588248461484909
1772727592194440200,9.347440185546875,0.003665188793092966,0,0.017715077847242355
1772727592211785700,9.36478564453125,0.006108647678047419,-0.009162971749901772,0.029932374134659767
1772727592229131000,9.382131103515626,0.011606430634856224,-0.009162971749901772,0.03543015569448471
1772727592246476500,9.3994765625,0.000610864779446274,-0.01282816007733345,0.010384701192378998
1772727592263821800,9.41682177734375,-0.007941242307424545,-0.012217295356094837,0.0030543238390237093
1772727592281167000,9.4341669921875,-0.006108647678047419,-0.014049889519810677,0.006108647678047419
1772727592298512600,9.4515126953125,0.002443459117785096,-0.01954767294228077,0.018325943499803543
1772727592315858000,9.46885791015625,0.009773836471140385,-0.017104214057326317,0.024434590712189674
1772727592333203500,9.486203369140625,0.013439024798572063,-0.0030543238390237093,0.025045456364750862
1772727592350548700,9.503548828125,0.01282816007733345,0,0.023823726922273636
1772727592367894000,9.52089404296875,0.006108647678047419,-0.004886918235570192,0.014049889519810677
1772727592385239600,9.538239501953125,-0.001221729558892548,-0.007330377586185932,0.01649334840476513
1772727592402584800,9.555584716796876,-0.007941242307424545,-0.012217295356094837,-0.006719512399286032
1772727592419930400,9.572930419921875,-0.007941242307424545,-0.020769402384757996,0.023823726922273636
1772727592437275600,9.590275634765625,0.001832594396546483,-0.01893680728971958,0.025045456364750862
1772727592454621200,9.60762109375,0.01588248461484909,-0.013439024798572063,0.0409279391169548
1772727592471966500,9.624966552734374,0.01649334840476513,-0.004886918235570192,0.01954767294228077
1772727592489312000,9.64231201171875,0.001832594396546483,-0.002443459117785096,-0.002443459117785096
1772727592506657300,9.6596572265625,-0.004276053514331579,-0.010995565913617611,-0.003665188793092966
1772727592524002600,9.67700244140625,0.002443459117785096,-0.01954767294228077,0.02932151034474373
1772727592541348000,9.69434814453125,0.014660755172371864,-0.012217295356094837,0.03543015569448471
1772727592558693400,9.711693359375,0.017104214057326317,-0.001832594396546483,0.026878049597144127
1772727592576039000,9.729038818359374,0.008552107028663158,0.002443459117785096,0.009162971749901772
1772727592593384200,9.74638427734375,-0.0054977829568088055,-0.004276053514331579,-0.010384701192378998
1772727592610729700,9.763729736328125,-0.009773836471140385,-0.010384701192378998,0.01649334840476513
1772727592628075000,9.781074951171876,-0.004276053514331579,-0.01588248461484909,0.023212861269712448
1772727592645420300,9.798420166015624,0.006108647678047419,-0.011606430634856224,0.02871064469218254
1772727592662765800,9.815765869140625,0.012217295356094837,0.002443459117785096,0
1772727592680111000,9.833111083984376,0.006719512399286032,0.001832594396546483,-0.004886918235570192
1772727592697456600,9.85045654296875,0,-0.008552107028663158,0.011606430634856224
1772727592714802000,9.867802001953125,-0.001832594396546483,-0.010995565913617611,0.02626718580722809
1772727592732147200,9.885147216796875,-0.004886918235570192,-0.007330377586185932,0.010384701192378998
1772727592749492700,9.90249267578125,-0.013439024798572063,-0.013439024798572063,-0.0030543238390237093
1772727592766838300,9.91983837890625,-0.013439024798572063,-0.015271619893610477,-0.014660755172371864
1772727592784183600,9.93718359375,-0.004276053514331579,-0.014049889519810677,0.009162971749901772
1772727592801528800,9.95452880859375,-0.002443459117785096,-0.013439024798572063,0.01954767294228077
1772727592818874400,9.971874267578125,-0.001832594396546483,-0.007330377586185932,0.01282816007733345
1772727592836219600,9.9892197265625,0.0030543238390237093,-0.006108647678047419,0.015271619893610477
1772727592853565200,10.006565185546876,0.004276053514331579,-0.004276053514331579,0.010995565913617611
1772727592870910500,10.023910400390625,-0.006719512399286032,-0.011606430634856224,0.01649334840476513
1772727592888255700,10.041255859375,-0.01649334840476513,-0.010995565913617611,0.010995565913617611
1772727592905601300,10.058601318359376,-0.012217295356094837,-0.008552107028663158,0.010995565913617611
1772727592922946600,10.075946533203124,0,-0.01282816007733345,0.018325943499803543
1772727592940292000,10.0932919921875,0.013439024798572063,-0.014049889519810677,0.026878049597144127
1772727592957637400,10.110637451171876,0.01649334840476513,-0.009773836471140385,0.015271619893610477
1772727592974983000,10.12798291015625,0.006719512399286032,-0.011606430634856224,0.014660755172371864
1772727592992328200,10.145328125,-0.004276053514331579,-0.018325943499803543,-0.004886918235570192
1772727593009673700,10.162673828125,-0.0054977829568088055,-0.020769402384757996,0.017715077847242355
1772727593027019000,10.18001904296875,0.002443459117785096,-0.018325943499803543,0.01588248461484909
1772727593044364300,10.1973642578125,0.011606430634856224,-0.010995565913617611,0.028099779039621353
1772727593061709800,10.214709716796875,0.007941242307424545,-0.008552107028663158,0.008552107028663158
1772727593079055000,10.23205517578125,-0.001221729558892548,-0.006719512399286032,0.001832594396546483
1772727593096400600,10.249400634765625,-0.0054977829568088055,-0.009773836471140385,0.01893680728971958
1772727593113746000,10.266745849609375,-0.001221729558892548,-0.009162971749901772,0.02871064469218254
1772727593131091200,10.28409130859375,0.009773836471140385,-0.001832594396546483,0.024434590712189674
1772727593148436700,10.301436767578124,0.01893680728971958,0.000610864779446274,0.01649334840476513
1772727593165782300,10.3187822265625,0.021991131827235222,-0.001221729558892548,0.021991131827235222
1772727593183127600,10.33612744140625,0.013439024798572063,-0.006108647678047419,0.01649334840476513
1772727593200472800,10.353472900390624,-0.004886918235570192,-0.015271619893610477,0.01282816007733345
1772727593217818400,10.370818359375,-0.012217295356094837,-0.014660755172371864,0.003665188793092966
1772727593235163600,10.38816357421875,-0.004276053514331579,-0.017715077847242355,0.01588248461484909
1772727593252509200,10.40550927734375,0.013439024798572063,-0.010384701192378998,0.03481929376721382
1772727593269854500,10.4228544921875,0.0256563201546669,-0.0030543238390237093,0.0409279391169548
1772727593287200000,10.440199951171875,0.023823726922273636,0.0030543238390237093,0.02260199747979641
1772727593304545300,10.457545166015626,0.006108647678047419,-0.001832594396546483,0.001221729558892548
1772727593321890800,10.474890869140625,-0.008552107028663158,-0.014660755172371864,0.009773836471140385
1772727593339236000,10.492236083984375,-0.004886918235570192,-0.020769402384757996,0.029932374134659767
1772727593356581400,10.509581298828126,0.004276053514331579,-0.010384701192378998,0.03481929376721382
1772727593373927000,10.526927001953124,0.006108647678047419,-0.003665188793092966,0.023823726922273636
1772727593391272200,10.544272216796875,0.0054977829568088055,0.000610864779446274,0.014049889519810677
1772727593408617700,10.56161767578125,0.007330377586185932,-0.004886918235570192,0.021991131827235222
1772727593425963000,10.578962890625,0.007941242307424545,-0.010384701192378998,0.03481929376721382
1772727593443308300,10.596308349609375,0.007941242307424545,-0.007330377586185932,0.040317077189683914
1772727593460653800,10.61365380859375,-0.001832594396546483,-0.006108647678047419,0.008552107028663158
1772727593477999400,10.630999267578124,-0.009773836471140385,-0.012217295356094837,-0.007330377586185932
1772727593495344600,10.6483447265625,-0.007330377586185932,-0.01893680728971958,0.009773836471140385
1772727593512690000,10.66568994140625,0.000610864779446274,-0.017104214057326317,0.031154103577136993
1772727593530035500,10.683035400390626,0.007941242307424545,-0.010384701192378998,0.026878049597144127
1772727593547380700,10.700380615234375,0.001221729558892548,0,0.0054977829568088055
1772727593564726300,10.717726318359375,-0.014660755172371864,-0.004276053514331579,-0.014660755172371864
1772727593582071600,10.735071533203126,-0.02871064469218254,-0.015271619893610477,-0.006719512399286032
1772727593599416800,10.752416748046874,-0.021991131827235222,-0.013439024798572063,0.008552107028663158
1772727593616762400,10.769762451171875,-0.0054977829568088055,-0.006108647678047419,0.021380268037319183
1772727593634108000,10.78710791015625,0.012217295356094837,0.0054977829568088055,0.01893680728971958
1772727593651453200,10.804453125,0.01893680728971958,0.009162971749901772,0.004276053514331579
1772727593668798500,10.821798583984375,0.006719512399286032,-0.002443459117785096,-0.000610864779446274
1772727593686144000,10.83914404296875,-0.010384701192378998,-0.012217295356094837,-0.000610864779446274
1772727593703489300,10.8564892578125,-0.014660755172371864,-0.017715077847242355,0.004276053514331579
1772727593720834800,10.873834716796875,-0.009162971749901772,-0.017715077847242355,0.004886918235570192
1772727593738180000,10.89118017578125,0.002443459117785096,-0.014660755172371864,0.006719512399286032
1772727593755525600,10.908525634765626,0.011606430634856224,-0.009162971749901772,0.010995565913617611
1772727593772871000,10.925870849609375,0.020769402384757996,0.002443459117785096,0.017104214057326317
1772727593790216200,10.94321630859375,0.0256563201546669,0.0030543238390237093,0.023212861269712448
1772727593807561700,10.960561767578126,0.01588248461484909,-0.0030543238390237093,0.01649334840476513
1772727593824907000,10.977906982421874,0.000610864779446274,-0.009773836471140385,0.01588248461484909
1772727593842252500,10.99525244140625,-0.010995565913617611,-0.015271619893610477,0.001832594396546483
1772727593859597800,11.012597900390626,-0.007330377586185932,-0.014660755172371864,0.009162971749901772
1772727593876943400,11.029943359375,0.0054977829568088055,-0.009773836471140385,0.021380268037319183
1772727593894288600,11.04728857421875,0.01588248461484909,-0.010995565913617611,0.029932374134659767
1772727593911634200,11.06463427734375,0.014049889519810677,-0.014049889519810677,0.024434590712189674
1772727593928979500,11.0819794921875,0.0054977829568088055,-0.009773836471140385,0.004886918235570192
1772727593946325000,11.099324951171875,-0.001221729558892548,-0.010384701192378998,0.010995565913617611
1772727593963670300,11.116670166015625,0.002443459117785096,-0.01282816007733345,0.01954767294228077
1772727593981015600,11.134015625,0.008552107028663158,-0.014049889519810677,0.020769402384757996
1772727593998361000,11.151361083984375,0.007941242307424545,-0.01282816007733345,0.01954767294228077
1772727594015706400,11.168706298828125,0.004276053514331579,-0.006108647678047419,0.013439024798572063
1772727594033052000,11.186052001953126,0.001832594396546483,-0.004886918235570192,0.012217295356094837
1772727594050397200,11.203397216796875,0.007941242307424545,-0.006108647678047419,0.029932374134659767
1772727594067742700,11.22074267578125,0.01282816007733345,-0.004886918235570192,0.03481929376721382
1772727594085088000,11.238087890625,0.006719512399286032,-0.0030543238390237093,0.013439024798572063
1772727594102433500,11.25543359375,-0.007330377586185932,-0.007330377586185932,-0.0054977829568088055
1772727594119778800,11.27277880859375,-0.017104214057326317,-0.017715077847242355,-0.004276053514331579
1772727594137124400,11.290124267578125,-0.007330377586185932,-0.018325943499803543,0.027488915249705315
1772727594154469600,11.3074697265625,0.002443459117785096,-0.014049889519810677,0.029932374134659767
1772727594171815000,11.32481494140625,0.008552107028663158,-0.0054977829568088055,0.020158538594841957
1772727594189160400,11.342160400390625,0.006719512399286032,0,0
1772727594206505700,11.359505615234376,-0.000610864779446274,-0.006108647678047419,0.008552107028663158
1772727594223851300,11.376851318359375,-0.008552107028663158,-0.007941242307424545,0.014049889519810677
1772727594241196500,11.394196533203125,-0.01282816007733345,-0.010995565913617611,0.01588248461484909
1772727594258542000,11.4115419921875,-0.009162971749901772,-0.009773836471140385,0.017104214057326317
1772727594275887400,11.428887451171875,-0.000610864779446274,-0.010995565913617611,0.018325943499803543
1772727594293233000,11.44623291015625,0.004886918235570192,-0.010384701192378998,0.02260199747979641
1772727594310578200,11.463578125,0.000610864779446274,-0.0054977829568088055,0.006719512399286032
1772727594327923500,11.48092333984375,-0.009773836471140385,-0.010384701192378998,0.0030543238390237093
1772727594345269000,11.49826904296875,-0.009162971749901772,-0.01282816007733345,0.012217295356094837
1772727594362614300,11.5156142578125,0.001221729558892548,-0.015271619893610477,0.026878049597144127
1772727594379959800,11.532959716796874,0.010995565913617611,-0.007941242307424545,0.0256563201546669
1772727594397305000,11.55030517578125,0.006108647678047419,-0.001221729558892548,0.004886918235570192
1772727594423323100,11.5763232421875,-0.0030543238390237093,-0.006719512399286032,0.007941242307424545
1772727594440668700,11.593668701171875,0.006108647678047419,-0.004276053514331579,0.033597562462091446
1772727594458014200,11.61101416015625,0.017715077847242355,0.002443459117785096,0.029932374134659767
1772727594475359500,11.628359375,0.020158538594841957,0.0030543238390237093,0.026878049597144127
1772727594492704800,11.645704833984375,0.014049889519810677,0.003665188793092966,-0.001221729558892548
1772727594510050300,11.66305029296875,0.006108647678047419,-0.006108647678047419,0.008552107028663158
1772727594527395600,11.6803955078125,-0.0054977829568088055,-0.012217295356094837,0.01954767294228077
1772727594544741000,11.6977412109375,-0.011606430634856224,-0.013439024798572063,0.017104214057326317
1772727594562086400,11.71508642578125,-0.007330377586185932,-0.01282816007733345,0.01282816007733345
1772727594579432000,11.732431884765624,0.012217295356094837,-0.0054977829568088055,0.023212861269712448
1772727594596777200,11.749777099609375,0.033597562462091446,0.002443459117785096,0.020769402384757996
1772727594614122800,11.767122802734375,0.02871064469218254,0.004276053514331579,0.025045456364750862
1772727594631468000,11.784468017578124,0.009773836471140385,-0.002443459117785096,0.01282816007733345
1772727594648813600,11.8018134765625,-0.004886918235570192,-0.010995565913617611,0.011606430634856224
1772727594666158800,11.819158935546875,-0.01282816007733345,-0.020158538594841957,0.012217295356094837
1772727594683504000,11.836504150390626,-0.008552107028663158,-0.020158538594841957,0.021991131827235222
1772727594700849700,11.853849609375,-0.001221729558892548,-0.01282816007733345,0.020769402384757996
1772727594718195000,11.87119482421875,-0.0030543238390237093,-0.011606430634856224,0.003665188793092966
1772727594735540500,11.88854052734375,-0.0054977829568088055,-0.011606430634856224,-0.000610864779446274
1772727594752885800,11.9058857421875,0.003665188793092966,-0.007330377586185932,0.021380268037319183
1772727594770231300,11.923231201171875,0.003665188793092966,-0.004276053514331579,0.024434590712189674
1772727594787576600,11.94057666015625,-0.001221729558892548,0.0030543238390237093,0.018325943499803543
1772727594804922000,11.957922119140624,-0.006108647678047419,0.001832594396546483,0.006108647678047419
1772727594822267400,11.975267333984375,-0.010384701192378998,-0.008552107028663158,0.002443459117785096
1772727594839613000,11.992613037109376,-0.007941242307424545,-0.013439024798572063,0.004886918235570192
1772727594856958200,12.009958251953124,-0.006719512399286032,-0.018325943499803543,0.006108647678047419
1772727594874303500,12.027303466796875,-0.004886918235570192,-0.01649334840476513,0.008552107028663158
1772727594891649000,12.04464892578125,-0.001832594396546483,-0.01282816007733345,0.004276053514331579
1772727594908994300,12.061994384765624,0,-0.008552107028663158,0.006719512399286032
1772727594926339800,12.07933984375,0,-0.006719512399286032,0.018325943499803543
1772727594943685000,12.09668505859375,0.0030543238390237093,-0.001832594396546483,0.01588248461484909
1772727594961030700,12.11403076171875,0.000610864779446274,-0.004276053514331579,0.009162971749901772
1772727594978376000,12.1313759765625,-0.001221729558892548,-0.001221729558892548,0.014049889519810677
1772727594995721500,12.148721435546875,0.000610864779446274,-0.0054977829568088055,0.017104214057326317
1772727595013066800,12.166066650390626,-0.000610864779446274,-0.007941242307424545,0.01954767294228077
1772727595030412300,12.183412353515624,0.0030543238390237093,-0.008552107028663158,0.014049889519810677
1772727595047757600,12.200757568359375,0.01282816007733345,-0.007941242307424545,0.034208428114652634
1772727595065103000,12.21810302734375,0.017104214057326317,-0.007941242307424545,0.03481929376721382
1772727595082448400,12.235448486328124,0.014049889519810677,-0.012217295356094837,0.025045456364750862
1772727595099793700,12.252793701171875,0.001221729558892548,-0.01954767294228077,0
1772727595117139200,12.27013916015625,-0.01282816007733345,-0.023212861269712448,0.001221729558892548
1772727595134484500,12.287484375,-0.008552107028663158,-0.024434590712189674,0.01954767294228077
1772727595151830000,12.304830078125,0.006719512399286032,-0.01893680728971958,0.049480047076940536
1772727595169175300,12.32217529296875,0.01649334840476513,-0.006719512399286032,0.020769402384757996
1772727595186520800,12.339520751953126,0.017104214057326317,0.004276053514331579,-0.000610864779446274
1772727595203866000,12.3568662109375,0.007330377586185932,0.002443459117785096,0.007330377586185932
1772727595221211600,12.374211669921875,0.007941242307424545,-0.0054977829568088055,0.017715077847242355
1772727595238557000,12.391556884765626,0.011606430634856224,-0.008552107028663158,0.031154103577136993
1772727595255902500,12.40890234375,0.001221729558892548,-0.004276053514331579,0.000610864779446274
1772727595273247700,12.426247802734375,-0.015271619893610477,-0.0054977829568088055,-0.020769402384757996
1772727595290593300,12.44359326171875,-0.01893680728971958,-0.014660755172371864,-0.010384701192378998
1772727595307938600,12.4609384765625,-0.000610864779446274,-0.013439024798572063,0.025045456364750862
1772727595325284000,12.4782841796875,0.014049889519810677,-0.006719512399286032,0.023823726922273636
1772727595342629400,12.49562939453125,0.007941242307424545,0,0.0030543238390237093
1772727595359975000,12.512974853515624,-0.007941242307424545,0,-0.03176496922969818
1772727595377320200,12.5303203125,-0.01893680728971958,-0.01282816007733345,-0.017104214057326317
1772727595394665500,12.54766552734375,-0.010384701192378998,-0.015271619893610477,0.008552107028663158
1772727595412011000,12.565010986328126,-0.004276053514331579,-0.01282816007733345,0.018325943499803543
1772727595429356300,12.582356201171875,-0.002443459117785096,-0.000610864779446274,0.001221729558892548
1772727595446701800,12.599701904296875,-0.002443459117785096,0.000610864779446274,-0.002443459117785096
1772727595464047000,12.617047119140626,-0.004276053514331579,-0.004886918235570192,0.003665188793092966
1772727595481392600,12.634392578125,-0.006719512399286032,-0.004886918235570192,0.014049889519810677
1772727595498738000,12.651738037109375,-0.01954767294228077,-0.006719512399286032,-0.007330377586185932
1772727595516083500,12.66908349609375,-0.023823726922273636,-0.013439024798572063,-0.007330377586185932
1772727595533428700,12.6864287109375,-0.017104214057326317,-0.020769402384757996,-0.002443459117785096
1772727595550774300,12.703774169921875,0.009773836471140385,-0.01282816007733345,0.03543015569448471
1772727595568119600,12.72111962890625,0.025045456364750862,-0.002443459117785096,0.028099779039621353
1772727595585465000,12.738465087890624,0.014049889519810677,-0.001832594396546483,0.007330377586185932
1772727595602810400,12.755810302734375,-0.006108647678047419,-0.004886918235570192,-0.010995565913617611
1772727595620156000,12.773156005859375,-0.018325943499803543,-0.01649334840476513,-0.000610864779446274
1772727595637501200,12.790501220703124,-0.009162971749901772,-0.018325943499803543,0.026878049597144127
1772727595654846500,12.807846435546875,0.010995565913617611,-0.006108647678047419,0.033597562462091446
1772727595672192000,12.82519189453125,0.021991131827235222,0.0030543238390237093,0.018325943499803543
1772727595689537500,12.84253759765625,0.014049889519810677,0.001221729558892548,0
1772727595706882800,12.8598828125,0.003665188793092966,0.000610864779446274,0.002443459117785096
1772727595724228000,12.87722802734375,-0.001832594396546483,-0.002443459117785096,0.003665188793092966
1772727595741573600,12.89457373046875,-0.002443459117785096,-0.0054977829568088055,0.010995565913617611
1772727595758919000,12.9119189453125,-0.000610864779446274,-0.009773836471140385,0.001832594396546483
1772727595776264400,12.929264404296875,0.001221729558892548,-0.004276053514331579,0.003665188793092966
1772727595793609700,12.946609619140625,-0.001221729558892548,0.001832594396546483,-0.001221729558892548
1772727595810955300,12.963955322265624,0.001221729558892548,0.006719512399286032,-0.006719512399286032
1772727595828300500,12.981300537109375,0.004276053514331579,0.006108647678047419,-0.014660755172371864
1772727595845646000,12.99864599609375,0.004276053514331579,0.001832594396546483,-0.006108647678047419
1772727595862991400,13.015991455078124,-0.007330377586185932,-0.002443459117785096,-0.01282816007733345
1772727595880337000,13.0333369140625,-0.012217295356094837,0.001221729558892548,-0.007330377586185932
1772727595897682200,13.05068212890625,-0.002443459117785096,0.0030543238390237093,-0.004276053514331579
1772727595915027500,13.06802734375,0.011606430634856224,0.0030543238390237093,-0.001832594396546483
1772727595932373000,13.085373046875,0.018325943499803543,0.009773836471140385,-0.006108647678047419
1772727595949718500,13.102718505859375,0.004276053514331579,0.004886918235570192,-0.014660755172371864
1772727595967063800,13.120063720703126,-0.014660755172371864,0.001221729558892548,-0.024434590712189674
1772727595984409000,13.1374091796875,-0.02260199747979641,-0.006719512399286032,-0.017104214057326317
1772727596001754600,13.154754638671875,-0.009773836471140385,-0.004886918235570192,0.010384701192378998
1772727596019100000,13.172099853515626,0.007941242307424545,0.002443459117785096,0.006108647678047419
1772727596036445400,13.189445556640624,0.01893680728971958,0.009162971749901772,0.001221729558892548
1772727596053790700,13.206790771484375,0.007941242307424545,0.010995565913617611,-0.021380268037319183
1772727596071136300,13.22413623046875,-0.01282816007733345,0,-0.010384701192378998
1772727596088481500,13.2414814453125,-0.0256563201546669,-0.017104214057326317,-0.01893680728971958
1772727596105827000,13.2588271484375,-0.020158538594841957,-0.020158538594841957,0.014049889519810677
1772727596123172400,13.27617236328125,-0.0054977829568088055,-0.0030543238390237093,0.002443459117785096
1772727596140518000,13.293517822265626,0.001221729558892548,0.000610864779446274,0.0030543238390237093
1772727596157863200,13.31086328125,0.000610864779446274,0.004276053514331579,-0.004276053514331579
1772727596175208700,13.328208740234375,-0.006719512399286032,0.002443459117785096,-0.007941242307424545
1772727596192554000,13.345553955078126,-0.006719512399286032,0.001832594396546483,0.009162971749901772
1772727596209899500,13.3628994140625,-0.015271619893610477,-0.003665188793092966,-0.002443459117785096
1772727596227244800,13.380244873046875,-0.01282816007733345,-0.003665188793092966,0.006719512399286032
1772727596244590300,13.39759033203125,-0.001221729558892548,-0.001221729558892548,0.009162971749901772
1772727596261935600,13.414935546875,0.006719512399286032,0.0030543238390237093,0.0054977829568088055
1772727596279281000,13.432281005859375,0.003665188793092966,0.001221729558892548,-0.006108647678047419
1772727596296626400,13.44962646484375,-0.010995565913617611,-0.007330377586185932,-0.01649334840476513
1772727596313972000,13.466971923828124,-0.020769402384757996,-0.006719512399286032,-0.010995565913617611
1772727596331317200,13.484317138671875,-0.01649334840476513,-0.009162971749901772,0.006719512399286032
1772727596348662500,13.50166259765625,0.001832594396546483,0.001221729558892548,0.01649334840476513
1772727596366008000,13.519008056640626,0.01649334840476513,0.014049889519810677,0.015271619893610477
1772727596383353300,13.536353271484375,0.007941242307424545,0.01649334840476513,-0.006108647678047419
1772727596400699000,13.553698974609375,-0.0054977829568088055,0.0054977829568088055,-0.007941242307424545
1772727596418044200,13.571044189453126,-0.015271619893610477,0,-0.017104214057326317
1772727596435389700,13.5883896484375,-0.009162971749901772,-0.001832594396546483,0.013439024798572063
1772727596452735000,13.60573486328125,-0.004276053514331579,0.001221729558892548,0.007330377586185932
1772727596470080500,13.62308056640625,-0.0030543238390237093,0.0030543238390237093,-0.000610864779446274
1772727596487425800,13.64042578125,0.001221729558892548,0.006108647678047419,-0.0030543238390237093
1772727596504771300,13.657771240234375,0.007330377586185932,0.01282816007733345,0.004276053514331579
1772727596522116600,13.67511669921875,0.004276053514331579,0.01282816007733345,0.007941242307424545
1772727596539462100,13.692462158203124,-0.010995565913617611,0.009773836471140385,-0.009773836471140385
1772727596556807400,13.709807373046875,-0.02260199747979641,0.006719512399286032,-0.018325943499803543
1772727596574153000,13.727153076171875,-0.020158538594841957,0.001832594396546483,-0.006719512399286032
1772727596591498200,13.744498291015624,-0.006108647678047419,0.003665188793092966,0.01588248461484909
1772727596608843800,13.76184375,0.007330377586185932,0.012217295356094837,0.0054977829568088055
1772727596626189000,13.77918896484375,0.007941242307424545,0.017104214057326317,-0.014049889519810677
1772727596643534300,13.796534423828126,-0.003665188793092966,0.013439024798572063,-0.01954767294228077
1772727596660880000,13.8138798828125,-0.01282816007733345,0.0054977829568088055,-0.010995565913617611
1772727596678225400,13.831225341796875,-0.017104214057326317,-0.0054977829568088055,-0.006108647678047419
1772727596695570700,13.84857080078125,-0.01282816007733345,-0.000610864779446274,-0.0030543238390237093
1772727596712916000,13.865916015625,-0.012217295356094837,0.004276053514331579,-0.007941242307424545
1772727596730261500,13.883261474609375,-0.003665188793092966,0.010384701192378998,0.004886918235570192
1772727596747606800,13.900606689453125,0.004886918235570192,0.01588248461484909,-0.011606430634856224
1772727596764952300,13.917952392578124,-0.000610864779446274,0.01282816007733345,-0.007330377586185932
1772727596782297900,13.9352978515625,-0.01282816007733345,0.011606430634856224,-0.01282816007733345
1772727596799643100,13.95264306640625,-0.020769402384757996,0.004276053514331579,-0.007941242307424545
1772727596816988400,13.969988525390624,-0.015271619893610477,-0.000610864779446274,-0.003665188793092966
1772727596834334000,13.987333984375,-0.004886918235570192,0.001221729558892548,0.01588248461484909
1772727596851679200,14.00467919921875,0,0.006719512399286032,0.006719512399286032
1772727596869024800,14.022024658203126,-0.003665188793092966,0.008552107028663158,-0.021991131827235222
1772727596886370000,14.0393701171875,-0.006719512399286032,0.0030543238390237093,0.001221729558892548
1772727596903715600,14.056715576171875,-0.009773836471140385,0.004886918235570192,0.009162971749901772
1772727596921060900,14.074060791015626,-0.01282816007733345,0.008552107028663158,0.01649334840476513
1772727596938406400,14.091406494140625,-0.015271619893610477,0.01282816007733345,-0.007330377586185932
1772727596955751700,14.108751708984375,-0.009773836471140385,0.014660755172371864,-0.0030543238390237093
1772727596973097200,14.12609716796875,0.002443459117785096,0.020769402384757996,0.01893680728971958
1772727596990442500,14.1434423828125,0.012217295356094837,0.02626718580722809,0.027488915249705315
1772727597007788000,14.1607880859375,0.010384701192378998,0.03237583488225937,0.010384701192378998
1772727597025133300,14.17813330078125,0.001832594396546483,0.02871064469218254,-0.006108647678047419
1772727597042478600,14.195478515625,-0.004886918235570192,0.010995565913617611,-0.009773836471140385
1772727597059824000,14.21282421875,-0.012217295356094837,-0.0054977829568088055,0.000610864779446274
1772727597077169700,14.230169677734375,-0.015271619893610477,-0.011606430634856224,0.008552107028663158
1772727597094515000,14.247514892578126,-0.01649334840476513,-0.009773836471140385,-0.001221729558892548
1772727597111860200,14.264860107421875,-0.011606430634856224,-0.001832594396546483,-0.012217295356094837
1772727597129205800,14.282205810546875,-0.011606430634856224,-0.002443459117785096,-0.021380268037319183
1772727597146551300,14.29955126953125,-0.007941242307424545,0.000610864779446274,-0.006719512399286032
1772727597163896600,14.316896484375,-0.013439024798572063,0.001221729558892548,-0.008552107028663158
1772727597181241900,14.334241943359375,-0.01893680728971958,0.012217295356094837,-0.006719512399286032
1772727597198587400,14.35158740234375,-0.017715077847242355,0.015271619893610477,-0.011606430634856224
1772727597215932700,14.3689326171875,-0.01282816007733345,0.012217295356094837,-0.0030543238390237093
1772727597233278200,14.3862783203125,0,0.023823726922273636,0.011606430634856224
1772727597250623500,14.40362353515625,-0.001221729558892548,0.02626718580722809,-0.013439024798572063
1772727597267969000,14.420968994140624,-0.01588248461484909,0.01649334840476513,-0.01954767294228077
1772727597285314300,14.438314208984375,-0.021991131827235222,0.004886918235570192,-0.015271619893610477
1772727597302659800,14.455659912109375,-0.017715077847242355,-0.0054977829568088055,0.004276053514331579
1772727597320005000,14.473005126953124,-0.009773836471140385,0,0.009773836471140385
1772727597337350700,14.4903505859375,-0.000610864779446274,0.01649334840476513,0.004276053514331579
1772727597354696000,14.507696044921875,-0.004886918235570192,0.020769402384757996,-0.012217295356094837
1772727597372041500,14.52504150390625,-0.003665188793092966,0.020769402384757996,-0.014660755172371864
1772727597389386800,14.54238671875,0.007330377586185932,0.01893680728971958,0.01954767294228077
1772727597406732300,14.559732177734375,0.01282816007733345,0.021991131827235222,0.020158538594841957
1772727597424077600,14.57707763671875,0.000610864779446274,0.014049889519810677,0.0054977829568088055
1772727597441423000,14.594423095703124,-0.017104214057326317,0.009162971749901772,-0.017104214057326317
1772727597458768400,14.611768310546875,-0.030543239787220955,0.001221729558892548,-0.029932374134659767
1772727597476114000,14.629114013671876,-0.020769402384757996,0.001221729558892548,-0.001221729558892548
1772727597493459200,14.646459228515624,0.002443459117785096,0.009162971749901772,0.014660755172371864
1772727597510804700,14.6638046875,0.014660755172371864,0.023212861269712448,0.01282816007733345
1772727597528150000,14.68114990234375,0.009773836471140385,0.02871064469218254,-0.004276053514331579
1772727597545495600,14.69849560546875,-0.012217295356094837,0.0256563201546669,-0.01588248461484909
1772727597562840800,14.7158408203125,-0.021991131827235222,0.0256563201546669,-0.007941242307424545
1772727597580186000,14.73318603515625,-0.01893680728971958,0.017715077847242355,-0.003665188793092966
1772727597597531600,14.75053173828125,-0.008552107028663158,0.025045456364750862,0.010995565913617611
1772727597614877000,14.767876953125,-0.010384701192378998,0.02932151034474373,-0.006719512399286032
1772727597632222500,14.785222412109375,-0.01954767294228077,0.02932151034474373,-0.008552107028663158
1772727597649567700,14.802567626953126,-0.026878049597144127,0.02932151034474373,-0.01282816007733345
1772727597666913300,14.819913330078125,-0.0256563201546669,0.029932374134659767,-0.003665188793092966
1772727597684258600,14.837258544921875,-0.011606430634856224,0.034208428114652634,0.0054977829568088055
1772727597701604000,14.85460400390625,0.000610864779446274,0.043371398001909256,0.007330377586185932
1772727597718949400,14.871949462890624,0.006719512399286032,0.05070177838206291,-0.004276053514331579
1772727597736295000,14.889294921875,0.001221729558892548,0.04276053607463837,-0.007941242307424545
1772727597753640200,14.90664013671875,-0.001832594396546483,0.026878049597144127,-0.004886918235570192
1772727597770985700,14.92398583984375,-0.0030543238390237093,0.009162971749901772,0.006108647678047419
1772727597788331000,14.9413310546875,0.004276053514331579,0.009773836471140385,0.004276053514331579
1772727597805676500,14.958676513671875,0.01282816007733345,0.014660755172371864,0.001832594396546483
1772727597823021800,14.976021728515626,0.007941242307424545,0.01588248461484909,-0.01649334840476513
1772727597840367400,14.993367431640625,0.007941242307424545,0.010995565913617611,-0.008552107028663158
1772727597857712600,15.010712646484375,0.01588248461484909,0.01282816007733345,0.021380268037319183
1772727597875058200,15.02805810546875,0.020158538594841957,0.021380268037319183,0.024434590712189674
1772727597892403500,15.045403564453125,0.008552107028663158,0.02626718580722809,-0.010384701192378998
1772727597909749000,15.0627490234375,-0.004276053514331579,0.025045456364750862,-0.020769402384757996
1772727597927094300,15.08009423828125,-0.006108647678047419,0.02260199747979641,0.009773836471140385
1772727597944439800,15.097439697265624,0.004276053514331579,0.0256563201546669,0.030543239787220955
1772727597961785000,15.11478515625,-0.001221729558892548,0.028099779039621353,0.001221729558892548
1772727597979130400,15.13213037109375,-0.009773836471140385,0.028099779039621353,-0.01282816007733345
1772727597996476000,15.149475830078124,-0.020769402384757996,0.020769402384757996,-0.03787361457943916
1772727598013821400,15.166821533203125,-0.010995565913617611,0.01588248461484909,0.002443459117785096
1772727598031166700,15.184166748046875,0.002443459117785096,0.023823726922273636,0.0256563201546669
1772727598048512000,15.201511962890624,0.002443459117785096,0.03543015569448471,-0.002443459117785096
1772727598065857500,15.218857421875,-0.010384701192378998,0.029932374134659767,-0.015271619893610477
1772727598083202800,15.236202880859375,-0.018325943499803543,0.020158538594841957,-0.027488915249705315
1772727598100548400,15.25354833984375,-0.010384701192378998,0.020769402384757996,0.0054977829568088055
1772727598117893600,15.2708935546875,-0.006108647678047419,0.02626718580722809,0.001832594396546483
1772727598135239200,15.2882392578125,-0.01649334840476513,0.024434590712189674,-0.01588248461484909
1772727598152584400,15.30558447265625,-0.024434590712189674,0.023823726922273636,-0.021991131827235222
1772727598169930000,15.322929931640624,-0.017715077847242355,0.02260199747979641,-0.007330377586185932
1772727598187275300,15.340275146484375,-0.013439024798572063,0.021380268037319183,0.009773836471140385
1772727598204620800,15.357620849609376,-0.012217295356094837,0.023823726922273636,0.002443459117785096
1772727598221966000,15.374966064453124,-0.017715077847242355,0.0256563201546669,-0.017104214057326317
1772727598239311600,15.3923115234375,-0.021380268037319183,0.023212861269712448,-0.009162971749901772
1772727598256657000,15.409656982421875,-0.017715077847242355,0.02260199747979641,-0.0054977829568088055
1772727598274002400,15.42700244140625,-0.008552107028663158,0.02871064469218254,0.023823726922273636
1772727598291347700,15.44434765625,-0.009162971749901772,0.028099779039621353,0.010384701192378998
1772727598308693200,15.461693359375,-0.014660755172371864,0.024434590712189674,0.007330377586185932
1772727598326038500,15.47903857421875,-0.015271619893610477,0.023212861269712448,0
1772727598343383800,15.4963837890625,-0.012217295356094837,0.017715077847242355,0.0030543238390237093
1772727598360729300,15.513729248046875,-0.010995565913617611,0.018325943499803543,0.009773836471140385
1772727598378075000,15.531074951171876,-0.010995565913617611,0.021380268037319183,0.002443459117785096
1772727598395420200,15.548420166015624,-0.017104214057326317,0.01954767294228077,-0.0030543238390237093
1772727598412765700,15.565765625,-0.011606430634856224,0.023823726922273636,0.007941242307424545
1772727598430111000,15.583111083984376,0.001221729558892548,0.024434590712189674,0.014660755172371864
1772727598447456300,15.600456298828124,0.012217295356094837,0.02626718580722809,0.024434590712189674
1772727598464801800,15.6178017578125,0.013439024798572063,0.034208428114652634,0.004276053514331579
1772727598482147300,15.635147216796875,-0.000610864779446274,0.03298669680953026,-0.010384701192378998
1772727598499492600,15.65249267578125,-0.015271619893610477,0.01893680728971958,-0.014660755172371864
1772727598516838000,15.669837890625,-0.007941242307424545,0.017104214057326317,0.01588248461484909
1772727598534183400,15.687183349609375,0.01588248461484909,0.029932374134659767,0.029932374134659767
1772727598551528700,15.70452880859375,0.02932151034474373,0.03909534588456154,0.021380268037319183
1772727598568874200,15.721874267578125,0.021991131827235222,0.050090912729501724,-0.006719512399286032
1772727598586219500,15.739219482421875,-0.000610864779446274,0.0409279391169548,-0.021991131827235222
1772727598603565000,15.75656494140625,-0.010995565913617611,0.036651886999607086,-0.011606430634856224
1772727598620910300,15.773910400390625,-0.017104214057326317,0.03237583488225937,0.008552107028663158
1772727598638255900,15.791255859375,-0.010384701192378998,0.039706211537122726,0.010384701192378998
1772727598655601200,15.80860107421875,-0.004276053514331579,0.043982263654470444,0.01649334840476513
1772727598681619500,15.834619384765626,-0.002443459117785096,0.047036588191986084,-0.0030543238390237093
1772727598698964700,15.85196484375,-0.0054977829568088055,0.04153880476951599,-0.001832594396546483
1772727598716310000,15.86931005859375,-0.01282816007733345,0.03543015569448471,-0.003665188793092966
1772727598733655600,15.886655517578125,-0.021991131827235222,0.025045456364750862,-0.017715077847242355
1772727598751001000,15.9040009765625,-0.02260199747979641,0.017715077847242355,-0.008552107028663158
1772727598768346400,15.921346435546875,-0.006719512399286032,0.023212861269712448,0.023212861269712448
1772727598785691600,15.938691650390625,0.004886918235570192,0.03298669680953026,0.020158538594841957
1772727598803037200,15.956037109375,-0.006108647678047419,0.0360410213470459,-0.002443459117785096
1772727598820382500,15.973382568359375,-0.024434590712189674,0.03176496922969818,-0.018325943499803543
1772727598837728000,15.99072802734375,-0.03176496922969818,0.026878049597144127,0.000610864779446274
1772727598855073300,16.0080732421875,-0.014660755172371864,0.031154103577136993,0.017104214057326317
1772727598872418800,16.025418701171876,-0.009773836471140385,0.033597562462091446,0.020769402384757996
1772727598889764000,16.04276416015625,-0.012217295356094837,0.039706211537122726,0.010384701192378998
1772727598907109600,16.060109619140626,-0.011606430634856224,0.0360410213470459,0.011606430634856224
1772727598924455000,16.077454833984376,-0.008552107028663158,0.037262752652168274,0.01282816007733345
1772727598941800400,16.094800537109375,-0.011606430634856224,0.034208428114652634,-0.001832594396546483
1772727598959145700,16.112145751953125,-0.021380268037319183,0.028099779039621353,-0.009162971749901772
1772727598976491300,16.1294912109375,-0.027488915249705315,0.020158538594841957,-0.009773836471140385
1772727598993836500,16.14683642578125,-0.01893680728971958,0.02626718580722809,0.023212861269712448
1772727599011182000,16.16418212890625,-0.0054977829568088055,0.03848448023200035,0.020769402384757996
1772727599028527400,16.18152734375,-0.006719512399286032,0.04764745384454727,0.006719512399286032
1772727599045873000,16.198872802734375,-0.007941242307424545,0.050090912729501724,-0.01893680728971958
1772727599063218200,16.21621826171875,-0.01282816007733345,0.036651886999607086,-0.004886918235570192
1772727599080563700,16.233563720703124,-0.009773836471140385,0.03176496922969818,0.0030543238390237093
1772727599097909000,16.250908935546875,-0.013439024798572063,0.031154103577136993,0.018325943499803543
1772727599115254300,16.268254150390625,-0.007941242307424545,0.04214967042207718,0.012217295356094837
1772727599132599800,16.285599853515624,-0.002443459117785096,0.047036588191986084,0.001832594396546483
1772727599149945000,16.302945068359374,0.0054977829568088055,0.0513126403093338,0.0030543238390237093
1772727599167290600,16.32029052734375,0.003665188793092966,0.040317077189683914,0.004276053514331579
1772727599184636000,16.337635986328124,-0.0054977829568088055,0.031154103577136993,0.009162971749901772
1772727599201981400,16.3549814453125,-0.004276053514331579,0.03543015569448471,0
1772727599219326700,16.37232666015625,0.0030543238390237093,0.04153880476951599,0.023823726922273636
1772727599236672300,16.38967236328125,0.004886918235570192,0.04276053607463837,0.01282816007733345
1772727599254017500,16.407017578125,0.0054977829568088055,0.04214967042207718,0.014049889519810677
1772727599271363000,16.424363037109377,-0.0054977829568088055,0.03787361457943916,-0.013439024798572063
1772727599288708400,16.441708251953123,-0.020158538594841957,0.028099779039621353,0.004276053514331579
1772727599306054000,16.459053955078126,-0.017104214057326317,0.027488915249705315,0.006719512399286032
1772727599323399200,16.476399169921876,-0.010995565913617611,0.026878049597144127,0.01893680728971958
1772727599340744700,16.49374462890625,-0.001221729558892548,0.03909534588456154,0.007330377586185932
1772727599358090000,16.511090087890626,-0.002443459117785096,0.04153880476951599,0.007941242307424545
1772727599375435500,16.528435546875,-0.007330377586185932,0.040317077189683914,0.001221729558892548
1772727599392780800,16.54578076171875,-0.014660755172371864,0.026878049597144127,0.014049889519810677
1772727599410126300,16.563126220703126,-0.009162971749901772,0.03237583488225937,0.017715077847242355
1772727599427471600,16.5804716796875,-0.007330377586185932,0.03176496922969818,0.023823726922273636
1772727599444817200,16.597817138671875,-0.009162971749901772,0.03298669680953026,0.014660755172371864
1772727599462162400,16.615162353515625,-0.004886918235570192,0.03787361457943916,0.009773836471140385
1772727599479507700,16.6325078125,-0.001221729558892548,0.04153880476951599,0.021991131827235222
1772727599496853200,16.649853271484375,-0.014660755172371864,0.03176496922969818,0.01282816007733345
1772727599514198800,16.66719873046875,-0.009773836471140385,0.030543239787220955,0.031154103577136993
1772727599531544000,16.6845439453125,-0.006719512399286032,0.028099779039621353,0.031154103577136993
1772727599548889300,16.701889404296875,-0.003665188793092966,0.0360410213470459,0.027488915249705315
1772727599566235000,16.71923486328125,-0.01282816007733345,0.03909534588456154,0
1772727599583580200,16.736580078125,-0.021991131827235222,0.03298669680953026,0.0054977829568088055
1772727599600925700,16.75392578125,-0.0256563201546669,0.024434590712189674,0.014660755172371864
1772727599618271000,16.77127099609375,-0.020158538594841957,0.028099779039621353,0.03176496922969818
1772727599635616500,16.788616455078124,-0.011606430634856224,0.03481929376721382,0.031154103577136993
1772727599652961800,16.8059619140625,-0.006108647678047419,0.049480047076940536,0.024434590712189674
1772727599670307300,16.823307373046877,-0.009773836471140385,0.050090912729501724,0.002443459117785096
1772727599687652600,16.840652587890624,-0.0256563201546669,0.037262752652168274,-0.001832594396546483
1772727599704998100,16.857998046875,-0.02260199747979641,0.029932374134659767,0.01893680728971958
1772727599722343400,16.875343505859377,-0.011606430634856224,0.033597562462091446,0.030543239787220955
1772727599739689000,16.89268896484375,0.003665188793092966,0.043982263654470444,0.040317077189683914
1772727599757034200,16.9100341796875,0.001832594396546483,0.04153880476951599,0.010384701192378998
1772727599774379800,16.9273798828125,0.0054977829568088055,0.04581485688686371,0.011606430634856224
1772727599791725000,16.94472509765625,-0.0030543238390237093,0.0409279391169548,0.009162971749901772
1772727599809070600,16.962070556640626,-0.014049889519810677,0.037262752652168274,0.014660755172371864
1772727599826415900,16.979415771484376,-0.010384701192378998,0.03481929376721382,0.027488915249705315
1772727599843761400,16.996761474609375,0.001832594396546483,0.040317077189683914,0.03543015569448471
1772727599861106700,17.014106689453126,0.011606430634856224,0.05070177838206291,0.017104214057326317
1772727599878452200,17.0314521484375,0.011606430634856224,0.05497783049941063,0.017715077847242355
1772727599895797500,17.048797607421875,-0.006108647678047419,0.039706211537122726,0.009773836471140385
1772727599913142800,17.066142822265626,-0.01282816007733345,0.029932374134659767,0.02932151034474373
1772727599930488300,17.08348828125,-0.013439024798572063,0.034208428114652634,0.029932374134659767
1772727599947833600,17.10083349609375,-0.01893680728971958,0.031154103577136993,0.010995565913617611
1772727599965179100,17.11817919921875,-0.014049889519810677,0.030543239787220955,0.010995565913617611
1772727599982524400,17.1355244140625,0.001221729558892548,0.033597562462091446,0.02932151034474373
1772727599999870000,17.152869873046875,0.013439024798572063,0.0409279391169548,0.04764745384454727
1772727600017215200,17.17021533203125,0.015271619893610477,0.05253437161445618,0.040317077189683914
1772727600034560800,17.187560791015624,-0.004276053514331579,0.04459312930703163,0.009773836471140385
1772727600051906000,17.204906005859375,-0.01954767294228077,0.024434590712189674,0.021991131827235222
1772727600069251600,17.22225146484375,-0.015271619893610477,0.020769402384757996,0.039706211537122726
1772727600086596900,17.239596923828124,-0.004886918235570192,0.031154103577136993,0.039706211537122726
1772727600103942400,17.2569423828125,-0.008552107028663158,0.034208428114652634,0.018325943499803543
1772727600121287700,17.27428759765625,-0.004276053514331579,0.036651886999607086,0.024434590712189674
1772727600138633200,17.29163330078125,0.003665188793092966,0.03543015569448471,0.03298669680953026
1772727600155978500,17.308978515625,0.001221729558892548,0.033597562462091446,0.04520399495959282
1772727600173324000,17.326323974609377,0.000610864779446274,0.040317077189683914,0.03848448023200035
1772727600190669300,17.34366943359375,-0.013439024798572063,0.036651886999607086,0.015271619893610477
1772727600208014800,17.361014892578126,-0.023212861269712448,0.03237583488225937,0.020158538594841957
1772727600225360100,17.378360107421877,-0.013439024798572063,0.03237583488225937,0.04153880476951599
1772727600242705700,17.39570556640625,-0.004886918235570192,0.0409279391169548,0.04153880476951599
1772727600260051000,17.413051025390626,-0.009162971749901772,0.0360410213470459,0.01588248461484909
1772727600277396200,17.430396240234376,-0.01282816007733345,0.03176496922969818,0.017715077847242355
1772727600294741800,17.44774169921875,-0.009773836471140385,0.030543239787220955,0.01893680728971958
1772727600312087000,17.465087158203126,-0.009162971749901772,0.037262752652168274,0.034208428114652634
1772727600329432600,17.4824326171875,-0.006108647678047419,0.0409279391169548,0.02932151034474373
1772727600346777900,17.49977783203125,-0.002443459117785096,0.04153880476951599,0.02932151034474373
1772727600364123400,17.517123291015626,0.001832594396546483,0.03909534588456154,0.026878049597144127
1772727600381468700,17.53446875,0.001832594396546483,0.04153880476951599,0.036651886999607086
1772727600398814200,17.551814208984375,-0.010995565913617611,0.03787361457943916,0.014049889519810677
1772727600416159500,17.569159423828125,-0.02260199747979641,0.028099779039621353,0.004886918235570192
1772727600433505000,17.586505126953124,-0.009162971749901772,0.030543239787220955,0.037262752652168274
1772727600450850300,17.603850341796875,0.001832594396546483,0.04276053607463837,0.0360410213470459
1772727600468195800,17.62119580078125,0.003665188793092966,0.04764745384454727,0.031154103577136993
1772727600485541000,17.638541015625,0.000610864779446274,0.037262752652168274,0.02260199747979641
1772727600502886700,17.65588671875,0.003665188793092966,0.03787361457943916,0.0256563201546669
1772727600520232000,17.67323193359375,0.001221729558892548,0.03787361457943916,0.03298669680953026
1772727600537577500,17.690577392578124,-0.011606430634856224,0.0360410213470459,0.013439024798572063
1772727600554922800,17.7079228515625,-0.020769402384757996,0.02871064469218254,0.006719512399286032
1772727600572268000,17.72526806640625,-0.01282816007733345,0.021991131827235222,0.027488915249705315
1772727600589613600,17.742613525390624,0.004886918235570192,0.027488915249705315,0.05253437161445618
1772727600606959000,17.759958984375,0.017715077847242355,0.04764745384454727,0.04886918142437935
1772727600624304400,17.777304443359377,0.010384701192378998,0.053756099194288254,0.014660755172371864
1772727600641649700,17.794649658203124,-0.0030543238390237093,0.043371398001909256,0.0054977829568088055
1772727600658995200,17.8119951171875,-0.006719512399286032,0.02932151034474373,0.03237583488225937
1772727600676340500,17.829340576171877,0.000610864779446274,0.02626718580722809,0.05558869615197182
1772727600693686000,17.84668603515625,0.009162971749901772,0.03909534588456154,0.049480047076940536
1772727600711031300,17.86403125,0.007941242307424545,0.04214967042207718,0.020158538594841957
1772727600728376800,17.881376953125,0.006108647678047419,0.0360410213470459,0.010384701192378998
1772727600745722000,17.89872216796875,0.008552107028663158,0.03481929376721382,0.03909534588456154
1772727600763067600,17.916067626953126,0.003665188793092966,0.034208428114652634,0.03848448023200035
1772727600780413000,17.933412841796876,-0.006719512399286032,0.034208428114652634,0.03848448023200035
1772727600797758500,17.950758544921875,-0.011606430634856224,0.03298669680953026,0.03543015569448471
1772727600815103700,17.968103759765626,-0.007330377586185932,0.03848448023200035,0.029932374134659767
1772727600832449000,17.985448974609376,-0.004886918235570192,0.04153880476951599,0.023823726922273636
1772727600849794600,18.002794677734375,-0.010995565913617611,0.037262752652168274,0.017104214057326317
1772727600867140000,18.02014013671875,-0.020769402384757996,0.02871064469218254,0.0256563201546669
1772727600884485400,18.0374853515625,-0.02260199747979641,0.031154103577136993,0.031154103577136993
1772727600901830700,18.05483056640625,-0.020769402384757996,0.03237583488225937,0.030543239787220955
1772727600919176200,18.07217626953125,-0.0256563201546669,0.030543239787220955,0.015271619893610477
1772727600936521500,18.089521484375,-0.020769402384757996,0.03237583488225937,0.008552107028663158
1772727600953867000,18.106866943359375,-0.008552107028663158,0.03176496922969818,0.031154103577136993
1772727600971212300,18.12421240234375,0.004886918235570192,0.03787361457943916,0.04825831577181816
1772727600988557800,18.141557861328124,0.007941242307424545,0.046425722539424896,0.03176496922969818
1772727601005903000,18.158903076171875,0.001221729558892548,0.043982263654470444,0.028099779039621353
1772727601023248600,18.17624853515625,-0.0054977829568088055,0.03543015569448471,0.021991131827235222
1772727601040594000,18.193593994140624,-0.004276053514331579,0.03543015569448471,0.03848448023200035
1772727601057939500,18.210939453125,0.002443459117785096,0.039706211537122726,0.040317077189683914
1772727601075284700,18.22828466796875,-0.0030543238390237093,0.03787361457943916,0.020158538594841957
1772727601092630000,18.245630126953124,-0.003665188793092966,0.03848448023200035,0.02871064469218254
1772727601109975600,18.2629755859375,0.003665188793092966,0.039706211537122726,0.02871064469218254
1772727601127321000,18.280321044921877,0.009773836471140385,0.039706211537122726,0.046425722539424896
1772727601144666400,18.297666259765624,0.020769402384757996,0.04520399495959282,0.043371398001909256
1772727601162011600,18.31501171875,0.012217295356094837,0.04520399495959282,0.014660755172371864
1772727601179357200,18.332357177734377,-0.003665188793092966,0.04520399495959282,0.026878049597144127
1772727601196702500,18.349702392578124,-0.014049889519810677,0.034208428114652634,0.01588248461484909
1772727601214048000,18.367048095703126,-0.021380268037319183,0.01954767294228077,0.03237583488225937
1772727601231393300,18.384393310546876,-0.010384701192378998,0.03237583488225937,0.030543239787220955
1772727601248738800,18.40173876953125,-0.001832594396546483,0.03848448023200035,0.031154103577136993
1772727601266084000,18.419083984375,0.006719512399286032,0.04520399495959282,0.021991131827235222
1772727601283429400,18.436429443359376,0.011606430634856224,0.04459312930703163,0.0256563201546669
1772727601300775000,18.45377490234375,0.009773836471140385,0.04153880476951599,0.039706211537122726
1772727601318120400,18.471120361328126,0.001221729558892548,0.040317077189683914,0.028099779039621353
1772727601335465700,18.4884658203125,-0.007330377586185932,0.03909534588456154,0.014660755172371864
1772727601352811000,18.50581103515625,-0.012217295356094837,0.03176496922969818,0.010995565913617611
1772727601370156500,18.523156494140625,-0.009773836471140385,0.020158538594841957,0.021380268037319183
1772727601387501800,18.540501708984376,0.001832594396546483,0.03237583488225937,0.0409279391169548
1772727601404847400,18.557847412109375,0.004886918235570192,0.04764745384454727,0.02871064469218254
1772727601422192600,18.575192626953125,-0.001221729558892548,0.04825831577181816,0.010995565913617611
1772727601439538200,18.5925380859375,-0.004276053514331579,0.04153880476951599,0.023212861269712448
1772727601456883500,18.609883544921875,-0.007330377586185932,0.034208428114652634,0.030543239787220955
1772727601474229000,18.62722900390625,-0.01282816007733345,0.03298669680953026,0.034208428114652634
1772727601491574300,18.64457421875,-0.01588248461484909,0.03237583488225937,0.024434590712189674
1772727601508919800,18.661919921875,-0.013439024798572063,0.03298669680953026,0.014049889519810677
1772727601526265000,18.67926513671875,-0.004886918235570192,0.04153880476951599,0.027488915249705315
1772727601543610400,18.6966103515625,0.001221729558892548,0.04276053607463837,0.0409279391169548
1772727601560956000,18.713955810546874,0,0.04153880476951599,0.03481929376721382
1772727601578301400,18.731301513671873,-0.002443459117785096,0.03848448023200035,0.03237583488225937
1772727601595646700,18.748646728515624,-0.001832594396546483,0.037262752652168274,0.030543239787220955
1772727601612992000,18.765991943359374,-0.004276053514331579,0.03787361457943916,0.020769402384757996
1772727601630337500,18.783337646484377,-0.006719512399286032,0.03237583488225937,0.03298669680953026
1772727601647682800,18.800682861328124,-0.006719512399286032,0.02871064469218254,0.03909534588456154
1772727601665028400,18.8180283203125,-0.0030543238390237093,0.028099779039621353,0.03848448023200035
1772727601682373600,18.83537353515625,0.001221729558892548,0.03787361457943916,0.030543239787220955
1772727601699719200,18.85271923828125,0.004276053514331579,0.040317077189683914,0.027488915249705315
1772727601717064400,18.870064453125,0.0054977829568088055,0.03481929376721382,0.033597562462091446
1772727601734410000,18.887409912109376,0.013439024798572063,0.034208428114652634,0.05803215503692627
1772727601751755300,18.90475537109375,0.021991131827235222,0.0409279391169548,0.059864748269319534
1772727601769100800,18.922100830078126,0.020158538594841957,0.0409279391169548,0.05253437161445618
1772727601786446000,18.939446044921876,0.012217295356094837,0.03909534588456154,0.031154103577136993
1772727601803791400,18.956791259765627,0.001221729558892548,0.04276053607463837,0.020769402384757996
1772727601821137000,18.974136962890626,-0.01282816007733345,0.04886918142437935,0.021991131827235222
1772727601838482400,18.991482421875,-0.01588248461484909,0.043371398001909256,0.028099779039621353
1772727601855827700,19.00882763671875,-0.01893680728971958,0.046425722539424896,0.0256563201546669
1772727601873173000,19.026173095703125,-0.004886918235570192,0.04276053607463837,0.04886918142437935
1772727601890518500,19.0435185546875,0.0030543238390237093,0.056199558079242706,0.05070177838206291
1772727601907863800,19.06086376953125,-0.014660755172371864,0.05436696484684944,0.0030543238390237093
1772727601925209300,19.078209228515625,-0.0409279391169548,0.031154103577136993,-0.01893680728971958
1772727601942554600,19.0955546875,-0.027488915249705315,0.023212861269712448,0.018325943499803543
1772727601959900200,19.112900146484375,-0.023212861269712448,0.031154103577136993,0.04886918142437935
1772727601977245400,19.130245361328125,0,0.027488915249705315,0.0409279391169548
1772727601994591000,19.147591064453124,0.010995565913617611,0.04581485688686371,0.056199558079242706
1772727602011936300,19.164936279296874,0.021380268037319183,0.06841685622930527,0.004276053514331579
1772727602029281800,19.18228173828125,0.01588248461484909,0.056810423731803894,0.02260199747979641
1772727602046627000,19.199626953125,0.000610864779446274,0.036651886999607086,0.030543239787220955
1772727602063972400,19.216972412109374,-0.024434590712189674,0.024434590712189674,0.011606430634856224
1772727602081318000,19.23431787109375,-0.03543015569448471,0.015271619893610477,0.02871064469218254
1772727602098663200,19.2516630859375,-0.01893680728971958,0.02260199747979641,0.020158538594841957
1772727602116008700,19.2690087890625,0.006719512399286032,0.03176496922969818,0.04276053607463837
1772727602133354000,19.28635400390625,0.007330377586185932,0.04459312930703163,0.008552107028663158
1772727602150699500,19.303699462890624,-0.007941242307424545,0.033597562462091446,0.02871064469218254
1772727602168044800,19.321044921875,-0.01649334840476513,0.02932151034474373,0.031154103577136993
1772727602185390300,19.338390380859376,-0.02626718580722809,0.024434590712189674,0.021991131827235222
1772727602202735600,19.355735595703123,-0.027488915249705315,0.027488915249705315,0.020158538594841957
1772727602220081000,19.373080810546874,-0.0256563201546669,0.023823726922273636,0.021380268037319183
1772727602237426400,19.390426513671876,-0.013439024798572063,0.024434590712189674,0.04276053607463837
1772727602254772000,19.40777197265625,-0.004886918235570192,0.0360410213470459,0.04886918142437935
1772727602272117200,19.4251171875,-0.009773836471140385,0.033597562462091446,0.03848448023200035
1772727602289462500,19.442462646484376,-0.02871064469218254,0.028099779039621353,0.014660755172371864
1772727602306808000,19.45980810546875,-0.0256563201546669,0.021380268037319183,0.02626718580722809
1772727602324153300,19.4771533203125,-0.007330377586185932,0.027488915249705315,0.05436696484684944
1772727602341499000,19.494498779296876,0.014049889519810677,0.03848448023200035,0.06352993845939636
1772727602358844200,19.51184423828125,0.017104214057326317,0.039706211537122726,0.04581485688686371
1772727602376189700,19.529189697265625,0.003665188793092966,0.03298669680953026,0.036651886999607086
1772727602393535000,19.546534912109376,-0.002443459117785096,0.030543239787220955,0.03787361457943916
1772727602410880500,19.563880615234375,-0.000610864779446274,0.030543239787220955,0.03848448023200035
1772727602428225800,19.581225830078125,0.0054977829568088055,0.026878049597144127,0.04764745384454727
1772727602445571300,19.5985712890625,0.017715077847242355,0.03909534588456154,0.05742128938436508
1772727602462916600,19.61591650390625,0.010995565913617611,0.04459312930703163,0.02932151034474373
1772727602480262000,19.633261962890625,0.0030543238390237093,0.03909534588456154,0.034208428114652634
1772727602497607400,19.650607421875,-0.004886918235570192,0.034208428114652634,0.03298669680953026
1772727602514952700,19.66795263671875,-0.006108647678047419,0.03237583488225937,0.03481929376721382
1772727602532298200,19.68529833984375,-0.010995565913617611,0.0360410213470459,0.024434590712189674
1772727602549643500,19.7026435546875,-0.014660755172371864,0.03481929376721382,0.017715077847242355
1772727602566989000,19.719989013671874,-0.010995565913617611,0.03543015569448471,0.023823726922273636
1772727602584334300,19.737334228515625,-0.0030543238390237093,0.03481929376721382,0.03481929376721382
1772727602601680000,19.754679931640624,0.0030543238390237093,0.03787361457943916,0.0513126403093338
1772727602619025200,19.772025146484374,0.0054977829568088055,0.046425722539424896,0.0360410213470459
1772727602636370400,19.789370361328125,-0.000610864779446274,0.04520399495959282,0.024434590712189674
1772727602653716000,19.806716064453123,-0.004276053514331579,0.0360410213470459,0.020158538594841957
1772727602671061200,19.824061279296874,-0.000610864779446274,0.0409279391169548,0.04153880476951599
1772727602688406800,19.84140673828125,0.004276053514331579,0.04214967042207718,0.04459312930703163
1772727602705752000,19.858751953125,0.004886918235570192,0.0409279391169548,0.053145237267017365
1772727602723097600,19.87609765625,0,0.039706211537122726,0.031154103577136993
1772727602740443000,19.89344287109375,-0.001832594396546483,0.043371398001909256,0.03298669680953026
1772727602757788400,19.910788330078127,-0.010995565913617611,0.0409279391169548,0.011606430634856224
1772727602775133700,19.9281337890625,-0.020769402384757996,0.023823726922273636,0.01649334840476513
1772727602792479200,19.945479248046876,-0.01954767294228077,0.02260199747979641,0.03237583488225937
1772727602809824500,19.962824462890627,-0.01649334840476513,0.027488915249705315,0.03909534588456154
1772727602827169800,19.980169677734374,-0.018325943499803543,0.03543015569448471,0.034208428114652634
1772727602853188000,20.00618798828125,-0.01954767294228077,0.034208428114652634,0.020158538594841957
1772727602870533400,20.023533447265624,-0.021380268037319183,0.03176496922969818,0.0256563201546669
1772727602887879000,20.04087890625,-0.012217295356094837,0.036651886999607086,0.036651886999607086
1772727602905224200,20.05822412109375,-0.0030543238390237093,0.03787361457943916,0.04276053607463837
1772727602922569700,20.07556982421875,-0.0054977829568088055,0.040317077189683914,0.04214967042207718
1772727602939915000,20.0929150390625,-0.011606430634856224,0.03848448023200035,0.03909534588456154
1772727602957260300,20.11026025390625,-0.017104214057326317,0.03848448023200035,0.03237583488225937
1772727602974605800,20.127605712890624,-0.01954767294228077,0.036651886999607086,0.029932374134659767
1772727602991951000,20.144951171875,-0.009773836471140385,0.031154103577136993,0.030543239787220955
1772727603009296600,20.162296630859377,-0.003665188793092966,0.02871064469218254,0.04214967042207718
1772727603026642000,20.179641845703124,-0.011606430634856224,0.02932151034474373,0.04886918142437935
1772727603043987500,20.196987548828126,-0.0030543238390237093,0.03787361457943916,0.033597562462091446
1772727603061332700,20.214332763671877,-0.013439024798572063,0.036651886999607086,0.027488915249705315
1772727603078678300,20.23167822265625,-0.007941242307424545,0.037262752652168274,0.03909534588456154
1772727603096023600,20.2490234375,-0.007330377586185932,0.03848448023200035,0.02260199747979641
1772727603113368800,20.266368896484376,-0.009773836471140385,0.0409279391169548,0.023212861269712448
1772727603130714400,20.28371435546875,-0.010995565913617611,0.0409279391169548,0.027488915249705315
1772727603148059600,20.3010595703125,-0.011606430634856224,0.040317077189683914,0.015271619893610477
1772727603165405200,20.3184052734375,-0.010384701192378998,0.037262752652168274,0.021380268037319183
1772727603182750500,20.33575048828125,-0.006719512399286032,0.03848448023200035,0.036651886999607086
1772727603200096000,20.353095947265626,-0.002443459117785096,0.040317077189683914,0.04276053607463837
1772727603217441300,20.370441162109376,-0.001221729558892548,0.039706211537122726,0.034208428114652634
1772727603234786800,20.387786865234375,-0.0030543238390237093,0.036651886999607086,0.031154103577136993
1772727603252132000,20.405132080078126,-0.006719512399286032,0.033597562462091446,0.0256563201546669
1772727603269477400,20.422477294921876,-0.004276053514331579,0.03848448023200035,0.0256563201546669
1772727603286823000,20.439822998046875,-0.009773836471140385,0.0360410213470459,0.02260199747979641
1772727603304168200,20.457168212890625,-0.013439024798572063,0.03787361457943916,0.020158538594841957
1772727603321513700,20.474513671875,-0.009773836471140385,0.03481929376721382,0.020158538594841957
1772727603338859000,20.49185888671875,0.000610864779446274,0.037262752652168274,0.0513126403093338
1772727603356204500,20.50920458984375,0.001832594396546483,0.04520399495959282,0.020769402384757996
1772727603373549800,20.5265498046875,-0.009162971749901772,0.03848448023200035,0.0256563201546669
1772727603390895000,20.54389501953125,-0.018325943499803543,0.03848448023200035,0.009162971749901772
1772727603408240600,20.56124072265625,-0.023212861269712448,0.03176496922969818,0.021991131827235222
1772727603425586000,20.5785859375,-0.011606430634856224,0.03481929376721382,0.03298669680953026
1772727603442931500,20.595931396484374,-0.006719512399286032,0.03543015569448471,0.02871064469218254
1772727603460276700,20.61327685546875,-0.009773836471140385,0.0409279391169548,0.017715077847242355
1772727603477622300,20.630622314453124,-0.018325943499803543,0.03176496922969818,0.006108647678047419
1772727603494967600,20.647967529296874,-0.023823726922273636,0.02932151034474373,0.014049889519810677
1772727603512313000,20.66531298828125,-0.017104214057326317,0.031154103577136993,0.033597562462091446
1772727603529658400,20.682658447265624,-0.007330377586185932,0.039706211537122726,0.030543239787220955
1772727603547004000,20.70000390625,-0.004276053514331579,0.043982263654470444,0.02626718580722809
1772727603564349200,20.71734912109375,-0.009162971749901772,0.039706211537122726,0.01588248461484909
1772727603581694500,20.734694580078123,-0.012217295356094837,0.033597562462091446,0.021991131827235222
1772727603599040000,20.7520400390625,-0.010995565913617611,0.036651886999607086,0.030543239787220955
1772727603616385300,20.76938525390625,-0.007330377586185932,0.037262752652168274,0.043982263654470444
1772727603633730800,20.786730712890623,0.001221729558892548,0.039706211537122726,0.04276053607463837
1772727603651076000,20.804076171875,-0.0030543238390237093,0.037262752652168274,0.029932374134659767
1772727603668421600,20.821421630859376,-0.009162971749901772,0.0409279391169548,0.018325943499803543
1772727603685767000,20.838766845703127,-0.017104214057326317,0.02871064469218254,0.01649334840476513
