time,seconds_elapsed,z,y,x
1772727582932010200,0.08501025390625,-0.5154171586036682,-0.6116283535957336,0.17638720571994781
1772727582949355800,0.102355712890625,-0.4689914286136627,-0.708145022392273,0.2533561587333679
1772727582966701000,0.119701171875,-0.5539016127586365,-0.7490729093551636,0.41095927357673645
1772727582984046300,0.13704638671875,-0.7151699662208557,-0.7790052890777588,0.6186532974243164
1772727583001391900,0.154391845703125,-0.7939714789390564,-0.9359975457191467,0.7383828163146973
1772727583018737200,0.171737060546875,-0.836121141910553,-1.154076337814331,0.7927497625350952
1772727583036082700,0.189082763671875,-0.9014837145805359,-1.3880374431610107,0.856279730796814
1772727583053428000,0.206427978515625,-0.9808961153030396,-1.7215696573257446,1.0267109870910645
1772727583070773200,0.223773193359375,-0.9961677193641663,-2.0245585441589355,1.2454005479812622
1772727583088118800,0.241118896484375,-0.8794925808906555,-2.232863426208496,1.428049087524414
1772727583105464000,0.258464111328125,-0.6119337677955627,-2.508974313735962,1.457370638847351
1772727583122809300,0.275809326171875,-0.38102689385414124,-2.723998785018921,1.3535236120224
1772727583140155000,0.29315478515625,-0.3730856776237488,-2.719111919403076,1.2930480241775513
1772727583157500200,0.310500244140625,-0.5209149122238159,-2.4711008071899414,1.3309216499328613
1772727583174845400,0.327845458984375,-0.5477929711341858,-2.084423303604126,1.3834559917449951
1772727583192191000,0.34519091796875,-0.2747364342212677,-1.97263503074646,1.3504693508148193
1772727583209536300,0.362536376953125,0.15592323243618011,-1.7753257751464844,1.1470513343811035
1772727583226881500,0.379881591796875,0.448527455329895,-1.2145519256591797,0.9222530722618103
1772727583244227000,0.39722705078125,0.5114465355873108,-0.6733257174491882,0.7237220406532288
1772727583261572400,0.414572265625,0.5383245944976807,-0.04657844081521034,0.5502364635467529
1772727583278917600,0.431917724609375,0.6995928883552551,0.32299473881721497,0.24480405449867249
1772727583296263200,0.44926318359375,0.9256128668785095,0.4653262495994568,-0.1107192412018776
1772727583313608400,0.4666083984375,0.9775363802909851,0.3718639314174652,-0.3214675784111023
1772727583330953700,0.48395361328125,0.8156571984291077,0.21975859999656677,-0.43569931387901306
1772727583348299300,0.50129931640625,0.49739664793014526,0.1311832070350647,-0.503505289554596
1772727583365644500,0.51864453125,0.2793179154396057,-0.14981459081172943,-0.5352702736854553
1772727583382989800,0.53598974609375,0.2176205813884735,-0.43569931387901306,-0.3733910918235779
1772727583400335400,0.55333544921875,0.3966039717197418,-0.6953168511390686,-0.09544762223958969
1772727583417680600,0.5706806640625,0.549930989742279,-0.5621483325958252,0.18432845175266266
1772727583435026000,0.58802587890625,0.623845636844635,-0.2646571695804596,0.40057456493377686
1772727583452371500,0.605371337890625,0.7704532146453857,-0.0013744457392022014,0.5203040838241577
1772727583469716700,0.622716796875,0.9048434495925903,0.07131846249103546,0.5991056561470032
1772727583487062000,0.64006201171875,1.1058179140090942,-0.18035782873630524,0.6339249014854431
1772727583504407600,0.657407470703125,1.475391149520874,-0.8248201608657837,0.6388118267059326
1772727583521752800,0.6747529296875,1.5596904754638672,-1.421024203300476,0.8086322546005249
1772727583539098000,0.69209814453125,1.188895583152771,-1.475391149520874,1.0987930297851562
1772727583556443600,0.709443603515625,0.8309288024902344,-1.1931716203689575,1.3138173818588257
1772727583573789000,0.726788818359375,0.8064942359924316,-0.994029700756073,1.2160791158676147
1772727583591134500,0.744134521484375,1.0850485563278198,-0.8712459206581116,0.7396045327186584
1772727583608479700,0.761479736328125,1.3397791385650635,-0.9140064120292664,0.10674861818552017
1772727583625825000,0.778824951171875,1.4546217918395996,-1.0496183633804321,-0.3819431960582733
1772727583643170300,0.79617041015625,1.4271328449249268,-1.254258155822754,-0.5377137064933777
1772727583660515800,0.813515869140625,1.2738057374954224,-1.5932880640029907,-0.4601338803768158
1772727583677861000,0.830861083984375,1.0264055728912354,-1.744782567024231,-0.28787001967430115
1772727583695206700,0.84820654296875,0.7008146047592163,-1.6855286359786987,0.187382772564888
1772727583712552000,0.865552001953125,0.3428478538990021,-1.3220640420913696,0.873994767665863
1772727583729897200,0.882897216796875,0.3104720115661621,-0.9262236952781677,1.1097885370254517
1772727583747242800,0.90024267578125,0.47174033522605896,-0.9860884547233582,0.7799215912818909
1772727583764588000,0.917588134765625,0.47296205163002014,-1.3428335189819336,0.5386300086975098
1772727583781933300,0.934933349609375,0.24205516278743744,-1.7166827917099,0.7017309069633484
1772727583799278800,0.95227880859375,-0.23686282336711884,-1.6623157262802124,1.15132737159729
1772727583816624000,0.9696240234375,-1.0822997093200684,-1.6586506366729736,1.6937752962112427
1772727583833969400,0.986969482421875,-1.8104504346847534,-1.2108867168426514,2.0938918590545654
1772727583851315000,1.00431494140625,-1.7933462858200073,-0.5908589363098145,1.9833252429962158
1772727583868660200,1.02166015625,-1.235015869140625,-0.1821904182434082,1.4543163776397705
1772727583886005500,1.039005615234375,-0.8733839392662048,0.11835505068302155,1.0584759712219238
1772727583903351000,1.05635107421875,-0.8410080671310425,0.041386090219020844,0.884379506111145
1772727583920696300,1.0736962890625,-0.8721621632575989,-0.2994764447212219,0.9234748482704163
1772727583938041600,1.09104150390625,-1.1195623874664307,-0.790000855922699,1.030987024307251
1772727583955387100,1.10838720703125,-1.5343396663665771,-0.5816959738731384,0.8874338269233704
1772727583972732400,1.125732421875,-1.6601777076721191,-0.052076224237680435,1.1030690670013428
1772727583990077700,1.14307763671875,-1.6241366863250732,0.7683151960372925,1.1629338264465332
1772727584007423200,1.16042333984375,-1.4335469007492065,1.4060579538345337,1.2673916816711426
1772727584024768500,1.1777685546875,-1.2020292282104492,1.881921648979187,1.3144283294677734
1772727584042113800,1.19511376953125,-0.9265291690826416,1.8495458364486694,1.1494947671890259
1772727584059459300,1.212459228515625,-0.5923861265182495,0.9637919068336487,0.5532907843589783
1772727584076804600,1.2298046875,-0.3724747896194458,0.9045380353927612,-0.4045451879501343
1772727584094150100,1.247150146484375,0.1487455666065216,1.9625557661056519,-2.123365879058838
1772727584111495400,1.264495361328125,0.3998109996318817,1.4976876974105835,-3.076314926147461
1772727584128840700,1.2818408203125,0.1701258420944214,2.397491455078125,-3.522857189178467
1772727584146185200,1.299185302734375,-0.43340855836868286,2.297309637069702,-2.8814492225646973
1772727584163530800,1.31653076171875,-0.8078686594963074,1.560606837272644,-1.6890411376953125
1772727584180876000,1.3338759765625,-0.6453786492347717,0.043829549103975296,-0.1496618688106537
1772727584198221600,1.3512216796875,-0.0461202897131443,-0.1204930767416954,0.22663083672523499
1772727584215566800,1.36856689453125,0.518318772315979,-0.039248060435056686,0.4728093445301056
1772727584232912100,1.385912109375,0.16768237948417664,-0.04108065739274025,0.09407317638397217
1772727584250257700,1.403257568359375,-0.01435532234609127,-0.04169152304530144,-0.08857539296150208
1772727584267603000,1.42060302734375,-0.000305432389723137,-0.027030766010284424,0.10384701192378998
1772727584284948200,1.4379482421875,0.004581485874950886,0.0102319847792387,0.05070177838206291
1772727584302293800,1.455293701171875,0.0009162971982732415,0.017562363296747208,-0.03481929376721382
1772727584319639000,1.47263916015625,0.005803215317428112,-0.0013744457392022014,-0.025045456364750862
1772727584336984600,1.489984619140625,0.0027488914784044027,-0.006872228812426329,-0.0030543238390237093
1772727584354329900,1.507329833984375,-0.0009162971982732415,-0.016646064817905426,-0.015271619893610477
1772727584371675100,1.524675048828125,0.000305432389723137,-0.02519817277789116,-0.000610864779446274
1772727584389020400,1.5420205078125,0.011911863461136818,-0.02153298258781433,0.011606430634856224
1772727584406366000,1.559365966796875,0.024740023538470268,-0.0746782198548317,-0.031154103577136993
1772727584423711200,1.576711181640625,0.018631376326084137,-0.08567378669977188,-0.05253437161445618
1772727584441056500,1.594056396484375,0.003970621153712273,-0.04108065739274025,0.05497783049941063
1772727584458402000,1.611402099609375,0.011300998739898205,0.007177661173045635,-0.01954767294228077
1772727584475747300,1.628747314453125,0.013744457624852657,0.017562363296747208,0.043982263654470444
1772727584493092600,1.646092529296875,0.006414080038666725,0.012675444595515728,0.011606430634856224
1772727584510438100,1.663438232421875,0.0027488914784044027,0.01511890348047018,0.0054977829568088055
1772727584527783400,1.680783447265625,0.003970621153712273,0.014508038759231567,0.012217295356094837
1772727584545129000,1.69812890625,0.011300998739898205,0.01511890348047018,0.03298669680953026
1772727584562474200,1.71547412109375,0.015577051788568497,0.005345067009329796,0.047036588191986084
1772727584579819500,1.732819580078125,0.008246674202382565,-0.0001527161948615685,0.023823726922273636
1772727584597164800,1.750164794921875,0.0015271619195118546,-0.0019853105768561363,-0.0054977829568088055
1772727584614510300,1.76751025390625,0.0015271619195118546,-0.0032070400193333626,-0.010995565913617611
1772727584631855600,1.784855712890625,-0.0015271619195118546,-0.0154243353754282,-0.004276053514331579
1772727584649201200,1.802201171875,0.011911863461136818,-0.017256930470466614,0.028099779039621353
1772727584666546400,1.81954638671875,0.023518294095993042,-0.011148282326757908,0.040317077189683914
1772727584683891700,1.8368916015625,0.012522728182375431,-0.009926552884280682,0.021991131827235222
1772727584701237200,1.8542373046875,-0.006414080038666725,-0.0025961752980947495,-0.01649334840476513
1772727584718582500,1.87158251953125,-0.026572618633508682,-0.005650499369949102,-0.03298669680953026
1772727584735927800,1.888927734375,-0.03023780696094036,-0.011148282326757908,-0.014660755172371864
1772727584753273300,1.9062734375,-0.003359756199643016,-0.0019853105768561363,0.0256563201546669
1772727584770618600,1.92361865234375,0.019853105768561363,0.011453714221715927,0.04153880476951599
1772727584787964200,1.940964111328125,0.019853105768561363,0.024281874299049377,0.018325943499803543
1772727584805309400,1.958309326171875,0.0009162971982732415,0.022449281066656113,-0.007941242307424545
1772727584822654700,1.97565478515625,-0.0204639695584774,0.007788525894284248,-0.03909534588456154
1772727584840000000,1.993,-0.024740023538470268,-0.009926552884280682,-0.025045456364750862
1772727584857345500,2.010345458984375,-0.026572618633508682,-0.014202605932950974,-0.01282816007733345
1772727584874690800,2.02769091796875,-0.011300998739898205,-0.008093958720564842,0.009162971749901772
1772727584892036000,2.0450361328125,0.005192350596189499,0.007177661173045635,0.007941242307424545
1772727584909381600,2.062381591796875,0.005192350596189499,0.01511890348047018,-0.017715077847242355
1772727584926727000,2.079726806640625,-0.0027488914784044027,0.009621120058000088,-0.03543015569448471
1772727584944072200,2.097072265625,-0.007024944759905338,0.008399390615522861,-0.02932151034474373
1772727584961417700,2.114417724609375,-0.006414080038666725,0.004123337101191282,-0.020158538594841957
1772727584978763000,2.131762939453125,-0.0015271619195118546,0.004123337101191282,-0.006719512399286032
1772727584996108500,2.149108642578125,0.005803215317428112,0.008399390615522861,-0.007941242307424545
1772727585013453800,2.166453857421875,0.010079269297420979,0.009621120058000088,-0.013439024798572063
1772727585030799000,2.183799072265625,0.005803215317428112,0.007177661173045635,-0.01954767294228077
1772727585048144600,2.20114453125,-0.000305432389723137,0.004123337101191282,-0.01588248461484909
1772727585065490000,2.218489990234375,-0.005192350596189499,0.004123337101191282,-0.015271619893610477
1772727585082835200,2.235835205078125,-0.005192350596189499,0.004123337101191282,-0.012217295356094837
1772727585100180700,2.2531806640625,-0.0009162971982732415,0.003512472379952669,-0.006108647678047419
1772727585117526000,2.270526123046875,0.005803215317428112,0.007177661173045635,0.003665188793092966
1772727585134871300,2.287871337890625,0.003970621153712273,0.009621120058000088,0.006719512399286032
1772727585152216800,2.305216796875,-0.008857538923621178,0.002290742937475443,-0.009162971749901772
1772727585169562000,2.32256201171875,-0.015577051788568497,-0.01359174121171236,-0.001832594396546483
1772727585186907400,2.339907470703125,-0.011300998739898205,-0.012980876490473747,-0.007330377586185932
1772727585204253000,2.3572529296875,-0.003970621153712273,-0.007483093533664942,0.001221729558892548
1772727585221598200,2.37459814453125,-0.0009162971982732415,-0.009315688163042068,0.006719512399286032
1772727585238943700,2.39194384765625,0.005803215317428112,-0.012370011769235134,0.01282816007733345
1772727585256289000,2.4092890625,0.010079269297420979,-0.012370011769235134,0.010995565913617611
1772727585273634300,2.42663427734375,0.005803215317428112,-0.012980876490473747,0.002443459117785096
1772727585290979800,2.443979736328125,0.005192350596189499,-0.009315688163042068,-0.006719512399286032
1772727585308325000,2.4613251953125,0.005192350596189499,-0.007483093533664942,-0.007330377586185932
1772727585325670400,2.47867041015625,0.0021380267571657896,-0.011148282326757908,0
1772727585343015700,2.496015625,0.000305432389723137,-0.009926552884280682,0.008552107028663158
1772727585360361200,2.513361328125,-0.003359756199643016,-0.0062613640911877155,0.009162971749901772
1772727585377706500,2.53070654296875,-0.008857538923621178,-0.005650499369949102,0.000610864779446274
1772727585395052000,2.548052001953125,-0.003970621153712273,0.00045814859913662076,-0.003665188793092966
1772727585412397300,2.565397216796875,0.0021380267571657896,0.001679878099821508,-0.007941242307424545
1772727585429742600,2.58274267578125,-0.0009162971982732415,-0.0025961752980947495,-0.0054977829568088055
1772727585447088000,2.600088134765625,0.0015271619195118546,-0.0019853105768561363,0.0054977829568088055
1772727585464433400,2.617433349609375,0.0027488914784044027,0.002290742937475443,0.000610864779446274
1772727585481779000,2.634779052734375,0.0021380267571657896,0.004123337101191282,-0.001832594396546483
1772727585499124200,2.652124267578125,-0.003359756199643016,0.003512472379952669,-0.010384701192378998
1772727585516469500,2.669469482421875,-0.007635809946805239,0.002901607658714056,-0.007941242307424545
1772727585533815000,2.68681494140625,-0.007024944759905338,0.00045814859913662076,-0.001221729558892548
1772727585551160300,2.704160400390625,-0.003359756199643016,-0.0032070400193333626,0.011606430634856224
1772727585568505600,2.721505615234375,-0.007024944759905338,-0.0019853105768561363,-0.000610864779446274
1772727585585851100,2.73885107421875,-0.014966187067329884,-0.0032070400193333626,-0.014660755172371864
1772727585603196400,2.756196533203125,-0.016798781231045723,-0.0032070400193333626,-0.01649334840476513
1772727585620541700,2.773541748046875,-0.005192350596189499,0.0010690133785828948,0.001832594396546483
1772727585637887200,2.79088720703125,0.00946840364485979,-0.0007635809597559273,0.01588248461484909
1772727585655232500,2.808232421875,0.005803215317428112,0.001679878099821508,0.007330377586185932
1772727585672577800,2.825577880859375,0.0015271619195118546,0.0010690133785828948,0
1772727585689923300,2.84292333984375,-0.003970621153712273,-0.0013744457392022014,-0.000610864779446274
1772727585707268600,2.8602685546875,-0.003359756199643016,0.001679878099821508,0.008552107028663158
1772727585724614000,2.87761376953125,0.003970621153712273,0.004734201822429895,0.017104214057326317
1772727585741959400,2.89495947265625,0.007024944759905338,0.006566796451807022,0.009773836471140385
1772727585759304700,2.9123046875,0.008246674202382565,0.004123337101191282,0.002443459117785096
1772727585776650000,2.92964990234375,0.008857538923621178,-0.0007635809597559273,0.006719512399286032
1772727585793995500,2.94699560546875,0.006414080038666725,-0.0025961752980947495,0.0054977829568088055
1772727585811340800,2.9643408203125,0.003970621153712273,-0.0038179049734026194,0.001832594396546483
1772727585828686300,2.981686279296875,0.0009162971982732415,-0.004428769461810589,-0.010995565913617611
1772727585846031600,2.999031494140625,0.0027488914784044027,-0.0032070400193333626,-0.0054977829568088055
1772727585863377000,3.016376953125,0.008246674202382565,0.001679878099821508,0.004886918235570192
1772727585880722400,3.033722412109375,0.012522728182375431,0.003512472379952669,0.014660755172371864
1772727585898067700,3.051067626953125,0.015577051788568497,0.005955931730568409,0.017715077847242355
1772727585915413000,3.0684130859375,0.01435532234609127,0.007177661173045635,0.0054977829568088055
1772727585932758500,3.085758544921875,0.003359756199643016,0.008399390615522861,-0.010384701192378998
1772727585950103800,3.103103759765625,-0.006414080038666725,0.003512472379952669,-0.021380268037319183
1772727585967449000,3.120448974609375,-0.005192350596189499,-0.0019853105768561363,-0.001832594396546483
1772727585984794600,3.137794677734375,-0.0009162971982732415,-0.0038179049734026194,0.004886918235570192
1772727586002140000,3.155139892578125,-0.004581485874950886,-0.0062613640911877155,0.000610864779446274
1772727586019485200,3.172485107421875,-0.008246674202382565,-0.007483093533664942,-0.010995565913617611
1772727586036830700,3.189830810546875,-0.003970621153712273,-0.008093958720564842,-0.004886918235570192
1772727586054176000,3.207176025390625,0.004581485874950886,-0.0038179049734026194,0.0030543238390237093
1772727586071521300,3.224521240234375,0.008246674202382565,-0.0038179049734026194,0.000610864779446274
1772727586088866800,3.24186669921875,0.003359756199643016,-0.005039634648710489,-0.006719512399286032
1772727586106212000,3.259212158203125,-0.003359756199643016,-0.008093958720564842,-0.011606430634856224
1772727586123557600,3.2765576171875,-0.008857538923621178,-0.008704823441803455,-0.01588248461484909
1772727586140903000,3.29390283203125,-0.01435532234609127,-0.01359174121171236,-0.006719512399286032
1772727586158248200,3.311248291015625,-0.019242240116000175,-0.009926552884280682,0.001221729558892548
1772727586175593700,3.32859375,-0.010690134018659592,0.002290742937475443,0.0030543238390237093
1772727586192939000,3.34593896484375,-0.005192350596189499,0.004123337101191282,0.001221729558892548
1772727586210284300,3.3632841796875,-0.000305432389723137,0.003512472379952669,0.006108647678047419
1772727586227629800,3.3806298828125,0.0027488914784044027,0.004734201822429895,0.008552107028663158
1772727586244975000,3.39797509765625,-0.0027488914784044027,0.002290742937475443,0
1772727586262320400,3.4153203125,-0.00946840364485979,0.004734201822429895,-0.004886918235570192
1772727586279666000,3.432666015625,-0.007024944759905338,0.005955931730568409,-0.003665188793092966
1772727586297011200,3.45001123046875,0.0015271619195118546,0.002290742937475443,0.012217295356094837
1772727586314356500,3.4673564453125,0.011300998739898205,-0.0019853105768561363,0.0256563201546669
1772727586331702000,3.484701904296875,0.011911863461136818,-0.0032070400193333626,0.026878049597144127
1772727586349047300,3.50204736328125,-0.0027488914784044027,0.00045814859913662076,0.001221729558892548
1772727586366392600,3.519392578125,-0.016187917441129684,0.002901607658714056,-0.018325943499803543
1772727586383738000,3.536738037109375,-0.013744457624852657,-0.0007635809597559273,-0.010995565913617611
1772727586401083400,3.55408349609375,0.005192350596189499,-0.0019853105768561363,0.023212861269712448
1772727586418429000,3.571428955078125,0.02718348242342472,0.002901607658714056,0.040317077189683914
1772727586435774200,3.588774169921875,0.03390299528837204,0.01206457894295454,0.023212861269712448
1772727586453119500,3.606119384765625,0.013133592903614044,0.005955931730568409,-0.010384701192378998
1772727586470465000,3.623465087890625,-0.012522728182375431,0.002290742937475443,-0.021991131827235222
1772727586487810300,3.640810302734375,-0.021685699000954628,-0.008093958720564842,-0.014049889519810677
1772727586505155600,3.658155517578125,-0.00946840364485979,-0.009315688163042068,0.007941242307424545
1772727586522501000,3.675501220703125,0.011300998739898205,-0.0062613640911877155,0.020158538594841957
1772727586539846400,3.692846435546875,0.01740964688360691,-0.0019853105768561363,0.008552107028663158
1772727586557191700,3.710191650390625,0.013133592903614044,0.005345067009329796,-0.002443459117785096
1772727586574537200,3.727537109375,0.0021380267571657896,0.006566796451807022,-0.017104214057326317
1772727586591882500,3.744882568359375,-0.007635809946805239,0.002901607658714056,-0.015271619893610477
1772727586609227800,3.762227783203125,-0.005803215317428112,-0.0001527161948615685,0
1772727586626573300,3.7795732421875,0.000305432389723137,-0.0013744457392022014,0.006108647678047419
1772727586643918600,3.796918701171875,-0.005192350596189499,-0.004428769461810589,-0.008552107028663158
1772727586661264100,3.81426416015625,-0.013133592903614044,-0.004428769461810589,-0.01893680728971958
1772727586678609400,3.831609375,-0.013133592903614044,-0.0013744457392022014,-0.015271619893610477
1772727586695954700,3.84895458984375,-0.005803215317428112,0.002290742937475443,-0.007330377586185932
1772727586713300200,3.86630029296875,0.006414080038666725,0.005955931730568409,0.004886918235570192
1772727586730645500,3.8836455078125,0.013133592903614044,0.005955931730568409,0.007941242307424545
1772727586747990800,3.90099072265625,0.010079269297420979,0.007177661173045635,-0.000610864779446274
1772727586765336300,3.91833642578125,-0.003359756199643016,0.00045814859913662076,-0.006108647678047419
1772727586782681600,3.935681640625,-0.013744457624852657,-0.0007635809597559273,-0.015271619893610477
1772727586800027000,3.95302685546875,-0.014966187067329884,-0.0007635809597559273,-0.017104214057326317
1772727586817372400,3.970372314453125,-0.0021380267571657896,-0.0001527161948615685,0.002443459117785096
1772727586834717700,3.9877177734375,0.011300998739898205,-0.0007635809597559273,0.01649334840476513
1772727586852063200,4.005063232421875,0.019242240116000175,0.004123337101191282,0.01588248461484909
1772727586869408500,4.022408447265625,0.014966187067329884,0.005345067009329796,0.0030543238390237093
1772727586886753800,4.03975390625,0.004581485874950886,0.004734201822429895,-0.010995565913617611
1772727586904099300,4.057099365234375,-0.0027488914784044027,0.004734201822429895,-0.013439024798572063
1772727586921444600,4.074444580078125,-0.006414080038666725,-0.0025961752980947495,-0.004886918235570192
1772727586938790100,4.0917900390625,-0.003970621153712273,-0.005039634648710489,0.003665188793092966
1772727586956135400,4.109135498046875,-0.003359756199643016,-0.004428769461810589,0.006719512399286032
1772727586973480700,4.126480712890625,-0.000305432389723137,0.001679878099821508,0.010995565913617611
1772727586990826200,4.143826171875,-0.0009162971982732415,-0.0007635809597559273,-0.002443459117785096
1772727587008171500,4.161171630859375,-0.005192350596189499,-0.0007635809597559273,-0.015271619893610477
1772727587025516800,4.178516845703125,-0.008857538923621178,-0.0025961752980947495,-0.011606430634856224
1772727587042862300,4.1958623046875,-0.00946840364485979,-0.006872228812426329,0.009162971749901772
1772727587060207600,4.21320751953125,-0.008246674202382565,-0.004428769461810589,0.011606430634856224
1772727587077553000,4.230552978515625,-0.007024944759905338,-0.005039634648710489,-0.001832594396546483
1772727587094898400,4.2478984375,-0.008246674202382565,-0.009315688163042068,-0.008552107028663158
1772727587112243700,4.26524365234375,-0.007024944759905338,-0.007483093533664942,0.000610864779446274
1772727587129589200,4.28258935546875,0.005803215317428112,0.005955931730568409,0.009162971749901772
1772727587146934500,4.2999345703125,0.010690134018659592,0.007788525894284248,0.012217295356094837
1772727587164279800,4.31727978515625,0.010690134018659592,0.007177661173045635,0.001832594396546483
1772727587181625300,4.334625244140625,0.011911863461136818,0.003512472379952669,0.012217295356094837
1772727587198970600,4.351970703125,0.010690134018659592,-0.0025961752980947495,0.024434590712189674
1772727587216316000,4.36931591796875,0.005803215317428112,-0.0019853105768561363,0.004886918235570192
1772727587233661400,4.386661376953125,-0.008246674202382565,-0.004428769461810589,-0.011606430634856224
1772727587251006700,4.4040068359375,-0.013744457624852657,0.002290742937475443,-0.021380268037319183
1772727587268352000,4.42135205078125,-0.0021380267571657896,-0.0007635809597559273,0.000610864779446274
1772727587285697500,4.438697509765625,0.01740964688360691,-0.004428769461810589,0.034208428114652634
1772727587303042800,4.456042724609375,0.026572618633508682,0.003512472379952669,0.028099779039621353
1772727587320388000,4.47338818359375,0.01435532234609127,0.01206457894295454,0.001832594396546483
1772727587337733600,4.490733642578125,-0.00946840364485979,0.009010255336761475,-0.026878049597144127
1772727587355079000,4.508078857421875,-0.026572618633508682,-0.0013744457392022014,-0.03298669680953026
1772727587372424400,4.525424560546875,-0.022907428443431854,-0.010537417605519295,-0.004886918235570192
1772727587389769700,4.542769775390625,0.000305432389723137,-0.009926552884280682,0.033597562462091446
1772727587407115000,4.560114990234375,0.01802051067352295,0.006566796451807022,0.021991131827235222
1772727587424460500,4.57746044921875,0.00946840364485979,0.01695149764418602,-0.014049889519810677
1772727587441805800,4.594805908203125,-0.010079269297420979,0.01206457894295454,-0.028099779039621353
1772727587459151000,4.612151123046875,-0.02107483521103859,-0.005039634648710489,-0.004886918235570192
1772727587476496600,4.62949658203125,-0.013133592903614044,-0.014202605932950974,0.023823726922273636
1772727587493842000,4.646842041015625,-0.0027488914784044027,-0.006872228812426329,0.013439024798572063
1772727587511187500,4.6641875,-0.0015271619195118546,-0.0007635809597559273,-0.0054977829568088055
1772727587528532700,4.68153271484375,-0.005803215317428112,-0.0019853105768561363,-0.024434590712189674
1772727587545878000,4.6988779296875,-0.004581485874950886,-0.0062613640911877155,-0.0030543238390237093
1772727587563223600,4.7162236328125,0.000305432389723137,-0.0062613640911877155,0.01893680728971958
1772727587580568800,4.73356884765625,0.005192350596189499,-0.0032070400193333626,0.015271619893610477
1772727587597914400,4.750914306640625,0.011300998739898205,0.007788525894284248,0.000610864779446274
1772727587615259600,4.768259765625,0.007024944759905338,0.002901607658714056,-0.01282816007733345
1772727587632605000,4.78560498046875,0.000305432389723137,-0.005039634648710489,-0.001832594396546483
1772727587649950200,4.8029501953125,0.0015271619195118546,-0.008093958720564842,0.014660755172371864
1772727587667295700,4.820295654296875,0.005803215317428112,-0.0038179049734026194,0.008552107028663158
1772727587684641000,4.83764111328125,0.010079269297420979,0.004734201822429895,-0.004886918235570192
1772727587701986600,4.854986572265625,0.011911863461136818,0.007177661173045635,-0.015271619893610477
1772727587719331800,4.872331787109375,0.013133592903614044,-0.0001527161948615685,0
1772727587736677000,4.889677001953125,0.010690134018659592,-0.0001527161948615685,0.01282816007733345
1772727587754022700,4.907022705078125,0.0027488914784044027,0.0010690133785828948,0.006719512399286032
1772727587771368000,4.924367919921875,-0.008857538923621178,0.005955931730568409,-0.013439024798572063
1772727587788713200,4.941713134765625,-0.014966187067329884,0.002290742937475443,-0.024434590712189674
1772727587806058800,4.959058837890625,-0.008246674202382565,-0.0001527161948615685,-0.004886918235570192
1772727587823404000,4.976404052734375,-0.000305432389723137,0.001679878099821508,0.006719512399286032
1772727587840749600,4.99374951171875,0.007635809946805239,0.005345067009329796,0.009162971749901772
1772727587858094800,5.0110947265625,0.006414080038666725,0.007788525894284248,0.001832594396546483
1772727587875440000,5.028440185546875,-0.0009162971982732415,0.00045814859913662076,-0.009773836471140385
1772727587892785700,5.04578564453125,-0.010690134018659592,-0.011759147047996521,-0.012217295356094837
1772727587910131000,5.063130859375,-0.015577051788568497,-0.016035201027989388,-0.008552107028663158
1772727587927476500,5.0804765625,-0.008857538923621178,-0.009926552884280682,-0.009773836471140385
1772727587944821800,5.09782177734375,-0.0009162971982732415,-0.005039634648710489,-0.007330377586185932
1772727587962167000,5.1151669921875,0.007024944759905338,-0.0019853105768561363,0.001221729558892548
1772727587979512600,5.1325126953125,0.010079269297420979,0.002290742937475443,0.001832594396546483
1772727587996857900,5.14985791015625,0.0021380267571657896,0.005345067009329796,0
1772727588014203100,5.167203125,-0.006414080038666725,0.003512472379952669,-0.004886918235570192
1772727588031548700,5.184548583984375,-0.0009162971982732415,0.005345067009329796,-0.004276053514331579
1772727588048894000,5.20189404296875,0.00946840364485979,0.004734201822429895,0.0054977829568088055
1772727588066239200,5.2192392578125,0.010079269297420979,0.002901607658714056,0.013439024798572063
1772727588083584800,5.236584716796875,-0.0021380267571657896,0.0010690133785828948,-0.006108647678047419
1772727588100930000,5.253929931640625,-0.011300998739898205,-0.0032070400193333626,-0.004886918235570192
1772727588118275600,5.271275634765625,-0.008857538923621178,-0.0038179049734026194,0.001832594396546483
1772727588135620900,5.288620849609375,-0.005192350596189499,-0.008093958720564842,0.003665188793092966
1772727588152966100,5.305966064453125,-0.0021380267571657896,-0.006872228812426329,-0.000610864779446274
1772727588170311700,5.323311767578125,-0.0009162971982732415,-0.005039634648710489,-0.008552107028663158
1772727588187657000,5.340656982421875,-0.0015271619195118546,0.002290742937475443,-0.0054977829568088055
1772727588205002200,5.358002197265625,-0.0027488914784044027,0.004734201822429895,0.002443459117785096
1772727588222347800,5.37534765625,-0.0009162971982732415,0.007788525894284248,0.0030543238390237093
1772727588239693000,5.392693115234375,0.000305432389723137,0.0102319847792387,0.013439024798572063
1772727588257038300,5.410038330078125,-0.0027488914784044027,0.009010255336761475,-0.006108647678047419
1772727588274384000,5.4273837890625,-0.008246674202382565,0.001679878099821508,-0.006719512399286032
1772727588291729200,5.444729248046875,-0.007024944759905338,-0.0013744457392022014,0
1772727588309074700,5.46207470703125,0.0021380267571657896,0.001679878099821508,0.01588248461484909
1772727588326420000,5.479419921875,0.008246674202382565,0.008399390615522861,0.01893680728971958
1772727588343765200,5.49676513671875,0.008246674202382565,0.007177661173045635,-0.006108647678047419
1772727588361110800,5.51411083984375,0.005803215317428112,0.006566796451807022,0.001832594396546483
1772727588378456000,5.5314560546875,0.007635809946805239,0.007788525894284248,0.0054977829568088055
1772727588395801600,5.548801513671875,0.010079269297420979,0.004123337101191282,0.01588248461484909
1772727588413147000,5.56614697265625,0.007024944759905338,-0.0019853105768561363,0.006108647678047419
1772727588430492200,5.5834921875,0.0027488914784044027,0.001679878099821508,-0.0054977829568088055
1772727588447837700,5.600837646484375,-0.00946840364485979,0.003512472379952669,-0.010995565913617611
1772727588465183000,5.618182861328125,-0.012522728182375431,0.00045814859913662076,-0.001832594396546483
1772727588482528300,5.6355283203125,0.0021380267571657896,0.0010690133785828948,0.006719512399286032
1772727588499873800,5.652873779296875,0.018631376326084137,0.002290742937475443,0.014660755172371864
1772727588517219000,5.670218994140625,0.016798781231045723,0.011453714221715927,0.008552107028663158
1772727588534564600,5.687564697265625,-0.0015271619195118546,0.01511890348047018,-0.02626718580722809
1772727588551910000,5.704909912109375,-0.013133592903614044,0.0102319847792387,-0.023212861269712448
1772727588569255200,5.722255126953125,-0.011300998739898205,-0.0001527161948615685,0.001832594396546483
1772727588586600700,5.7396005859375,0.005192350596189499,-0.0013744457392022014,0.023212861269712448
1772727588603946000,5.756946044921875,0.011911863461136818,0.004123337101191282,0.01954767294228077
1772727588621291300,5.774291259765625,0.007024944759905338,0.011453714221715927,-0.011606430634856224
1772727588638636800,5.79163671875,-0.0015271619195118546,0.011453714221715927,-0.024434590712189674
1772727588655982000,5.808982177734375,-0.005192350596189499,0.003512472379952669,-0.002443459117785096
1772727588673327600,5.82632763671875,0.0015271619195118546,-0.0019853105768561363,0.018325943499803543
1772727588690673000,5.8436728515625,0.01435532234609127,0.002290742937475443,0.01954767294228077
1772727588708018200,5.86101806640625,0.01435532234609127,0.011453714221715927,0.001832594396546483
1772727588725363700,5.87836376953125,0.006414080038666725,0.011453714221715927,-0.0054977829568088055
1772727588742709000,5.895708984375,-0.003970621153712273,0.001679878099821508,-0.014049889519810677
1772727588760054300,5.91305419921875,-0.010690134018659592,-0.012370011769235134,0
1772727588777399800,5.93039990234375,-0.003970621153712273,-0.008704823441803455,0.007941242307424545
1772727588794745000,5.9477451171875,0.0009162971982732415,-0.0007635809597559273,0.006719512399286032
1772727588812090600,5.965090576171875,0.005803215317428112,0.00045814859913662076,0.003665188793092966
1772727588829436000,5.982435791015625,0.005803215317428112,0.005345067009329796,-0.001832594396546483
1772727588846781400,5.999781494140625,0.0015271619195118546,0.002901607658714056,0.014660755172371864
1772727588864126700,6.017126708984375,0.003359756199643016,0.01206457894295454,0.007941242307424545
1772727588881472000,6.034471923828125,0.0027488914784044027,0.007788525894284248,-0.002443459117785096
1772727588898817500,6.051817626953125,0.004581485874950886,0.002290742937475443,0.002443459117785096
1772727588916162800,6.069162841796875,-0.0009162971982732415,-0.005039634648710489,0.010384701192378998
1772727588933508000,6.086508056640625,-0.013133592903614044,-0.012370011769235134,0.007941242307424545
1772727588950853600,6.103853515625,-0.013133592903614044,-0.004428769461810589,-0.003665188793092966
1772727588968199000,6.121198974609375,-0.007635809946805239,0.0010690133785828948,-0.009773836471140385
1772727588985544400,6.13854443359375,-0.003359756199643016,0.0010690133785828948,-0.004276053514331579
1772727589002889700,6.1558896484375,0.0027488914784044027,-0.0062613640911877155,-0.000610864779446274
1772727589020235000,6.173235107421875,0.003970621153712273,-0.008093958720564842,0.01954767294228077
1772727589037580500,6.19058056640625,-0.008246674202382565,-0.0032070400193333626,-0.014049889519810677
1772727589054925800,6.20792578125,-0.019853105768561363,-0.009315688163042068,-0.0256563201546669
1772727589072271000,6.22527099609375,-0.02107483521103859,-0.007483093533664942,-0.011606430634856224
1772727589089616600,6.24261669921875,-0.003970621153712273,0.001679878099821508,0.007330377586185932
1772727589106962000,6.2599619140625,0.015577051788568497,0.009010255336761475,0.01954767294228077
1772727589124307500,6.277307373046875,0.014966187067329884,0.012675444595515728,0.006108647678047419
1772727589141652700,6.29465283203125,0.003359756199643016,0.010842849500477314,-0.015271619893610477
1772727589158998000,6.311998046875,-0.010690134018659592,-0.0001527161948615685,-0.0030543238390237093
1772727589176343600,6.329343505859375,-0.013133592903614044,-0.008093958720564842,0.000610864779446274
1772727589193688800,6.346688720703125,-0.003970621153712273,-0.009315688163042068,0.003665188793092966
1772727589211034400,6.364034423828125,-0.0009162971982732415,0.007788525894284248,0.0054977829568088055
1772727589228379600,6.381379638671875,0.0021380267571657896,0.007177661173045635,0.006108647678047419
1772727589245725000,6.398724853515625,0.016798781231045723,-0.0007635809597559273,0.006108647678047419
1772727589263070500,6.416070556640625,0.035124726593494415,0.00045814859913662076,0.014660755172371864
1772727589280415700,6.433415771484375,0.02718348242342472,0.00045814859913662076,0.006719512399286032
1772727589297761300,6.45076123046875,0.003359756199643016,-0.0019853105768561363,-0.012217295356094837
1772727589315106600,6.4681064453125,-0.013133592903614044,-0.012980876490473747,-0.015271619893610477
1772727589332451800,6.485451904296875,-0.014966187067329884,-0.020922118797898293,-0.000610864779446274
1772727589349797400,6.50279736328125,-0.005192350596189499,-0.017867794260382652,0.015271619893610477
1772727589367142700,6.520142578125,0.000305432389723137,-0.005039634648710489,0.0054977829568088055
1772727589384488000,6.537488037109375,0.0015271619195118546,0.005955931730568409,-0.01588248461484909
1772727589401833500,6.55483349609375,0.007635809946805239,0.008399390615522861,-0.007941242307424545
1772727589419178800,6.5721787109375,0.016798781231045723,0.002901607658714056,0.023823726922273636
1772727589436524300,6.589524169921875,0.0204639695584774,0.00045814859913662076,0.033597562462091446
1772727589453869600,6.60686962890625,0.012522728182375431,0.002290742937475443,0.003665188793092966
1772727589471214800,6.62421484375,-0.003970621153712273,-0.006872228812426329,-0.023823726922273636
1772727589488560400,6.641560302734375,-0.008857538923621178,-0.012980876490473747,-0.021380268037319183
1772727589505905700,6.65890576171875,0.0009162971982732415,-0.0154243353754282,0.008552107028663158
1772727589523251200,6.676251220703125,0.011300998739898205,-0.011148282326757908,0.02260199747979641
1772727589540596500,6.693596435546875,0.015577051788568497,-0.005039634648710489,0.020769402384757996
1772727589557941800,6.710941650390625,0.016187917441129684,-0.0025961752980947495,0.001221729558892548
1772727589575287300,6.728287353515625,0.010079269297420979,-0.008704823441803455,-0.010995565913617611
1772727589592632600,6.745632568359375,0.0015271619195118546,-0.017256930470466614,-0.017715077847242355
1772727589609978000,6.76297802734375,-0.012522728182375431,-0.01908952370285988,-0.015271619893610477
1772727589627323400,6.780323486328125,-0.02107483521103859,-0.012980876490473747,-0.008552107028663158
1772727589644668700,6.797668701171875,-0.019242240116000175,-0.006872228812426329,0.004276053514331579
1772727589662014200,6.81501416015625,-0.010079269297420979,-0.0062613640911877155,0.009773836471140385
1772727589679359500,6.832359375,-0.0027488914784044027,-0.0032070400193333626,0.017715077847242355
1772727589696704800,6.849704833984375,-0.004581485874950886,0.005345067009329796,0.006719512399286032
1772727589714050300,6.86705029296875,-0.01802051067352295,0.004123337101191282,-0.018325943499803543
1772727589731395600,6.8843955078125,-0.02718348242342472,0.002290742937475443,-0.020769402384757996
1772727589748741000,6.9017412109375,-0.022907428443431854,-0.0013744457392022014,-0.006108647678047419
1772727589766086400,6.91908642578125,-0.01435532234609127,-0.0038179049734026194,0.02871064469218254
1772727589783431700,6.936431640625,-0.006414080038666725,-0.0007635809597559273,0.02871064469218254
1772727589800777200,6.953777099609375,-0.0021380267571657896,0.004734201822429895,0.01649334840476513
1772727589818122500,6.97112255859375,-0.0015271619195118546,0.007177661173045635,-0.001221729558892548
1772727589835468000,6.988468017578125,-0.00946840364485979,-0.0019853105768561363,-0.0054977829568088055
1772727589852813300,7.005813232421875,0.000305432389723137,-0.0154243353754282,0.0054977829568088055
1772727589870158800,7.023158935546875,-0.016187917441129684,-0.017256930470466614,0.02626718580722809
1772727589887504100,7.040504150390625,0.0027488914784044027,-0.01359174121171236,0.017104214057326317
1772727589904849400,7.057849365234375,0.01435532234609127,-0.0025961752980947495,0.023823726922273636
1772727589922195000,7.07519482421875,0.028405211865901947,-0.0007635809597559273,0.021991131827235222
1772727589939540200,7.092540283203125,0.02779434807598591,0.01206457894295454,0.01649334840476513
1772727589956885500,7.109885498046875,0.014966187067329884,0.01511890348047018,0.004886918235570192
1772727589974231000,7.12723095703125,0.003359756199643016,0.009621120058000088,-0.0054977829568088055
1772727589991576300,7.144576416015625,0.008246674202382565,0.002290742937475443,0.023823726922273636
1772727590008921900,7.161921875,0.02107483521103859,0.0010690133785828948,0.034208428114652634
1772727590026267100,7.17926708984375,0.0204639695584774,0.00045814859913662076,0.030543239787220955
1772727590043612400,7.1966123046875,0.014966187067329884,0.01206457894295454,0.001832594396546483
1772727590060958000,7.2139580078125,0.005192350596189499,0.01695149764418602,-0.028099779039621353
1772727590078303200,7.23130322265625,-0.005192350596189499,0.005955931730568409,-0.02260199747979641
1772727590095648800,7.248648681640625,-0.0009162971982732415,-0.0007635809597559273,0.0030543238390237093
1772727590112994000,7.265994140625,0.005803215317428112,-0.0019853105768561363,0.007941242307424545
1772727590130339300,7.28333935546875,0.003359756199643016,0.003512472379952669,-0.0030543238390237093
1772727590147684900,7.300684814453125,-0.004581485874950886,0.005345067009329796,-0.02260199747979641
1772727590165030100,7.318030029296875,-0.008246674202382565,0.002290742937475443,-0.02260199747979641
1772727590182375400,7.33537548828125,-0.004581485874950886,0.004734201822429895,-0.007941242307424545
1772727590199721000,7.352720947265625,0.004581485874950886,0.017562363296747208,-0.01893680728971958
1772727590217066200,7.370066162109375,0.006414080038666725,0.019394956529140472,-0.017715077847242355
1772727590234411800,7.387411865234375,0.006414080038666725,0.01695149764418602,-0.006719512399286032
1772727590251757000,7.404757080078125,0.007635809946805239,0.01206457894295454,-0.004886918235570192
1772727590269102600,7.4221025390625,0.0015271619195118546,0.004123337101191282,-0.008552107028663158
1772727590286447900,7.43944775390625,-0.011911863461136818,0.002290742937475443,-0.031154103577136993
1772727590303793200,7.456793212890625,-0.022296564653515816,-0.0013744457392022014,-0.036651886999607086
1772727590321138700,7.474138671875,-0.014966187067329884,-0.0013744457392022014,-0.017104214057326317
1772727590338484000,7.49148388671875,0.008857538923621178,0.004734201822429895,0.009773836471140385
1772727590355829500,7.50882958984375,0.024740023538470268,0.007177661173045635,0.009773836471140385
1772727590373174800,7.5261748046875,0.025350889191031456,0.009621120058000088,-0.004276053514331579
1772727590390520000,7.54352001953125,0.021685699000954628,0.004734201822429895,-0.01954767294228077
1772727590407865600,7.560865478515625,0.024740023538470268,-0.0001527161948615685,-0.01282816007733345
1772727590425211000,7.5782109375,0.024740023538470268,0.0010690133785828948,-0.0054977829568088055
1772727590442556200,7.59555615234375,0.00946840364485979,0.002901607658714056,-0.01649334840476513
1772727590459901700,7.612901611328125,-0.01435532234609127,-0.008093958720564842,-0.020769402384757996
1772727590477247000,7.6302470703125,-0.019853105768561363,-0.02764163166284561,0.006719512399286032
1772727590494592500,7.647592529296875,-0.005803215317428112,-0.03375028073787689,0.034208428114652634
1772727590511937800,7.664937744140625,0.003359756199643016,-0.020922118797898293,0.03298669680953026
1772727590529283000,7.682282958984375,-0.0021380267571657896,-0.0025961752980947495,0.007941242307424545
1772727590546628600,7.699628662109375,-0.023518294095993042,0.0010690133785828948,-0.029932374134659767
1772727590563974000,7.716973876953125,-0.04062250629067421,-0.008704823441803455,-0.039706211537122726
1772727590581319400,7.7343193359375,-0.03634645417332649,-0.02153298258781433,0.002443459117785096
1772727590598664700,7.751664794921875,-0.016187917441129684,-0.017867794260382652,0.0409279391169548
1772727590616010200,7.76901025390625,-0.003970621153712273,-0.005650499369949102,0.043371398001909256
1772727590633355500,7.78635546875,-0.0015271619195118546,0.006566796451807022,0.007330377586185932
1772727590650700800,7.80370068359375,-0.0015271619195118546,0.002290742937475443,-0.017104214057326317
1772727590668046300,7.82104638671875,0.0021380267571657896,-0.008093958720564842,0.001221729558892548
1772727590685391600,7.8383916015625,0.003359756199643016,-0.009926552884280682,0.023823726922273636
1772727590702737200,7.855737060546875,0.0021380267571657896,-0.009926552884280682,0.025045456364750862
1772727590720082400,7.87308251953125,0.005803215317428112,-0.004428769461810589,0.017715077847242355
1772727590737427700,7.890427734375,0.012522728182375431,0.005345067009329796,0.012217295356094837
1772727590754773200,7.907773193359375,0.01740964688360691,0.01695149764418602,0.029932374134659767
1772727590772118500,7.925118408203125,0.01435532234609127,0.021838415414094925,0.03298669680953026
1772727590789464000,7.942464111328125,0.005803215317428112,0.024892739951610565,0.01954767294228077
1772727590806809300,7.959809326171875,0.0027488914784044027,0.02367101050913334,0.006719512399286032
1772727590824155000,7.97715478515625,0.003970621153712273,0.018784092739224434,-0.001832594396546483
1772727590841500200,7.994500244140625,0.008246674202382565,0.011453714221715927,0.009162971749901772
1772727590858845400,8.011845458984375,0.00946840364485979,-0.0007635809597559273,0.014049889519810677
1772727590876191000,8.02919091796875,0.01740964688360691,-0.0025961752980947495,0.006719512399286032
1772727590893536300,8.046536376953124,0.01802051067352295,-0.008093958720564842,-0.001221729558892548
1772727590910881500,8.063881591796875,0.00946840364485979,-0.01359174121171236,-0.003665188793092966
1772727590928227000,8.08122705078125,0.0027488914784044027,-0.012370011769235134,-0.008552107028663158
1772727590945572400,8.098572265625,-0.0027488914784044027,-0.0062613640911877155,-0.007330377586185932
1772727590962918000,8.11591796875,-0.003970621153712273,0.0010690133785828948,-0.010384701192378998
1772727590980263200,8.13326318359375,0.000305432389723137,0.005955931730568409,-0.006108647678047419
1772727590997608400,8.1506083984375,0.00946840364485979,0.01206457894295454,0.001832594396546483
1772727591014954000,8.1679541015625,0.016798781231045723,0.014508038759231567,0.006719512399286032
1772727591032299300,8.18529931640625,0.02107483521103859,0.019394956529140472,-0.0030543238390237093
1772727591049644800,8.202644775390626,0.015577051788568497,0.016340631991624832,-0.011606430634856224
1772727591066990000,8.219989990234374,0.0009162971982732415,0.0010690133785828948,-0.026878049597144127
1772727591084335600,8.237335693359375,-0.015577051788568497,-0.006872228812426329,-0.030543239787220955
1772727591101681000,8.254680908203126,-0.025961752980947495,-0.011759147047996521,-0.029932374134659767
1772727591119026200,8.272026123046874,-0.023518294095993042,-0.009315688163042068,-0.02260199747979641
1772727591136371700,8.289371826171875,-0.011911863461136818,-0.007483093533664942,-0.01954767294228077
1772727591153717000,8.306717041015625,0.0009162971982732415,-0.0013744457392022014,-0.014660755172371864
1772727591171062500,8.3240625,0.004581485874950886,0.004123337101191282,-0.006719512399286032
1772727591188407800,8.34140771484375,-0.004581485874950886,0.005955931730568409,-0.020158538594841957
1772727591205753000,8.358753173828125,-0.010690134018659592,0.004734201822429895,-0.021991131827235222
1772727591223098600,8.3760986328125,-0.011911863461136818,0.0010690133785828948,-0.009773836471140385
1772727591240444000,8.39344384765625,-0.00946840364485979,-0.0001527161948615685,0.006108647678047419
1772727591257789400,8.41078955078125,-0.010079269297420979,-0.0013744457392022014,0.011606430634856224
1772727591275134700,8.428134765625,-0.011300998739898205,0.003512472379952669,-0.004886918235570192
1772727591292480000,8.44547998046875,-0.013744457624852657,0.002290742937475443,-0.020158538594841957
1772727591309825500,8.462825439453125,-0.008246674202382565,-0.0032070400193333626,-0.0054977829568088055
1772727591327170800,8.4801708984375,0.000305432389723137,-0.006872228812426329,0.01954767294228077
1772727591344516400,8.497516357421874,0.005803215317428112,-0.006872228812426329,0.02626718580722809
1772727591361861600,8.514861572265625,0.006414080038666725,-0.007483093533664942,0.001221729558892548
1772727591379207200,8.532207275390626,0.0021380267571657896,-0.011148282326757908,-0.006719512399286032
1772727591396552400,8.549552490234374,0.003359756199643016,-0.014813470654189587,0.001832594396546483
1772727591413897700,8.566897705078125,0.007635809946805239,-0.01359174121171236,0.01588248461484909
1772727591431243300,8.5842431640625,0.007635809946805239,-0.012370011769235134,0.015271619893610477
1772727591448588500,8.601588623046876,0.006414080038666725,-0.006872228812426329,0.003665188793092966
1772727591465934000,8.61893408203125,0.007635809946805239,-0.005650499369949102,0.007941242307424545
1772727591483279400,8.636279296875,0.010690134018659592,-0.0013744457392022014,0.017715077847242355
1772727591500624600,8.653624755859376,0.013133592903614044,0.007177661173045635,0.025045456364750862
1772727591517970200,8.67097021484375,0.006414080038666725,0.011453714221715927,0.014660755172371864
1772727591535315500,8.6883154296875,-0.007024944759905338,0.008399390615522861,-0.009162971749901772
1772727591552661000,8.705660888671876,-0.013744457624852657,-0.0001527161948615685,-0.014049889519810677
1772727591570006300,8.72300634765625,-0.016187917441129684,-0.005650499369949102,0.000610864779446274
1772727591587351800,8.740351806640625,-0.007024944759905338,-0.0019853105768561363,0.017715077847242355
1772727591604697000,8.757697021484375,0.003359756199643016,0.007177661173045635,0.010384701192378998
1772727591622042400,8.77504248046875,0.005803215317428112,0.013286309316754341,-0.003665188793092966
1772727591639388000,8.792387939453125,-0.000305432389723137,0.007177661173045635,-0.014049889519810677
1772727591656733200,8.809733154296875,-0.010690134018659592,-0.0025961752980947495,-0.01588248461484909
1772727591674078700,8.82707861328125,-0.014966187067329884,-0.009926552884280682,-0.01282816007733345
1772727591691424000,8.844424072265625,-0.007635809946805239,-0.005039634648710489,-0.007330377586185932
1772727591708769300,8.861769287109375,0.005192350596189499,0.002290742937475443,-0.0030543238390237093
1772727591726114800,8.87911474609375,0.013133592903614044,0.002901607658714056,0.001221729558892548
1772727591743460000,8.896460205078125,0.01435532234609127,0.006566796451807022,-0.001221729558892548
1772727591760805600,8.9138056640625,0.010690134018659592,0.0102319847792387,-0.0054977829568088055
1772727591778151000,8.93115087890625,0.0027488914784044027,0.005345067009329796,-0.009162971749901772
1772727591795496400,8.948496337890624,0.0015271619195118546,-0.0007635809597559273,-0.008552107028663158
1772727591812841700,8.965841796875,0.005803215317428112,0.002290742937475443,-0.004276053514331579
1772727591830187000,8.98318701171875,0.003970621153712273,0.00045814859913662076,-0.006108647678047419
1772727591847532500,9.000532470703124,0.005803215317428112,0.002901607658714056,0.000610864779446274
1772727591864877800,9.0178779296875,0.008857538923621178,0.005345067009329796,-0.003665188793092966
1772727591882223400,9.035223388671875,0.003359756199643016,-0.0019853105768561363,0.001832594396546483
1772727591899568600,9.052568603515626,-0.0027488914784044027,-0.0062613640911877155,-0.001221729558892548
1772727591916914000,9.069913818359375,-0.007635809946805239,-0.004428769461810589,-0.010384701192378998
1772727591934259500,9.087259521484375,-0.00946840364485979,-0.0025961752980947495,-0.01282816007733345
1772727591951604700,9.104604736328126,-0.007024944759905338,-0.004428769461810589,0.001221729558892548
1772727591968950300,9.1219501953125,0.0021380267571657896,-0.005039634648710489,0.023823726922273636
1772727591986295600,9.139295654296875,0.011300998739898205,0.0010690133785828948,0.021380268037319183
1772727592003641000,9.15664111328125,0.010690134018659592,0.004734201822429895,-0.002443459117785096
1772727592020986400,9.173986328125,-0.0027488914784044027,0.0010690133785828948,-0.014660755172371864
1772727592038331600,9.19133154296875,-0.00946840364485979,-0.004428769461810589,-0.002443459117785096
1772727592055677200,9.20867724609375,-0.010079269297420979,-0.012370011769235134,0.006719512399286032
1772727592073022500,9.2260224609375,-0.005803215317428112,-0.011148282326757908,0.011606430634856224
1772727592090368000,9.243367919921875,-0.0027488914784044027,-0.0013744457392022014,-0.003665188793092966
1772727592107713300,9.26071337890625,-0.005803215317428112,-0.0013744457392022014,-0.007941242307424545
1772727592125058600,9.27805859375,-0.005192350596189499,-0.0013744457392022014,0
1772727592142404000,9.295404052734375,-0.0021380267571657896,0.002290742937475443,0.007941242307424545
1772727592159749400,9.312749267578125,-0.004581485874950886,0.006566796451807022,0.004886918235570192
1772727592177095000,9.330094970703126,-0.0009162971982732415,0.014508038759231567,0.000610864779446274
1772727592194440200,9.347440185546875,0.0015271619195118546,0.009010255336761475,0.002443459117785096
1772727592211785700,9.36478564453125,0.003970621153712273,-0.0001527161948615685,0.014660755172371864
1772727592229131000,9.382131103515626,0.00946840364485979,-0.0001527161948615685,0.020158538594841957
1772727592246476500,9.3994765625,-0.0015271619195118546,-0.0038179049734026194,-0.004886918235570192
1772727592263821800,9.41682177734375,-0.010079269297420979,-0.0032070400193333626,-0.012217295356094837
1772727592281167000,9.4341669921875,-0.008246674202382565,-0.005039634648710489,-0.009162971749901772
1772727592298512600,9.4515126953125,0.000305432389723137,-0.010537417605519295,0.0030543238390237093
1772727592315858000,9.46885791015625,0.007635809946805239,-0.008093958720564842,0.009162971749901772
1772727592333203500,9.486203369140625,0.011300998739898205,0.005955931730568409,0.009773836471140385
1772727592350548700,9.503548828125,0.010690134018659592,0.009010255336761475,0.008552107028663158
1772727592367894000,9.52089404296875,0.003970621153712273,0.004123337101191282,-0.001221729558892548
1772727592385239600,9.538239501953125,-0.003359756199643016,0.001679878099821508,0.001221729558892548
1772727592402584800,9.555584716796876,-0.010079269297420979,-0.0032070400193333626,-0.021991131827235222
1772727592419930400,9.572930419921875,-0.010079269297420979,-0.011759147047996521,0.008552107028663158
1772727592437275600,9.590275634765625,-0.000305432389723137,-0.009926552884280682,0.009773836471140385
1772727592454621200,9.60762109375,0.013744457624852657,-0.004428769461810589,0.0256563201546669
1772727592471966500,9.624966552734374,0.01435532234609127,0.004123337101191282,0.004276053514331579
1772727592489312000,9.64231201171875,-0.000305432389723137,0.006566796451807022,-0.017715077847242355
1772727592506657300,9.6596572265625,-0.006414080038666725,-0.0019853105768561363,-0.01893680728971958
1772727592524002600,9.67700244140625,0.000305432389723137,-0.010537417605519295,0.014049889519810677
1772727592541348000,9.69434814453125,0.012522728182375431,-0.0032070400193333626,0.020158538594841957
1772727592558693400,9.711693359375,0.014966187067329884,0.007177661173045635,0.011606430634856224
1772727592576039000,9.729038818359374,0.006414080038666725,0.011453714221715927,-0.006108647678047419
1772727592593384200,9.74638427734375,-0.007635809946805239,0.004734201822429895,-0.0256563201546669
1772727592610729700,9.763729736328125,-0.011911863461136818,-0.0013744457392022014,0.001221729558892548
1772727592628075000,9.781074951171876,-0.006414080038666725,-0.006872228812426329,0.007941242307424545
1772727592645420300,9.798420166015624,0.003970621153712273,-0.0025961752980947495,0.013439024798572063
1772727592662765800,9.815765869140625,0.010079269297420979,0.011453714221715927,-0.015271619893610477
1772727592680111000,9.833111083984376,0.004581485874950886,0.010842849500477314,-0.020158538594841957
1772727592697456600,9.85045654296875,-0.0021380267571657896,0.00045814859913662076,-0.003665188793092966
1772727592714802000,9.867802001953125,-0.003970621153712273,-0.0019853105768561363,0.010995565913617611
1772727592732147200,9.885147216796875,-0.007024944759905338,0.001679878099821508,-0.004886918235570192
1772727592749492700,9.90249267578125,-0.015577051788568497,-0.004428769461810589,-0.018325943499803543
1772727592766838300,9.91983837890625,-0.015577051788568497,-0.0062613640911877155,-0.029932374134659767
1772727592784183600,9.93718359375,-0.006414080038666725,-0.005039634648710489,-0.006108647678047419
1772727592801528800,9.95452880859375,-0.004581485874950886,-0.004428769461810589,0.004276053514331579
1772727592818874400,9.971874267578125,-0.003970621153712273,0.001679878099821508,-0.002443459117785096
1772727592836219600,9.9892197265625,0.0009162971982732415,0.002901607658714056,0
1772727592853565200,10.006565185546876,0.0021380267571657896,0.004734201822429895,-0.004276053514331579
1772727592870910500,10.023910400390625,-0.008857538923621178,-0.0025961752980947495,0.001221729558892548
1772727592888255700,10.041255859375,-0.018631376326084137,-0.0019853105768561363,-0.004276053514331579
1772727592905601300,10.058601318359376,-0.01435532234609127,0.00045814859913662076,-0.004276053514331579
1772727592922946600,10.075946533203124,-0.0021380267571657896,-0.0038179049734026194,0.0030543238390237093
1772727592940292000,10.0932919921875,0.011300998739898205,-0.005039634648710489,0.011606430634856224
1772727592957637400,10.110637451171876,0.01435532234609127,-0.0007635809597559273,0
1772727592974983000,10.12798291015625,0.004581485874950886,-0.0025961752980947495,-0.000610864779446274
1772727592992328200,10.145328125,-0.006414080038666725,-0.009315688163042068,-0.020158538594841957
1772727593009673700,10.162673828125,-0.007635809946805239,-0.011759147047996521,0.002443459117785096
1772727593027019000,10.18001904296875,0.000305432389723137,-0.009315688163042068,0.000610864779446274
1772727593044364300,10.1973642578125,0.00946840364485979,-0.0019853105768561363,0.01282816007733345
1772727593061709800,10.214709716796875,0.005803215317428112,0.00045814859913662076,-0.006719512399286032
1772727593079055000,10.23205517578125,-0.003359756199643016,0.002290742937475443,-0.013439024798572063
1772727593096400600,10.249400634765625,-0.007635809946805239,-0.0007635809597559273,0.003665188793092966
1772727593113746000,10.266745849609375,-0.003359756199643016,-0.0001527161948615685,0.013439024798572063
1772727593131091200,10.28409130859375,0.007635809946805239,0.007177661173045635,0.009162971749901772
1772727593148436700,10.301436767578124,0.016798781231045723,0.009621120058000088,0.001221729558892548
1772727593165782300,10.3187822265625,0.019853105768561363,0.007788525894284248,0.006719512399286032
1772727593183127600,10.33612744140625,0.011300998739898205,0.002901607658714056,0.001221729558892548
1772727593200472800,10.353472900390624,-0.007024944759905338,-0.0062613640911877155,-0.002443459117785096
1772727593217818400,10.370818359375,-0.01435532234609127,-0.005650499369949102,-0.011606430634856224
1772727593235163600,10.38816357421875,-0.006414080038666725,-0.008704823441803455,0.000610864779446274
1772727593252509200,10.40550927734375,0.011300998739898205,-0.0013744457392022014,0.01954767294228077
1772727593269854500,10.4228544921875,0.023518294095993042,0.005955931730568409,0.0256563201546669
1772727593287200000,10.440199951171875,0.021685699000954628,0.01206457894295454,0.007330377586185932
1772727593304545300,10.457545166015626,0.003970621153712273,0.007177661173045635,-0.014049889519810677
1772727593321890800,10.474890869140625,-0.010690134018659592,-0.005650499369949102,-0.0054977829568088055
1772727593339236000,10.492236083984375,-0.007024944759905338,-0.011759147047996521,0.014660755172371864
1772727593356581400,10.509581298828126,0.0021380267571657896,-0.0013744457392022014,0.01954767294228077
1772727593373927000,10.526927001953124,0.003970621153712273,0.005345067009329796,0.008552107028663158
1772727593391272200,10.544272216796875,0.003359756199643016,0.009621120058000088,-0.001221729558892548
1772727593408617700,10.56161767578125,0.005192350596189499,0.004123337101191282,0.006719512399286032
1772727593425963000,10.578962890625,0.005803215317428112,-0.0013744457392022014,0.01954767294228077
1772727593443308300,10.596308349609375,0.005803215317428112,0.001679878099821508,0.025045456364750862
1772727593460653800,10.61365380859375,-0.003970621153712273,0.002901607658714056,-0.006719512399286032
1772727593477999400,10.630999267578124,-0.011911863461136818,-0.0032070400193333626,-0.02260199747979641
1772727593495344600,10.6483447265625,-0.00946840364485979,-0.009926552884280682,-0.0054977829568088055
1772727593512690000,10.66568994140625,-0.0015271619195118546,-0.008093958720564842,0.01588248461484909
1772727593530035500,10.683035400390626,0.005803215317428112,-0.0013744457392022014,0.011606430634856224
1772727593547380700,10.700380615234375,-0.0009162971982732415,0.009010255336761475,-0.009773836471140385
1772727593564726300,10.717726318359375,-0.016798781231045723,0.004734201822429895,-0.029932374134659767
1772727593582071600,10.735071533203126,-0.0308486707508564,-0.0062613640911877155,-0.021991131827235222
1772727593599416800,10.752416748046874,-0.02412915788590908,-0.004428769461810589,-0.006719512399286032
1772727593616762400,10.769762451171875,-0.007635809946805239,0.002901607658714056,0.006108647678047419
1772727593634108000,10.78710791015625,0.010079269297420979,0.014508038759231567,0.003665188793092966
1772727593651453200,10.804453125,0.016798781231045723,0.018173227086663246,-0.010995565913617611
1772727593668798500,10.821798583984375,0.004581485874950886,0.006566796451807022,-0.01588248461484909
1772727593686144000,10.83914404296875,-0.012522728182375431,-0.0032070400193333626,-0.01588248461484909
1772727593703489300,10.8564892578125,-0.016798781231045723,-0.008704823441803455,-0.010995565913617611
1772727593720834800,10.873834716796875,-0.011300998739898205,-0.008704823441803455,-0.010384701192378998
1772727593738180000,10.89118017578125,0.000305432389723137,-0.005650499369949102,-0.008552107028663158
1772727593755525600,10.908525634765626,0.00946840364485979,-0.0001527161948615685,-0.004276053514331579
1772727593772871000,10.925870849609375,0.018631376326084137,0.011453714221715927,0.001832594396546483
1772727593790216200,10.94321630859375,0.023518294095993042,0.01206457894295454,0.007941242307424545
1772727593807561700,10.960561767578126,0.013744457624852657,0.005955931730568409,0.001221729558892548
1772727593824907000,10.977906982421874,-0.0015271619195118546,-0.0007635809597559273,0.000610864779446274
1772727593842252500,10.99525244140625,-0.013133592903614044,-0.0062613640911877155,-0.013439024798572063
1772727593859597800,11.012597900390626,-0.00946840364485979,-0.005650499369949102,-0.006108647678047419
1772727593876943400,11.029943359375,0.003359756199643016,-0.0007635809597559273,0.006108647678047419
1772727593894288600,11.04728857421875,0.013744457624852657,-0.0019853105768561363,0.014660755172371864
1772727593911634200,11.06463427734375,0.011911863461136818,-0.005039634648710489,0.009162971749901772
1772727593928979500,11.0819794921875,0.003359756199643016,-0.0007635809597559273,-0.010384701192378998
1772727593946325000,11.099324951171875,-0.003359756199643016,-0.0013744457392022014,-0.004276053514331579
1772727593963670300,11.116670166015625,0.000305432389723137,-0.0038179049734026194,0.004276053514331579
1772727593981015600,11.134015625,0.006414080038666725,-0.005039634648710489,0.0054977829568088055
1772727593998361000,11.151361083984375,0.005803215317428112,-0.0038179049734026194,0.004276053514331579
1772727594015706400,11.168706298828125,0.0021380267571657896,0.002901607658714056,-0.001832594396546483
1772727594033052000,11.186052001953126,-0.000305432389723137,0.004123337101191282,-0.0030543238390237093
1772727594050397200,11.203397216796875,0.005803215317428112,0.002901607658714056,0.014660755172371864
1772727594067742700,11.22074267578125,0.010690134018659592,0.004123337101191282,0.01954767294228077
1772727594085088000,11.238087890625,0.004581485874950886,0.005955931730568409,-0.001832594396546483
1772727594102433500,11.25543359375,-0.00946840364485979,0.001679878099821508,-0.020769402384757996
1772727594119778800,11.27277880859375,-0.019242240116000175,-0.008704823441803455,-0.01954767294228077
1772727594137124400,11.290124267578125,-0.00946840364485979,-0.009315688163042068,0.012217295356094837
1772727594154469600,11.3074697265625,0.000305432389723137,-0.005039634648710489,0.014660755172371864
1772727594171815000,11.32481494140625,0.006414080038666725,0.003512472379952669,0.004886918235570192
1772727594189160400,11.342160400390625,0.004581485874950886,0.009010255336761475,-0.015271619893610477
1772727594206505700,11.359505615234376,-0.0027488914784044027,0.002901607658714056,-0.006719512399286032
1772727594223851300,11.376851318359375,-0.010690134018659592,0.0010690133785828948,-0.001221729558892548
1772727594241196500,11.394196533203125,-0.014966187067329884,-0.0019853105768561363,0.000610864779446274
1772727594258542000,11.4115419921875,-0.011300998739898205,-0.0007635809597559273,0.001832594396546483
1772727594275887400,11.428887451171875,-0.0027488914784044027,-0.0019853105768561363,0.0030543238390237093
1772727594293233000,11.44623291015625,0.0027488914784044027,-0.0013744457392022014,0.007330377586185932
1772727594310578200,11.463578125,-0.0015271619195118546,0.003512472379952669,-0.008552107028663158
1772727594327923500,11.48092333984375,-0.011911863461136818,-0.0013744457392022014,-0.012217295356094837
1772727594345269000,11.49826904296875,-0.011300998739898205,-0.0038179049734026194,-0.0030543238390237093
1772727594362614300,11.5156142578125,-0.0009162971982732415,-0.0062613640911877155,0.011606430634856224
1772727594379959800,11.532959716796874,0.008857538923621178,0.0010690133785828948,0.010384701192378998
1772727594397305000,11.55030517578125,0.003970621153712273,0.007788525894284248,-0.010384701192378998
1772727594414650600,11.567650634765625,-0.003970621153712273,0.002290742937475443,-0.010995565913617611
1772727594431996000,11.584995849609374,-0.0021380267571657896,-0.0038179049734026194,0.0054977829568088055
1772727594449341400,11.602341552734375,0.011300998739898205,0.008399390615522861,0.017715077847242355
1772727594466686700,11.619686767578125,0.01740964688360691,0.016340631991624832,0.017104214057326317
1772727594484032300,11.6370322265625,0.015577051788568497,0.015729768201708794,-0.003665188793092966
1772727594501377500,11.65437744140625,0.007635809946805239,0.007788525894284248,-0.014660755172371864
1772727594518722800,11.671722900390625,-0.0015271619195118546,-0.0013744457392022014,0
1772727594536068400,11.689068359375,-0.011911863461136818,-0.005650499369949102,0.006108647678047419
1772727594553413600,11.70641357421875,-0.013744457624852657,-0.005650499369949102,-0.002443459117785096
1772727594570759200,11.72375927734375,-0.0009162971982732415,-0.0001527161948615685,0.004276053514331579
1772727594588104400,11.7411044921875,0.022296564653515816,0.009010255336761475,0.009162971749901772
1772727594605450000,11.758449951171874,0.03145953640341759,0.013286309316754341,0.007941242307424545
1772727594622795300,11.775795166015625,0.01740964688360691,0.009010255336761475,0.003665188793092966
1772727594640140800,11.793140869140625,-0.0009162971982732415,0.002290742937475443,-0.004886918235570192
1772727594657486000,11.810486083984374,-0.010690134018659592,-0.0062613640911877155,-0.004276053514331579
1772727594674831600,11.82783154296875,-0.013744457624852657,-0.010537417605519295,0.002443459117785096
1772727594692177000,11.845177001953125,-0.006414080038666725,-0.006872228812426329,0.007330377586185932
1772727594709522400,11.8625224609375,-0.0027488914784044027,-0.0038179049734026194,-0.001832594396546483
1772727594726867700,11.87986767578125,-0.008246674202382565,-0.0025961752980947495,-0.01954767294228077
1772727594744213200,11.897213134765625,-0.0027488914784044027,-0.0025961752980947495,-0.004886918235570192
1772727594761558500,11.91455859375,0.003359756199643016,0.00045814859913662076,0.009773836471140385
1772727594778903800,11.93190380859375,-0.0015271619195118546,0.006566796451807022,0.006719512399286032
1772727594796249300,11.949249267578125,-0.005803215317428112,0.013286309316754341,-0.006108647678047419
1772727594813594600,11.9665947265625,-0.010690134018659592,0.008399390615522861,-0.010384701192378998
1772727594830940200,11.983940185546874,-0.012522728182375431,-0.0001527161948615685,-0.014049889519810677
1772727594848285400,12.001285400390625,-0.008857538923621178,-0.005650499369949102,-0.007941242307424545
1772727594865631000,12.018630859375,-0.008246674202382565,-0.011148282326757908,-0.008552107028663158
1772727594882976300,12.035976318359374,-0.004581485874950886,-0.0062613640911877155,-0.007330377586185932
1772727594900321800,12.05332177734375,-0.0015271619195118546,-0.0007635809597559273,-0.01282816007733345
1772727594917667000,12.0706669921875,-0.0021380267571657896,0.001679878099821508,-0.001832594396546483
1772727594935012600,12.0880126953125,0.000305432389723137,0.005955931730568409,0.004276053514331579
1772727594952358000,12.10535791015625,-0.0015271619195118546,0.008399390615522861,-0.008552107028663158
1772727594969703400,12.122703369140625,-0.0027488914784044027,0.004123337101191282,0.0030543238390237093
1772727594987048700,12.140048583984376,-0.003359756199643016,0.002901607658714056,-0.007330377586185932
1772727595004394000,12.15739404296875,-0.000305432389723137,-0.0001527161948615685,0.010995565913617611
1772727595021739500,12.174739501953125,-0.0021380267571657896,0.001679878099821508,-0.004886918235570192
1772727595039084800,12.192084716796876,0.007024944759905338,0.004123337101191282,0.009773836471140385
1772727595056430300,12.209430419921874,0.01435532234609127,0.001679878099821508,0.021991131827235222
1772727595073775600,12.226775634765625,0.014966187067329884,0.0010690133785828948,0.01588248461484909
1772727595091121200,12.24412109375,0.007024944759905338,-0.0038179049734026194,-0.0030543238390237093
1772727595108466400,12.261466552734374,-0.00946840364485979,-0.014202605932950974,-0.01649334840476513
1772727595125812000,12.27881201171875,-0.014966187067329884,-0.014202605932950974,-0.009773836471140385
1772727595143157200,12.2961572265625,-0.0027488914784044027,-0.0154243353754282,0.0256563201546669
1772727595160502800,12.313502685546876,0.010079269297420979,-0.005039634648710489,0.021380268037319183
1772727595177848000,12.33084814453125,0.016187917441129684,0.0102319847792387,-0.007941242307424545
1772727595195193300,12.348193359375,0.010079269297420979,0.012675444595515728,-0.01649334840476513
1772727595212539000,12.365538818359376,0.003970621153712273,0.003512472379952669,-0.001832594396546483
1772727595229884400,12.382884521484375,0.008857538923621178,-0.0013744457392022014,0.007941242307424545
1772727595247229700,12.400229736328125,0.006414080038666725,0.002901607658714056,0.007941242307424545
1772727595264575000,12.417574951171876,-0.008246674202382565,0.007177661173045635,-0.03176496922969818
1772727595281920500,12.43492041015625,-0.021685699000954628,0.00045814859913662076,-0.033597562462091446
1772727595299265800,12.452265869140625,-0.01435532234609127,-0.006872228812426329,-0.0054977829568088055
1772727595316611300,12.469611328125,0.007024944759905338,-0.0001527161948615685,0.013439024798572063
1772727595333956600,12.48695654296875,0.011911863461136818,0.007177661173045635,0.000610864779446274
1772727595351302100,12.50430224609375,-0.0015271619195118546,0.01206457894295454,-0.029932374134659767
1772727595368647400,12.5216474609375,-0.019853105768561363,0.002901607658714056,-0.04886918142437935
1772727595385993000,12.538992919921874,-0.018631376326084137,-0.005650499369949102,-0.015271619893610477
1772727595403338200,12.556338134765625,-0.008246674202382565,-0.0062613640911877155,0
1772727595420683800,12.573683837890625,-0.003970621153712273,0.004123337101191282,-0.0054977829568088055
1772727595438029000,12.591029052734376,-0.003970621153712273,0.011453714221715927,-0.015271619893610477
1772727595455374600,12.60837451171875,-0.005803215317428112,0.007177661173045635,-0.018325943499803543
1772727595472720000,12.625719970703125,-0.007024944759905338,0.002290742937475443,0
1772727595490065400,12.6430654296875,-0.01435532234609127,0.0010690133785828948,-0.014660755172371864
1772727595507410700,12.66041064453125,-0.02412915788590908,0.0010690133785828948,-0.021380268037319183
1772727595524756000,12.677755859375,-0.024740023538470268,-0.007483093533664942,-0.0256563201546669
1772727595542101500,12.6951015625,-0.006414080038666725,-0.009926552884280682,0.003665188793092966
1772727595559446800,12.71244677734375,0.019242240116000175,0.001679878099821508,0.020158538594841957
1772727595576792300,12.729792236328125,0.0204639695584774,0.007788525894284248,0.0054977829568088055
1772727595594137600,12.7471376953125,0.0027488914784044027,0.006566796451807022,-0.020769402384757996
1772727595611483100,12.764483154296874,-0.016798781231045723,-0.0019853105768561363,-0.021991131827235222
1772727595628828400,12.781828369140625,-0.018631376326084137,-0.008704823441803455,-0.0030543238390237093
1772727595646174000,12.799174072265625,-0.0009162971982732415,-0.004428769461810589,0.020158538594841957
1772727595663519200,12.816519287109376,0.015577051788568497,0.010842849500477314,0.010995565913617611
1772727595680864800,12.83386474609375,0.01802051067352295,0.014508038759231567,-0.008552107028663158
1772727595698210000,12.8512099609375,0.005192350596189499,0.004734201822429895,-0.012217295356094837
1772727595715555600,12.8685556640625,-0.0015271619195118546,0.006566796451807022,-0.01649334840476513
1772727595732900900,12.88590087890625,-0.004581485874950886,0.002901607658714056,-0.003665188793092966
1772727595750246400,12.903246337890625,-0.003359756199643016,0.0010690133785828948,-0.009162971749901772
1772727595767591700,12.920591796875,-0.0015271619195118546,0.003512472379952669,-0.013439024798572063
1772727595784937200,12.937937255859374,-0.0021380267571657896,0.0102319847792387,-0.013439024798572063
1772727595802282500,12.955282470703125,-0.0027488914784044027,0.01511890348047018,-0.020769402384757996
1772727595819627800,12.972627685546875,0.0021380267571657896,0.017562363296747208,-0.0256563201546669
1772727595836973300,12.989973388671874,0.003970621153712273,0.010842849500477314,-0.02626718580722809
1772727595854318600,13.007318603515625,-0.003970621153712273,0.007788525894284248,-0.023823726922273636
1772727595871664000,13.0246640625,-0.01435532234609127,0.006566796451807022,-0.026878049597144127
1772727595889009400,13.042009521484376,-0.00946840364485979,0.008399390615522861,-0.01893680728971958
1772727595906355000,13.05935498046875,0.0009162971982732415,0.014508038759231567,-0.021380268037319183
1772727595923700200,13.0767001953125,0.016187917441129684,0.01695149764418602,-0.013439024798572063
1772727595941045800,13.094045654296876,0.010079269297420979,0.016340631991624832,-0.03176496922969818
1772727595958391000,13.11139111328125,-0.007635809946805239,0.011453714221715927,-0.031154103577136993
1772727595975736600,13.128736572265625,-0.022296564653515816,0.002901607658714056,-0.0409279391169548
1772727595993081900,13.146081787109376,-0.02107483521103859,-0.0001527161948615685,-0.014660755172371864
1772727596010427400,13.163427490234374,-0.0015271619195118546,0.009621120058000088,-0.003665188793092966
1772727596027772700,13.180772705078125,0.011911863461136818,0.012675444595515728,-0.010384701192378998
1772727596045118200,13.1981181640625,0.014966187067329884,0.021838415414094925,-0.0256563201546669
1772727596062463500,13.21546337890625,-0.005803215317428112,0.012675444595515728,-0.03237583488225937
1772727596079809000,13.23280908203125,-0.022907428443431854,0.002901607658714056,-0.033597562462091446
1772727596097154300,13.250154296875,-0.025961752980947495,-0.009315688163042068,-0.014049889519810677
1772727596114499600,13.26749951171875,-0.016187917441129684,-0.0013744457392022014,-0.004886918235570192
1772727596131845000,13.28484521484375,-0.003970621153712273,0.007788525894284248,-0.01282816007733345
1772727596149190700,13.302190673828125,-0.000305432389723137,0.009010255336761475,-0.012217295356094837
1772727596166536000,13.319535888671876,-0.005192350596189499,0.009621120058000088,-0.028099779039621353
1772727596183881200,13.336881103515625,-0.00946840364485979,0.0102319847792387,-0.010384701192378998
1772727596201226800,13.354226806640625,-0.013133592903614044,0.01206457894295454,-0.012217295356094837
1772727596218572000,13.371572021484376,-0.01802051067352295,0.005955931730568409,-0.012217295356094837
1772727596235917600,13.38891748046875,-0.00946840364485979,0.005955931730568409,-0.007330377586185932
1772727596253262800,13.406262939453125,0.0009162971982732415,0.007788525894284248,-0.006108647678047419
1772727596270608400,13.4236083984375,0.004581485874950886,0.012675444595515728,-0.014660755172371864
1772727596287953700,13.44095361328125,-0.006414080038666725,0.007177661173045635,-0.030543239787220955
1772727596305299200,13.45829931640625,-0.01802051067352295,0.005955931730568409,-0.02871064469218254
1772727596322644500,13.47564453125,-0.022296564653515816,0.004123337101191282,-0.020158538594841957
1772727596339990000,13.492989990234374,-0.010079269297420979,0.002901607658714056,0
1772727596357335300,13.510335205078125,0.00946840364485979,0.018784092739224434,0.000610864779446274
1772727596374680800,13.527680908203125,0.010690134018659592,0.024892739951610565,-0.007941242307424545
1772727596392026000,13.545026123046876,-0.000305432389723137,0.021838415414094925,-0.023823726922273636
1772727596409371600,13.56237158203125,-0.01435532234609127,0.0102319847792387,-0.02871064469218254
1772727596426717000,13.579717041015625,-0.01435532234609127,0.005345067009329796,-0.01954767294228077
1772727596444062500,13.5970625,-0.007635809946805239,0.010842849500477314,0
1772727596461407700,13.61440771484375,-0.005803215317428112,0.013286309316754341,-0.012217295356094837
1772727596478753000,13.6317529296875,-0.003970621153712273,0.016340631991624832,-0.018325943499803543
1772727596496098600,13.6490986328125,0.0027488914784044027,0.02000582218170166,-0.01588248461484909
1772727596513444000,13.666444091796874,0.005192350596189499,0.018784092739224434,-0.006719512399286032
1772727596530789400,13.683789306640625,-0.005803215317428112,0.017562363296747208,-0.014660755172371864
1772727596548134700,13.701134765625,-0.019242240116000175,0.014508038759231567,-0.029932374134659767
1772727596565480200,13.718480224609374,-0.025961752980947495,0.011453714221715927,-0.033597562462091446
1772727596582825500,13.735825439453125,-0.016187917441129684,0.014508038759231567,-0.007941242307424545
1772727596600171000,13.7531708984375,-0.0009162971982732415,0.016340631991624832,-0.001832594396546483
1772727596617516300,13.770516357421876,0.008857538923621178,0.022449281066656113,-0.017715077847242355
1772727596634861800,13.78786181640625,-0.000305432389723137,0.024892739951610565,-0.0360410213470459
1772727596652207000,13.80520703125,-0.011911863461136818,0.018173227086663246,-0.030543239787220955
1772727596669552600,13.822552734375,-0.016798781231045723,0.007177661173045635,-0.021380268037319183
1772727596686898000,13.83989794921875,-0.01802051067352295,0.005955931730568409,-0.021991131827235222
1772727596704243500,13.857243408203125,-0.013744457624852657,0.013286309316754341,-0.01893680728971958
1772727596721588700,13.874588623046876,-0.011300998739898205,0.01511890348047018,-0.01649334840476513
1772727596738934300,13.891934326171874,0.0009162971982732415,0.022449281066656113,-0.01893680728971958
1772727596756279600,13.909279541015625,0.0021380267571657896,0.025503603741526604,-0.023823726922273636
1772727596773625000,13.926625,-0.008857538923621178,0.021838415414094925,-0.0256563201546669
1772727596790970400,13.943970458984374,-0.02107483521103859,0.01695149764418602,-0.025045456364750862
1772727596808316000,13.96131591796875,-0.021685699000954628,0.01206457894295454,-0.021991131827235222
1772727596825661200,13.9786611328125,-0.012522728182375431,0.006566796451807022,-0.009773836471140385
1772727596843006500,13.99600634765625,-0.003359756199643016,0.009621120058000088,0.003665188793092966
1772727596860352000,14.01335205078125,-0.0027488914784044027,0.021227551624178886,-0.028099779039621353
1772727596877697500,14.030697509765625,-0.008857538923621178,0.01511890348047018,-0.029932374134659767
1772727596895042800,14.048042724609376,-0.008857538923621178,0.01511890348047018,-0.007941242307424545
1772727596912388000,14.06538818359375,-0.01435532234609127,0.015729768201708794,0
1772727596929733600,14.082733642578125,-0.016187917441129684,0.021227551624178886,-0.008552107028663158
1772727596947079000,14.100078857421876,-0.015577051788568497,0.024281874299049377,-0.023212861269712448
1772727596964424400,14.117424560546874,-0.007024944759905338,0.024892739951610565,-0.009773836471140385
1772727596981769700,14.134769775390625,0.006414080038666725,0.031001387163996696,0.014049889519810677
1772727596999115300,14.152115234375,0.010690134018659592,0.03894263133406639,0.0054977829568088055
1772727597016460500,14.16946044921875,0.003359756199643016,0.04321868345141411,-0.014660755172371864
1772727597033806000,14.18680615234375,-0.0027488914784044027,0.03283398225903511,-0.0256563201546669
1772727597051151400,14.2041513671875,-0.011300998739898205,0.0102319847792387,-0.021991131827235222
1772727597068497000,14.221496826171874,-0.016798781231045723,-0.0025961752980947495,-0.006719512399286032
1772727597085842200,14.23884228515625,-0.018631376326084137,-0.0038179049734026194,-0.01282816007733345
1772727597103187700,14.256187744140625,-0.015577051788568497,0.005345067009329796,-0.017715077847242355
1772727597120533000,14.273532958984376,-0.013133592903614044,0.007788525894284248,-0.03787361457943916
1772727597137878500,14.29087841796875,-0.011300998739898205,0.010842849500477314,-0.027488915249705315
1772727597155223800,14.308223876953125,-0.012522728182375431,0.010842849500477314,-0.024434590712189674
1772727597172569300,14.3255693359375,-0.01802051067352295,0.01511890348047018,-0.01893680728971958
1772727597189914600,14.34291455078125,-0.019853105768561363,0.02367101050913334,-0.02626718580722809
1772727597207260200,14.36026025390625,-0.01802051067352295,0.018784092739224434,-0.0256563201546669
1772727597224605400,14.37760546875,-0.007635809946805239,0.02367101050913334,-0.006719512399286032
1772727597241951000,14.394950927734374,-0.0009162971982732415,0.03649916872382164,-0.014049889519810677
1772727597259296300,14.412296142578125,-0.011911863461136818,0.03283398225903511,-0.034208428114652634
1772727597276641800,14.429641845703125,-0.022907428443431854,0.0206166859716177,-0.033597562462091446
1772727597293987000,14.446987060546874,-0.023518294095993042,0.008399390615522861,-0.023212861269712448
1772727597311332400,14.464332275390625,-0.01435532234609127,0.004734201822429895,-0.004276053514331579
1772727597328678000,14.481677978515625,-0.005803215317428112,0.01511890348047018,-0.009773836471140385
1772727597346023400,14.4990234375,-0.0027488914784044027,0.027336198836565018,-0.01649334840476513
1772727597363368700,14.51636865234375,-0.008246674202382565,0.028557928279042244,-0.03237583488225937
1772727597380714000,14.5337138671875,-0.0021380267571657896,0.025503603741526604,-0.01649334840476513
1772727597398059500,14.5510595703125,0.010079269297420979,0.02916879393160343,0.013439024798572063
1772727597415404800,14.56840478515625,0.006414080038666725,0.027947064489126205,-0.0030543238390237093
1772727597432750300,14.585750244140625,-0.011300998739898205,0.0206166859716177,-0.02260199747979641
1772727597450095600,14.603095703125,-0.025350889191031456,0.016340631991624832,-0.039706211537122726
1772727597467441200,14.620441162109374,-0.032681263983249664,0.005345067009329796,-0.0360410213470459
1772727597484786400,14.637786376953125,-0.010079269297420979,0.016340631991624832,-0.006108647678047419
1772727597502132000,14.655132080078126,0.007024944759905338,0.027336198836565018,0.002443459117785096
1772727597519477200,14.672477294921874,0.012522728182375431,0.0383317656815052,-0.009773836471140385
1772727597536822800,14.68982275390625,-0.003970621153712273,0.03711003437638283,-0.02932151034474373
1772727597554168000,14.70716796875,-0.02107483521103859,0.03222311660647392,-0.023823726922273636
1772727597571513600,14.724513671875,-0.02412915788590908,0.027947064489126205,-0.026878049597144127
1772727597588859000,14.74185888671875,-0.014966187067329884,0.027336198836565018,-0.003665188793092966
1772727597606204400,14.759204345703125,-0.00946840364485979,0.037720900028944016,-0.01649334840476513
1772727597623549700,14.7765498046875,-0.01740964688360691,0.037720900028944016,-0.021991131827235222
1772727597640895200,14.793895263671875,-0.025350889191031456,0.03649916872382164,-0.027488915249705315
1772727597658240500,14.811240478515625,-0.029626941308379173,0.03894263133406639,-0.025045456364750862
1772727597675586000,14.8285859375,-0.021685699000954628,0.03894263133406639,-0.01282816007733345
1772727597692931300,14.845931396484374,-0.008246674202382565,0.04810560122132301,-0.009773836471140385
1772727597710276900,14.86327685546875,0.0027488914784044027,0.05604684352874756,-0.010384701192378998
1772727597727622100,14.8806220703125,0.000305432389723137,0.05604684352874756,-0.025045456364750862
1772727597744967700,14.8979677734375,-0.0009162971982732415,0.043829549103975296,-0.01954767294228077
1772727597762313000,14.91531298828125,-0.005803215317428112,0.02611446939408779,-0.017715077847242355
1772727597779658200,14.932658203125,-0.0021380267571657896,0.02000582218170166,-0.003665188793092966
1772727597797003800,14.950003662109374,0.006414080038666725,0.022449281066656113,-0.01588248461484909
1772727597814349300,14.967349365234375,0.010079269297420979,0.024281874299049377,-0.01954767294228077
1772727597831694600,14.984694580078125,0.003359756199643016,0.021227551624178886,-0.034208428114652634
1772727597849040000,15.002039794921876,0.007635809946805239,0.019394956529140472,-0.010995565913617611
1772727597866385400,15.019385498046875,0.019242240116000175,0.024281874299049377,0.017104214057326317
1772727597883730700,15.036730712890625,0.01435532234609127,0.0334448479115963,-0.009773836471140385
1772727597901076200,15.054076171875,0.0009162971982732415,0.03894263133406639,-0.03481929376721382
1772727597918421500,15.07142138671875,-0.010690134018659592,0.03222311660647392,-0.02626718580722809
1772727597935767000,15.08876708984375,0.0009162971982732415,0.03711003437638283,0.014049889519810677
1772727597953112300,15.1061123046875,0.000305432389723137,0.0334448479115963,-0.001832594396546483
1772727597970457900,15.123457763671874,-0.006414080038666725,0.03222311660647392,-0.01588248461484909
1772727597987803100,15.14080322265625,-0.018631376326084137,0.0334448479115963,-0.04825831577181816
1772727598005148700,15.158148681640625,-0.019242240116000175,0.02367101050913334,-0.03909534588456154
1772727598022494000,15.175493896484374,-0.005192350596189499,0.02672533318400383,0.009162971749901772
1772727598039839500,15.192839599609375,0.003970621153712273,0.0383317656815052,-0.003665188793092966
1772727598057184800,15.210184814453125,-0.007024944759905338,0.04260781779885292,-0.023823726922273636
1772727598074530300,15.2275302734375,-0.018631376326084137,0.03649916872382164,-0.040317077189683914
1772727598091875600,15.24487548828125,-0.01740964688360691,0.030390523374080658,-0.02871064469218254
1772727598109221000,15.26222119140625,-0.008857538923621178,0.037720900028944016,-0.006108647678047419
1772727598126566400,15.27956640625,-0.011911863461136818,0.03894263133406639,-0.021991131827235222
1772727598143912000,15.296911865234375,-0.02412915788590908,0.03222311660647392,-0.036651886999607086
1772727598161257200,15.31425732421875,-0.02412915788590908,0.03283398225903511,-0.03481929376721382
1772727598178602800,15.331602783203126,-0.016187917441129684,0.025503603741526604,-0.010384701192378998
1772727598195948000,15.348947998046874,-0.013133592903614044,0.02672533318400383,-0.0054977829568088055
1772727598213293600,15.36629345703125,-0.016798781231045723,0.034666575491428375,-0.0256563201546669
1772727598230638800,15.383638916015625,-0.022907428443431854,0.03527744114398956,-0.02871064469218254
1772727598247984000,15.400984130859374,-0.02107483521103859,0.03283398225903511,-0.023823726922273636
1772727598265329700,15.41832958984375,-0.014966187067329884,0.02916879393160343,-0.0030543238390237093
1772727598282675200,15.43567529296875,-0.008857538923621178,0.03588830679655075,0.002443459117785096
1772727598300020500,15.4530205078125,-0.013744457624852657,0.03283398225903511,-0.0054977829568088055
1772727598317365800,15.47036572265625,-0.016798781231045723,0.034666575491428375,-0.014049889519810677
1772727598334711300,15.487711181640625,-0.016187917441129684,0.0334448479115963,-0.01282816007733345
1772727598352056600,15.505056640625,-0.01435532234609127,0.02977965772151947,-0.010995565913617611
1772727598369402000,15.522402099609375,-0.011300998739898205,0.028557928279042244,-0.002443459117785096
1772727598386747400,15.539747314453125,-0.015577051788568497,0.027947064489126205,-0.023823726922273636
1772727598404093000,15.557093017578126,-0.019853105768561363,0.025503603741526604,-0.008552107028663158
1772727598421438200,15.574438232421874,-0.007024944759905338,0.031612250953912735,-0.006719512399286032
1772727598438783700,15.59178369140625,0.004581485874950886,0.03222311660647392,0.006719512399286032
1772727598456129000,15.60912890625,0.013133592903614044,0.04199695214629173,0.000610864779446274
1772727598473474600,15.626474609375,0.005803215317428112,0.04321868345141411,-0.01893680728971958
1772727598490819800,15.64381982421875,-0.011911863461136818,0.03527744114398956,-0.034208428114652634
1772727598508165400,15.661165283203125,-0.01740964688360691,0.025503603741526604,-0.01588248461484909
1772727598525510700,15.6785107421875,0.0021380267571657896,0.0334448479115963,0.011606430634856224
1772727598542856200,15.695856201171875,0.022296564653515816,0.043829549103975296,0.011606430634856224
1772727598560201500,15.713201416015625,0.025350889191031456,0.054214250296354294,-0.0030543238390237093
1772727598577547000,15.730547119140626,0.008857538923621178,0.05299251899123192,-0.037262752652168274
1772727598594892300,15.747892333984375,-0.008857538923621178,0.044440411031246185,-0.02932151034474373
1772727598612237800,15.76523779296875,-0.016187917441129684,0.040775224566459656,-0.01954767294228077
1772727598629583000,15.7825830078125,-0.016798781231045723,0.04505127668380737,-0.004276053514331579
1772727598646928400,15.799928466796874,-0.008246674202382565,0.05299251899123192,0.000610864779446274
1772727598664274000,15.81727392578125,-0.004581485874950886,0.056657709181308746,-0.006719512399286032
1772727598681619500,15.834619384765626,-0.004581485874950886,0.05604684352874756,-0.018325943499803543
1772727598698964700,15.85196484375,-0.007635809946805239,0.050549060106277466,-0.017104214057326317
1772727598716310000,15.86931005859375,-0.014966187067329884,0.044440411031246185,-0.01893680728971958
1772727598733655600,15.886655517578125,-0.02412915788590908,0.03405570983886719,-0.03298669680953026
1772727598751001000,15.9040009765625,-0.024740023538470268,0.02672533318400383,-0.023823726922273636
1772727598768346400,15.921346435546875,-0.008857538923621178,0.03222311660647392,0.007941242307424545
1772727598785691600,15.938691650390625,0.0027488914784044027,0.04199695214629173,0.004886918235570192
1772727598803037200,15.956037109375,-0.008246674202382565,0.04505127668380737,-0.017715077847242355
1772727598820382500,15.973382568359375,-0.026572618633508682,0.040775224566459656,-0.033597562462091446
1772727598837728000,15.99072802734375,-0.03390299528837204,0.03588830679655075,-0.014660755172371864
1772727598855073300,16.0080732421875,-0.016798781231045723,0.04016435891389847,0.001832594396546483
1772727598872418800,16.025418701171876,-0.011911863461136818,0.04260781779885292,0.0054977829568088055
1772727598889764000,16.04276416015625,-0.01435532234609127,0.0487164668738842,-0.004886918235570192
1772727598907109600,16.060109619140626,-0.013744457624852657,0.04505127668380737,-0.003665188793092966
1772727598924455000,16.077454833984376,-0.010690134018659592,0.04627300798892975,-0.002443459117785096
1772727598941800400,16.094800537109375,-0.013744457624852657,0.04321868345141411,-0.017104214057326317
1772727598959145700,16.112145751953125,-0.023518294095993042,0.03711003437638283,-0.024434590712189674
1772727598976491300,16.1294912109375,-0.029626941308379173,0.02916879393160343,-0.025045456364750862
1772727598993836500,16.14683642578125,-0.02107483521103859,0.03527744114398956,0.007941242307424545
1772727599011182000,16.16418212890625,-0.007635809946805239,0.047494735568761826,0.0054977829568088055
1772727599028527400,16.18152734375,-0.008857538923621178,0.056657709181308746,-0.008552107028663158
1772727599045873000,16.198872802734375,-0.010079269297420979,0.0591011680662632,-0.034208428114652634
1772727599063218200,16.21621826171875,-0.014966187067329884,0.04566214233636856,-0.020158538594841957
1772727599080563700,16.233563720703124,-0.011911863461136818,0.040775224566459656,-0.012217295356094837
1772727599097909000,16.250908935546875,-0.015577051788568497,0.04016435891389847,0.0030543238390237093
1772727599115254300,16.268254150390625,-0.010079269297420979,0.051159925758838654,-0.0030543238390237093
1772727599132599800,16.285599853515624,-0.004581485874950886,0.05604684352874756,-0.013439024798572063
1772727599149945000,16.302945068359374,0.003359756199643016,0.060322895646095276,-0.012217295356094837
1772727599167290600,16.32029052734375,0.0015271619195118546,0.04932733252644539,-0.010995565913617611
1772727599184636000,16.337635986328124,-0.007635809946805239,0.04016435891389847,-0.006108647678047419
1772727599201981400,16.3549814453125,-0.006414080038666725,0.044440411031246185,-0.015271619893610477
1772727599219326700,16.37232666015625,0.0009162971982732415,0.050549060106277466,0.008552107028663158
1772727599236672300,16.38967236328125,0.0027488914784044027,0.05177079141139984,-0.002443459117785096
1772727599254017500,16.407017578125,0.003359756199643016,0.051159925758838654,-0.001221729558892548
1772727599271363000,16.424363037109377,-0.007635809946805239,0.046883873641490936,-0.02871064469218254
1772727599288708400,16.441708251953123,-0.022296564653515816,0.03711003437638283,-0.010995565913617611
1772727599306054000,16.459053955078126,-0.019242240116000175,0.03649916872382164,-0.008552107028663158
1772727599323399200,16.476399169921876,-0.013133592903614044,0.03588830679655075,0.003665188793092966
1772727599340744700,16.49374462890625,-0.003359756199643016,0.04810560122132301,-0.007941242307424545
1772727599358090000,16.511090087890626,-0.004581485874950886,0.050549060106277466,-0.007330377586185932
1772727599375435500,16.528435546875,-0.00946840364485979,0.04932733252644539,-0.014049889519810677
1772727599392780800,16.54578076171875,-0.016798781231045723,0.03588830679655075,-0.001221729558892548
1772727599410126300,16.563126220703126,-0.011300998739898205,0.041386090219020844,0.002443459117785096
1772727599427471600,16.5804716796875,-0.00946840364485979,0.040775224566459656,0.008552107028663158
1772727599444817200,16.597817138671875,-0.011300998739898205,0.04199695214629173,-0.000610864779446274
1772727599462162400,16.615162353515625,-0.007024944759905338,0.046883873641490936,-0.0054977829568088055
1772727599479507700,16.6325078125,-0.003359756199643016,0.050549060106277466,0.006719512399286032
1772727599496853200,16.649853271484375,-0.016798781231045723,0.040775224566459656,-0.002443459117785096
1772727599514198800,16.66719873046875,-0.011911863461136818,0.03955349326133728,0.01588248461484909
1772727599531544000,16.6845439453125,-0.008857538923621178,0.03711003437638283,0.01588248461484909
1772727599548889300,16.701889404296875,-0.005803215317428112,0.04505127668380737,0.012217295356094837
1772727599566235000,16.71923486328125,-0.014966187067329884,0.04810560122132301,-0.015271619893610477
1772727599583580200,16.736580078125,-0.02412915788590908,0.04199695214629173,-0.009773836471140385
1772727599600925700,16.75392578125,-0.02779434807598591,0.0334448479115963,-0.000610864779446274
1772727599618271000,16.77127099609375,-0.022296564653515816,0.03711003437638283,0.01649334840476513
1772727599635616500,16.788616455078124,-0.013744457624852657,0.043829549103975296,0.01588248461484909
1772727599652961800,16.8059619140625,-0.008246674202382565,0.05849030241370201,0.009162971749901772
1772727599670307300,16.823307373046877,-0.011911863461136818,0.0591011680662632,-0.01282816007733345
1772727599687652600,16.840652587890624,-0.02779434807598591,0.04627300798892975,-0.017104214057326317
1772727599704998100,16.857998046875,-0.024740023538470268,0.03894263133406639,0.003665188793092966
1772727599722343400,16.875343505859377,-0.013744457624852657,0.04260781779885292,0.015271619893610477
1772727599739689000,16.89268896484375,0.0015271619195118546,0.05299251899123192,0.025045456364750862
1772727599757034200,16.9100341796875,-0.000305432389723137,0.050549060106277466,-0.004886918235570192
1772727599774379800,16.9273798828125,0.003359756199643016,0.05482511222362518,-0.003665188793092966
1772727599791725000,16.94472509765625,-0.005192350596189499,0.04993819445371628,-0.006108647678047419
1772727599809070600,16.962070556640626,-0.016187917441129684,0.04627300798892975,-0.000610864779446274
1772727599826415900,16.979415771484376,-0.012522728182375431,0.043829549103975296,0.012217295356094837
1772727599843761400,16.996761474609375,-0.000305432389723137,0.04932733252644539,0.020158538594841957
1772727599861106700,17.014106689453126,0.00946840364485979,0.05971203371882439,0.001832594396546483
1772727599878452200,17.0314521484375,0.00946840364485979,0.0639880821108818,0.002443459117785096
1772727599895797500,17.048797607421875,-0.008246674202382565,0.0487164668738842,-0.0054977829568088055
1772727599913142800,17.066142822265626,-0.014966187067329884,0.03894263133406639,0.014049889519810677
1772727599930488300,17.08348828125,-0.015577051788568497,0.04321868345141411,0.014660755172371864
1772727599947833600,17.10083349609375,-0.02107483521103859,0.04016435891389847,-0.004276053514331579
1772727599965179100,17.11817919921875,-0.016187917441129684,0.03955349326133728,-0.004276053514331579
1772727599982524400,17.1355244140625,-0.0009162971982732415,0.04260781779885292,0.014049889519810677
1772727599999870000,17.152869873046875,0.011300998739898205,0.04993819445371628,0.03237583488225937
1772727600017215200,17.17021533203125,0.013133592903614044,0.06154462695121765,0.025045456364750862
1772727600034560800,17.187560791015624,-0.006414080038666725,0.053603384643793106,-0.0054977829568088055
1772727600051906000,17.204906005859375,-0.021685699000954628,0.0334448479115963,0.006719512399286032
1772727600069251600,17.22225146484375,-0.01740964688360691,0.02977965772151947,0.024434590712189674
1772727600086596900,17.239596923828124,-0.007024944759905338,0.04016435891389847,0.024434590712189674
1772727600103942400,17.2569423828125,-0.010690134018659592,0.04321868345141411,0.0030543238390237093
1772727600121287700,17.27428759765625,-0.006414080038666725,0.04566214233636856,0.009162971749901772
1772727600138633200,17.29163330078125,0.0015271619195118546,0.044440411031246185,0.017715077847242355
1772727600155978500,17.308978515625,-0.0009162971982732415,0.04260781779885292,0.029932374134659767
1772727600173324000,17.326323974609377,-0.0015271619195118546,0.04932733252644539,0.023212861269712448
1772727600190669300,17.34366943359375,-0.015577051788568497,0.04566214233636856,0
1772727600208014800,17.361014892578126,-0.025350889191031456,0.041386090219020844,0.004886918235570192
1772727600225360100,17.378360107421877,-0.015577051788568497,0.041386090219020844,0.02626718580722809
1772727600242705700,17.39570556640625,-0.007024944759905338,0.04993819445371628,0.02626718580722809
1772727600260051000,17.413051025390626,-0.011300998739898205,0.04505127668380737,0.000610864779446274
1772727600277396200,17.430396240234376,-0.014966187067329884,0.040775224566459656,0.002443459117785096
1772727600294741800,17.44774169921875,-0.011911863461136818,0.03955349326133728,0.003665188793092966
1772727600312087000,17.465087158203126,-0.011300998739898205,0.04627300798892975,0.01893680728971958
1772727600329432600,17.4824326171875,-0.008246674202382565,0.04993819445371628,0.014049889519810677
1772727600346777900,17.49977783203125,-0.004581485874950886,0.050549060106277466,0.014049889519810677
1772727600364123400,17.517123291015626,-0.000305432389723137,0.04810560122132301,0.011606430634856224
1772727600381468700,17.53446875,-0.000305432389723137,0.050549060106277466,0.021380268037319183
1772727600398814200,17.551814208984375,-0.013133592903614044,0.046883873641490936,-0.001221729558892548
1772727600416159500,17.569159423828125,-0.024740023538470268,0.03711003437638283,-0.010384701192378998
1772727600433505000,17.586505126953124,-0.011300998739898205,0.03955349326133728,0.021991131827235222
1772727600450850300,17.603850341796875,-0.000305432389723137,0.05177079141139984,0.020769402384757996
1772727600468195800,17.62119580078125,0.0015271619195118546,0.056657709181308746,0.01588248461484909
1772727600485541000,17.638541015625,-0.0015271619195118546,0.04627300798892975,0.007330377586185932
1772727600502886700,17.65588671875,0.0015271619195118546,0.046883873641490936,0.010384701192378998
1772727600520232000,17.67323193359375,-0.0009162971982732415,0.046883873641490936,0.017715077847242355
1772727600537577500,17.690577392578124,-0.013744457624852657,0.04505127668380737,-0.001832594396546483
1772727600554922800,17.7079228515625,-0.022907428443431854,0.037720900028944016,-0.008552107028663158
1772727600572268000,17.72526806640625,-0.014966187067329884,0.031001387163996696,0.012217295356094837
1772727600589613600,17.742613525390624,0.0027488914784044027,0.03649916872382164,0.037262752652168274
1772727600606959000,17.759958984375,0.015577051788568497,0.056657709181308746,0.033597562462091446
1772727600624304400,17.777304443359377,0.008246674202382565,0.06276635825634003,-0.000610864779446274
1772727600641649700,17.794649658203124,-0.005192350596189499,0.05238165333867073,-0.009773836471140385
1772727600658995200,17.8119951171875,-0.008857538923621178,0.0383317656815052,0.017104214057326317
1772727600676340500,17.829340576171877,-0.0015271619195118546,0.03527744114398956,0.040317077189683914
1772727600693686000,17.84668603515625,0.007024944759905338,0.04810560122132301,0.034208428114652634
1772727600711031300,17.86403125,0.005803215317428112,0.051159925758838654,0.004886918235570192
1772727600728376800,17.881376953125,0.003970621153712273,0.04505127668380737,-0.004886918235570192
1772727600745722000,17.89872216796875,0.006414080038666725,0.043829549103975296,0.023823726922273636
1772727600763067600,17.916067626953126,0.0015271619195118546,0.04321868345141411,0.023212861269712448
1772727600780413000,17.933412841796876,-0.008857538923621178,0.04321868345141411,0.023212861269712448
1772727600797758500,17.950758544921875,-0.013744457624852657,0.04199695214629173,0.020158538594841957
1772727600815103700,17.968103759765626,-0.00946840364485979,0.047494735568761826,0.014660755172371864
1772727600832449000,17.985448974609376,-0.007024944759905338,0.050549060106277466,0.008552107028663158
1772727600849794600,18.002794677734375,-0.013133592903614044,0.04627300798892975,0.001832594396546483
1772727600867140000,18.02014013671875,-0.022907428443431854,0.037720900028944016,0.010384701192378998
1772727600884485400,18.0374853515625,-0.024740023538470268,0.04016435891389847,0.01588248461484909
1772727600901830700,18.05483056640625,-0.022907428443431854,0.041386090219020844,0.015271619893610477
1772727600919176200,18.07217626953125,-0.02779434807598591,0.03955349326133728,0
1772727600936521500,18.089521484375,-0.022907428443431854,0.041386090219020844,-0.006719512399286032
1772727600953867000,18.106866943359375,-0.010690134018659592,0.040775224566459656,0.01588248461484909
1772727600971212300,18.12421240234375,0.0027488914784044027,0.046883873641490936,0.03298669680953026
1772727600988557800,18.141557861328124,0.005803215317428112,0.05543597787618637,0.01649334840476513
1772727601005903000,18.158903076171875,-0.0009162971982732415,0.05299251899123192,0.01282816007733345
1772727601023248600,18.17624853515625,-0.007635809946805239,0.044440411031246185,0.006719512399286032
1772727601040594000,18.193593994140624,-0.006414080038666725,0.044440411031246185,0.023212861269712448
1772727601057939500,18.210939453125,0.000305432389723137,0.0487164668738842,0.025045456364750862
1772727601075284700,18.22828466796875,-0.005192350596189499,0.046883873641490936,0.004886918235570192
1772727601092630000,18.245630126953124,-0.005803215317428112,0.047494735568761826,0.013439024798572063
1772727601109975600,18.2629755859375,0.0015271619195118546,0.0487164668738842,0.013439024798572063
1772727601127321000,18.280321044921877,0.007635809946805239,0.0487164668738842,0.031154103577136993
1772727601144666400,18.297666259765624,0.018631376326084137,0.054214250296354294,0.028099779039621353
1772727601162011600,18.31501171875,0.010079269297420979,0.054214250296354294,-0.000610864779446274
1772727601179357200,18.332357177734377,-0.005803215317428112,0.054214250296354294,0.011606430634856224
1772727601196702500,18.349702392578124,-0.016187917441129684,0.04321868345141411,0.000610864779446274
1772727601214048000,18.367048095703126,-0.023518294095993042,0.028557928279042244,0.017104214057326317
1772727601231393300,18.384393310546876,-0.012522728182375431,0.041386090219020844,0.015271619893610477
1772727601248738800,18.40173876953125,-0.003970621153712273,0.047494735568761826,0.01588248461484909
1772727601266084000,18.419083984375,0.004581485874950886,0.054214250296354294,0.006719512399286032
1772727601283429400,18.436429443359376,0.00946840364485979,0.053603384643793106,0.010384701192378998
1772727601300775000,18.45377490234375,0.007635809946805239,0.050549060106277466,0.024434590712189674
1772727601318120400,18.471120361328126,-0.0009162971982732415,0.04932733252644539,0.01282816007733345
1772727601335465700,18.4884658203125,-0.00946840364485979,0.04810560122132301,-0.000610864779446274
1772727601352811000,18.50581103515625,-0.01435532234609127,0.040775224566459656,-0.004276053514331579
1772727601370156500,18.523156494140625,-0.011911863461136818,0.02916879393160343,0.006108647678047419
1772727601387501800,18.540501708984376,-0.000305432389723137,0.041386090219020844,0.0256563201546669
1772727601404847400,18.557847412109375,0.0027488914784044027,0.056657709181308746,0.013439024798572063
1772727601422192600,18.575192626953125,-0.003359756199643016,0.057268574833869934,-0.004276053514331579
1772727601439538200,18.5925380859375,-0.006414080038666725,0.050549060106277466,0.007941242307424545
1772727601456883500,18.609883544921875,-0.00946840364485979,0.04321868345141411,0.015271619893610477
1772727601474229000,18.62722900390625,-0.014966187067329884,0.04199695214629173,0.01893680728971958
1772727601491574300,18.64457421875,-0.01802051067352295,0.041386090219020844,0.009162971749901772
1772727601508919800,18.661919921875,-0.015577051788568497,0.04199695214629173,-0.001221729558892548
1772727601526265000,18.67926513671875,-0.007024944759905338,0.050549060106277466,0.012217295356094837
1772727601543610400,18.6966103515625,-0.0009162971982732415,0.05177079141139984,0.0256563201546669
1772727601560956000,18.713955810546874,-0.0021380267571657896,0.050549060106277466,0.01954767294228077
1772727601578301400,18.731301513671873,-0.004581485874950886,0.047494735568761826,0.017104214057326317
1772727601595646700,18.748646728515624,-0.003970621153712273,0.04627300798892975,0.015271619893610477
1772727601612992000,18.765991943359374,-0.006414080038666725,0.046883873641490936,0.0054977829568088055
1772727601630337500,18.783337646484377,-0.008857538923621178,0.041386090219020844,0.017715077847242355
1772727601647682800,18.800682861328124,-0.008857538923621178,0.037720900028944016,0.023823726922273636
1772727601665028400,18.8180283203125,-0.005192350596189499,0.03711003437638283,0.023212861269712448
1772727601682373600,18.83537353515625,-0.0009162971982732415,0.046883873641490936,0.015271619893610477
1772727601699719200,18.85271923828125,0.0021380267571657896,0.04932733252644539,0.012217295356094837
1772727601717064400,18.870064453125,0.003359756199643016,0.043829549103975296,0.018325943499803543
1772727601734410000,18.887409912109376,0.011300998739898205,0.04321868345141411,0.04276053607463837
1772727601751755300,18.90475537109375,0.019853105768561363,0.04993819445371628,0.04459312930703163
1772727601769100800,18.922100830078126,0.01802051067352295,0.04993819445371628,0.037262752652168274
1772727601786446000,18.939446044921876,0.010079269297420979,0.04810560122132301,0.01588248461484909
1772727601803791400,18.956791259765627,-0.0009162971982732415,0.05177079141139984,0.0054977829568088055
1772727601821137000,18.974136962890626,-0.014966187067329884,0.05787943676114082,0.006719512399286032
1772727601838482400,18.991482421875,-0.01802051067352295,0.05238165333867073,0.01282816007733345
1772727601855827700,19.00882763671875,-0.02107483521103859,0.05543597787618637,0.010384701192378998
1772727601873173000,19.026173095703125,-0.007024944759905338,0.05177079141139984,0.033597562462091446
1772727601890518500,19.0435185546875,0.0009162971982732415,0.06520981341600418,0.03543015569448471
1772727601907863800,19.06086376953125,-0.016798781231045723,0.06337722390890121,-0.012217295356094837
1772727601925209300,19.078209228515625,-0.04306596517562866,0.04016435891389847,-0.034208428114652634
1772727601942554600,19.0955546875,-0.029626941308379173,0.03222311660647392,0.0030543238390237093
1772727601959900200,19.112900146484375,-0.025350889191031456,0.04016435891389847,0.033597562462091446
1772727601977245400,19.130245361328125,-0.0021380267571657896,0.03649916872382164,0.0256563201546669
1772727601994591000,19.147591064453124,0.008857538923621178,0.05482511222362518,0.0409279391169548
1772727602011936300,19.164936279296874,0.019242240116000175,0.07742711156606674,-0.010995565913617611
1772727602029281800,19.18228173828125,0.013744457624852657,0.06582067906856537,0.007330377586185932
1772727602046627000,19.199626953125,-0.0015271619195118546,0.04566214233636856,0.015271619893610477
1772727602063972400,19.216972412109374,-0.026572618633508682,0.0334448479115963,-0.003665188793092966
1772727602081318000,19.23431787109375,-0.03756818547844887,0.024281874299049377,0.013439024798572063
1772727602098663200,19.2516630859375,-0.02107483521103859,0.031612250953912735,0.004886918235570192
1772727602116008700,19.2690087890625,0.004581485874950886,0.040775224566459656,0.027488915249705315
1772727602133354000,19.28635400390625,0.005192350596189499,0.053603384643793106,-0.006719512399286032
1772727602150699500,19.303699462890624,-0.010079269297420979,0.04260781779885292,0.013439024798572063
1772727602168044800,19.321044921875,-0.018631376326084137,0.0383317656815052,0.01588248461484909
1772727602185390300,19.338390380859376,-0.028405211865901947,0.0334448479115963,0.006719512399286032
1772727602202735600,19.355735595703123,-0.029626941308379173,0.03649916872382164,0.004886918235570192
1772727602220081000,19.373080810546874,-0.02779434807598591,0.03283398225903511,0.006108647678047419
1772727602237426400,19.390426513671876,-0.015577051788568497,0.0334448479115963,0.027488915249705315
1772727602254772000,19.40777197265625,-0.007024944759905338,0.04505127668380737,0.033597562462091446
1772727602272117200,19.4251171875,-0.011911863461136818,0.04260781779885292,0.023212861269712448
1772727602289462500,19.442462646484376,-0.0308486707508564,0.03711003437638283,-0.000610864779446274
1772727602306808000,19.45980810546875,-0.02779434807598591,0.030390523374080658,0.010995565913617611
1772727602324153300,19.4771533203125,-0.00946840364485979,0.03649916872382164,0.03909534588456154
1772727602341499000,19.494498779296876,0.011911863461136818,0.047494735568761826,0.04825831577181816
1772727602358844200,19.51184423828125,0.014966187067329884,0.0487164668738842,0.030543239787220955
1772727602376189700,19.529189697265625,0.0015271619195118546,0.04199695214629173,0.021380268037319183
1772727602393535000,19.546534912109376,-0.004581485874950886,0.03955349326133728,0.02260199747979641
1772727602410880500,19.563880615234375,-0.0027488914784044027,0.03955349326133728,0.023212861269712448
1772727602428225800,19.581225830078125,0.003359756199643016,0.03588830679655075,0.03237583488225937
1772727602445571300,19.5985712890625,0.015577051788568497,0.04810560122132301,0.04214967042207718
1772727602462916600,19.61591650390625,0.008857538923621178,0.053603384643793106,0.014049889519810677
1772727602480262000,19.633261962890625,0.0009162971982732415,0.04810560122132301,0.01893680728971958
1772727602497607400,19.650607421875,-0.007024944759905338,0.04321868345141411,0.017715077847242355
1772727602514952700,19.66795263671875,-0.008246674202382565,0.041386090219020844,0.01954767294228077
1772727602532298200,19.68529833984375,-0.013133592903614044,0.04505127668380737,0.009162971749901772
1772727602549643500,19.7026435546875,-0.016798781231045723,0.043829549103975296,0.002443459117785096
1772727602566989000,19.719989013671874,-0.013133592903614044,0.044440411031246185,0.008552107028663158
1772727602584334300,19.737334228515625,-0.005192350596189499,0.043829549103975296,0.01954767294228077
1772727602601680000,19.754679931640624,0.0009162971982732415,0.046883873641490936,0.0360410213470459
1772727602619025200,19.772025146484374,0.003359756199643016,0.05543597787618637,0.020769402384757996
1772727602636370400,19.789370361328125,-0.0027488914784044027,0.054214250296354294,0.009162971749901772
1772727602653716000,19.806716064453123,-0.006414080038666725,0.04505127668380737,0.004886918235570192
1772727602671061200,19.824061279296874,-0.0027488914784044027,0.04993819445371628,0.02626718580722809
1772727602688406800,19.84140673828125,0.0021380267571657896,0.051159925758838654,0.02932151034474373
1772727602705752000,19.858751953125,0.0027488914784044027,0.04993819445371628,0.03787361457943916
1772727602723097600,19.87609765625,-0.0021380267571657896,0.0487164668738842,0.01588248461484909
1772727602740443000,19.89344287109375,-0.003970621153712273,0.05238165333867073,0.017715077847242355
1772727602757788400,19.910788330078127,-0.013133592903614044,0.04993819445371628,-0.003665188793092966
1772727602775133700,19.9281337890625,-0.022907428443431854,0.03283398225903511,0.001221729558892548
1772727602792479200,19.945479248046876,-0.021685699000954628,0.031612250953912735,0.017104214057326317
1772727602809824500,19.962824462890627,-0.018631376326084137,0.03649916872382164,0.023823726922273636
1772727602827169800,19.980169677734374,-0.0204639695584774,0.044440411031246185,0.01893680728971958
1772727602853188000,20.00618798828125,-0.021685699000954628,0.04321868345141411,0.004886918235570192
1772727602870533400,20.023533447265624,-0.023518294095993042,0.040775224566459656,0.010384701192378998
1772727602887879000,20.04087890625,-0.01435532234609127,0.04566214233636856,0.021380268037319183
1772727602905224200,20.05822412109375,-0.005192350596189499,0.046883873641490936,0.027488915249705315
1772727602922569700,20.07556982421875,-0.007635809946805239,0.04932733252644539,0.026878049597144127
1772727602939915000,20.0929150390625,-0.013744457624852657,0.047494735568761826,0.023823726922273636
1772727602957260300,20.11026025390625,-0.019242240116000175,0.047494735568761826,0.017104214057326317
1772727602974605800,20.127605712890624,-0.021685699000954628,0.04566214233636856,0.014660755172371864
1772727602991951000,20.144951171875,-0.011911863461136818,0.04016435891389847,0.015271619893610477
1772727603009296600,20.162296630859377,-0.005803215317428112,0.037720900028944016,0.026878049597144127
1772727603026642000,20.179641845703124,-0.013744457624852657,0.0383317656815052,0.033597562462091446
1772727603043987500,20.196987548828126,-0.005192350596189499,0.046883873641490936,0.018325943499803543
1772727603061332700,20.214332763671877,-0.015577051788568497,0.04566214233636856,0.012217295356094837
1772727603078678300,20.23167822265625,-0.010079269297420979,0.04627300798892975,0.023823726922273636
1772727603096023600,20.2490234375,-0.00946840364485979,0.047494735568761826,0.007330377586185932
1772727603113368800,20.266368896484376,-0.011911863461136818,0.04993819445371628,0.007941242307424545
1772727603130714400,20.28371435546875,-0.013133592903614044,0.04993819445371628,0.012217295356094837
1772727603148059600,20.3010595703125,-0.013744457624852657,0.04932733252644539,0
1772727603165405200,20.3184052734375,-0.012522728182375431,0.04627300798892975,0.006108647678047419
1772727603182750500,20.33575048828125,-0.008857538923621178,0.047494735568761826,0.021380268037319183
1772727603200096000,20.353095947265626,-0.004581485874950886,0.04932733252644539,0.027488915249705315
1772727603217441300,20.370441162109376,-0.003359756199643016,0.0487164668738842,0.01893680728971958
1772727603234786800,20.387786865234375,-0.005192350596189499,0.04566214233636856,0.01588248461484909
1772727603252132000,20.405132080078126,-0.008857538923621178,0.04260781779885292,0.010384701192378998
1772727603269477400,20.422477294921876,-0.006414080038666725,0.047494735568761826,0.010384701192378998
1772727603286823000,20.439822998046875,-0.011911863461136818,0.04505127668380737,0.007330377586185932
1772727603304168200,20.457168212890625,-0.015577051788568497,0.046883873641490936,0.004886918235570192
1772727603321513700,20.474513671875,-0.011911863461136818,0.043829549103975296,0.004886918235570192
1772727603338859000,20.49185888671875,-0.0015271619195118546,0.04627300798892975,0.0360410213470459
1772727603356204500,20.50920458984375,-0.000305432389723137,0.054214250296354294,0.0054977829568088055
1772727603373549800,20.5265498046875,-0.011300998739898205,0.047494735568761826,0.010384701192378998
1772727603390895000,20.54389501953125,-0.0204639695584774,0.047494735568761826,-0.006108647678047419
1772727603408240600,20.56124072265625,-0.025350889191031456,0.040775224566459656,0.006719512399286032
1772727603425586000,20.5785859375,-0.013744457624852657,0.043829549103975296,0.017715077847242355
1772727603442931500,20.595931396484374,-0.008857538923621178,0.044440411031246185,0.013439024798572063
1772727603460276700,20.61327685546875,-0.011911863461136818,0.04993819445371628,0.002443459117785096
1772727603477622300,20.630622314453124,-0.0204639695584774,0.040775224566459656,-0.009162971749901772
1772727603494967600,20.647967529296874,-0.025961752980947495,0.0383317656815052,-0.001221729558892548
1772727603512313000,20.66531298828125,-0.019242240116000175,0.04016435891389847,0.018325943499803543
