time,seconds_elapsed,z,y,x
1772727582945789400,0.09878955078125,3.014956474304199,8.432307243347168,2.1343977451324463
1772727582963134700,0.116134765625,2.7589244842529297,8.439485549926758,2.0961127281188965
1772727582980480300,0.133480224609375,2.8761727809906006,8.616554260253906,1.8711873292922974
1772727582997825500,0.150825439453125,2.799602508544922,8.93240737915039,1.2179467678070068
1772727583015170800,0.1681708984375,2.8139593601226807,9.011369705200195,0.7896314859390259
1772727583032516000,0.18551611328125,3.129812002182007,8.58784008026123,0.5383850932121277
1772727583049861600,0.202861572265625,3.507878065109253,8.0350980758667,0.4043870270252228
1772727583067207000,0.22020703125,3.641875982284546,7.680960655212402,-0.009571290574967861
1772727583084552400,0.237552490234375,3.6227335929870605,7.908278942108154,-0.4977070987224579
1772727583101897700,0.254897705078125,2.9168508052825928,8.458627700805664,-1.100698471069336
1772727583119243000,0.272242919921875,2.3880369663238525,8.970691680908203,-1.00259268283844
1772727583136588500,0.289588623046875,2.3401806354522705,9.315258979797363,-0.22971096634864807
1772727583153933800,0.306933837890625,2.3976082801818848,9.241081237792969,0.6245267391204834
1772727583171279000,0.324279052734375,2.691925525665283,9.176474571228027,1.00259268283844
1772727583188624600,0.341624755859375,2.7038896083831787,9.372686386108398,0.6963114142417908
1772727583205970000,0.358969970703125,1.919043779373169,10.162318229675293,0.6891329288482666
1772727583223315200,0.376315185546875,2.218146562576294,10.26760196685791,1.4811571836471558
1772727583240660700,0.39366064453125,2.53399920463562,9.686145782470703,2.2755744457244873
1772727583258006000,0.411006103515625,2.5459632873535156,10.552348136901855,2.0482561588287354
1772727583275351300,0.428351318359375,2.6967110633850098,11.2247314453125,1.459621787071228
1772727583292696800,0.44569677734375,3.022135019302368,11.11466121673584,0.7154539823532104
1772727583310042000,0.4630419921875,4.015156269073486,10.219745635986328,0.43549370765686035
1772727583327387400,0.480387451171875,3.8500516414642334,9.083154678344727,0.275174617767334
1772727583344733000,0.49773291015625,4.00319242477417,8.630910873413086,0.07417750358581543
1772727583362078200,0.515078125,3.7782669067382812,8.240880966186523,0.040677983313798904
1772727583379423500,0.532423583984375,3.8261234760284424,7.534998416900635,0.6484549641609192
1772727583396769000,0.54976904296875,2.550748825073242,8.042277336120605,1.007378339767456
1772727583414114300,0.5671142578125,1.2035897970199585,9.114261627197266,1.730010747909546
1772727583431459600,0.58445947265625,0.6508477330207825,9.736394882202148,2.1678972244262695
1772727583448805000,0.60180517578125,0.4019941985607147,9.281759262084961,2.0673987865448
1772727583466150400,0.619150390625,0.698704183101654,8.252845764160156,2.1607189178466797
1772727583483495700,0.63649560546875,0.7824530005455017,8.350951194763184,1.730010747909546
1772727583500841200,0.65384130859375,0.7537391185760498,8.128418922424316,1.3567304611206055
1772727583518186500,0.6711865234375,0.36610186100006104,7.848458290100098,2.4646072387695312
1772727583535531800,0.68853173828125,-0.4905286431312561,8.374878883361816,3.6921253204345703
1772727583552877300,0.705877197265625,-0.8135597109794617,8.877371788024902,4.043870449066162
1772727583570222600,0.72322265625,-1.0145567655563354,9.638289451599121,4.254438877105713
1772727583587568000,0.740568115234375,-1.1078768968582153,9.875179290771484,3.957728624343872
1772727583604913400,0.757913330078125,-0.36610186100006104,9.236295700073242,4.280759811401367
1772727583622258700,0.7752587890625,-0.23688943684101105,9.353543281555176,5.0464630126953125
1772727583639604200,0.792604248046875,0.1579262912273407,8.93240737915039,4.993820667266846
1772727583656949500,0.809949462890625,-0.14117653667926788,8.870193481445312,4.981856822967529
1772727583674294800,0.827294677734375,-0.5599204897880554,9.415757179260254,5.706881999969482
1772727583691640300,0.844640380859375,-0.5551348328590393,8.164310455322266,6.881757736206055
1772727583708985600,0.861985595703125,-1.9262222051620483,9.198010444641113,6.620940208435059
1772727583726331000,0.879330810546875,-1.8352949619293213,10.222138404846191,5.656632900238037
1772727583743676400,0.896676513671875,-0.8638089895248413,9.564111709594727,4.957928657531738
1772727583761021700,0.914021728515625,-0.24406790733337402,7.494320392608643,5.111069202423096
1772727583778367000,0.931366943359375,-1.1318050622940063,6.2500529289245605,5.4867424964904785
1772727583795712500,0.94871240234375,-2.304288148880005,6.38883638381958,6.116054534912109
1772727583813057800,0.966057861328125,-2.359323024749756,5.072783946990967,5.5345988273620605
1772727583830403000,0.983403076171875,-3.651447296142578,6.640082836151123,5.529813289642334
1772727583847748600,1.00074853515625,-4.529613494873047,9.391828536987305,5.326423168182373
1772727583865094000,1.018093994140625,-5.19242525100708,10.305887222290039,4.718646049499512
1772727583882439200,1.035439208984375,-4.362115859985352,8.547162055969238,4.371686935424805
1772727583899784700,1.05278466796875,-4.271188259124756,6.329015731811523,2.9168508052825928
1772727583917130000,1.0701298828125,-2.9623143672943115,3.7974095344543457,1.9716858863830566
1772727583934475300,1.087475341796875,-3.665804386138916,3.2997024059295654,1.2394821643829346
1772727583951820800,1.10482080078125,-3.7974095344543457,5.077569484710693,2.746960401535034
1772727583969166000,1.122166015625,-5.424529075622559,7.671389579772949,3.6873397827148438
1772727583986511400,1.139511474609375,-5.560919761657715,7.594819068908691,2.6632115840911865
1772727584003857000,1.15685693359375,-4.206582069396973,5.898307800292969,2.3856441974639893
1772727584021202200,1.1742021484375,-3.4791641235351562,2.053041934967041,1.8687944412231445
1772727584038547700,1.191547607421875,-4.565505504608154,5.491528034210205,0.7513462901115417
1772727584055893000,1.20889306640625,-12.90927791595459,10.365707397460938,0.0526420995593071
1772727584073238300,1.22623828125,-9.657432556152344,13.473984718322754,1.9405791759490967
1772727584090583800,1.243583740234375,-11.583654403686523,15.27338695526123,0.1052841991186142
1772727584107929000,1.26092919921875,-6.905686378479004,12.483355522155762,3.043670415878296
1772727584125274400,1.2782744140625,-2.5124638080596924,10.138389587402344,6.477370738983154
1772727584142619100,1.295619140625,1.734796404838562,9.604789733886719,4.780859470367432
1772727584159964400,1.31296435546875,2.3545374870300293,9.77707290649414,3.3690943717956543
1772727584177309700,1.330309814453125,0.18424734473228455,11.303693771362305,0.7728816866874695
1772727584194655200,1.3476552734375,-2.1032910346984863,12.457035064697266,0.08614161610603333
1772727584212000500,1.36500048828125,-0.31824541091918945,12.08614730834961,2.2085752487182617
1772727584229345800,1.382345703125,-5.924628734588623,10.047462463378906,4.8574299812316895
1772727584246691300,1.39969140625,-1.6319050788879395,9.169296264648438,3.8213376998901367
1772727584264036600,1.41703662109375,-1.404586911201477,8.896514892578125,2.5603201389312744
1772727584281382000,1.4343818359375,-3.3164522647857666,8.621339797973633,2.7278177738189697
1772727584298727400,1.4517275390625,-2.641676187515259,8.549555778503418,2.8977081775665283
1772727584316072700,1.46907275390625,-2.3617160320281982,8.980263710021973,3.074777126312256
1772727584333418000,1.48641796875,-2.6009981632232666,9.166903495788574,3.1680972576141357
1772727584350763500,1.503763427734375,-2.5914268493652344,9.128618240356445,3.2039895057678223
1772727584368108800,1.52110888671875,-2.4717857837677,9.145368576049805,2.8905298709869385
1772727584385454000,1.5384541015625,-2.550748825073242,9.006584167480469,2.6943182945251465
1772727584402799600,1.555799560546875,-2.4335005283355713,9.037691116333008,2.8450660705566406
1772727584420145000,1.573144775390625,-3.098705291748047,8.757730484008789,2.9144580364227295
1772727584437490200,1.590490234375,-2.778067111968994,9.243474006652832,3.081955671310425
1772727584454835700,1.607835693359375,-2.4023938179016113,9.07119083404541,2.964707374572754
1772727584472181000,1.625180908203125,-2.6632115840911865,9.011369705200195,2.9359934329986572
1772727584489526300,1.6425263671875,-2.7397818565368652,8.827122688293457,3.019742250442505
1772727584506871800,1.659871826171875,-2.7326035499572754,8.927620887756348,3.084348440170288
1772727584524217000,1.677217041015625,-2.720639228820801,8.93240737915039,3.0340991020202637
1772727584541562600,1.694562744140625,-2.7182464599609375,8.805587768554688,2.9312076568603516
1772727584558908000,1.711907958984375,-2.857030153274536,8.530412673950195,2.9934210777282715
1772727584576253200,1.729253173828125,-2.957528829574585,8.3629150390625,3.0269205570220947
1772727584593598700,1.7465986328125,-2.933600664138794,8.520841598510742,3.0269205570220947
1772727584610944000,1.763944091796875,-2.864208698272705,8.781659126281738,3.0580272674560547
1772727584628289300,1.781289306640625,-2.6057839393615723,8.863015174865723,3.067598581314087
1772727584645634800,1.798634765625,-2.469393014907837,8.748159408569336,2.801995277404785
1772727584662980000,1.81597998046875,-2.447857618331909,8.391629219055176,2.794816732406616
1772727584680325400,1.833325439453125,-2.5986053943634033,8.195417404174805,2.950350284576416
1772727584697671000,1.8506708984375,-2.66560435295105,8.391629219055176,3.0317063331604004
1772727584715016200,1.86801611328125,-2.555534601211548,8.776873588562012,3.067598581314087
1772727584732361500,1.885361572265625,-2.517249345779419,9.152546882629395,2.830709218978882
1772727584749707000,1.90270703125,-2.4430718421936035,9.035298347473145,2.4813570976257324
1772727584767052300,1.92005224609375,-2.4837498664855957,8.568697929382324,2.524427890777588
1772727584784397600,1.9373974609375,-2.6249263286590576,8.372486114501953,2.950350284576416
1772727584801743000,1.9547431640625,-2.8594231605529785,8.444271087646484,3.218346357345581
1772727584819088400,1.97208837890625,-2.778067111968994,8.803194046020508,3.31884503364563
1772727584836433700,1.98943359375,-2.713460922241211,9.1716890335083,3.2446675300598145
1772727584853779200,2.006779296875,-2.7421748638153076,9.353543281555176,2.981456995010376
1772727584871124500,2.02412451171875,-2.7278177738189697,9.20997428894043,2.675175666809082
1772727584888469800,2.0414697265625,-2.943171739578247,9.006584167480469,2.7014968395233154
1772727584905815300,2.058815185546875,-3.0029923915863037,8.94676399230957,2.9455647468566895
1772727584923160600,2.07616064453125,-2.9168508052825928,9.097511291503906,3.105883836746216
1772727584940505900,2.093505859375,-2.8833513259887695,9.281759262084961,3.146561861038208
1772727584957851400,2.110851318359375,-2.8426733016967773,9.343972206115723,3.091526746749878
1772727584975196700,2.12819677734375,-2.8498518466949463,9.257830619812012,3.0101709365844727
1772727584992542200,2.145542236328125,-2.8426733016967773,9.087940216064453,2.9288148880004883
1772727585009887500,2.162887451171875,-2.792423963546753,8.956335067749023,3.0077781677246094
1772727585027232800,2.180232666015625,-2.6871397495269775,8.96829891204834,3.0484559535980225
1772727585044578300,2.197578369140625,-2.691925525665283,9.028120040893555,3.0723843574523926
1772727585061923600,2.214923583984375,-2.7397818565368652,9.05444049835205,3.046063184738159
1772727585079268900,2.232268798828125,-2.691925525665283,9.06401252746582,2.9551360607147217
1772727585096614400,2.249614501953125,-2.6321048736572266,9.080761909484863,2.9455647468566895
1772727585113959700,2.266959716796875,-2.5698914527893066,8.973084449768066,2.9455647468566895
1772727585131305000,2.284304931640625,-2.6392834186553955,8.85344409942627,3.0388846397399902
1772727585148650500,2.301650390625,-2.4765713214874268,8.819944381713867,3.2757742404937744
1772727585165995800,2.318995849609375,-2.455035924911499,8.874979019165039,3.122633457183838
1772727585183341000,2.336341064453125,-2.548356056213379,9.004191398620605,2.8761727809906006
1772727585200686600,2.3536865234375,-2.5363919734954834,9.09272575378418,2.833101987838745
1772727585218031900,2.371031982421875,-2.478964328765869,9.008976936340332,2.8929226398468018
1772727585235377200,2.388377197265625,-2.3641088008880615,8.848658561706543,2.854637384414673
1772727585252722700,2.40572265625,-2.3162522315979004,8.683553695678711,2.8211379051208496
1772727585270068000,2.42306787109375,-2.287538528442383,8.606983184814453,2.823530673980713
1772727585287413200,2.440413330078125,-2.3162522315979004,8.688339233398438,2.840280532836914
1772727585304758800,2.4577587890625,-2.3234307765960693,8.81515884399414,2.8809585571289062
1772727585322104000,2.47510400390625,-2.282752752304077,8.798408508300781,2.943171739578247
1772727585339449600,2.49244970703125,-2.2707886695861816,8.719446182250977,2.871387243270874
1772727585356795000,2.509794921875,-2.3856441974639893,8.58784008026123,2.823530673980713
1772727585374140200,2.52714013671875,-2.4406790733337402,8.57348346710205,2.7972097396850586
1772727585391485700,2.544485595703125,-2.4909284114837646,8.666803359985352,2.778067111968994
1772727585408831000,2.5618310546875,-2.4646072387695312,8.666803359985352,2.8689942359924316
1772727585426176300,2.57917626953125,-2.416750907897949,8.745766639709473,2.871387243270874
1772727585443521800,2.596521728515625,-2.462214469909668,8.707481384277344,2.8187451362609863
1772727585460867000,2.6138671875,-2.4981069564819336,8.599804878234863,2.895315408706665
1772727585478212400,2.63121240234375,-2.5938198566436768,8.63330364227295,2.919243574142456
1772727585495558000,2.648557861328125,-2.6273193359375,8.764909744262695,2.991028308868408
1772727585512903200,2.665903076171875,-2.6536402702331543,8.915657043457031,3.022135019302368
1772727585530248400,2.68324853515625,-2.579462766647339,8.95394229888916,3.0412776470184326
1772727585547594000,2.700593994140625,-2.562713146209717,8.82951545715332,2.9623143672943115
1772727585564939300,2.717939208984375,-2.761317253112793,8.81515884399414,3.0340991020202637
1772727585582284500,2.735284423828125,-2.7804598808288574,8.934800148010254,3.0628130435943604
1772727585599630000,2.752630126953125,-2.7493531703948975,9.159725189208984,2.9694929122924805
1772727585616975400,2.769975341796875,-2.723032236099243,9.267401695251465,2.926422119140625
1772727585634321000,2.78732080078125,-2.7804598808288574,9.181260108947754,2.9001009464263916
1772727585651666200,2.804666259765625,-2.861815929412842,9.131011009216309,3.0556344985961914
1772727585669011500,2.822011474609375,-2.9001009464263916,9.219545364379883,3.0891339778900146
1772727585686357000,2.83935693359375,-2.9048867225646973,9.32004451751709,3.1034910678863525
1772727585703702300,2.856702392578125,-2.8929226398468018,9.377471923828125,2.9934210777282715
1772727585721047600,2.874047607421875,-2.957528829574585,9.276973724365234,2.9048867225646973
1772727585738393000,2.89139306640625,-3.0101709365844727,9.181260108947754,3.0029923915863037
1772727585755738400,2.90873828125,-2.9359934329986572,9.145368576049805,3.074777126312256
1772727585773083600,2.926083740234375,-2.8737800121307373,9.073583602905273,3.0269205570220947
1772727585790429200,2.94342919921875,-2.847458839416504,8.982656478881836,2.9551360607147217
1772727585807774500,2.9607744140625,-2.8737800121307373,8.973084449768066,2.9718856811523438
1772727585825119700,2.97811962890625,-2.799602508544922,9.008976936340332,2.957528829574585
1772727585842465300,2.99546533203125,-2.682354211807251,9.114261627197266,2.8929226398468018
1772727585859810600,3.012810546875,-2.6081767082214355,9.068798065185547,2.8809585571289062
1772727585877155800,3.03015576171875,-2.5076780319213867,8.841479301452637,2.8809585571289062
1772727585894501400,3.04750146484375,-2.462214469909668,8.583054542541504,2.837887763977051
1772727585911846700,3.0648466796875,-2.531606435775757,8.439485549926758,2.9048867225646973
1772727585929192000,3.08219189453125,-2.6009981632232666,8.513663291931152,2.9934210777282715
1772727585946537500,3.099537353515625,-2.550748825073242,8.70508861541748,3.050848960876465
1772727585963882800,3.1168828125,-2.3952155113220215,8.72901725769043,2.895315408706665
1772727585981228300,3.134228271484375,-2.431107759475708,8.638090133666992,2.8354947566986084
1772727585998573600,3.151573486328125,-2.4646072387695312,8.556734085083008,2.8522446155548096
1772727586015918800,3.1689189453125,-2.4526431560516357,8.568697929382324,2.830709218978882
1772727586033264400,3.186264404296875,-2.335394859313965,8.62612533569336,2.785245656967163
1772727586050609700,3.203609619140625,-2.2779672145843506,8.556734085083008,2.778067111968994
1772727586067955000,3.220954833984375,-2.3186452388763428,8.50169849395752,2.8809585571289062
1772727586085300500,3.238300537109375,-2.3090739250183105,8.511270523071289,2.9694929122924805
1772727586102645800,3.255645751953125,-2.297109842300415,8.616554260253906,3.0269205570220947
1772727586119991300,3.2729912109375,-2.297109842300415,8.839086532592773,3.0005996227264404
1772727586137336600,3.290336669921875,-2.342573404312134,8.9850492477417,2.9288148880004883
1772727586154681900,3.307681884765625,-2.4741785526275635,9.059226989746094,2.761317253112793
1772727586172027100,3.325027099609375,-2.612962245941162,9.083154678344727,2.7326035499572754
1772727586189372700,3.34237255859375,-2.5746772289276123,9.078369140625,2.854637384414673
1772727586206718000,3.359718017578125,-2.6177480220794678,9.087940216064453,2.8666014671325684
1772727586224063500,3.3770634765625,-2.641676187515259,9.06401252746582,2.9072794914245605
1772727586241408800,3.39440869140625,-2.7254250049591064,9.059226989746094,3.0340991020202637
1772727586258754000,3.411754150390625,-2.8211379051208496,9.21715259552002,3.014956474304199
1772727586276099600,3.429099609375,-2.878565549850464,9.42772102355957,3.098705291748047
1772727586293444900,3.44644482421875,-2.825923442840576,9.408578872680664,3.139383316040039
1772727586310790100,3.4637900390625,-2.770888566970825,9.186046600341797,3.046063184738159
1772727586328135700,3.4811357421875,-2.861815929412842,8.922835350036621,2.957528829574585
1772727586345481000,3.49848095703125,-2.998206853866577,8.93240737915039,3.0005996227264404
1772727586362826500,3.515826416015625,-3.081955671310425,9.274580955505371,3.050848960876465
1772727586380171800,3.533171875,-2.9551360607147217,9.54496955871582,2.9718856811523438
1772727586397517000,3.55051708984375,-2.8450660705566406,9.4061861038208,2.785245656967163
1772727586414862600,3.567862548828125,-2.785245656967163,8.922835350036621,2.723032236099243
1772727586432208000,3.585207763671875,-2.770888566970825,8.508877754211426,3.0269205570220947
1772727586449553200,3.60255322265625,-2.6632115840911865,8.475378036499023,3.2685956954956055
1772727586466898700,3.619898681640625,-2.723032236099243,8.81515884399414,3.2542388439178467
1772727586484244000,3.637243896484375,-2.7278177738189697,9.083154678344727,3.1345977783203125
1772727586501589200,3.65458935546875,-2.6847469806671143,9.052047729492188,2.809173822402954
1772727586518934800,3.671934814453125,-2.6488547325134277,8.779266357421875,2.691925525665283
1772727586536280000,3.689280029296875,-2.5698914527893066,8.516056060791016,2.7326035499572754
1772727586553625600,3.70662548828125,-2.531606435775757,8.451449394226074,2.8354947566986084
1772727586570971000,3.723970947265625,-2.526820659637451,8.592626571655273,3.043670415878296
1772727586588316200,3.741316162109375,-2.5196423530578613,8.748159408569336,3.0484559535980225
1772727586605661700,3.75866162109375,-2.4765713214874268,8.796015739440918,2.902493953704834
1772727586623007000,3.776007080078125,-2.5435705184936523,8.647661209106445,2.854637384414673
1772727586640352300,3.793352294921875,-2.5938198566436768,8.602197647094727,2.864208698272705
1772727586657697800,3.81069775390625,-2.5746772289276123,8.80798053741455,2.8522446155548096
1772727586675043000,3.82804296875,-2.6703901290893555,8.95394229888916,2.801995277404785
1772727586692388400,3.845388427734375,-2.6967110633850098,9.090332984924316,2.7517459392547607
1772727586709734000,3.86273388671875,-2.6967110633850098,9.056833267211914,2.8498518466949463
1772727586727079200,3.8800791015625,-2.6368906497955322,8.863015174865723,2.9455647468566895
1772727586744424700,3.8974248046875,-2.6225335597991943,8.772088050842285,3.0412776470184326
1772727586761770000,3.91477001953125,-2.6799614429473877,8.812766075134277,3.0388846397399902
1772727586779115300,3.932115234375,-2.871387243270874,9.004191398620605,2.991028308868408
1772727586796460500,3.94946044921875,-2.8522446155548096,9.212367057800293,2.9001009464263916
1772727586813806000,3.96680615234375,-2.794816732406616,9.226723670959473,2.8354947566986084
1772727586831151400,3.9841513671875,-2.7326035499572754,9.025727272033691,2.7972097396850586
1772727586848497000,4.001496826171875,-2.7110681533813477,8.73619556427002,2.8498518466949463
1772727586865842200,4.01884228515625,-2.610569477081299,8.516056060791016,3.005385160446167
1772727586883187500,4.0361875,-2.641676187515259,8.609375953674316,3.0652058124542236
1772727586900533000,4.053532958984375,-2.59621262550354,8.791230201721191,3.0652058124542236
1772727586917878300,4.070878173828125,-2.5746772289276123,8.965906143188477,3.005385160446167
1772727586935223600,4.0882236328125,-2.620140790939331,8.973084449768066,2.9479575157165527
1772727586952569000,4.105569091796875,-2.5770699977874756,8.877371788024902,2.8594231605529785
1772727586969914400,4.122914306640625,-2.550748825073242,8.764909744262695,2.840280532836914
1772727586987259600,4.140259765625,-2.510071039199829,8.769695281982422,2.9862427711486816
1772727587004605200,4.157605224609375,-2.5387847423553467,8.95394229888916,3.0412776470184326
1772727587021950500,4.174950439453125,-2.495713949203491,9.18843936920166,3.0795626640319824
1772727587039296000,4.1922958984375,-2.510071039199829,9.198010444641113,2.9838497638702393
1772727587056641300,4.209641357421875,-2.5986053943634033,9.059226989746094,2.9072794914245605
1772727587073986600,4.226986572265625,-2.5603201389312744,9.049654960632324,2.940778970718384
1772727587091332000,4.24433203125,-2.517249345779419,9.150154113769531,2.9694929122924805
1772727587108677400,4.261677490234375,-2.5746772289276123,9.22433090209961,2.7014968395233154
1772727587126022700,4.279022705078125,-2.675175666809082,9.248259544372559,2.7014968395233154
1772727587143368200,4.2963681640625,-2.6871397495269775,9.121439933776855,2.943171739578247
1772727587160713500,4.31371337890625,-2.6153552532196045,9.049654960632324,3.0245277881622314
1772727587178058800,4.331058837890625,-2.4526431560516357,8.910871505737305,3.0269205570220947
1772727587195404300,4.348404296875,-2.531606435775757,8.659625053405762,2.9455647468566895
1772727587212749600,4.36574951171875,-2.6225335597991943,8.530412673950195,2.9168508052825928
1772727587230095000,4.38309521484375,-2.7876384258270264,8.70508861541748,2.8426733016967773
1772727587247440400,4.4004404296875,-2.9144580364227295,9.059226989746094,2.816352367401123
1772727587264785700,4.41778564453125,-2.550748825073242,9.114261627197266,2.809173822402954
1772727587282131200,4.435131103515625,-2.407179594039917,8.731410026550293,2.7038896083831787
1772727587299476500,4.4524765625,-2.5363919734954834,8.317451477050781,2.7397818565368652
1772727587316822000,4.469822021484375,-2.6057839393615723,8.221738815307617,2.967100143432617
1772727587334167300,4.487167236328125,-2.667997360229492,8.46341323852539,3.2159535884857178
1772727587351512600,4.5045126953125,-2.6392834186553955,8.941978454589844,3.2231321334838867
1772727587368858000,4.521858154296875,-2.50289249420166,9.18843936920166,2.888136863708496
1772727587386203400,4.539203369140625,-2.53399920463562,8.872586250305176,2.5148565769195557
1772727587403548700,4.556548583984375,-2.6943182945251465,8.506484031677246,2.6081767082214355
1772727587420894200,4.573894287109375,-2.7589244842529297,8.520841598510742,2.9862427711486816
1772727587438239500,4.591239501953125,-2.6632115840911865,8.922835350036621,3.314059257507324
1772727587455584800,4.608584716796875,-2.548356056213379,9.181260108947754,3.2925238609313965
1772727587472930300,4.625930419921875,-2.6273193359375,9.042476654052734,2.9144580364227295
1772727587490275600,4.643275634765625,-2.768495798110962,8.86062240600586,2.7828526496887207
1772727587507621000,4.66062109375,-2.8522446155548096,8.910871505737305,2.926422119140625
1772727587524966400,4.67796630859375,-2.744567632675171,9.169296264648438,3.0484559535980225
1772727587542311700,4.695311767578125,-2.6368906497955322,9.384650230407715,2.991028308868408
1772727587559657200,4.7126572265625,-2.746960401535034,9.274580955505371,2.912065267562866
1772727587577002500,4.73000244140625,-2.775674343109131,9.042476654052734,2.801995277404785
1772727587594347800,4.74734765625,-2.8498518466949463,9.028120040893555,2.895315408706665
1772727587611693300,4.764693359375,-2.761317253112793,9.138189315795898,3.122633457183838
1772727587629038600,4.78203857421875,-2.610569477081299,9.174081802368164,3.0245277881622314
1772727587646383900,4.7993837890625,-2.6536402702331543,9.047262191772461,2.8522446155548096
1772727587663729400,4.8167294921875,-2.713460922241211,8.872586250305176,2.737389087677002
1772727587681074700,4.83407470703125,-2.7876384258270264,8.884550094604492,2.816352367401123
1772727587698420200,4.851420166015625,-2.6225335597991943,8.937192916870117,2.9694929122924805
1772727587715765500,4.868765625,-2.4502503871917725,8.863015174865723,2.9694929122924805
1772727587733110800,4.88611083984375,-2.4598217010498047,8.726624488830566,2.8833513259887695
1772727587750456300,4.903456298828125,-2.60339093208313,8.571090698242188,2.8666014671325684
1772727587767801600,4.920801513671875,-2.7349963188171387,8.638090133666992,2.912065267562866
1772727587785147000,4.93814697265625,-2.6799614429473877,8.877371788024902,2.9359934329986572
1772727587802492400,4.955492431640625,-2.6297121047973633,8.970691680908203,2.801995277404785
1772727587819837700,4.972837646484375,-2.6464617252349854,8.848658561706543,2.754138946533203
1772727587837183000,4.990182861328125,-2.6249263286590576,8.683553695678711,2.8211379051208496
1772727587854528500,5.007528564453125,-2.6536402702331543,8.58784008026123,2.9862427711486816
1772727587871873800,5.024873779296875,-2.6153552532196045,8.61176872253418,3.1513473987579346
1772727587889219300,5.04221923828125,-2.5124638080596924,8.669196128845215,3.1178479194641113
1772727587906564600,5.059564697265625,-2.589034080505371,8.786444664001465,2.8761727809906006
1772727587923910100,5.07691015625,-2.6321048736572266,8.877371788024902,2.7254250049591064
1772727587941255400,5.09425537109375,-2.581855535507202,8.941978454589844,2.7397818565368652
1772727587958600700,5.1116005859375,-2.517249345779419,8.903693199157715,2.713460922241211
1772727587975946200,5.1289462890625,-2.5076780319213867,8.819944381713867,2.7972097396850586
1772727587993291500,5.14629150390625,-2.5531418323516846,8.82233715057373,2.8905298709869385
1772727588010636800,5.16363671875,-2.6297121047973633,8.913264274597168,2.9072794914245605
1772727588027982300,5.180982421875,-2.60339093208313,9.020941734313965,2.9001009464263916
1772727588045327600,5.19832763671875,-2.438286304473877,8.944371223449707,2.9001009464263916
1772727588062673000,5.2156728515625,-2.550748825073242,8.796015739440918,3.0412776470184326
1772727588080018400,5.233018310546875,-2.63449764251709,8.755337715148926,3.136990547180176
1772727588097363700,5.25036376953125,-2.6153552532196045,8.922835350036621,3.0245277881622314
1772727588114709000,5.267708984375,-2.6321048736572266,8.992227554321289,2.9527430534362793
1772727588132054500,5.285054443359375,-2.6464617252349854,8.973084449768066,2.861815929412842
1772727588149399800,5.30239990234375,-2.720639228820801,8.999405860900879,2.8283164501190186
1772727588166745300,5.319745361328125,-2.6153552532196045,8.989834785461426,2.8450660705566406
1772727588184090600,5.337090576171875,-2.589034080505371,9.119047164916992,2.878565549850464
1772727588201436000,5.354435791015625,-2.651247501373291,9.166903495788574,2.9599215984344482
1772727588218781400,5.371781494140625,-2.550748825073242,9.123832702636719,2.9144580364227295
1772727588236126700,5.389126708984375,-2.7397818565368652,9.087940216064453,2.981456995010376
1772727588253472300,5.40647216796875,-2.7397818565368652,9.087940216064453,3.0723843574523926
1772727588270817500,5.423817626953125,-2.6703901290893555,9.181260108947754,3.129812002182007
1772727588288162800,5.441162841796875,-2.60339093208313,9.190832138061523,2.981456995010376
1772727588305508400,5.45850830078125,-2.6057839393615723,9.075976371765137,2.8211379051208496
1772727588322853600,5.475853515625,-2.8043880462646484,8.886942863464355,2.8498518466949463
1772727588340199000,5.493198974609375,-2.7589244842529297,8.803194046020508,2.9479575157165527
1772727588357544400,5.51054443359375,-2.861815929412842,8.910871505737305,2.8809585571289062
1772727588374889700,5.5278896484375,-2.8283164501190186,8.894122123718262,2.8666014671325684
1772727588392235000,5.545235107421875,-2.723032236099243,8.73619556427002,2.9144580364227295
1772727588409580500,5.56258056640625,-2.7182464599609375,8.544769287109375,2.8666014671325684
1772727588426925800,5.57992578125,-2.7972097396850586,8.640482902526855,2.885744094848633
1772727588444271400,5.597271240234375,-2.7876384258270264,8.870193481445312,2.950350284576416
1772727588461616600,5.61461669921875,-2.840280532836914,8.992227554321289,2.8498518466949463
1772727588478962200,5.631962158203125,-2.6488547325134277,8.865407943725586,2.691925525665283
1772727588496307500,5.649307373046875,-2.4909284114837646,8.630910873413086,2.6392834186553955
1772727588513652700,5.66665283203125,-2.6775684356689453,8.513663291931152,2.837887763977051
1772727588530998300,5.683998291015625,-2.6871397495269775,8.693124771118164,3.13220477104187
1772727588548343600,5.701343505859375,-2.548356056213379,9.066405296325684,3.170490026473999
1772727588565688800,5.718688720703125,-2.6009981632232666,9.169296264648438,2.950350284576416
1772727588583034400,5.736034423828125,-2.493321180343628,8.922835350036621,2.675175666809082
1772727588600379600,5.753379638671875,-2.6225335597991943,8.621339797973633,2.6847469806671143
1772727588617725200,5.77072509765625,-2.720639228820801,8.652446746826172,2.8737800121307373
1772727588635070500,5.788070556640625,-2.6321048736572266,9.001798629760742,3.0269205570220947
1772727588652415700,5.805415771484375,-2.5746772289276123,9.19561767578125,3.0317063331604004
1772727588669761300,5.82276123046875,-2.531606435775757,9.037691116333008,2.840280532836914
1772727588687106600,5.8401064453125,-2.6273193359375,8.786444664001465,2.778067111968994
1772727588704451800,5.857451904296875,-2.59621262550354,8.688339233398438,2.9144580364227295
1772727588721797400,5.87479736328125,-2.6632115840911865,8.851051330566406,3.1274192333221436
1772727588739142700,5.892142578125,-2.53399920463562,8.96829891204834,3.2470602989196777
1772727588756488000,5.909488037109375,-2.4047868251800537,8.997013092041016,3.036491870880127
1772727588773833500,5.92683349609375,-2.572284460067749,9.028120040893555,2.7565317153930664
1772727588791178800,5.9441787109375,-2.557927370071411,8.915657043457031,2.754138946533203
1772727588808524300,5.961524169921875,-2.5842485427856445,8.879764556884766,2.768495798110962
1772727588825869600,5.97886962890625,-2.478964328765869,8.877371788024902,2.912065267562866
1772727588843214800,5.99621484375,-2.5387847423553467,8.851051330566406,2.861815929412842
1772727588860560400,6.013560302734375,-2.768495798110962,8.824729919433594,2.902493953704834
1772727588877905700,6.03090576171875,-2.6009981632232666,8.776873588562012,3.0269205570220947
1772727588895251200,6.048251220703125,-2.5435705184936523,8.80798053741455,3.036491870880127
1772727588912596500,6.065596435546875,-2.53399920463562,8.731410026550293,3.046063184738159
1772727588929941800,6.082941650390625,-2.675175666809082,8.659625053405762,2.933600664138794
1772727588947287300,6.100287353515625,-2.7493531703948975,8.731410026550293,2.8043880462646484
1772727588964632600,6.117632568359375,-2.823530673980713,8.93958568572998,2.816352367401123
1772727588981978000,6.13497802734375,-2.837887763977051,9.068798065185547,2.9383862018585205
1772727588999323400,6.152323486328125,-2.3856441974639893,8.934800148010254,2.9168508052825928
1772727589016668700,6.169668701171875,-2.5698914527893066,8.767302513122559,2.857030153274536
1772727589034014200,6.18701416015625,-2.691925525665283,8.786444664001465,3.0005996227264404
1772727589051359500,6.204359375,-2.4885356426239014,9.095118522644043,2.9958138465881348
1772727589068704800,6.221704833984375,-2.7110681533813477,9.389435768127441,2.7972097396850586
1772727589086050300,6.23905029296875,-2.682354211807251,9.403793334960938,2.6608188152313232
1772727589103395600,6.2563955078125,-2.6177480220794678,9.131011009216309,2.8689942359924316
1772727589120741000,6.2737412109375,-2.737389087677002,8.858229637145996,3.081955671310425
1772727589138086400,6.29108642578125,-2.667997360229492,8.94676399230957,3.2135608196258545
1772727589155431700,6.308431640625,-2.667997360229492,9.080761909484863,3.2374889850616455
1772727589172777200,6.325777099609375,-2.7589244842529297,9.049654960632324,2.9862427711486816
1772727589190122500,6.34312255859375,-2.837887763977051,9.10229778289795,2.7038896083831787
1772727589207468000,6.360468017578125,-3.129812002182007,9.190832138061523,2.778067111968994
1772727589224813300,6.377813232421875,-3.0317063331604004,9.097511291503906,2.909672260284424
1772727589242158600,6.39515869140625,-2.792423963546753,8.870193481445312,2.8594231605529785
1772727589259504000,6.412504150390625,-2.5603201389312744,8.671588897705078,2.830709218978882
1772727589276849400,6.429849365234375,-2.7086751461029053,8.609375953674316,3.060420274734497
1772727589294194700,6.447194580078125,-2.65842604637146,8.757730484008789,3.2374889850616455
1772727589311540200,6.464540283203125,-2.620140790939331,8.973084449768066,3.1920254230499268
1772727589328885500,6.481885498046875,-2.510071039199829,9.049654960632324,2.871387243270874
1772727589346231000,6.49923095703125,-2.510071039199829,8.963513374328613,2.6153552532196045
1772727589363576300,6.516576416015625,-2.555534601211548,8.831908226013184,2.5914268493652344
1772727589380921600,6.533921630859375,-2.6177480220794678,9.016156196594238,2.785245656967163
1772727589398267100,6.55126708984375,-2.4981069564819336,9.18843936920166,2.895315408706665
1772727589415612400,6.5686123046875,-2.328216314315796,8.944371223449707,2.857030153274536
1772727589432958000,6.5859580078125,-2.4406790733337402,8.549555778503418,2.8426733016967773
1772727589450303200,6.60330322265625,-2.4717857837677,8.37966537475586,3.012563705444336
1772727589467648500,6.6206484375,-2.4646072387695312,8.566305160522461,3.129812002182007
1772727589484994000,6.637994140625,-2.3473589420318604,8.851051330566406,2.9168508052825928
1772727589502339300,6.65533935546875,-2.2995026111602783,8.851051330566406,2.706282377243042
1772727589519684600,6.6726845703125,-2.3330020904541016,8.630910873413086,2.6273193359375
1772727589537030100,6.690030029296875,-2.407179594039917,8.382058143615723,2.682354211807251
1772727589554375400,6.70737548828125,-2.3401806354522705,8.267202377319336,2.8737800121307373
1772727589571721000,6.724720947265625,-2.227717876434326,8.281558990478516,3.0029923915863037
1772727589589066200,6.742066162109375,-2.1583259105682373,8.358129501342773,2.981456995010376
1772727589606411500,6.75941162109375,-2.163111686706543,8.559126853942871,2.864208698272705
1772727589623757000,6.776757080078125,-2.2779672145843506,8.805587768554688,2.7732813358306885
1772727589641102300,6.794102294921875,-2.3617160320281982,8.908478736877441,2.794816732406616
1772727589658448000,6.81144775390625,-2.313859462738037,8.796015739440918,2.744567632675171
1772727589675793200,6.828793212890625,-2.390429735183716,8.621339797973633,2.6967110633850098
1772727589693138400,6.846138427734375,-2.5435705184936523,8.561519622802734,2.840280532836914
1772727589710484000,6.86348388671875,-2.6297121047973633,8.774480819702148,3.084348440170288
1772727589727829200,6.880829345703125,-2.770888566970825,9.181260108947754,3.0173492431640625
1772727589745174800,6.8981748046875,-2.744567632675171,9.494720458984375,2.9862427711486816
1772727589762520000,6.91552001953125,-2.8426733016967773,9.415757179260254,2.940778970718384
1772727589779865300,6.932865234375,-3.0029923915863037,9.190832138061523,2.909672260284424
1772727589797211000,6.9502109375,-3.129812002182007,9.159725189208984,3.0029923915863037
1772727589814556200,6.96755615234375,-3.1561331748962402,9.28893756866455,3.1680972576141357
1772727589831901700,6.984901611328125,-3.122633457183838,9.523433685302734,3.2709884643554688
1772727589849247000,7.0022470703125,-3.1178479194641113,9.647860527038574,2.981456995010376
1772727589866592300,7.01959228515625,-3.1896326541900635,9.607182502746582,2.9790642261505127
1772727589883937800,7.036937744140625,-3.314059257507324,9.757930755615234,2.8666014671325684
1772727589901283000,7.054282958984375,-3.160918712615967,9.499505996704102,2.7589244842529297
1772727589918628600,7.071628662109375,-3.0269205570220947,9.176474571228027,2.7804598808288574
1772727589935974000,7.088973876953125,-3.043670415878296,9.078369140625,2.8833513259887695
1772727589953319200,7.106319091796875,-3.0340991020202637,9.05444049835205,3.115455150604248
1772727589970664700,7.123664794921875,-2.9216363430023193,9.121439933776855,3.19441819190979
1772727589988010000,7.141010009765625,-2.801995277404785,9.018548965454102,2.912065267562866
1772727590005355300,7.158355224609375,-2.799602508544922,8.724231719970703,2.754138946533203
1772727590022700800,7.17570068359375,-2.8115665912628174,8.358129501342773,2.7661030292510986
1772727590040046000,7.193046142578125,-2.9072794914245605,8.26241683959961,2.806781053543091
1772727590057391600,7.2103916015625,-2.864208698272705,8.420342445373535,3.036491870880127
1772727590074737000,7.22773681640625,-2.7110681533813477,8.638090133666992,2.9934210777282715
1772727590092082400,7.24508251953125,-2.6703901290893555,8.647661209106445,2.8139593601226807
1772727590109427700,7.262427734375,-2.63449764251709,8.461020469665527,2.768495798110962
1772727590126773000,7.27977294921875,-2.6967110633850098,8.346165657043457,2.794816732406616
1772727590144118500,7.297118408203125,-2.641676187515259,8.396414756774902,2.8354947566986084
1772727590161463800,7.3144638671875,-2.4885356426239014,8.504091262817383,2.7421748638153076
1772727590178809000,7.33180908203125,-2.68953275680542,8.58784008026123,2.562713146209717
1772727590196154600,7.349154541015625,-2.744567632675171,8.671588897705078,2.6608188152313232
1772727590213500000,7.3665,-2.6368906497955322,8.757730484008789,2.8833513259887695
1772727590230845400,7.383845458984375,-2.651247501373291,8.738588333129883,2.9479575157165527
1772727590248190700,7.401190673828125,-2.53399920463562,8.58784008026123,2.991028308868408
1772727590265536000,7.418535888671875,-2.5674986839294434,8.544769287109375,2.964707374572754
1772727590282881500,7.435881591796875,-2.7493531703948975,8.772088050842285,3.005385160446167
1772727590300226800,7.453226806640625,-2.720639228820801,9.176474571228027,2.9599215984344482
1772727590317572400,7.470572265625,-2.6703901290893555,9.41336441040039,2.7732813358306885
1772727590334917600,7.487917724609375,-2.5914268493652344,9.219545364379883,2.6273193359375
1772727590352263200,7.50526318359375,-2.589034080505371,8.915657043457031,2.713460922241211
1772727590369608400,7.5226083984375,-2.5387847423553467,8.762516975402832,2.940778970718384
1772727590386953700,7.53995361328125,-2.4430718421936035,8.760123252868652,3.0723843574523926
1772727590404299300,7.55729931640625,-2.280359983444214,8.717052459716797,2.9862427711486816
1772727590421644500,7.57464453125,-2.266003131866455,8.635697364807129,2.8929226398468018
1772727590438990000,7.591989990234375,-2.3617160320281982,8.73619556427002,3.0723843574523926
1772727590456335400,7.60933544921875,-2.4047868251800537,9.138189315795898,3.404986619949341
1772727590473680600,7.6266806640625,-2.201396942138672,9.193224906921387,3.273381471633911
1772727590491026200,7.644026123046875,-2.0506489276885986,8.745766639709473,2.778067111968994
1772727590508371500,7.661371337890625,-2.1056840419769287,8.432307243347168,2.5124638080596924
1772727590525716700,7.678716796875,-2.3186452388763428,8.434700012207031,2.641676187515259
1772727590543062300,7.696062255859375,-2.6464617252349854,8.941978454589844,3.105883836746216
1772727590560407600,7.713407470703125,-2.53399920463562,9.571290969848633,3.2853455543518066
1772727590577753000,7.730753173828125,-2.297109842300415,9.879964828491211,3.0652058124542236
1772727590595098400,7.748098388671875,-2.3330020904541016,9.66221809387207,2.847458839416504
1772727590612443600,7.765443603515625,-2.610569477081299,9.28893756866455,2.761317253112793
1772727590629789200,7.7827890625,-2.878565549850464,9.238688468933105,3.0029923915863037
1772727590647134500,7.800134521484375,-2.699103832244873,9.473184585571289,3.2470602989196777
1772727590664480000,7.81747998046875,-2.589034080505371,9.633503913879395,3.1130621433258057
1772727590681825300,7.8348251953125,-2.5603201389312744,9.57607650756836,3.0029923915863037
1772727590699170800,7.8521708984375,-2.68953275680542,9.42054271697998,2.964707374572754
1772727590716516000,7.86951611328125,-2.8211379051208496,9.267401695251465,2.885744094848633
1772727590733861400,7.886861328125,-2.871387243270874,9.233902931213379,2.7517459392547607
1772727590751207000,7.90420703125,-2.9048867225646973,9.104690551757812,2.7014968395233154
1772727590768552200,7.92155224609375,-2.988635540008545,8.889336585998535,2.8139593601226807
1772727590785897700,7.938897705078125,-3.0867412090301514,8.793622970581055,2.909672260284424
1772727590803243000,7.956242919921875,-3.1178479194641113,8.764909744262695,2.902493953704834
1772727590820588300,7.97358837890625,-3.067598581314087,8.841479301452637,2.8737800121307373
1772727590837933800,7.990933837890625,-3.043670415878296,8.922835350036621,2.9168508052825928
1772727590855279000,8.008279052734375,-3.012563705444336,8.81515884399414,3.005385160446167
1772727590872624600,8.025624755859376,-2.9144580364227295,8.635697364807129,3.0245277881622314
1772727590889970000,8.042969970703124,-2.715853691101074,8.461020469665527,3.0628130435943604
1772727590907315500,8.0603154296875,-2.7326035499572754,8.408378601074219,2.974278450012207
1772727590924660700,8.07766064453125,-2.6560330390930176,8.403593063354492,2.857030153274536
1772727590942006000,8.095006103515624,-2.706282377243042,8.427521705627441,2.737389087677002
1772727590959351600,8.1123515625,-2.8043880462646484,8.499305725097656,2.682354211807251
1772727590976696800,8.12969677734375,-2.7254250049591064,8.477770805358887,2.6321048736572266
1772727590994042000,8.1470419921875,-2.713460922241211,8.358129501342773,2.6057839393615723
1772727591011387600,8.1643876953125,-2.8115665912628174,8.193024635314941,2.691925525665283
1772727591028733000,8.18173291015625,-2.7517459392547607,8.090133666992188,2.816352367401123
1772727591046078500,8.199078369140626,-2.65842604637146,8.051848411560059,3.053241729736328
1772727591063423700,8.216423828125,-2.579462766647339,8.154739379882812,3.1345977783203125
1772727591080769000,8.23376904296875,-2.66560435295105,8.432307243347168,3.067598581314087
1772727591098114600,8.251114501953126,-2.68953275680542,8.647661209106445,2.912065267562866
1772727591115459800,8.2684599609375,-2.6321048736572266,8.86062240600586,2.7661030292510986
1772727591132805400,8.285805419921875,-2.641676187515259,8.956335067749023,2.667997360229492
1772727591150150700,8.303150634765625,-2.5196423530578613,9.020941734313965,2.644068956375122
1772727591167496200,8.32049609375,-2.6177480220794678,9.075976371765137,2.830709218978882
1772727591184841500,8.337841552734375,-2.715853691101074,9.181260108947754,3.029313564300537
1772727591202186800,8.355186767578125,-2.66560435295105,9.401400566101074,3.1657042503356934
1772727591219532300,8.3725322265625,-2.5938198566436768,9.501898765563965,3.1585259437561035
1772727591236877600,8.389877685546875,-2.60339093208313,9.446864128112793,3.0891339778900146
1772727591254223000,8.40722314453125,-2.7565317153930664,9.308079719543457,3.0173492431640625
1772727591271568400,8.424568359375,-2.9479575157165527,9.33440113067627,3.0484559535980225
1772727591288913700,8.44191357421875,-2.833101987838745,9.487542152404785,3.1585259437561035
1772727591306259200,8.45925927734375,-2.6727828979492188,9.638289451599121,3.081955671310425
1772727591323604500,8.4766044921875,-2.6249263286590576,9.511469841003418,2.964707374572754
1772727591340950000,8.493949951171874,-2.768495798110962,9.236295700073242,2.9383862018585205
1772727591358295300,8.51129541015625,-2.6608188152313232,9.114261627197266,3.029313564300537
1772727591375640600,8.528640625,-2.610569477081299,9.169296264648438,3.050848960876465
1772727591392986000,8.545986083984374,-2.4358935356140137,9.18843936920166,2.909672260284424
1772727591410331400,8.563331298828125,-2.438286304473877,9.114261627197266,2.8426733016967773
1772727591427677000,8.580677001953125,-2.4406790733337402,8.93958568572998,2.8450660705566406
1772727591445022200,8.598022216796876,-2.445464849472046,8.894122123718262,2.830709218978882
1772727591462367700,8.61536767578125,-2.3641088008880615,8.83669376373291,2.823530673980713
1772727591479713000,8.632713134765625,-2.2947168350219727,8.683553695678711,2.730210542678833
1772727591497058300,8.650058349609376,-2.3473589420318604,8.523234367370605,2.66560435295105
1772727591514403800,8.66740380859375,-2.4909284114837646,8.405985832214355,2.861815929412842
1772727591531749000,8.6847490234375,-2.5698914527893066,8.499305725097656,3.0317063331604004
1772727591549094700,8.7020947265625,-2.5842485427856445,8.683553695678711,3.0005996227264404
1772727591566440000,8.71943994140625,-2.495713949203491,8.781659126281738,2.806781053543091
1772727591583785200,8.73678515625,-2.6392834186553955,8.666803359985352,2.620140790939331
1772727591601130800,8.754130859375,-2.7421748638153076,8.542376518249512,2.6799614429473877
1772727591618476000,8.77147607421875,-2.7972097396850586,8.518448829650879,2.8666014671325684
1772727591635821600,8.788821533203125,-2.7828526496887207,8.650053977966309,3.029313564300537
1772727591653166800,8.806166748046875,-2.7589244842529297,8.846264839172363,3.105883836746216
1772727591670512400,8.823512451171876,-2.761317253112793,8.975478172302246,2.933600664138794
1772727591687857700,8.840857666015625,-2.8426733016967773,9.104690551757812,2.7326035499572754
1772727591705203000,8.858202880859375,-2.801995277404785,9.111868858337402,2.792423963546753
1772727591722548500,8.875548583984376,-2.775674343109131,9.008976936340332,2.7900311946868896
1772727591739893800,8.892893798828124,-2.8737800121307373,8.910871505737305,2.847458839416504
1772727591757239300,8.9102392578125,-2.809173822402954,8.874979019165039,2.9934210777282715
1772727591774584600,8.92758447265625,-2.768495798110962,8.896514892578125,3.0891339778900146
1772727591791929900,8.944929931640624,-2.723032236099243,8.906085968017578,2.9623143672943115
1772727591809275400,8.962275390625,-2.754138946533203,8.937192916870117,2.9240293502807617
1772727591826620700,8.97962060546875,-2.720639228820801,8.889336585998535,2.9312076568603516
1772727591843966200,8.99696630859375,-2.7421748638153076,8.870193481445312,2.933600664138794
1772727591861311500,9.0143115234375,-2.644068956375122,8.83669376373291,3.012563705444336
1772727591878657000,9.031656982421875,-2.644068956375122,8.80798053741455,3.053241729736328
1772727591896002300,9.049002197265626,-2.723032236099243,8.803194046020508,2.9312076568603516
1772727591913347600,9.06634765625,-2.7038896083831787,8.870193481445312,2.825923442840576
1772727591930693000,9.083693115234375,-2.7349963188171387,9.073583602905273,2.888136863708496
1772727591948038400,9.101038330078126,-2.6057839393615723,9.152546882629395,2.8211379051208496
1772727591965384000,9.118384033203125,-2.579462766647339,8.906085968017578,2.737389087677002
1772727591982729200,9.135729248046875,-2.644068956375122,8.602197647094727,2.744567632675171
1772727592000074800,9.15307470703125,-2.6703901290893555,8.544769287109375,2.912065267562866
1772727592017420000,9.170419921875,-2.5986053943634033,8.752944946289062,3.012563705444336
1772727592034765300,9.187765380859375,-2.517249345779419,8.934800148010254,3.053241729736328
1772727592052110800,9.20511083984375,-2.383251428604126,8.891729354858398,2.9599215984344482
1772727592069456100,9.2224560546875,-2.5292134284973145,8.817551612854004,2.744567632675171
1772727592086801700,9.2398017578125,-2.5746772289276123,8.8438720703125,2.7972097396850586
1772727592104147000,9.25714697265625,-2.526820659637451,8.987442016601562,2.912065267562866
1772727592121492500,9.274492431640626,-2.4263222217559814,9.044869422912598,2.809173822402954
1772727592138837800,9.291837646484375,-2.526820659637451,9.109476089477539,2.801995277404785
1772727592156183000,9.30918310546875,-2.6392834186553955,9.128618240356445,2.823530673980713
1772727592173528600,9.326528564453126,-2.682354211807251,9.22433090209961,2.9551360607147217
1772727592190873900,9.343873779296874,-2.651247501373291,9.20997428894043,3.184846878051758
1772727592208219400,9.361219482421875,-2.5387847423553467,9.078369140625,3.029313564300537
1772727592225564700,9.378564697265626,-2.715853691101074,8.925228118896484,3.029313564300537
1772727592242910000,9.395909912109374,-2.806781053543091,8.889336585998535,3.0891339778900146
1772727592260255500,9.41325537109375,-2.943171739578247,9.119047164916992,3.019742250442505
1772727592277600800,9.430600830078125,-2.878565549850464,9.300901412963867,2.9479575157165527
1772727592294946300,9.4479462890625,-2.723032236099243,9.233902931213379,2.878565549850464
1772727592312291600,9.46529150390625,-2.6632115840911865,9.080761909484863,2.723032236099243
1772727592329637000,9.48263720703125,-2.7589244842529297,8.95394229888916,2.775674343109131
1772727592346982400,9.499982421875,-2.706282377243042,8.805587768554688,2.919243574142456
1772727592364328000,9.517327880859375,-2.691925525665283,8.803194046020508,3.0388846397399902
1772727592381673200,9.534673095703125,-2.8498518466949463,8.879764556884766,3.0388846397399902
1772727592399018500,9.5520185546875,-2.6273193359375,8.987442016601562,3.060420274734497
1772727592416364000,9.569364013671875,-2.562713146209717,9.020941734313965,2.9072794914245605
1772727592433709300,9.586709228515625,-2.6009981632232666,8.798408508300781,2.6488547325134277
1772727592451054800,9.604054931640626,-2.524427890777588,8.57348346710205,2.510071039199829
1772727592468400000,9.621400146484374,-2.7732813358306885,8.50169849395752,2.713460922241211
1772727592485745700,9.63874560546875,-2.8737800121307373,8.69791030883789,2.9790642261505127
1772727592503091000,9.656091064453125,-2.6177480220794678,8.949156761169434,3.022135019302368
1772727592520436200,9.673436279296874,-2.421536445617676,8.81515884399414,2.847458839416504
1772727592537781800,9.69078173828125,-2.5052852630615234,8.528019905090332,2.6536402702331543
1772727592555127000,9.708126953125,-2.6153552532196045,8.394021987915039,2.744567632675171
1772727592572472600,9.72547265625,-2.768495798110962,8.477770805358887,3.0029923915863037
1772727592589817900,9.74281787109375,-2.675175666809082,8.688339233398438,3.098705291748047
1772727592607163100,9.7601630859375,-2.744567632675171,8.767302513122559,2.847458839416504
1772727592624508700,9.7775087890625,-2.5842485427856445,8.58784008026123,2.6273193359375
1772727592641854000,9.79485400390625,-2.682354211807251,8.415556907653809,2.557927370071411
1772727592659199500,9.812199462890625,-2.8043880462646484,8.46341323852539,2.737389087677002
1772727592676544800,9.829544677734376,-2.691925525665283,8.688339233398438,3.043670415878296
1772727592693890300,9.846890380859374,-2.531606435775757,8.738588333129883,3.046063184738159
1772727592711235600,9.864235595703125,-2.6608188152313232,8.647661209106445,2.909672260284424
1772727592728580900,9.881580810546875,-2.7349963188171387,8.640482902526855,2.957528829574585
1772727592745926400,9.898926513671874,-2.8426733016967773,8.810373306274414,3.029313564300537
1772727592763271700,9.916271728515625,-2.66560435295105,9.087940216064453,2.8905298709869385
1772727592780617200,9.9336171875,-2.6368906497955322,9.29611587524414,2.8522446155548096
1772727592797962500,9.95096240234375,-2.720639228820801,9.293723106384277,2.8809585571289062
1772727592815308000,9.96830810546875,-2.7038896083831787,9.21715259552002,2.9288148880004883
1772727592832653300,9.9856533203125,-2.6273193359375,9.147761344909668,2.9958138465881348
1772727592849998800,10.002998779296876,-2.6488547325134277,9.142974853515625,3.0556344985961914
1772727592867344100,10.02034423828125,-2.7110681533813477,9.169296264648438,3.043670415878296
1772727592884689400,10.037689453125,-2.8929226398468018,9.293723106384277,2.9766714572906494
1772727592902035000,10.055034912109376,-2.871387243270874,9.389435768127441,2.943171739578247
1772727592919380200,10.072380126953124,-2.775674343109131,9.305686950683594,2.806781053543091
1772727592936725800,10.089725830078125,-2.7182464599609375,9.154939651489258,2.785245656967163
1772727592954071000,10.107071044921875,-2.6943182945251465,9.056833267211914,2.8905298709869385
1772727592971416600,10.12441650390625,-2.737389087677002,9.116654396057129,3.108276605606079
1772727592988761900,10.141761962890625,-2.5603201389312744,9.255437850952148,3.201596736907959
1772727593006107100,10.159107177734375,-2.517249345779419,9.255437850952148,2.9551360607147217
1772727593023452700,10.17645263671875,-2.4670002460479736,9.164510726928711,2.7182464599609375
1772727593040798000,10.1937978515625,-2.431107759475708,9.037691116333008,2.7589244842529297
1772727593058143500,10.2111435546875,-2.5459632873535156,8.970691680908203,2.919243574142456
1772727593075488800,10.22848876953125,-2.4741785526275635,9.080761909484863,2.9718856811523438
1772727593092834300,10.245834228515625,-2.486142635345459,9.123832702636719,2.8737800121307373
1772727593110179600,10.2631796875,-2.5986053943634033,8.982656478881836,2.7804598808288574
1772727593127525000,10.280525146484376,-2.6273193359375,8.83669376373291,2.720639228820801
1772727593144870400,10.297870361328124,-2.5603201389312744,8.724231719970703,2.7804598808288574
1772727593162215700,10.315215576171875,-2.562713146209717,8.647661209106445,2.895315408706665
1772727593179561200,10.332561279296876,-2.5770699977874756,8.559126853942871,3.0173492431640625
1772727593196906500,10.349906494140624,-2.59621262550354,8.63330364227295,3.0005996227264404
1772727593214252000,10.367251953125,-2.6799614429473877,8.784051895141602,2.9144580364227295
1772727593231597300,10.384597412109375,-2.5986053943634033,8.839086532592773,2.65842604637146
1772727593248942800,10.40194287109375,-2.5938198566436768,8.714659690856934,2.486142635345459
1772727593266288000,10.4192880859375,-2.579462766647339,8.425128936767578,2.572284460067749
1772727593283633400,10.43663330078125,-2.66560435295105,8.34855842590332,2.885744094848633
1772727593300979000,10.45397900390625,-2.6847469806671143,8.539983749389648,3.122633457183838
1772727593318324200,10.47132421875,-2.5746772289276123,8.72901725769043,3.0580272674560547
1772727593335669800,10.488669677734375,-2.5124638080596924,8.719446182250977,2.730210542678833
1772727593353015000,10.50601513671875,-2.6536402702331543,8.628518104553223,2.6273193359375
1772727593370360600,10.523360595703124,-2.7828526496887207,8.609375953674316,2.761317253112793
1772727593387705900,10.540705810546875,-2.7182464599609375,8.74337387084961,2.888136863708496
1772727593405051400,10.558051513671876,-2.644068956375122,8.781659126281738,3.0077781677246094
1772727593422396700,10.575396728515624,-2.5770699977874756,8.666803359985352,2.8929226398468018
1772727593439742000,10.592741943359375,-2.761317253112793,8.518448829650879,2.840280532836914
1772727593457087500,10.61008740234375,-2.8737800121307373,8.563912391662598,3.0388846397399902
1772727593474432800,10.627432861328124,-2.7278177738189697,8.858229637145996,3.091526746749878
1772727593491778300,10.6447783203125,-2.610569477081299,9.068798065185547,2.943171739578247
1772727593509123600,10.66212353515625,-2.60339093208313,8.94676399230957,2.7972097396850586
1772727593526469000,10.67946923828125,-2.6321048736572266,8.73619556427002,2.785245656967163
1772727593543814400,10.696814453125,-2.7661030292510986,8.769695281982422,2.967100143432617
1772727593561160000,10.714159912109375,-2.7637102603912354,9.056833267211914,3.1513473987579346
1772727593578505200,10.731505126953126,-2.792423963546753,9.415757179260254,3.0173492431640625
1772727593595850800,10.748850830078124,-2.854637384414673,9.549755096435547,2.799602508544922
1772727593613196000,10.766196044921875,-2.8761727809906006,9.430113792419434,2.6847469806671143
1772727593630541300,10.783541259765625,-2.9934210777282715,9.248259544372559,2.785245656967163
1772727593647886800,10.800886962890624,-2.8809585571289062,9.126225471496582,3.0939197540283203
1772727593665232100,10.818232177734375,-2.8211379051208496,9.164510726928711,3.352344512939453
1772727593682577700,10.83557763671875,-2.830709218978882,9.279366493225098,3.2303106784820557
1772727593699923000,10.8529228515625,-2.871387243270874,9.312865257263184,2.9838497638702393
1772727593717268500,10.8702685546875,-2.8498518466949463,9.315258979797363,2.837887763977051
1772727593734613800,10.88761376953125,-2.861815929412842,9.300901412963867,2.7038896083831787
1772727593751959300,10.904959228515626,-2.770888566970825,9.164510726928711,2.612962245941162
1772727593769304600,10.9223046875,-2.644068956375122,9.025727272033691,2.691925525665283
1772727593786649900,10.93964990234375,-2.6177480220794678,8.863015174865723,2.9072794914245605
1772727593803995400,10.956995361328126,-2.5698914527893066,8.70508861541748,3.0269205570220947
1772727593821340700,10.974340576171874,-2.6560330390930176,8.709874153137207,3.091526746749878
1772727593838686200,10.991686279296875,-2.6177480220794678,8.788837432861328,2.991028308868408
1772727593856031500,11.009031494140626,-2.586641311645508,8.903693199157715,2.801995277404785
1772727593873377000,11.026376953125,-2.5363919734954834,8.879764556884766,2.7014968395233154
1772727593890722300,11.043722412109375,-2.423929452896118,8.714659690856934,2.7876384258270264
1772727593908067800,11.06106787109375,-2.526820659637451,8.561519622802734,2.8139593601226807
1772727593925413000,11.0784130859375,-2.5603201389312744,8.614161491394043,2.8594231605529785
1772727593942758400,11.09575830078125,-2.438286304473877,8.7505521774292,2.8809585571289062
1772727593960104000,11.11310400390625,-2.416750907897949,8.717052459716797,2.775674343109131
1772727593977449200,11.13044921875,-2.3736801147460938,8.63330364227295,2.7637102603912354
1772727593994794800,11.147794677734375,-2.3808584213256836,8.630910873413086,2.785245656967163
1772727594012140000,11.16514013671875,-2.5052852630615234,8.678768157958984,2.878565549850464
1772727594029485600,11.182485595703126,-2.4430718421936035,8.726624488830566,2.8905298709869385
1772727594046830800,11.199830810546874,-2.376072883605957,8.650053977966309,2.8283164501190186
1772727594064176400,11.21717626953125,-2.5196423530578613,8.449056625366211,2.794816732406616
1772727594081521700,11.234521728515626,-2.6153552532196045,8.415556907653809,2.940778970718384
1772727594098867200,11.2518671875,-2.7038896083831787,8.645268440246582,3.098705291748047
1772727594116212500,11.26921240234375,-2.5292134284973145,8.951549530029297,2.9599215984344482
1772727594133557800,11.286557861328125,-2.5674986839294434,8.970691680908203,2.737389087677002
1772727594150903300,11.3039033203125,-2.6392834186553955,8.776873588562012,2.620140790939331
1772727594168248600,11.32124853515625,-2.7565317153930664,8.740981101989746,2.7110681533813477
1772727594185594000,11.338593994140625,-2.6464617252349854,8.803194046020508,3.0029923915863037
1772727594202939400,11.355939453125,-2.5459632873535156,8.989834785461426,3.0795626640319824
1772727594220285000,11.373284912109375,-2.675175666809082,9.10229778289795,3.0963125228881836
1772727594237630200,11.390630126953125,-2.715853691101074,9.104690551757812,2.9694929122924805
1772727594254975700,11.407975830078126,-2.7517459392547607,9.162117958068848,2.909672260284424
1772727594272321000,11.425321044921875,-2.699103832244873,9.128618240356445,2.9359934329986572
1772727594289666300,11.442666259765625,-2.7732813358306885,9.104690551757812,2.8905298709869385
1772727594307011800,11.46001171875,-2.888136863708496,9.19561767578125,3.0652058124542236
1772727594324357000,11.477357177734374,-2.801995277404785,9.34157943725586,3.0939197540283203
1772727594341702700,11.49470263671875,-2.7637102603912354,9.365508079528809,2.964707374572754
1772727594359048000,11.5120478515625,-2.675175666809082,9.255437850952148,2.7326035499572754
1772727594376393500,11.5293935546875,-2.840280532836914,9.114261627197266,2.730210542678833
1772727594393738800,11.54673876953125,-2.8833513259887695,9.135796546936035,2.9359934329986572
1772727594411084300,11.564084228515625,-2.7972097396850586,9.305686950683594,3.053241729736328
1772727594428429600,11.5814296875,-2.699103832244873,9.233902931213379,2.816352367401123
1772727594445775000,11.598775146484375,-2.799602508544922,9.044869422912598,2.737389087677002
1772727594463120400,11.616120361328125,-2.737389087677002,8.791230201721191,2.8737800121307373
1772727594480466000,11.6334658203125,-2.878565549850464,8.702695846557617,3.074777126312256
1772727594497811200,11.650811279296875,-2.7421748638153076,8.791230201721191,3.0891339778900146
1772727594515156500,11.668156494140625,-2.7110681533813477,8.877371788024902,3.036491870880127
1772727594532502000,11.685501953125,-2.8187451362609863,8.846264839172363,2.8666014671325684
1772727594549847300,11.702847412109374,-2.8833513259887695,8.863015174865723,2.7086751461029053
1772727594567192800,11.72019287109375,-2.768495798110962,8.81515884399414,2.5292134284973145
1772727594584538000,11.7375380859375,-2.5842485427856445,8.638090133666992,2.541177749633789
1772727594601883600,11.754883544921874,-2.517249345779419,8.504091262817383,2.8115665912628174
1772727594619229000,11.77222900390625,-2.550748825073242,8.482556343078613,3.098705291748047
1772727594636574500,11.789574462890625,-2.4526431560516357,8.542376518249512,3.2542388439178467
1772727594653919700,11.806919677734374,-2.390429735183716,8.568697929382324,3.1489546298980713
1772727594671265300,11.824265380859375,-2.3545374870300293,8.614161491394043,2.806781053543091
1772727594688610600,11.841610595703125,-2.3736801147460938,8.590232849121094,2.6727828979492188
1772727594705955800,11.858955810546876,-2.455035924911499,8.571090698242188,2.691925525665283
1772727594723301400,11.87630126953125,-2.438286304473877,8.764909744262695,2.7421748638153076
1772727594740646700,11.893646728515625,-2.280359983444214,8.889336585998535,2.667997360229492
1772727594757992200,11.9109921875,-2.3401806354522705,8.786444664001465,2.7349963188171387
1772727594775337500,11.92833740234375,-2.53399920463562,8.731410026550293,2.7972097396850586
1772727594792683000,11.94568310546875,-2.6775684356689453,8.817551612854004,2.957528829574585
1772727594810028300,11.9630283203125,-2.644068956375122,8.894122123718262,3.1130621433258057
1772727594827373800,11.980373779296874,-2.66560435295105,9.090332984924316,3.050848960876465
1772727594844719000,11.997718994140625,-2.6775684356689453,9.142974853515625,3.0077781677246094
1772727594862064600,12.015064697265625,-2.6057839393615723,9.119047164916992,2.9168508052825928
1772727594879410000,12.032409912109374,-2.6775684356689453,9.176474571228027,2.864208698272705
1772727594896755500,12.04975537109375,-2.6392834186553955,9.200403213500977,2.912065267562866
1772727594914100700,12.067100830078125,-2.7014968395233154,9.269794464111328,2.9048867225646973
1772727594931446300,12.0844462890625,-2.8211379051208496,9.245866775512695,2.9288148880004883
1772727594948791600,12.10179150390625,-2.778067111968994,9.19561767578125,3.050848960876465
1772727594966136800,12.11913671875,-2.933600664138794,9.181260108947754,2.9694929122924805
1772727594983482400,12.136482421875,-2.8211379051208496,9.190832138061523,2.902493953704834
1772727595000828000,12.153827880859374,-2.8426733016967773,9.140582084655762,2.9216363430023193
1772727595018173200,12.171173095703125,-2.943171739578247,9.174081802368164,2.9383862018585205
1772727595035518500,12.1885185546875,-2.816352367401123,9.186046600341797,2.8929226398468018
1772727595052864000,12.205864013671874,-2.9168508052825928,8.97787094116211,2.9312076568603516
1772727595070209300,12.223209228515625,-2.8522446155548096,8.752944946289062,2.998206853866577
1772727595087554800,12.240554931640625,-2.809173822402954,8.702695846557617,3.1489546298980713
1772727595104900000,12.257900146484374,-2.7182464599609375,8.831908226013184,3.036491870880127
1772727595122245600,12.27524560546875,-2.6560330390930176,9.131011009216309,2.8498518466949463
1772727595139591000,12.2925908203125,-2.572284460067749,8.987442016601562,2.6153552532196045
1772727595156936400,12.3099365234375,-2.8187451362609863,8.652446746826172,2.469393014907837
1772727595174281700,12.32728173828125,-2.7397818565368652,8.563912391662598,2.612962245941162
1772727595191627300,12.344627197265625,-2.651247501373291,8.72183895111084,2.9144580364227295
1772727595208972500,12.36197265625,-2.510071039199829,8.657232284545898,2.9599215984344482
1772727595226317800,12.37931787109375,-2.287538528442383,8.434700012207031,2.837887763977051
1772727595243663400,12.396663330078125,-2.526820659637451,8.26241683959961,2.833101987838745
1772727595261008600,12.414008544921876,-2.6703901290893555,8.439485549926758,2.9455647468566895
1772727595278354200,12.431354248046874,-2.555534601211548,8.819944381713867,3.0029923915863037
1772727595295699500,12.448699462890625,-2.3617160320281982,8.793622970581055,2.7182464599609375
1772727595313045000,12.466044921875,-2.3976082801818848,8.525627136230469,2.56510591506958
1772727595330390300,12.483390380859374,-2.526820659637451,8.307880401611328,2.6632115840911865
1772727595347735800,12.50073583984375,-2.720639228820801,8.420342445373535,2.895315408706665
1772727595365081000,12.5180810546875,-2.526820659637451,8.824729919433594,3.043670415878296
1772727595382426600,12.535426513671876,-2.392822742462158,9.061619758605957,2.902493953704834
1772727595399772000,12.55277197265625,-2.421536445617676,8.937192916870117,2.7517459392547607
1772727595417117400,12.570117431640625,-2.66560435295105,8.874979019165039,2.7804598808288574
1772727595434462700,12.587462646484376,-2.720639228820801,8.896514892578125,2.9001009464263916
1772727595451808300,12.604808349609375,-2.586641311645508,8.927620887756348,3.029313564300537
1772727595469153500,12.622153564453125,-2.612962245941162,8.965906143188477,3.0005996227264404
1772727595486498800,12.639498779296876,-2.7972097396850586,9.016156196594238,3.022135019302368
1772727595503844400,12.65684423828125,-2.9072794914245605,9.257830619812012,3.0723843574523926
1772727595521190000,12.67418994140625,-2.8809585571289062,9.456435203552246,3.012563705444336
1772727595538535200,12.69153515625,-2.644068956375122,9.384650230407715,2.6273193359375
1772727595555880400,12.70888037109375,-2.730210542678833,9.138189315795898,2.6536402702331543
1772727595573226000,12.72622607421875,-2.6871397495269775,8.882157325744629,2.9240293502807617
1772727595590571300,12.7435712890625,-2.8115665912628174,9.080761909484863,3.2207393646240234
1772727595607916800,12.760916748046874,-2.744567632675171,9.353543281555176,3.2279176712036133
1772727595625262000,12.778261962890625,-2.6560330390930176,9.42054271697998,2.912065267562866
1772727595642607600,12.795607666015625,-2.7732813358306885,9.205188751220703,2.5842485427856445
1772727595659953000,12.812952880859376,-2.7972097396850586,8.865407943725586,2.6488547325134277
1772727595677298400,12.83029833984375,-2.7828526496887207,8.74337387084961,2.9790642261505127
1772727595694643700,12.847643798828125,-2.799602508544922,8.738588333129883,3.012563705444336
1772727595711989200,12.8649892578125,-2.806781053543091,8.831908226013184,2.9479575157165527
1772727595729334500,12.88233447265625,-2.7828526496887207,8.831908226013184,2.926422119140625
1772727595746679800,12.8996796875,-2.801995277404785,8.671588897705078,2.8522446155548096
1772727595764025300,12.917025390625,-2.7589244842529297,8.590232849121094,2.7182464599609375
1772727595781371000,12.934370849609374,-2.8283164501190186,8.542376518249512,2.6775684356689453
1772727595798716200,12.951716064453125,-2.854637384414673,8.535198211669922,2.682354211807251
1772727595816061400,12.9690615234375,-2.8043880462646484,8.623732566833496,2.7972097396850586
1772727595833407000,12.986406982421874,-2.6249263286590576,8.652446746826172,2.895315408706665
1772727595850752300,13.003752197265625,-2.768495798110962,8.6907320022583,2.9359934329986572
1772727595868097800,13.021097900390625,-2.6943182945251465,8.733802795410156,2.8498518466949463
1772727595885443000,13.038443115234376,-2.7397818565368652,8.762516975402832,2.7589244842529297
1772727595902788600,13.05578857421875,-2.682354211807251,8.693124771118164,2.6464617252349854
1772727595920134000,13.0731337890625,-2.6847469806671143,8.61176872253418,2.7397818565368652
1772727595937479400,13.0904794921875,-2.5914268493652344,8.508877754211426,2.926422119140625
1772727595954824700,13.10782470703125,-2.6632115840911865,8.685946464538574,3.0795626640319824
1772727595972170200,13.125170166015625,-2.63449764251709,8.891729354858398,3.036491870880127
1772727595989515500,13.142515625,-2.56510591506958,8.958727836608887,2.6536402702331543
1772727596006861000,13.159861083984374,-2.7517459392547607,8.834300994873047,2.5603201389312744
1772727596024206300,13.177206298828125,-2.6392834186553955,8.583054542541504,2.6273193359375
1772727596041552000,13.1945517578125,-2.651247501373291,8.568697929382324,2.9455647468566895
1772727596058897200,13.211897216796874,-2.581855535507202,8.772088050842285,3.1992039680480957
1772727596076242700,13.22924267578125,-2.5770699977874756,9.006584167480469,3.290131092071533
1772727596093588000,13.246587890625,-2.4741785526275635,9.032905578613281,2.9144580364227295
1772727596110933200,13.263933349609376,-2.770888566970825,8.975478172302246,2.579462766647339
1772727596128278800,13.28127880859375,-2.644068956375122,8.889336585998535,2.68953275680542
1772727596145624000,13.2986240234375,-2.7014968395233154,8.874979019165039,2.809173822402954
1772727596162969600,13.315969482421876,-2.6560330390930176,8.937192916870117,2.933600664138794
1772727596180315000,13.33331494140625,-2.60339093208313,9.049654960632324,2.957528829574585
1772727596197660400,13.350660400390625,-2.794816732406616,9.035298347473145,3.0269205570220947
1772727596215005700,13.368005615234376,-2.7637102603912354,9.008976936340332,2.940778970718384
1772727596232351200,13.385351318359374,-2.825923442840576,8.949156761169434,2.847458839416504
1772727596249696500,13.402696533203125,-2.7732813358306885,8.762516975402832,2.7732813358306885
1772727596267042000,13.4200419921875,-2.730210542678833,8.681160926818848,2.9144580364227295
1772727596284387300,13.43738720703125,-2.682354211807251,8.760123252868652,3.012563705444336
1772727596301732900,13.45473291015625,-2.770888566970825,9.018548965454102,2.981456995010376
1772727596319078100,13.472078125,-2.809173822402954,9.142974853515625,2.885744094848633
1772727596336423700,13.489423583984374,-2.7278177738189697,8.951549530029297,2.610569477081299
1772727596353769000,13.50676904296875,-2.7565317153930664,8.6907320022583,2.5076780319213867
1772727596371114500,13.524114501953125,-2.8354947566986084,8.518448829650879,2.7589244842529297
1772727596388459800,13.541459716796876,-2.770888566970825,8.602197647094727,3.06999135017395
1772727596405805000,13.55880517578125,-2.8043880462646484,8.731410026550293,3.074777126312256
1772727596423150600,13.576150634765625,-2.60339093208313,8.800801277160645,2.7900311946868896
1772727596440496000,13.59349609375,-2.801995277404785,8.817551612854004,2.7086751461029053
1772727596457841400,13.61084130859375,-2.888136863708496,8.650053977966309,2.691925525665283
1772727596475186700,13.628186767578125,-2.8426733016967773,8.616554260253906,2.7014968395233154
1772727596492532200,13.6455322265625,-2.715853691101074,8.566305160522461,2.713460922241211
1772727596509877500,13.66287744140625,-2.6273193359375,8.437092781066895,2.806781053543091
1772727596527223000,13.68022314453125,-2.8283164501190186,8.499305725097656,2.9216363430023193
1772727596544568300,13.697568359375,-2.9072794914245605,8.666803359985352,2.964707374572754
1772727596561913900,13.714913818359374,-2.861815929412842,8.901300430297852,2.888136863708496
1772727596579259100,13.732259033203125,-2.799602508544922,8.877371788024902,2.6368906497955322
1772727596596604700,13.749604736328125,-2.847458839416504,8.614161491394043,2.557927370071411
1772727596613950000,13.766949951171876,-2.902493953704834,8.504091262817383,2.7254250049591064
1772727596631295500,13.78429541015625,-2.888136863708496,8.662017822265625,3.0005996227264404
1772727596648640800,13.801640869140625,-2.768495798110962,8.800801277160645,3.1034910678863525
1772727596665986300,13.818986328125,-2.7421748638153076,8.874979019165039,3.050848960876465
1772727596683331600,13.83633154296875,-2.7637102603912354,8.882157325744629,2.861815929412842
1772727596700677000,13.853677001953125,-2.8977081775665283,8.891729354858398,2.801995277404785
1772727596718022400,13.8710224609375,-2.823530673980713,8.8438720703125,2.6847469806671143
1772727596735368000,13.888367919921874,-2.895315408706665,8.740981101989746,2.7661030292510986
1772727596752713200,13.905713134765625,-2.8187451362609863,8.72901725769043,2.8666014671325684
1772727596770058800,13.923058837890625,-2.861815929412842,8.86062240600586,3.0317063331604004
1772727596787404000,13.940404052734374,-2.9623143672943115,8.970691680908203,3.043670415878296
1772727596804749600,13.95774951171875,-2.9766714572906494,8.999405860900879,2.9694929122924805
1772727596822094800,13.9750947265625,-2.7182464599609375,8.86780071258545,2.792423963546753
1772727596839440100,13.992440185546876,-2.940778970718384,8.72183895111084,2.6967110633850098
1772727596856785700,14.00978564453125,-3.0556344985961914,8.72183895111084,2.8833513259887695
1772727596874131000,14.027130859375,-2.68953275680542,8.86780071258545,2.9838497638702393
1772727596891476500,14.0444765625,-2.7517459392547607,8.934800148010254,2.902493953704834
1772727596908821800,14.06182177734375,-2.8043880462646484,8.851051330566406,2.806781053543091
1772727596926167300,14.079167236328125,-3.014956474304199,8.819944381713867,2.746960401535034
1772727596943512600,14.0965126953125,-2.9623143672943115,8.910871505737305,2.730210542678833
1772727596960858000,14.113858154296874,-2.7110681533813477,8.925228118896484,2.651247501373291
1772727596978203400,14.131203369140625,-2.7110681533813477,8.733802795410156,2.581855535507202
1772727596995549000,14.148548828125,-2.8450660705566406,8.578269004821777,2.699103832244873
1772727597012894200,14.165894287109374,-2.9312076568603516,8.566305160522461,2.9527430534362793
1772727597030239700,14.18323974609375,-2.8043880462646484,8.681160926818848,3.208775281906128
1772727597047585000,14.2005849609375,-2.644068956375122,8.757730484008789,3.208775281906128
1772727597064930600,14.2179306640625,-2.6967110633850098,8.702695846557617,2.9718856811523438
1772727597082275800,14.23527587890625,-2.754138946533203,8.57348346710205,2.7804598808288574
1772727597099621400,14.252621337890625,-2.885744094848633,8.571090698242188,2.682354211807251
1772727597116966700,14.269966552734376,-2.830709218978882,8.650053977966309,2.7517459392547607
1772727597134312200,14.287312255859375,-2.7254250049591064,8.817551612854004,2.7397818565368652
1772727597151657500,14.304657470703125,-2.7326035499572754,8.839086532592773,2.7900311946868896
1772727597169003000,14.3220029296875,-2.7972097396850586,8.879764556884766,2.744567632675171
1772727597186348300,14.339348388671874,-2.9359934329986572,8.915657043457031,2.8283164501190186
1772727597203693800,14.35669384765625,-2.754138946533203,8.841479301452637,2.775674343109131
1772727597221039000,14.3740390625,-2.7637102603912354,8.786444664001465,2.675175666809082
1772727597238384600,14.391384521484374,-3.012563705444336,8.683553695678711,2.861815929412842
1772727597255730000,14.40872998046875,-3.0005996227264404,8.80798053741455,3.1106693744659424
1772727597273075500,14.426075439453125,-3.014956474304199,9.05444049835205,3.2039895057678223
1772727597290420700,14.443420654296874,-2.8283164501190186,9.073583602905273,2.9694929122924805
1772727597307766000,14.46076611328125,-2.9168508052825928,8.963513374328613,2.6943182945251465
1772727597325111600,14.478111572265625,-2.8905298709869385,8.755337715148926,2.4717857837677
1772727597342456800,14.495456787109376,-3.0652058124542236,8.800801277160645,2.7014968395233154
1772727597359802400,14.51280224609375,-3.077169895172119,8.982656478881836,2.9240293502807617
1772727597377147600,14.530147705078125,-2.744567632675171,8.999405860900879,2.8354947566986084
1772727597394493200,14.5474931640625,-2.8929226398468018,8.793622970581055,2.8737800121307373
1772727597411838500,14.56483837890625,-2.8426733016967773,8.441878318786621,3.0388846397399902
1772727597429184000,14.58218408203125,-2.933600664138794,8.484949111938477,3.0245277881622314
1772727597446529300,14.599529296875,-3.0580272674560547,8.786444664001465,3.050848960876465
1772727597463874800,14.616874755859374,-2.8905298709869385,9.066405296325684,2.7876384258270264
1772727597481220000,14.63422021484375,-2.8833513259887695,9.080761909484863,2.407179594039917
1772727597498565600,14.651565673828125,-2.9072794914245605,8.796015739440918,2.4335005283355713
1772727597515911000,14.668910888671874,-2.940778970718384,8.58066177368164,2.7326035499572754
1772727597533256400,14.68625634765625,-2.8977081775665283,8.597412109375,3.0173492431640625
1772727597550601700,14.703601806640625,-2.919243574142456,8.73619556427002,3.043670415878296
1772727597567947300,14.720947265625,-2.830709218978882,8.824729919433594,3.014956474304199
1772727597585292500,14.73829248046875,-2.864208698272705,8.784051895141602,2.715853691101074
1772727597602638000,14.75563818359375,-3.2063822746276855,8.810373306274414,2.7278177738189697
1772727597619983400,14.7729833984375,-3.2303106784820557,8.925228118896484,2.8498518466949463
1772727597637329000,14.790328857421875,-3.335594654083252,9.09272575378418,2.8761727809906006
1772727597654674200,14.807674072265625,-3.366701364517212,9.250652313232422,2.8450660705566406
1772727597672019700,14.825019775390626,-3.3690943717956543,9.298508644104004,2.737389087677002
1772727597689365000,14.842364990234374,-3.390629768371582,9.257830619812012,2.7086751461029053
1772727597706710300,14.859710205078125,-3.483949661254883,9.219545364379883,2.8426733016967773
1772727597724055800,14.877055908203126,-3.460021495819092,9.30329418182373,3.1680972576141357
1772727597741401300,14.8944013671875,-3.3714871406555176,9.410971641540527,3.3236305713653564
1772727597758746600,14.91174658203125,-3.2350962162017822,9.384650230407715,3.31884503364563
1772727597776092000,14.929091796875,-3.2685956954956055,9.150154113769531,2.9862427711486816
1772727597793437400,14.9464375,-3.0580272674560547,9.011369705200195,2.7900311946868896
1772727597810782700,14.96378271484375,-3.1800613403320312,9.037691116333008,2.9312076568603516
1772727597828128300,14.981128173828125,-3.050848960876465,9.095118522644043,2.909672260284424
1772727597845473500,14.9984736328125,-2.5387847423553467,8.970691680908203,2.730210542678833
1772727597862819000,15.015819091796875,-2.572284460067749,8.654839515686035,2.675175666809082
1772727597880164400,15.033164306640625,-2.713460922241211,8.427521705627441,2.785245656967163
1772727597897510000,15.050510009765626,-2.754138946533203,8.61176872253418,2.981456995010376
1772727597914855200,15.067855224609374,-2.5148565769195557,8.70508861541748,2.823530673980713
1772727597932200700,15.08520068359375,-2.6249263286590576,8.516056060791016,2.675175666809082
1772727597949546000,15.1025458984375,-2.775674343109131,8.252845764160156,2.775674343109131
1772727597966891500,15.1198916015625,-2.792423963546753,8.214560508728027,2.7661030292510986
1772727597984236800,15.13723681640625,-3.036491870880127,8.46580696105957,2.9312076568603516
1772727598001582300,15.154582275390625,-2.5938198566436768,8.681160926818848,2.7732813358306885
1772727598018927600,15.171927734375,-2.7349963188171387,8.57348346710205,2.53399920463562
1772727598036273200,15.189273193359375,-2.9718856811523438,8.329415321350098,2.5698914527893066
1772727598053618400,15.206618408203125,-2.964707374572754,8.295916557312012,2.9072794914245605
1772727598070964000,15.2239638671875,-2.991028308868408,8.46341323852539,3.022135019302368
1772727598088309200,15.241309326171875,-2.775674343109131,8.561519622802734,2.7565317153930664
1772727598105654800,15.25865478515625,-2.9790642261505127,8.623732566833496,2.6775684356689453
1772727598123000000,15.276,-3.067598581314087,8.585447311401367,2.8905298709869385
1772727598140345600,15.293345703125,-3.115455150604248,8.73619556427002,2.9790642261505127
1772727598157691000,15.31069091796875,-3.067598581314087,9.001798629760742,2.9527430534362793
1772727598175036200,15.3280361328125,-2.933600664138794,8.94676399230957,2.888136863708496
1772727598192381700,15.345381591796874,-3.0939197540283203,8.86062240600586,2.825923442840576
1772727598209727200,15.362727294921875,-3.2039895057678223,8.927620887756348,2.9144580364227295
1772727598227072500,15.380072509765625,-3.1728827953338623,9.104690551757812,3.0005996227264404
1772727598244417800,15.397417724609374,-3.1800613403320312,9.281759262084961,3.0388846397399902
1772727598261763300,15.414763427734375,-3.108276605606079,9.31047248840332,2.8594231605529785
1772727598279108600,15.432108642578125,-3.2757742404937744,9.255437850952148,3.0005996227264404
1772727598296454100,15.4494541015625,-3.2829527854919434,9.157332420349121,3.0891339778900146
1772727598313799700,15.466799560546875,-3.359523057937622,9.245866775512695,3.074777126312256
1772727598331145000,15.48414501953125,-3.326023578643799,9.343972206115723,3.0412776470184326
1772727598348490200,15.501490234375,-3.22552490234375,9.370293617248535,2.943171739578247
1772727598365835800,15.518835693359375,-3.3643085956573486,9.382257461547852,2.9527430534362793
1772727598383181000,15.53618115234375,-3.2853455543518066,9.42054271697998,3.0269205570220947
1772727598400526600,15.553526611328126,-3.239881753921509,9.547362327575684,2.950350284576416
1772727598417872000,15.570871826171874,-3.139383316040039,9.415757179260254,2.825923442840576
1772727598435217400,15.588217529296875,-2.9599215984344482,9.116654396057129,2.7421748638153076
1772727598452562700,15.605562744140625,-3.022135019302368,8.863015174865723,2.7661030292510986
1772727598469908200,15.622908203125,-3.0340991020202637,8.877371788024902,3.012563705444336
1772727598487253500,15.64025341796875,-2.9790642261505127,9.044869422912598,3.1130621433258057
1772727598504599000,15.65759912109375,-2.854637384414673,9.078369140625,2.792423963546753
1772727598521944300,15.6749443359375,-2.8737800121307373,8.762516975402832,2.4598217010498047
1772727598539289900,15.692289794921875,-2.770888566970825,8.34855842590332,2.400001049041748
1772727598556635100,15.70963525390625,-2.9790642261505127,8.147561073303223,2.6081767082214355
1772727598573980700,15.726980712890626,-2.940778970718384,8.195417404174805,2.9312076568603516
1772727598591326000,15.744325927734375,-2.7493531703948975,8.350951194763184,2.9359934329986572
1772727598608671500,15.76167138671875,-2.823530673980713,8.439485549926758,2.8689942359924316
1772727598626016800,15.779016845703126,-3.0029923915863037,8.391629219055176,2.644068956375122
1772727598643362300,15.7963623046875,-3.1178479194641113,8.279166221618652,2.5938198566436768
1772727598660707600,15.81370751953125,-3.242274761199951,8.166703224182129,2.6847469806671143
1772727598678052900,15.831052978515626,-3.1561331748962402,8.102097511291504,2.792423963546753
1772727598695398400,15.8483984375,-3.1968109607696533,8.260024070739746,2.8761727809906006
1772727598712743700,15.86574365234375,-3.280559778213501,8.415556907653809,2.9479575157165527
1772727598730089200,15.883089111328125,-3.3020951747894287,8.647661209106445,3.060420274734497
1772727598747434500,15.9004345703125,-3.129812002182007,8.851051330566406,2.8594231605529785
1772727598764780000,15.917780029296875,-3.029313564300537,8.69791030883789,2.6321048736572266
1772727598782125300,15.935125244140625,-3.10109806060791,8.48734188079834,2.7182464599609375
1772727598799470800,15.952470947265626,-3.2231321334838867,8.58784008026123,2.988635540008545
1772727598816816000,15.969816162109375,-3.2303106784820557,8.896514892578125,3.0939197540283203
1772727598834161700,15.98716162109375,-3.2470602989196777,9.157332420349121,2.974278450012207
1772727598851507000,16.0045068359375,-3.19441819190979,9.104690551757812,2.809173822402954
1772727598868852500,16.0218525390625,-3.3571300506591797,9.040083885192871,2.909672260284424
1772727598886197800,16.03919775390625,-3.483949661254883,9.030512809753418,2.9623143672943115
1772727598903543300,16.056543212890624,-3.34995174407959,8.934800148010254,2.9718856811523438
1772727598920888600,16.073888671875,-3.3714871406555176,8.956335067749023,2.9838497638702393
1772727598938234000,16.091234130859377,-3.5150563716888428,9.083154678344727,3.1178479194641113
1772727598955579400,16.108579345703124,-3.4815568923950195,9.238688468933105,3.1441688537597656
1772727598972925000,16.125925048828126,-3.2997024059295654,9.372686386108398,3.012563705444336
1772727598990270200,16.143270263671877,-3.2446675300598145,9.274580955505371,2.720639228820801
1772727599007615700,16.16061572265625,-3.3690943717956543,8.999405860900879,2.675175666809082
1772727599024961000,16.1779609375,-3.548556089401245,8.922835350036621,2.770888566970825
1772727599042306300,16.195306396484376,-3.421736478805542,9.06401252746582,2.991028308868408
1772727599059651800,16.21265185546875,-3.273381471633911,9.219545364379883,3.1034910678863525
1772727599076997400,16.229997314453126,-3.1657042503356934,9.190832138061523,2.974278450012207
1772727599094342700,16.2473427734375,-3.2231321334838867,9.032905578613281,2.8139593601226807
1772727599111688000,16.26468798828125,-3.352344512939453,8.83669376373291,2.7038896083831787
1772727599129033500,16.282033447265626,-3.2781670093536377,8.748159408569336,2.730210542678833
1772727599146378800,16.299378662109376,-3.208775281906128,8.72901725769043,2.775674343109131
1772727599163724300,16.316724365234375,-3.0628130435943604,8.752944946289062,2.9168508052825928
1772727599181069600,16.334069580078125,-3.273381471633911,8.796015739440918,2.9144580364227295
1772727599198415000,16.3514150390625,-3.0245277881622314,8.654839515686035,2.7804598808288574
1772727599215760400,16.368760498046875,-3.067598581314087,8.563912391662598,2.651247501373291
1772727599233106000,16.38610595703125,-3.043670415878296,8.410771369934082,2.746960401535034
1772727599250451200,16.403451171875,-3.1417760848999023,8.384450912475586,2.770888566970825
1772727599267796700,16.420796630859375,-3.0652058124542236,8.48734188079834,3.0077781677246094
1772727599285142000,16.43814208984375,-3.06999135017395,8.72901725769043,2.940778970718384
1772727599302487600,16.455487548828124,-3.0556344985961914,8.688339233398438,2.8187451362609863
1772727599319832800,16.472832763671875,-2.967100143432617,8.60459041595459,2.579462766647339
1772727599337178400,16.490178466796873,-3.1345977783203125,8.609375953674316,2.6943182945251465
1772727599354523600,16.507523681640624,-3.060420274734497,8.688339233398438,2.825923442840576
1772727599371869200,16.524869140625,-3.046063184738159,8.846264839172363,3.067598581314087
1772727599389214500,16.54221435546875,-2.9623143672943115,8.841479301452637,3.060420274734497
1772727599406560000,16.55956005859375,-2.9599215984344482,8.791230201721191,2.8450660705566406
1772727599423905300,16.5769052734375,-3.0340991020202637,8.755337715148926,2.8666014671325684
1772727599441250800,16.594250732421877,-3.22552490234375,8.74337387084961,2.8043880462646484
1772727599458596000,16.61159619140625,-3.06999135017395,8.824729919433594,2.768495798110962
1772727599475941400,16.62894140625,-3.208775281906128,8.882157325744629,2.974278450012207
1772727599493287000,16.646286865234377,-3.2039895057678223,8.86780071258545,3.043670415878296
1772727599510632200,16.663632080078123,-3.1680972576141357,8.800801277160645,2.8929226398468018
1772727599527977700,16.680977783203126,-3.0723843574523926,8.523234367370605,2.8354947566986084
1772727599545323000,16.698322998046876,-3.2925238609313965,8.48016357421875,2.837887763977051
1772727599562668500,16.71566845703125,-3.352344512939453,8.662017822265625,2.9958138465881348
1772727599580013800,16.733013916015626,-3.2350962162017822,8.898907661437988,3.0317063331604004
1772727599597359400,16.750359375,-3.3020951747894287,9.083154678344727,2.9599215984344482
1772727599614704600,16.76770458984375,-3.4432718753814697,9.018548965454102,2.7278177738189697
1772727599632050200,16.78505029296875,-3.3930225372314453,8.865407943725586,2.6249263286590576
1772727599649395500,16.8023955078125,-3.555734395980835,8.85344409942627,2.723032236099243
1772727599666741000,16.819740966796875,-3.572484254837036,9.05444049835205,3.053241729736328
1772727599684086300,16.837086181640625,-3.5294134616851807,9.370293617248535,3.13220477104187
1772727599701431800,16.854431884765624,-3.414557933807373,9.401400566101074,3.0317063331604004
1772727599718777000,16.871777099609375,-3.294916868209839,9.262616157531738,2.7565317153930664
1772727599736122600,16.88912255859375,-3.5605201721191406,9.035298347473145,2.7972097396850586
1772727599753468000,16.906468017578124,-3.3786656856536865,8.82951545715332,2.8283164501190186
1772727599770813400,16.9238134765625,-3.3164522647857666,8.94676399230957,2.8977081775665283
1772727599788158700,16.94115869140625,-3.304488182067871,9.06401252746582,3.060420274734497
1772727599805504300,16.958504150390624,-3.366701364517212,9.116654396057129,2.926422119140625
1772727599822849500,16.975849609375,-3.2063822746276855,8.999405860900879,2.754138946533203
1772727599840195000,16.993195068359373,-3.3068809509277344,8.764909744262695,2.6632115840911865
1772727599857540400,17.010540283203124,-3.25663161277771,8.666803359985352,2.68953275680542
1772727599874885600,17.0278857421875,-3.2279176712036133,8.781659126281738,3.005385160446167
1772727599892231200,17.045231201171877,-3.0891339778900146,8.776873588562012,3.1489546298980713
1772727599909576400,17.062576416015624,-2.9838497638702393,8.798408508300781,2.9479575157165527
1772727599926922000,17.079921875,-3.2590243816375732,8.745766639709473,2.888136863708496
1772727599944267300,17.097267333984377,-3.304488182067871,8.786444664001465,2.8211379051208496
1772727599961612800,17.11461279296875,-3.2685956954956055,8.95394229888916,2.7349963188171387
1772727599978958000,17.1319580078125,-2.9527430534362793,8.824729919433594,2.6967110633850098
1772727599996303600,17.1493037109375,-2.9623143672943115,8.671588897705078,2.6799614429473877
1772727600013649000,17.16664892578125,-3.239881753921509,8.561519622802734,2.9527430534362793
1772727600030994400,17.183994384765626,-3.19441819190979,8.599804878234863,3.266202926635742
1772727600048339700,17.201339599609376,-3.050848960876465,8.752944946289062,3.098705291748047
1772727600065685200,17.218685302734375,-2.9862427711486816,8.69791030883789,2.7397818565368652
1772727600083030500,17.236030517578126,-3.273381471633911,8.662017822265625,2.6249263286590576
1772727600100376000,17.2533759765625,-3.2542388439178467,8.700303077697754,2.737389087677002
1772727600117721300,17.270721435546875,-3.1417760848999023,8.858229637145996,2.7326035499572754
1772727600135067000,17.28806689453125,-3.053241729736328,8.798408508300781,2.9001009464263916
1772727600152412200,17.305412109375,-2.9790642261505127,8.724231719970703,2.854637384414673
1772727600169757700,17.3227578125,-3.1824541091918945,8.666803359985352,2.9599215984344482
1772727600187103000,17.34010302734375,-3.2303106784820557,8.733802795410156,3.0891339778900146
1772727600204448300,17.3574482421875,-3.19441819190979,8.973084449768066,2.9694929122924805
1772727600221793800,17.374793701171875,-3.1752755641937256,9.001798629760742,2.7732813358306885
1772727600239139000,17.39213916015625,-3.4504501819610596,8.908478736877441,2.8115665912628174
1772727600256484600,17.409484619140624,-3.4169507026672363,8.951549530029297,2.9599215984344482
1772727600273830100,17.426830078125,-3.3930225372314453,9.119047164916992,2.9240293502807617
1772727600291175400,17.444175537109373,-3.3571300506591797,9.231510162353516,2.8809585571289062
1772727600308520700,17.461520751953124,-3.383451223373413,9.236295700073242,2.8426733016967773
1772727600325866200,17.4788662109375,-3.4169507026672363,9.135796546936035,2.9216363430023193
1772727600343211500,17.49621142578125,-3.376272678375244,9.011369705200195,2.9623143672943115
1772727600360557000,17.51355712890625,-3.242274761199951,8.944371223449707,2.9694929122924805
1772727600377902300,17.53090234375,-3.3308091163635254,8.96829891204834,2.964707374572754
1772727600395247900,17.548247802734377,-3.594019651412964,9.001798629760742,3.1561331748962402
1772727600412593200,17.56559326171875,-3.335594654083252,9.157332420349121,2.9599215984344482
1772727600429938700,17.582938720703126,-3.4265220165252686,9.135796546936035,2.6608188152313232
1772727600447284000,17.600283935546877,-3.541377544403076,9.018548965454102,2.691925525665283
1772727600464629500,17.61762939453125,-3.5294134616851807,8.994620323181152,2.9694929122924805
1772727600481974800,17.634974853515626,-3.31884503364563,8.86062240600586,3.0173492431640625
1772727600499320000,17.652320068359376,-3.2446675300598145,8.834300994873047,2.943171739578247
1772727600516665600,17.66966552734375,-3.366701364517212,8.872586250305176,3.005385160446167
1772727600534011100,17.68701123046875,-3.4815568923950195,8.999405860900879,3.13220477104187
1772727600551356400,17.7043564453125,-3.4193434715270996,9.22433090209961,3.084348440170288
1772727600568701700,17.72170166015625,-3.1585259437561035,9.205188751220703,2.8115665912628174
1772727600586047200,17.739047119140626,-3.1441688537597656,8.93958568572998,2.541177749633789
1772727600603392500,17.756392578125,-3.314059257507324,8.683553695678711,2.6273193359375
1772727600620738000,17.773738037109375,-3.4648072719573975,8.724231719970703,3.0029923915863037
1772727600638083300,17.791083251953125,-3.263810157775879,9.035298347473145,3.1585259437561035
1772727600655428900,17.808428955078124,-3.115455150604248,9.040083885192871,2.9958138465881348
1772727600672774100,17.825774169921875,-3.046063184738159,8.781659126281738,2.6392834186553955
1772727600690119700,17.84311962890625,-3.3020951747894287,8.585447311401367,2.6392834186553955
1772727600707465000,17.86046484375,-3.3236305713653564,8.499305725097656,2.8187451362609863
1772727600724810500,17.877810546875,-3.06999135017395,8.662017822265625,2.878565549850464
1772727600742155800,17.89515576171875,-2.943171739578247,8.642875671386719,2.8211379051208496
1772727600759501300,17.912501220703124,-3.0245277881622314,8.551948547363281,2.8833513259887695
1772727600776846600,17.9298466796875,-3.0077781677246094,8.46341323852539,2.799602508544922
1772727600794192100,17.947192138671873,-3.1417760848999023,8.417949676513672,2.785245656967163
1772727600811537400,17.964537353515624,-3.1800613403320312,8.46341323852539,2.6871397495269775
1772727600828883000,17.981883056640626,-3.290131092071533,8.638090133666992,2.9048867225646973
1772727600846228200,17.999228271484377,-3.1680972576141357,8.810373306274414,3.036491870880127
1772727600863573500,18.016573486328124,-3.211168050765991,8.970691680908203,3.0867412090301514
1772727600880919000,18.0339189453125,-3.2303106784820557,9.032905578613281,2.988635540008545
1772727600898264300,18.051264404296877,-3.3858439922332764,9.114261627197266,2.9718856811523438
1772727600915609900,18.06860986328125,-3.548556089401245,9.305686950683594,2.9527430534362793
1772727600932955100,18.085955078125,-3.4672000408172607,9.523433685302734,2.964707374572754
1772727600950300700,18.10330078125,-3.404986619949341,9.65503978729248,2.871387243270874
1772727600967646000,18.12064599609375,-3.507878065109253,9.477970123291016,2.8809585571289062
1772727600984991500,18.137991455078126,-3.541377544403076,9.28893756866455,3.0101709365844727
1772727601002336800,18.155336669921876,-3.5198421478271484,9.317651748657227,3.177668571472168
1772727601019682300,18.172682373046875,-3.460021495819092,9.279366493225098,3.16331148147583
1772727601037027600,18.190027587890626,-3.469592809677124,9.305686950683594,2.9790642261505127
1772727601054372900,18.207372802734376,-3.5676984786987305,9.145368576049805,2.957528829574585
1772727601071718400,18.224718505859375,-3.493520975112915,9.121439933776855,2.9838497638702393
1772727601089064000,18.24206396484375,-3.7112679481506348,9.135796546936035,2.8761727809906006
1772727601106409200,18.2594091796875,-3.5054850578308105,9.030512809753418,2.7589244842529297
1772727601123754500,18.27675439453125,-3.4097721576690674,8.855836868286133,2.8187451362609863
1772727601141100000,18.29410009765625,-3.390629768371582,8.60459041595459,2.8498518466949463
1772727601158445300,18.3114453125,-3.2829527854919434,8.520841598510742,3.0317063331604004
1772727601175790800,18.328790771484375,-3.359523057937622,8.707481384277344,3.050848960876465
1772727601193136000,18.34613623046875,-3.3714871406555176,8.764909744262695,3.211168050765991
1772727601210481700,18.363481689453124,-3.2829527854919434,8.81515884399414,2.7900311946868896
1772727601227827000,18.380826904296875,-3.562912940979004,8.85344409942627,2.5674986839294434
1772727601245172500,18.39817236328125,-3.414557933807373,8.726624488830566,2.5842485427856445
1772727601262517800,18.415517822265624,-3.436093330383301,8.72901725769043,2.7661030292510986
1772727601279863300,18.43286328125,-3.129812002182007,8.635697364807129,2.825923442840576
1772727601297208600,18.45020849609375,-3.1968109607696533,8.554341316223145,2.895315408706665
1772727601314553900,18.467553955078124,-3.239881753921509,8.516056060791016,2.974278450012207
1772727601331899400,18.4848994140625,-3.280559778213501,8.657232284545898,3.0245277881622314
1772727601349245000,18.502244873046877,-3.2709884643554688,8.855836868286133,3.014956474304199
1772727601366590200,18.519590087890624,-3.06999135017395,8.848658561706543,2.7110681533813477
1772727601383935500,18.536935546875,-3.1968109607696533,8.851051330566406,2.5435705184936523
1772727601401281000,18.554281005859377,-3.373879909515381,8.791230201721191,2.7732813358306885
1772727601418626300,18.571626220703124,-3.2350962162017822,8.963513374328613,2.9838497638702393
1772727601435971800,18.588971923828126,-3.19441819190979,9.109476089477539,3.1585259437561035
1772727601453317000,18.606317138671876,-3.1250264644622803,9.087940216064453,3.0963125228881836
1772727601470662700,18.62366259765625,-3.218346357345581,9.083154678344727,3.115455150604248
1772727601488008000,18.641008056640626,-3.239881753921509,9.078369140625,3.0173492431640625
1772727601505353500,18.658353515625,-3.294916868209839,9.183652877807617,2.950350284576416
1772727601522698800,18.67569873046875,-3.2685956954956055,9.322437286376953,2.9001009464263916
1772727601540044300,18.693044189453126,-3.31884503364563,9.248259544372559,3.014956474304199
1772727601557389600,18.7103896484375,-3.3954153060913086,9.140582084655762,3.046063184738159
1772727601574734800,18.72773486328125,-3.3930225372314453,9.059226989746094,3.043670415878296
1772727601592080400,18.745080322265625,-3.397808074951172,9.004191398620605,3.019742250442505
1772727601609425700,18.76242578125,-3.438486099243164,9.10229778289795,3.084348440170288
1772727601626771200,18.779771240234375,-3.3882367610931396,9.162117958068848,3.053241729736328
1772727601644116500,18.797116455078125,-3.373879909515381,9.011369705200195,2.919243574142456
1772727601661462000,18.8144619140625,-3.4743785858154297,8.908478736877441,2.801995277404785
1772727601678807300,18.831807373046875,-3.4552359580993652,8.824729919433594,2.768495798110962
1772727601696152800,18.84915283203125,-3.5054850578308105,8.927620887756348,2.9383862018585205
1772727601713498000,18.866498046875,-3.1920254230499268,8.874979019165039,2.919243574142456
1772727601730843600,18.88384375,-3.2303106784820557,8.683553695678711,2.7804598808288574
1772727601748189000,18.90118896484375,-3.266202926635742,8.417949676513672,2.761317253112793
1772727601765534500,18.918534423828124,-3.2303106784820557,8.193024635314941,2.847458839416504
1772727601782879700,18.935879638671874,-3.1992039680480957,8.221738815307617,2.7732813358306885
1772727601800225000,18.95322509765625,-3.3858439922332764,8.446663856506348,2.857030153274536
1772727601817570600,18.970570556640624,-3.242274761199951,8.599804878234863,2.864208698272705
1772727601834915800,18.987915771484374,-3.5126636028289795,8.757730484008789,2.823530673980713
1772727601852261400,19.005261474609377,-3.5341989994049072,8.73619556427002,2.857030153274536
1772727601869606700,19.022606689453124,-3.2303106784820557,8.561519622802734,2.6321048736572266
1772727601886952200,19.0399521484375,-3.541377544403076,8.441878318786621,2.792423963546753
1772727601904297500,19.05729736328125,-3.6131622791290283,8.623732566833496,3.294916868209839
1772727601921643000,19.07464306640625,-3.507878065109253,9.166903495788574,3.373879909515381
1772727601938988300,19.09198828125,-3.321237802505493,9.509077072143555,2.840280532836914
1772727601956333800,19.109333740234376,-3.5916268825531006,9.437292098999023,2.885744094848633
1772727601973679000,19.12667919921875,-3.460021495819092,9.439684867858887,2.5124638080596924
1772727601991024400,19.1440244140625,-3.476771354675293,9.028120040893555,2.744567632675171
1772727602008370000,19.161369873046876,-3.570091485977173,8.874979019165039,3.0484559535980225
1772727602025715500,19.178715576171875,-3.0939197540283203,9.059226989746094,3.38105845451355
1772727602043060700,19.196060791015626,-3.4815568923950195,8.901300430297852,3.4169507026672363
1772727602060406000,19.213406005859376,-3.2518460750579834,8.980263710021973,3.2925238609313965
1772727602077751600,19.23075146484375,-3.3954153060913086,8.86062240600586,2.9790642261505127
1772727602095096800,19.248096923828125,-3.1824541091918945,8.760123252868652,2.6608188152313232
1772727602112442400,19.2654423828125,-3.06999135017395,8.583054542541504,2.5914268493652344
1772727602129787600,19.28278759765625,-3.2303106784820557,8.621339797973633,2.825923442840576
1772727602147133200,19.30013330078125,-2.902493953704834,8.702695846557617,3.1585259437561035
1772727602164478500,19.317478515625,-3.1345977783203125,8.650053977966309,2.9838497638702393
1772727602181824000,19.334823974609375,-3.1250264644622803,8.81515884399414,3.0101709365844727
1772727602199169300,19.352169189453125,-3.2374889850616455,9.008976936340332,2.957528829574585
1772727602216514800,19.369514892578124,-3.1178479194641113,9.08554744720459,2.857030153274536
1772727602233860000,19.386860107421874,-3.1585259437561035,9.052047729492188,2.682354211807251
1772727602251205400,19.404205322265625,-3.13220477104187,8.973084449768066,2.9144580364227295
1772727602268551000,19.421551025390624,-3.3882367610931396,8.999405860900879,3.129812002182007
1772727602285896200,19.438896240234374,-3.486342668533325,9.238688468933105,3.1728827953338623
1772727602303241700,19.45624169921875,-3.321237802505493,9.372686386108398,2.940778970718384
1772727602320587000,19.4735869140625,-3.2470602989196777,9.181260108947754,2.6081767082214355
1772727602337932500,19.4909326171875,-3.342773199081421,8.86780071258545,2.6727828979492188
1772727602355277800,19.50827783203125,-3.31884503364563,8.669196128845215,2.895315408706665
1772727602372623400,19.525623291015624,-3.414557933807373,8.752944946289062,3.0317063331604004
1772727602389968600,19.54296875,-3.407379388809204,8.798408508300781,2.9288148880004883
1772727602407314000,19.56031396484375,-3.4552359580993652,8.786444664001465,2.8833513259887695
1772727602424659500,19.577659423828123,-3.2590243816375732,8.676374435424805,2.579462766647339
1772727602442004700,19.595004638671874,-3.4743785858154297,8.49452018737793,2.66560435295105
1772727602459350300,19.612350341796876,-3.493520975112915,8.48734188079834,2.940778970718384
1772727602476695600,19.629695556640623,-3.4002010822296143,8.688339233398438,3.108276605606079
1772727602494041000,19.647041015625,-3.5126636028289795,8.762516975402832,3.022135019302368
1772727602511386400,19.664386474609376,-3.4983067512512207,8.709874153137207,2.9168508052825928
1772727602528732000,19.68173193359375,-3.538984775543213,8.740981101989746,2.964707374572754
1772727602546077200,19.6990771484375,-3.4983067512512207,8.851051330566406,2.991028308868408
1772727602563422700,19.716422607421876,-3.524627685546875,8.994620323181152,2.9072794914245605
1772727602580768000,19.73376806640625,-3.352344512939453,8.865407943725586,2.809173822402954
1772727602598113300,19.75111328125,-3.3332018852233887,8.664410591125488,2.7517459392547607
1772727602615458800,19.768458740234376,-3.570091485977173,8.554341316223145,2.902493953704834
1772727602632804000,19.78580419921875,-3.4959139823913574,8.609375953674316,2.9551360607147217
1772727602650149600,19.803149658203125,-3.407379388809204,8.700303077697754,2.967100143432617
1772727602667495000,19.820494873046876,-3.4002010822296143,8.614161491394043,2.830709218978882
1772727602684840400,19.83784033203125,-3.2207393646240234,8.417949676513672,2.837887763977051
1772727602702185700,19.855185791015625,-3.4097721576690674,8.257631301879883,2.888136863708496
1772727602719531300,19.87253125,-3.38105845451355,8.219346046447754,2.823530673980713
1772727602736876500,19.88987646484375,-3.5198421478271484,8.413164138793945,2.854637384414673
1772727602754221800,19.907221923828125,-3.4815568923950195,8.623732566833496,3.160918712615967
1772727602771567400,19.9245673828125,-3.22552490234375,8.894122123718262,3.084348440170288
1772727602788913000,19.941912841796874,-3.3308091163635254,8.970691680908203,2.902493953704834
1772727602806258200,19.959258056640625,-3.22552490234375,8.810373306274414,2.770888566970825
1772727602823603500,19.976603515625,-3.3858439922332764,8.874979019165039,2.861815929412842
1772727602840949000,19.993948974609374,-3.452843189239502,9.09272575378418,2.943171739578247
1772727602858294300,20.011294189453125,-3.4121651649475098,9.322437286376953,3.0077781677246094
1772727602875639800,20.028639892578123,-3.462414264678955,9.454042434692383,2.943171739578247
1772727602892985000,20.045985107421874,-3.438486099243164,9.375079154968262,2.9838497638702393
1772727602910330600,20.06333056640625,-3.390629768371582,9.1716890335083,2.9766714572906494
1772727602927676000,20.080676025390623,-3.4791641235351562,9.006584167480469,3.005385160446167
1772727602945021400,20.098021484375,-3.6131622791290283,8.973084449768066,3.012563705444336
1772727602962366700,20.11536669921875,-3.7160534858703613,9.049654960632324,3.0077781677246094
1772727602979712300,20.132712158203127,-3.7088751792907715,9.035298347473145,2.9216363430023193
1772727602997057500,20.1500576171875,-3.483949661254883,8.927620887756348,2.823530673980713
1772727603014402800,20.16740283203125,-3.3068809509277344,8.666803359985352,2.967100143432617
1772727603031748400,20.184748291015627,-3.366701364517212,8.49452018737793,2.7804598808288574
1772727603049093600,20.20209375,-3.445664644241333,8.537590980529785,3.0029923915863037
1772727603066439200,20.219439208984376,-3.311666488647461,8.583054542541504,2.8139593601226807
1772727603083784400,20.236784423828126,-3.376272678375244,8.489734649658203,2.857030153274536
1772727603101130000,20.2541298828125,-3.4025938510894775,8.530412673950195,2.8594231605529785
1772727603118475300,20.271475341796876,-3.342773199081421,8.571090698242188,2.878565549850464
1772727603135820800,20.28882080078125,-3.4959139823913574,8.57348346710205,2.8450660705566406
1772727603153166000,20.306166015625,-3.4121651649475098,8.685946464538574,2.8977081775665283
1772727603170511400,20.323511474609376,-3.407379388809204,8.83669376373291,2.857030153274536
1772727603187857000,20.34085693359375,-3.507878065109253,8.700303077697754,2.8833513259887695
1772727603205202200,20.3582021484375,-3.4408788681030273,8.523234367370605,2.878565549850464
1772727603222547700,20.375547607421876,-3.4121651649475098,8.458627700805664,2.9240293502807617
1772727603239893000,20.39289306640625,-3.414557933807373,8.451449394226074,2.8689942359924316
1772727603257238500,20.410238525390625,-3.352344512939453,8.489734649658203,2.7876384258270264
1772727603274583800,20.427583740234375,-3.3930225372314453,8.549555778503418,2.837887763977051
1772727603291929300,20.444929443359374,-3.570091485977173,8.693124771118164,2.8737800121307373
1772727603309274600,20.462274658203125,-3.524627685546875,8.767302513122559,2.816352367401123
1772727603326620000,20.479619873046875,-3.273381471633911,8.709874153137207,2.6967110633850098
1772727603343965400,20.49696533203125,-3.4959139823913574,8.489734649658203,2.8354947566986084
1772727603361310700,20.514310791015625,-3.311666488647461,8.559126853942871,3.022135019302368
1772727603378656300,20.53165625,-3.5150563716888428,8.788837432861328,3.0723843574523926
1772727603396001500,20.54900146484375,-3.524627685546875,8.910871505737305,3.074777126312256
1772727603413347000,20.56634716796875,-3.397808074951172,8.930013656616211,2.840280532836914
1772727603430692400,20.5836923828125,-3.366701364517212,8.733802795410156,2.8354947566986084
1772727603448038000,20.601037841796874,-3.452843189239502,8.760123252868652,2.9383862018585205
1772727603465383200,20.618383056640624,-3.5605201721191406,8.963513374328613,3.122633457183838
1772727603482728400,20.635728515625,-3.5198421478271484,9.126225471496582,3.0388846397399902
1772727603500074000,20.653073974609374,-3.397808074951172,9.154939651489258,2.7900311946868896
1772727603517419300,20.670419189453124,-3.4480574131011963,8.982656478881836,2.7493531703948975
1772727603534764800,20.687764892578127,-3.4097721576690674,8.882157325744629,2.809173822402954
1772727603552110000,20.705110107421874,-3.414557933807373,8.915657043457031,3.0412776470184326
1772727603569455600,20.72245556640625,-3.38105845451355,9.032905578613281,3.098705291748047
1772727603586801000,20.73980078125,-3.390629768371582,9.049654960632324,3.0077781677246094
1772727603604146400,20.757146484375,-3.376272678375244,8.889336585998535,2.857030153274536
1772727603621491700,20.77449169921875,-3.462414264678955,8.726624488830566,2.8354947566986084
1772727603638837000,20.7918369140625,-3.4552359580993652,8.518448829650879,2.8761727809906006
1772727603656182500,20.8091826171875,-3.5150563716888428,8.635697364807129,2.9216363430023193
1772727603673527800,20.82652783203125,-3.617947816848755,8.879764556884766,3.115455150604248
1772727603690873300,20.843873291015626,-3.407379388809204,8.922835350036621,2.857030153274536
1772727603708218600,20.861218505859377,-3.335594654083252,8.659625053405762,2.6392834186553955
1772727603725564200,20.878564208984375,-3.2207393646240234,8.358129501342773,2.7565317153930664
1772727603742909400,20.895909423828126,-3.2350962162017822,8.37727165222168,2.9048867225646973
1772727603760255000,20.9132548828125,-3.4121651649475098,8.662017822265625,2.998206853866577
1772727603777600300,20.930600341796875,-3.4169507026672363,8.719446182250977,2.919243574142456
1772727603794945500,20.947945556640626,-3.2829527854919434,8.657232284545898,2.6727828979492188
1772727603812291000,20.965291015625,-3.290131092071533,8.666803359985352,2.720639228820801
1772727603829636400,20.98263623046875,-3.4719855785369873,8.762516975402832,2.737389087677002
1772727603846982000,20.99998193359375,-3.4743785858154297,8.659625053405762,2.6847469806671143
1772727603864327200,21.0173271484375,-3.3547372817993164,8.48734188079834,2.6799614429473877
1772727603881672700,21.034672607421875,-3.28773832321167,8.453842163085938,3.1345977783203125
1772727603899018000,21.05201806640625,-3.3308091163635254,8.640482902526855,3.1513473987579346
1772727603916363500,21.069363525390624,-3.4791641235351562,8.755337715148926,3.0101709365844727
1772727603933708800,21.086708740234375,-3.5461630821228027,8.72901725769043,2.799602508544922
1772727603951054000,21.10405419921875,-3.594019651412964,8.688339233398438,2.754138946533203
1772727603968399600,21.121399658203124,-3.6394832134246826,8.870193481445312,2.7637102603912354
1772727603985745000,21.138744873046875,-3.541377544403076,8.951549530029297,2.823530673980713
1772727604003090400,21.15609033203125,-3.438486099243164,8.772088050842285,2.8211379051208496
1772727604020435700,21.173435791015624,-3.5198421478271484,8.676374435424805,2.9623143672943115
1772727604037781200,21.19078125,-3.4337005615234375,8.638090133666992,3.1130621433258057
1772727604055126500,21.20812646484375,-3.5030922889709473,8.681160926818848,3.263810157775879
1772727604072472000,21.22547216796875,-3.5509488582611084,8.7505521774292,3.0388846397399902
1772727604089817300,21.2428173828125,-3.5676984786987305,8.879764556884766,2.861815929412842
1772727604107162600,21.26016259765625,-3.5294134616851807,8.980263710021973,2.651247501373291
1772727604124508200,21.277508056640624,-3.6394832134246826,9.032905578613281,2.8450660705566406
1772727604141853400,21.294853515625,-3.4743785858154297,9.023334503173828,2.8187451362609863
1772727604159199000,21.312198974609377,-3.3954153060913086,8.788837432861328,2.8905298709869385
1772727604176544300,21.329544189453124,-3.297309637069702,8.513663291931152,2.967100143432617
1772727604193889500,21.3468896484375,-3.304488182067871,8.563912391662598,3.122633457183838
1772727604211235000,21.364235107421877,-3.4576287269592285,8.831908226013184,3.046063184738159
1772727604228580600,21.38158056640625,-3.620340585708618,9.025727272033691,2.7517459392547607
1772727604245926000,21.39892578125,-3.5772697925567627,8.965906143188477,2.6488547325134277
1772727604263271200,21.416271240234376,-3.3786656856536865,8.863015174865723,2.7421748638153076
1772727604280616700,21.43361669921875,-3.3882367610931396,8.685946464538574,2.9048867225646973
1772727604297962000,21.4509619140625,-3.428914785385132,8.673981666564941,2.998206853866577
1772727604315307500,21.4683076171875,-3.4504501819610596,8.709874153137207,2.9551360607147217
1772727604332652800,21.48565283203125,-3.627519130706787,8.724231719970703,2.809173822402954
1772727604349998000,21.502998046875,-3.4097721576690674,8.784051895141602,2.641676187515259
1772727604367343600,21.520343505859376,-3.414557933807373,8.884550094604492,2.9001009464263916
1772727604384689000,21.53768896484375,-3.5222349166870117,8.930013656616211,2.9766714572906494
1772727604402034400,21.555034423828126,-3.500699520111084,8.824729919433594,2.9240293502807617
1772727604419379700,21.572379638671876,-3.3475589752197266,8.425128936767578,2.785245656967163
1772727604436725200,21.589725341796875,-3.493520975112915,8.26241683959961,2.8666014671325684
1772727604454070500,21.607070556640625,-3.4672000408172607,8.60459041595459,3.146561861038208
1772727604471416000,21.624416015625,-3.1489546298980713,8.980263710021973,2.950350284576416
1772727604488761300,21.64176123046875,-3.273381471633911,8.779266357421875,2.7397818565368652
1772727604506106600,21.659106689453125,-3.1800613403320312,8.47298526763916,2.713460922241211
1772727604523452200,21.6764521484375,-3.2757742404937744,8.499305725097656,2.825923442840576
1772727604540797400,21.69379736328125,-3.5198421478271484,8.748159408569336,2.9934210777282715
1772727604558143000,21.71114306640625,-3.486342668533325,8.886942863464355,3.012563705444336
1772727604575488300,21.72848828125,-3.304488182067871,8.678768157958984,2.806781053543091
1772727604592833800,21.745833740234374,-3.469592809677124,8.520841598510742,2.7732813358306885
1772727604610179000,21.763178955078125,-3.5844483375549316,8.724231719970703,3.0077781677246094
1772727604627524400,21.7805244140625,-3.570091485977173,8.95394229888916,2.9838497638702393
1772727604644870000,21.797869873046874,-3.4887354373931885,8.891729354858398,2.8139593601226807
1772727604662215200,21.815215087890625,-3.218346357345581,8.578269004821777,2.7804598808288574
1772727604679560700,21.832560791015624,-3.373879909515381,8.470592498779297,2.9144580364227295
1772727604696906000,21.849906005859374,-3.682554006576538,8.719446182250977,3.06999135017395
1772727604714251500,21.86725146484375,-3.6705899238586426,9.023334503173828,2.8977081775665283
1772727604731596800,21.8845966796875,-3.366701364517212,9.013762474060059,2.6488547325134277
1772727604748942300,21.9019423828125,-3.4002010822296143,8.748159408569336,2.7876384258270264
1772727604766287600,21.91928759765625,-3.5820555686950684,8.616554260253906,2.9359934329986572
1772727604783633000,21.9366328125,-3.5509488582611084,8.623732566833496,2.9766714572906494
1772727604800978400,21.953978515625,-3.510270833969116,8.657232284545898,3.046063184738159
1772727604818323700,21.97132373046875,-3.572484254837036,8.855836868286133,2.9359934329986572
1772727604835669200,21.988669189453127,-3.460021495819092,9.09990406036377,2.825923442840576
1772727604853014500,22.0060146484375,-3.524627685546875,9.06401252746582,2.63449764251709
1772727604870359800,22.02335986328125,-3.6394832134246826,8.786444664001465,2.8043880462646484
1772727604887705300,22.040705322265627,-3.4719855785369873,8.616554260253906,3.1130621433258057
1772727604905050600,22.058050537109374,-3.735196113586426,8.662017822265625,2.998206853866577
1772727604922396200,22.075396240234376,-3.7543387413024902,8.891729354858398,3.1585259437561035
1772727604939741400,22.092741455078126,-3.5916268825531006,9.001798629760742,3.0939197540283203
1772727604957087000,22.1100869140625,-3.6921253204345703,9.052047729492188,2.723032236099243
1772727604974432300,22.127432373046876,-3.493520975112915,9.025727272033691,2.7254250049591064
1772727604991777800,22.14477783203125,-3.586841106414795,8.791230201721191,2.8139593601226807
1772727605009123000,22.162123046875,-3.4337005615234375,8.547162055969238,2.895315408706665
1772727605026468400,22.17946826171875,-3.34995174407959,8.396414756774902,2.9599215984344482
1772727605043814000,22.19681396484375,-3.2518460750579834,8.35573673248291,3.1106693744659424
1772727605061159200,22.2141591796875,-3.3092737197875977,8.578269004821777,3.0388846397399902
1772727605078504700,22.231504638671876,-3.486342668533325,8.839086532592773,2.857030153274536
1772727605095850000,22.24885009765625,-3.4504501819610596,8.82233715057373,2.6153552532196045
1772727605113195300,22.2661953125,-3.4337005615234375,8.6907320022583,2.66560435295105
1772727605130540800,22.283540771484375,-3.2829527854919434,8.575876235961914,2.861815929412842
1772727605147886000,22.300885986328126,-3.1489546298980713,8.58066177368164,3.0005996227264404
1772727605165231600,22.318231689453125,-3.2853455543518066,8.63330364227295,2.9216363430023193
1772727605182577000,22.335576904296875,-3.3236305713653564,8.681160926818848,2.825923442840576
1772727605199922400,22.35292236328125,-3.4480574131011963,8.872586250305176,2.768495798110962
