time,seconds_elapsed,z,y,x
1773232862486086100,0.140086181640625,6.312108993530273,3.3588569164276123,0.15856100618839264
1773232862505905400,0.159905517578125,6.936995983123779,2.4035699367523193,-0.8709449768066406
1773232862525725200,0.17972509765625,8.086213111877441,3.409135103225708,-1.7017329931259155
1773232862545544400,0.19954443359375,7.621737003326416,3.9526190757751465,-1.8142600059509277
1773232862565364000,0.219364013671875,7.164444923400879,2.5759530067443848,-0.3370380103588104
1773232862585183200,0.239183349609375,5.861999034881592,2.365262985229492,0.5033259987831116
1773232862605002800,0.259002685546875,4.245913028717041,2.4897611141204834,-0.013819999992847443
1773232862624822300,0.278822265625,2.1845040321350098,2.721998929977417,-1.9674890041351318
1773232862644641500,0.2986416015625,5.235506057739258,5.1899590492248535,-6.4570770263671875
1773232862664461000,0.3184609375,5.261148929595947,4.855865955352783,-6.6918511390686035
1773232862684280300,0.3382802734375,5.407926082611084,4.395575046539307,-6.890085220336914
1773232862704100000,0.35810009765625,5.551486015319824,3.855072021484375,-7.096435070037842
1773232862723919400,0.37791943359375,5.408233165740967,3.230966091156006,-7.506789207458496
1773232862743739000,0.39773876953125,4.750455856323242,2.5747969150543213,-8.175793647766113
1773232862763558100,0.41755810546875,3.944878101348877,1.6481159925460815,-8.818255424499512
1773232862783378000,0.4373779296875,3.0741560459136963,0.4947980046272278,-9.29218864440918
1773232862803197200,0.457197265625,2.0827419757843018,-0.5445169806480408,-9.560632705688477
1773232862823016400,0.477016357421875,1.3229960203170776,-1.304123044013977,-9.622314453125
1773232862842836000,0.4968359375,1.0446759462356567,-1.7678569555282593,-9.582449913024902
1773232862862655500,0.516655517578125,1.2614309787750244,-2.069943904876709,-9.495479583740234
1773232862882474800,0.536474853515625,1.685718059539795,-2.434190034866333,-9.342004776000977
1773232862902294500,0.55629443359375,1.905107021331787,-2.9291560649871826,-9.155905723571777
1773232862922113800,0.57611376953125,1.9484310150146484,-3.4811298847198486,-8.951277732849121
1773232862941933300,0.595933349609375,1.750288963317871,-3.846532106399536,-8.841984748840332
1773232862961752600,0.615752685546875,1.5269650220870972,-4.016685962677002,-8.807645797729492
1773232862981572400,0.635572265625,1.2300759553909302,-4.14475679397583,-8.79476547241211
1773232863001391600,0.6553916015625,1.109145998954773,-4.3534698486328125,-8.709598541259766
1773232863021211100,0.675211181640625,0.958791971206665,-4.646134853363037,-8.57520580291748
1773232863041030400,0.695030517578125,0.735135018825531,-5.04531192779541,-8.369253158569336
1773232863060850200,0.71485009765625,0.4059489965438843,-5.4517669677734375,-8.133476257324219
1773232863090579200,0.7445791015625,-0.19114400446414948,-5.9775238037109375,-7.763545989990234
1773232863110398700,0.764398681640625,-0.5304219722747803,-6.2251739501953125,-7.550220966339111
1773232863130218000,0.784218017578125,-0.7458630204200745,-6.4095048904418945,-7.375767230987549
1773232863150037500,0.80403759765625,-0.6936870217323303,-6.337991237640381,-7.442355155944824
1773232863169857000,0.82385693359375,-0.6716820001602173,-6.15717077255249,-7.594608783721924
1773232863189676300,0.84367626953125,-0.8405550122261047,-5.893124103546143,-7.784893035888672
1773232863209496000,0.86349609375,-0.8447049856185913,-5.416283130645752,-8.123446464538574
1773232863229315300,0.8833154296875,-0.4435420036315918,-4.78067684173584,-8.543325424194336
1773232863249134800,0.903134765625,-0.001120000029914081,-4.0926971435546875,-8.904483795166016
1773232863268954000,0.9229541015625,0.3259960114955902,-3.43196702003479,-9.173623085021973
1773232863288773600,0.942773681640625,0.7366030216217041,-2.872180938720703,-9.340662956237793
1773232863308593200,0.96259326171875,1.3958079814910889,-2.3380980491638184,-9.41408634185791
1773232863328412700,0.98241259765625,2.1455531120300293,-1.9292080402374268,-9.365615844726562
1773232863348232000,1.00223193359375,2.814603090286255,-1.5753400325775146,-9.253988265991211
1773232863368051500,1.022051513671875,3.209547996520996,-1.3719830513000488,-9.157318115234375
1773232863387871000,1.04187109375,3.389862060546875,-1.3074300289154053,-9.101617813110352
1773232863407690500,1.0616904296875,3.4778831005096436,-1.3618110418319702,-9.060342788696289
1773232863427509800,1.081509765625,3.299647092819214,-1.5751800537109375,-9.092366218566895
1773232863447329300,1.101329345703125,2.9121179580688477,-1.9733599424362183,-9.146880149841309
1773232863467148800,1.121148681640625,2.6121580600738525,-2.286818027496338,-9.164447784423828
1773232863486968300,1.14096826171875,2.49118709564209,-2.3698248863220215,-9.177033424377441
1773232863506787600,1.16078759765625,2.6890299320220947,-2.059385061264038,-9.196090698242188
1773232863526607000,1.180607177734375,3.084096908569336,-1.735111951828003,-9.13880443572998
1773232863546426600,1.200426513671875,3.6308460235595703,-1.4762200117111206,-8.982077598571777
1773232863566246100,1.22024609375,4.16303014755249,-1.35943603515625,-8.767047882080078
1773232863586065700,1.240065673828125,4.482560157775879,-1.4113600254058838,-8.59969425201416
1773232863605885200,1.25988525390625,4.580165863037109,-1.6087620258331299,-8.513165473937988
1773232863625704400,1.279704345703125,4.718328952789307,-2.1131179332733154,-8.325387954711914
1773232863645524000,1.29952392578125,4.740678787231445,-2.3868870735168457,-8.238248825073242
1773232863675253200,1.329253173828125,4.549610137939453,-2.9044289588928223,-8.179569244384766
1773232863695072500,1.349072509765625,4.232306003570557,-3.2714760303497314,-8.211275100708008
1773232863714892300,1.368892333984375,3.874738931655884,-3.573314905166626,-8.261828422546387
1773232863734711600,1.388711669921875,3.4776599407196045,-3.859210968017578,-8.30977725982666
1773232863754531000,1.408531005859375,3.0475950241088867,-4.15898323059082,-8.333969116210938
1773232863774350300,1.428350341796875,2.6311190128326416,-4.451469898223877,-8.324762344360352
1773232863794169900,1.448169921875,2.1987829208374023,-4.722733020782471,-8.300670623779297
1773232863813989400,1.4679892578125,1.7777199745178223,-4.927061080932617,-8.282737731933594
1773232863833809000,1.487808837890625,1.5474799871444702,-4.951523780822754,-8.314306259155273
1773232863853628700,1.507628662109375,1.6889539957046509,-4.992844104766846,-8.261897087097168
1773232863873448000,1.527447998046875,1.7511780261993408,-5.057151794433594,-8.209664344787598
1773232863893267500,1.547267333984375,1.9512660503387451,-5.02593994140625,-8.183671951293945
1773232863913086700,1.567086669921875,2.1367061138153076,-4.975902080535889,-8.16792106628418
1773232863932906500,1.586906494140625,2.2203168869018555,-4.893290042877197,-8.19548225402832
1773232863952725800,1.606725830078125,2.4082250595092773,-4.772099018096924,-8.213863372802734
1773232863972545300,1.626545166015625,2.658005952835083,-4.560967922210693,-8.256669044494629
1773232863992364800,1.64636474609375,2.8733348846435547,-4.207286834716797,-8.371541023254395
1773232864012184300,1.666184326171875,3.001431941986084,-3.8222529888153076,-8.510099411010742
1773232864041913600,1.69591357421875,3.2194039821624756,-3.265916109085083,-8.660787582397461
1773232864101372000,1.755371826171875,3.5160911083221436,-2.365983009338379,-8.8362455368042
1773232864121191400,1.77519140625,3.583014965057373,-2.261763095855713,-8.836654663085938
1773232864141011000,1.795010986328125,3.789609909057617,-2.143955945968628,-8.779653549194336
1773232864160830500,1.81483056640625,4.089859962463379,-2.4253718852996826,-8.569168090820312
1773232864180650000,1.83464990234375,4.256576061248779,-2.739974021911621,-8.391311645507812
1773232864200469500,1.854469482421875,4.192202091217041,-3.075000047683716,-8.307214736938477
1773232864220289000,1.8742890625,4.043677806854248,-3.4034619331359863,-8.252582550048828
1773232864240108300,1.8941083984375,3.833981990814209,-3.685094118118286,-8.23168659210205
1773232864259928000,1.913927978515625,3.5505669116973877,-3.7916018962860107,-8.310068130493164
1773232864279747600,1.93374755859375,3.765070915222168,-4.075250148773193,-8.078152656555176
1773232864309476600,1.9634765625,5.272521018981934,-4.419175148010254,-6.979355812072754
1773232864329296100,1.983296142578125,5.43254280090332,-4.600849151611328,-6.734960079193115
1773232864349115600,2.00311572265625,5.199573040008545,-4.949879169464111,-6.671070098876953
1773232864368935000,2.022934814453125,5.186051845550537,-5.338641166687012,-6.375249862670898
1773232864388754400,2.04275439453125,5.319656848907471,-5.739445209503174,-5.899155139923096
1773232864408574200,2.06257421875,5.487905025482178,-6.177028179168701,-5.269458770751953
1773232864428393500,2.0823935546875,5.724381923675537,-6.58723783493042,-4.458666801452637
1773232864448213000,2.102212890625,5.907711982727051,-6.9247260093688965,-3.63140606880188
1773232864468032500,2.122032470703125,5.921582221984863,-7.191154956817627,-3.043379068374634
1773232864487852300,2.141852294921875,5.820560932159424,-7.403904914855957,-2.7098419666290283
1773232864507671600,2.161671630859375,5.693795204162598,-7.604891777038574,-2.405474901199341
1773232864527491000,2.181490966796875,5.536179065704346,-7.798871994018555,-2.137362003326416
1773232864557220400,2.211220458984375,5.273307800292969,-8.078984260559082,-1.7211259603500366
1773232864577040000,2.231039794921875,5.087574005126953,-8.201481819152832,-1.7006700038909912
1773232864596859100,2.250859130859375,4.968738079071045,-8.206299781799316,-2.0020699501037598
1773232864616679000,2.270678955078125,4.882809162139893,-8.117177963256836,-2.5118930339813232
1773232864636498200,2.290498291015625,4.906027793884277,-7.898327827453613,-3.096338987350464
1773232864656318000,2.31031787109375,5.081995010375977,-7.61990213394165,-3.485743999481201
1773232864676137200,2.33013720703125,5.133904933929443,-7.397930145263672,-3.866995096206665
1773232864695956500,2.34995654296875,4.8296990394592285,-7.291886806488037,-4.420679092407227
1773232864715776000,2.36977587890625,4.397420883178711,-7.235014915466309,-4.935307025909424
1773232864735595800,2.389595703125,4.161004066467285,-7.122366905212402,-5.291306972503662
1773232864755415000,2.4094150390625,4.1004638671875,-6.937564849853516,-5.576413154602051
1773232864775234800,2.42923486328125,4.053938865661621,-6.712969779968262,-5.877213001251221
1773232864795054000,2.44905419921875,3.955406904220581,-6.489882946014404,-6.186775207519531
1773232864814873600,2.46887353515625,3.838296890258789,-6.343573093414307,-6.408320903778076
1773232864834693000,2.488693115234375,3.9523398876190186,-6.4077301025390625,-6.27375602722168
1773232864854512600,2.5085126953125,4.123612880706787,-6.4750800132751465,-6.091730117797852
1773232864874332200,2.528332275390625,4.264426231384277,-6.583478927612305,-5.874732971191406
1773232864894151400,2.5481513671875,4.379249095916748,-6.647729873657227,-5.71575403213501
1773232864913971000,2.567970947265625,4.4708662033081055,-6.651182174682617,-5.640315055847168
1773232864933790500,2.58779052734375,4.5447678565979,-6.605906009674072,-5.634458065032959
1773232864953610000,2.60760986328125,4.618378162384033,-6.555348873138428,-5.633649826049805
1773232864973429500,2.627429443359375,4.6764397621154785,-6.528806209564209,-5.61654806137085
1773232864993249000,2.6472490234375,4.72100305557251,-6.541704177856445,-5.564014911651611
1773232865013068300,2.667068359375,4.755349159240723,-6.591707229614258,-5.475039005279541
1773232865032888000,2.68688818359375,4.8165059089660645,-6.652904033660889,-5.346038818359375
1773232865052707300,2.706707275390625,4.80790901184082,-6.728894233703613,-5.257946968078613
1773232865072526800,2.72652685546875,4.624128818511963,-6.85823392868042,-5.255671977996826
1773232865092346400,2.746346435546875,4.396352767944336,-7.026750087738037,-5.228464126586914
1773232865112166000,2.766165771484375,4.1671037673950195,-7.223371982574463,-5.147634029388428
1773232865131985400,2.7859853515625,3.978271961212158,-7.415946006774902,-5.021665096282959
1773232865151804700,2.8058046875,3.8497378826141357,-7.577892780303955,-4.878020763397217
1773232865181534000,2.835533935546875,3.487333059310913,-7.8907151222229,-4.649208068847656
1773232865201353500,2.855353515625,3.1636009216308594,-8.077876091003418,-4.558460235595703
1773232865221173000,2.875173095703125,2.819672107696533,-8.239021301269531,-4.495328903198242
1773232865240992500,2.894992431640625,2.4732089042663574,-8.401390075683594,-4.397714138031006
1773232865260812000,2.91481201171875,2.129509925842285,-8.56223201751709,-4.265373229980469
1773232865280631600,2.934631591796875,1.8038250207901,-8.700100898742676,-4.134547233581543
1773232865300450800,2.954450927734375,1.489197015762329,-8.810654640197754,-4.024256229400635
1773232865320270600,2.9742705078125,1.1905399560928345,-8.899030685424805,-3.9280920028686523
1773232865340089900,2.99408984375,0.9396719932556152,-8.963211059570312,-3.8493990898132324
1773232865359909400,3.013909423828125,0.7567800283432007,-9.028379440307617,-3.7357289791107178
1773232865379729000,3.03372900390625,0.5924609899520874,-9.103443145751953,-3.5799899101257324
1773232865399548400,3.05354833984375,0.3890500068664551,-9.17380428314209,-3.42490291595459
1773232865419367700,3.07336767578125,0.16904300451278687,-9.235048294067383,-3.2749550342559814
1773232865439187500,3.0931875,-0.033622998744249344,-9.28172779083252,-3.1445870399475098
1773232865459006700,3.1130068359375,-0.18327799439430237,-9.28452205657959,-3.1311469078063965
1773232865478826200,3.132826171875,-0.31263700127601624,-9.278518676757812,-3.1386849880218506
1773232865498645500,3.1526455078125,-0.41673699021339417,-9.278871536254883,-3.125520944595337
1773232865518465300,3.17246533203125,-0.5238890051841736,-9.302736282348633,-3.0372118949890137
1773232865538284500,3.192284423828125,-0.6726869940757751,-9.339055061340332,-2.893014907836914
1773232865558104000,3.21210400390625,-0.7932239770889282,-9.374308586120605,-2.744657039642334
1773232865577923600,3.231923583984375,-0.8895559906959534,-9.405418395996094,-2.605146884918213
1773232865597743000,3.2517431640625,-0.9168639779090881,-9.428767204284668,-2.5095229148864746
1773232865617562400,3.271562255859375,-0.8876850008964539,-9.433616638183594,-2.501781940460205
1773232865637382100,3.291382080078125,-0.8532189726829529,-9.429902076721191,-2.527647018432617
1773232865657201400,3.311201416015625,-0.8616089820861816,-9.415572166442871,-2.5777199268341064
1773232865677021000,3.33102099609375,-0.9340800046920776,-9.365303039550781,-2.731044054031372
1773232865696840400,3.35084033203125,-0.9972190260887146,-9.30631160736084,-2.9048469066619873
1773232865716660000,3.370659912109375,-1.0080829858779907,-9.265826225280762,-3.027906894683838
1773232865736479200,3.390479248046875,-0.9496679902076721,-9.225918769836426,-3.165523052215576
1773232865756298800,3.410298828125,-0.8738489747047424,-9.188716888427734,-3.293001890182495
1773232865776118500,3.430118408203125,-0.7910140156745911,-9.171859741210938,-3.3602569103240967
1773232865795937800,3.449937744140625,-0.6070349812507629,-9.176817893981934,-3.3848938941955566
1773232865825667000,3.4796669921875,-0.11226300150156021,-9.156551361083984,-3.490699052810669
1773232865845486300,3.499486328125,0.31083598732948303,-9.078897476196289,-3.676548957824707
1773232865865305900,3.519305908203125,0.8050670027732849,-8.953978538513184,-3.901045083999634
1773232865885125400,3.53912548828125,1.272779941558838,-8.791912078857422,-4.137909889221191
1773232865904945000,3.55894482421875,1.6171369552612305,-8.614836692810059,-4.382862091064453
1773232865924764400,3.578764404296875,1.7532750368118286,-8.461352348327637,-4.622935771942139
1773232865944584000,3.598583984375,1.585044026374817,-8.320452690124512,-4.929271221160889
1773232865964403200,3.6184033203125,1.5137039422988892,-8.119705200195312,-5.2743821144104
1773232865984222700,3.63822265625,1.6447210311889648,-7.82875394821167,-5.660874843597412
1773232866004042200,3.658042236328125,2.0144801139831543,-7.4323577880859375,-6.061511039733887
1773232866023861500,3.677861572265625,2.529191017150879,-6.968822956085205,-6.409265995025635
1773232866043681300,3.697681396484375,2.9900460243225098,-6.542573928833008,-6.655401229858398
1773232866063500500,3.71750048828125,3.260232925415039,-6.269435882568359,-6.790069103240967
1773232866083320000,3.737320068359375,3.4781088829040527,-6.059232234954834,-6.87229585647583
1773232866103139300,3.757139404296875,3.698667049407959,-5.7710652351379395,-7.003904819488525
1773232866122959000,3.776958984375,3.912123918533325,-5.410332202911377,-7.1738128662109375
1773232866142778400,3.7967783203125,4.123928070068359,-5.024424076080322,-7.3340559005737305
1773232866162598000,3.816597900390625,4.388960838317871,-4.671907901763916,-7.4128499031066895
1773232866182417400,3.83641748046875,4.669917106628418,-4.391329765319824,-7.412697792053223
1773232866202237000,3.85623681640625,4.843080043792725,-4.35374116897583,-7.323216915130615
1773232866222056200,3.87605615234375,4.879121780395508,-4.572556972503662,-7.164209842681885
1773232866241875700,3.895875732421875,4.710823059082031,-4.976901054382324,-7.005613803863525
1773232866261695200,3.9156953125,4.548678874969482,-5.077880859375,-7.04021692276001
1773232866281514800,3.9355146484375,4.375157833099365,-5.187530040740967,-7.07018518447876
1773232866301334300,3.955334228515625,4.132051944732666,-5.377528190612793,-7.074485778808594
1773232866321153800,3.97515380859375,3.839379072189331,-5.678046226501465,-7.004211902618408
1773232866340973300,3.994973388671875,3.568263053894043,-5.987329959869385,-6.8890790939331055
1773232866360792600,4.01479248046875,3.2798149585723877,-6.178421974182129,-6.863668918609619
1773232866380612000,4.034612060546875,2.8463430404663086,-6.287603855133057,-6.957326889038086
1773232866400431600,4.054431640625,2.521291971206665,-6.409975051879883,-6.971033096313477
1773232866420251100,4.074251220703125,2.429621934890747,-6.5847039222717285,-6.839489936828613
1773232866440070400,4.0940703125,2.4130001068115234,-6.834463119506836,-6.596023082733154
1773232866459890000,4.113889892578125,2.36092209815979,-7.174836158752441,-6.244016170501709
1773232866479709200,4.133709228515625,2.1752679347991943,-7.512642860412598,-5.904949188232422
1773232866499529000,4.153529052734375,1.9452459812164307,-7.765127182006836,-5.653213024139404
1773232866519348200,4.17334814453125,1.7360689640045166,-7.949307918548584,-5.462103843688965
1773232866539167700,4.193167724609375,1.5230309963226318,-8.117419242858887,-5.27521276473999
1773232866558987300,4.2129873046875,1.2952239513397217,-8.276775360107422,-5.085014820098877
1773232866578806500,4.232806640625,1.097527027130127,-8.420737266540527,-4.891482830047607
1773232866598626000,4.2526259765625,0.9783409833908081,-8.558692932128906,-4.672436237335205
1773232866618445600,4.272445556640625,0.892749011516571,-8.695611953735352,-4.430502891540527
1773232866638264800,4.292264892578125,0.8005819916725159,-8.819794654846191,-4.19646692276001
1773232866658084400,4.31208447265625,0.6937270164489746,-8.933724403381348,-3.968291997909546
1773232866677904000,4.33190380859375,0.5350009799003601,-9.037498474121094,-3.7519888877868652
1773232866697723400,4.351723388671875,0.3749319911003113,-9.1357421875,-3.5267059803009033
1773232866717542700,4.371542724609375,0.21440500020980835,-9.232588768005371,-3.2792229652404785
1773232866737362400,4.391362548828125,0.042789001017808914,-9.316742897033691,-3.0391619205474854
1773232866757181700,4.411181640625,-0.11781100183725357,-9.386242866516113,-2.815063953399658
1773232866777001200,4.431001220703125,-0.27204200625419617,-9.401479721069336,-2.752851963043213
1773232866796820700,4.45082080078125,-0.44387298822402954,-9.419633865356445,-2.6671109199523926
1773232866816640000,4.470639892578125,-0.6495710015296936,-9.446099281311035,-2.5277020931243896
1773232866836459500,4.49045947265625,-0.8554959893226624,-9.477672576904297,-2.341339111328125
1773232866856279000,4.510279052734375,-0.8935520052909851,-9.521201133728027,-2.1420340538024902
1773232866876098600,4.5300986328125,-0.8018820285797119,-9.522303581237793,-2.1731839179992676
1773232866895917800,4.549917724609375,-0.765516996383667,-9.471455574035645,-2.3969829082489014
1773232866915737300,4.5697373046875,-0.7977200150489807,-9.407069206237793,-2.6288180351257324
1773232866935556900,4.589556884765625,-0.8982419967651367,-9.373055458068848,-2.7164359092712402
1773232866955376400,4.60937646484375,-0.9338979721069336,-9.37878131866455,-2.684451103210449
1773232866975195600,4.629195556640625,-0.8181269764900208,-9.418805122375488,-2.5800700187683105
1773232866995015200,4.64901513671875,-0.6536369919776917,-9.456990242004395,-2.485582113265991
1773232867014834700,4.668834716796875,-0.5144019722938538,-9.485703468322754,-2.407660961151123
1773232867034654200,4.688654296875,-0.31078100204467773,-9.501809120178223,-2.3788769245147705
1773232867054473500,4.708473388671875,-0.017316000536084175,-9.488816261291504,-2.449908971786499
1773232867074293000,4.72829296875,0.3548240065574646,-9.43924617767334,-2.6105029582977295
1773232867094112300,4.7481123046875,0.8015069961547852,-9.334850311279297,-2.873706102371216
1773232867113932000,4.76793212890625,1.2370749711990356,-9.16805362701416,-3.2336459159851074
1773232867133751300,4.787751220703125,1.6068099737167358,-8.952730178833008,-3.647847890853882
1773232867153570800,4.80757080078125,1.8504949808120728,-8.71573543548584,-4.080639839172363
1773232867173390000,4.82739013671875,1.849897027015686,-8.52381706237793,-4.467936038970947
1773232867193209600,4.847209716796875,1.6895639896392822,-8.374140739440918,-4.8019938468933105
1773232867213029000,4.867029052734375,1.5895570516586304,-8.199769973754883,-5.12611722946167
1773232867232848600,4.8868486328125,1.726091980934143,-7.943213939666748,-5.474119186401367
1773232867252668000,4.90666796875,2.1021440029144287,-7.61036491394043,-5.805459022521973
1773232867272487400,4.9264873046875,2.5900421142578125,-7.231335163116455,-6.086009979248047
1773232867292306700,4.946306640625,2.873914957046509,-6.860495090484619,-6.380771160125732
1773232867312126500,4.96612646484375,2.9739389419555664,-6.620334148406982,-6.585351943969727
1773232867331945700,4.98594580078125,3.0543360710144043,-6.576310157775879,-6.592662811279297
1773232867351765200,5.00576513671875,3.1487579345703125,-6.348189830780029,-6.769475936889648
1773232867371584800,5.025584716796875,3.3521220684051514,-6.031761169433594,-6.958530902862549
1773232867391404000,5.045404052734375,3.597585916519165,-5.646830081939697,-7.156164169311523
1773232867411223300,5.065223388671875,3.793303966522217,-5.25972318649292,-7.347527027130127
1773232867431043000,5.08504296875,3.960249900817871,-4.959046840667725,-7.467548847198486
1773232867450862600,5.104862548828125,4.173101902008057,-4.960992813110352,-7.349404811859131
1773232867470681900,5.124681884765625,4.454874038696289,-4.991591930389404,-7.160871982574463
1773232867490501400,5.14450146484375,4.7944512367248535,-5.0374369621276855,-6.904885768890381
1773232867510320600,5.164320556640625,4.636719226837158,-4.926781177520752,-7.089970111846924
1773232867530140200,5.18414013671875,4.350627899169922,-4.956709861755371,-7.2486572265625
1773232867549959700,5.203959716796875,3.984344005584717,-5.13474178314209,-7.334811210632324
1773232867569779000,5.223779052734375,3.6569859981536865,-5.518499851226807,-7.225830078125
1773232867589598500,5.243598388671875,3.3144569396972656,-6.034482955932617,-6.9741950035095215
1773232867609418000,5.26341796875,2.811563014984131,-6.363321781158447,-6.902410984039307
1773232867629237500,5.283237548828125,2.2507619857788086,-6.583038806915283,-6.902005195617676
1773232867649057000,5.30305712890625,1.8583099842071533,-6.614764213562012,-6.987958908081055
1773232867668876300,5.322876220703125,2.0209500789642334,-6.763947010040283,-6.79741096496582
1773232867688695800,5.34269580078125,2.1791110038757324,-7.025143146514893,-6.476021766662598
1773232867708515000,5.36251513671875,2.289747953414917,-7.426825046539307,-5.969865798950195
1773232867728334800,5.3823349609375,2.208688974380493,-7.844118118286133,-5.443482875823975
1773232867748154000,5.402154052734375,1.9143890142440796,-8.146932601928711,-5.099273204803467
1773232867767973600,5.4219736328125,1.5108280181884766,-8.369478225708008,-4.86921501159668
1773232867787793200,5.441793212890625,1.132235050201416,-8.524476051330566,-4.700143814086914
1773232867807612400,5.4616123046875,0.8757889866828918,-8.641139030456543,-4.5391340255737305
1773232867827431700,5.481431640625,0.6707720160484314,-8.789223670959473,-4.282474994659424
1773232867847251500,5.50125146484375,0.6123660206794739,-8.91113567352295,-4.031961917877197
1773232867867070700,5.52107080078125,0.4679720103740692,-8.989866256713867,-3.8734090328216553
1773232867886890200,5.54089013671875,0.28515899181365967,-9.090113639831543,-3.650825023651123
1773232867906709800,5.560709716796875,0.021259000524878502,-9.169241905212402,-3.458983898162842
1773232867926529000,5.580529052734375,-0.23391200602054596,-9.2314453125,-3.281114101409912
1773232867946348300,5.600348388671875,-0.4051760137081146,-9.295001029968262,-3.078766107559204
1773232867966167800,5.620167724609375,-0.5186139941215515,-9.3577880859375,-2.8640620708465576
1773232867985987300,5.6399873046875,-0.6104879975318909,-9.414135932922363,-2.6535611152648926
1773232868005806800,5.659806884765625,-0.6725950241088867,-9.461492538452148,-2.463287115097046
1773232868025626000,5.679626220703125,-0.6955069899559021,-9.497797966003418,-2.3125979900360107
1773232868045445600,5.699445556640625,-0.7103700041770935,-9.518094062805176,-2.2228989601135254
1773232868065265200,5.71926513671875,-0.7883920073509216,-9.521519660949707,-2.1815340518951416
1773232868085084700,5.739084716796875,-0.9453709721565247,-9.524682998657227,-2.1039810180664062
1773232868104904000,5.758904052734375,-1.0919859409332275,-9.524956703186035,-2.030466079711914
1773232868124723500,5.778723388671875,-1.197890043258667,-9.537473678588867,-1.9083189964294434
1773232868144542700,5.798542724609375,-1.220808982849121,-9.565709114074707,-1.745519995689392
1773232868164362200,5.8183623046875,-1.1968430280685425,-9.592374801635742,-1.610556960105896
1773232868184181500,5.838181396484375,-1.1613819599151611,-9.609354019165039,-1.533471941947937
1773232868204001000,5.8580009765625,-1.159548044204712,-9.611440658569336,-1.5217399597167969
1773232868223820300,5.8778203125,-1.1899189949035645,-9.603011131286621,-1.5512069463729858
1773232868243640000,5.89764013671875,-1.218737006187439,-9.597649574279785,-1.5619959831237793
1773232868263459300,5.917459228515625,-1.194916009902954,-9.603448867797852,-1.5446490049362183
1773232868283278800,5.93727880859375,-1.1256879568099976,-9.614023208618164,-1.530822992324829
1773232868303098000,5.95709814453125,-0.9671729803085327,-9.63047981262207,-1.5357309579849243
1773232868322918000,5.97691796875,-0.7557870149612427,-9.641899108886719,-1.5819499492645264
1773232868342737200,5.996737060546875,-0.5889760255813599,-9.642834663391113,-1.6458749771118164
1773232868362556700,6.016556640625,-0.37086498737335205,-9.63235855102539,-1.7663880586624146
1773232868382376000,6.0363759765625,-0.15014199912548065,-9.60774040222168,-1.9258209466934204
1773232868402195500,6.056195556640625,0.10840799659490585,-9.54919147491455,-2.200269937515259
1773232868422014700,6.0760146484375,0.3712809979915619,-9.448294639587402,-2.575247049331665
1773232868441834200,6.095834228515625,0.6477410197257996,-9.2981595993042,-3.0273220539093018
1773232868461653800,6.11565380859375,0.9345489740371704,-9.104636192321777,-3.503171920776367
1773232868481473300,6.135473388671875,1.2364619970321655,-8.885492324829102,-3.944514036178589
1773232868501292500,6.15529248046875,1.6216609477996826,-8.637408256530762,-4.336516857147217
1773232868521112000,6.175112060546875,1.9792020320892334,-8.37456226348877,-4.689295768737793
1773232868540931600,6.194931640625,2.121664047241211,-8.137290000915527,-5.0322041511535645
1773232868560750800,6.214750732421875,2.0730459690093994,-7.955544948577881,-5.334025859832764
1773232868580570400,6.2345703125,2.068481922149658,-7.900519847869873,-5.416933059692383
1773232868600390000,6.254389892578125,2.0953969955444336,-7.8980021476745605,-5.410258769989014
1773232868620209200,6.274209228515625,2.235177993774414,-7.767561912536621,-5.54156494140625
1773232868640028700,6.294028564453125,2.3894810676574707,-7.600162029266357,-5.706831932067871
1773232868659848400,6.313848388671875,2.4772820472717285,-7.469717979431152,-5.840068817138672
1773232868679667500,6.33366748046875,2.517817974090576,-7.371344089508057,-5.946755886077881
1773232868699487000,6.353487060546875,2.6232519149780273,-7.2871317863464355,-6.004687786102295
1773232868719306500,6.373306396484375,2.7712669372558594,-7.234309196472168,-6.00206995010376
1773232868739126000,6.3931259765625,2.8534719944000244,-7.219974994659424,-5.980774879455566
1773232868758945300,6.4129453125,2.850619077682495,-7.267794132232666,-5.923945903778076
1773232868778765000,6.43276513671875,2.8024590015411377,-7.49039888381958,-5.663938045501709
1773232868798584300,6.452584228515625,2.8520638942718506,-7.818623065948486,-5.174440860748291
1773232868818403800,6.47240380859375,2.8839800357818604,-8.077215194702148,-4.741437911987305
1773232868838223000,6.49222314453125,2.8061959743499756,-8.178648948669434,-4.612480163574219
1773232868858043000,6.51204296875,2.634814977645874,-8.257939338684082,-4.572107791900635
1773232868877862100,6.531862060546875,2.3990230560302734,-8.345574378967285,-4.542693138122559
1773232868897681700,6.551681640625,2.13504695892334,-8.486749649047852,-4.410968780517578
1773232868917501000,6.5715009765625,1.847206950187683,-8.609137535095215,-4.30239200592041
1773232868937320700,6.59132080078125,1.664180040359497,-8.607403755187988,-4.379854202270508
1773232868957140000,6.611139892578125,1.5882370471954346,-8.538936614990234,-4.539172172546387
1773232868976959500,6.63095947265625,1.5476549863815308,-8.504981994628906,-4.616281032562256
1773232868996778800,6.65077880859375,1.3556079864501953,-8.56999683380127,-4.556038856506348
1773232869016598300,6.670598388671875,1.0991560220718384,-8.668736457824707,-4.436766147613525
1773232869036417800,6.690417724609375,0.7496910095214844,-8.762131690979004,-4.324697017669678
1773232869056237300,6.7102373046875,0.4152210056781769,-8.819969177246094,-4.251554012298584
1773232869076056600,6.730056640625,0.3336910009384155,-8.88704776763916,-4.116921901702881
1773232869095876000,6.7498759765625,0.29465699195861816,-8.990955352783203,-3.887917995452881
1773232869115695600,6.769695556640625,0.09291999787092209,-9.072554588317871,-3.7040700912475586
1773232869135515100,6.78951513671875,-0.1375180035829544,-9.136289596557617,-3.542501926422119
1773232869155334700,6.809334716796875,-0.34618300199508667,-9.202877044677734,-3.3507070541381836
1773232869175154200,6.829154296875,-0.5635589957237244,-9.256020545959473,-3.1699330806732178
1773232869194973700,6.8489736328125,-0.7054409980773926,-9.282853126525879,-3.061206102371216
1773232869214793000,6.86879296875,-0.796002984046936,-9.298439025878906,-2.9908928871154785
1773232869234612500,6.888612548828125,-0.8962640166282654,-9.320229530334473,-2.893099069595337
1773232869254432000,6.908431884765625,-1.0068559646606445,-9.347026824951172,-2.7675509452819824
1773232869274251300,6.928251220703125,-1.107010006904602,-9.37271785736084,-2.639451026916504
1773232869294071000,6.948071044921875,-1.1777559518814087,-9.401297569274902,-2.503696918487549
1773232869313890600,6.967890625,-1.215967059135437,-9.431151390075684,-2.369558095932007
1773232869333709800,6.987709716796875,-1.2299989461898804,-9.45853042602539,-2.2501769065856934
1773232869353529300,7.007529296875,-1.2244739532470703,-9.483550071716309,-2.1454529762268066
1773232869373348600,7.0273486328125,-1.1913820505142212,-9.50556755065918,-2.065139055252075
1773232869393168400,7.04716845703125,-1.1036540269851685,-9.525033950805664,-2.023771047592163
1773232869412987600,7.066987548828125,-0.9905080199241638,-9.541987419128418,-2.0023410320281982
1773232869432807200,7.08680712890625,-0.8803690075874329,-9.555797576904297,-1.9878859519958496
1773232869452626700,7.106626708984375,-0.747298002243042,-9.573951721191406,-1.9547380208969116
1773232869472446200,7.1264462890625,-0.5920799970626831,-9.59736442565918,-1.8921029567718506
1773232869492265500,7.146265380859375,-0.5423049926757812,-9.614935874938965,-1.8162989616394043
1773232869512085200,7.166085205078125,-0.6383739709854126,-9.59328842163086,-1.8977080583572388
1773232869531904800,7.18590478515625,-0.7112460136413574,-9.57906436920166,-1.9431129693984985
1773232869551724300,7.205724365234375,-0.7344369888305664,-9.57623291015625,-1.9484349489212036
1773232869571543600,7.22554345703125,-0.704820990562439,-9.58241081237793,-1.9288959503173828
1773232869591363000,7.245363037109375,-0.6754180192947388,-9.57798957824707,-1.9611079692840576
1773232869611182300,7.265182373046875,-0.632565975189209,-9.564339637756348,-2.0404059886932373
1773232869631002000,7.285002197265625,-0.5031279921531677,-9.557968139648438,-2.105257987976074
1773232869650821600,7.304821533203125,-0.34878599643707275,-9.560654640197754,-2.1242010593414307
1773232869670641000,7.324640869140625,-0.20004500448703766,-9.55203628540039,-2.1814239025115967
1773232869690460700,7.344460693359375,0.007987000048160553,-9.512741088867188,-2.3553531169891357
1773232869710280000,7.364280029296875,0.3630250096321106,-9.42835521697998,-2.6484580039978027
1773232869730099500,7.384099365234375,0.897284984588623,-9.261606216430664,-3.0753118991851807
1773232869749918700,7.403918701171875,1.4648469686508179,-8.992202758789062,-3.610337018966675
1773232869769738500,7.423738525390625,1.774150013923645,-8.677813529968262,-4.19379997253418
1773232869789557800,7.443557861328125,1.8754420280456543,-8.4154691696167,-4.658606052398682
1773232869809377500,7.46337744140625,1.9062639474868774,-8.258535385131836,-4.919631004333496
1773232869829196800,7.48319677734375,1.8710139989852905,-8.127097129821777,-5.1468048095703125
1773232869849016300,7.503016357421875,1.8896429538726807,-7.890750885009766,-5.495935916900635
1773232869868836000,7.522836181640625,2.1395490169525146,-7.543985843658447,-5.877974033355713
1773232869888655400,7.5426552734375,2.5787529945373535,-7.17922306060791,-6.15213680267334
1773232869908475000,7.562474853515625,2.82466197013855,-6.865174770355225,-6.397708892822266
1773232869938204200,7.5922041015625,2.955333948135376,-6.422706127166748,-6.786372184753418
1773232869958023700,7.612023681640625,3.1721909046173096,-6.14920711517334,-6.940062999725342
1773232869977843200,7.63184326171875,3.4098761081695557,-5.863821983337402,-7.073071002960205
1773232869997662700,7.651662841796875,3.6382100582122803,-5.537872791290283,-7.220483779907227
1773232870017482000,7.67148193359375,3.938636064529419,-5.178277015686035,-7.328889846801758
1773232870037301500,7.691301513671875,4.159045219421387,-4.851064205169678,-7.43031120300293
1773232870057121000,7.71112109375,4.2984747886657715,-4.667500972747803,-7.468438148498535
1773232870076940500,7.7309404296875,4.403561115264893,-4.632256031036377,-7.429056167602539
1773232870096760000,7.750760009765625,4.402605056762695,-4.655306816101074,-7.415200233459473
1773232870116579300,7.770579345703125,4.19313383102417,-4.677405834197998,-7.521935939788818
1773232870136399000,7.790399169921875,4.051414966583252,-4.686676025390625,-7.593492031097412
1773232870156218600,7.810218505859375,3.8383629322052,-4.696669101715088,-7.697290897369385
1773232870176038000,7.830037841796875,3.5376648902893066,-4.756310939788818,-7.803999900817871
1773232870195857400,7.849857421875,3.2606470584869385,-4.915781021118164,-7.825809955596924
1773232870215677000,7.869677001953125,3.053870916366577,-5.1861162185668945,-7.734214782714844
1773232870235496200,7.88949609375,2.8884220123291016,-5.542238235473633,-7.548550128936768
1773232870255316000,7.90931591796875,2.655674934387207,-6.004004955291748,-7.275941848754883
1773232870275135200,7.92913525390625,2.154689073562622,-6.4976420402526855,-7.012701988220215
1773232870294954800,7.948954833984375,1.5598139762878418,-6.822686195373535,-6.859877109527588
1773232870314774500,7.9687744140625,1.0798779726028442,-6.884810924530029,-6.890082836151123
1773232870334593800,7.98859375,1.0838160514831543,-6.93681001663208,-6.837107181549072
1773232870354413300,8.008413330078126,1.239730954170227,-7.117392063140869,-6.621617794036865
1773232870374232800,8.02823291015625,1.3752000331878662,-7.423935890197754,-6.247719764709473
1773232870394052400,8.04805224609375,1.4393240213394165,-7.766891956329346,-5.80032205581665
1773232870413871900,8.067871826171874,1.3687649965286255,-8.071057319641113,-5.3874430656433105
1773232870433691100,8.087691162109374,1.1540240049362183,-8.316781044006348,-5.053651809692383
1773232870453510700,8.1075107421875,0.8664839863777161,-8.503447532653809,-4.793805122375488
1773232870473330200,8.127330078125,0.6195539832115173,-8.645707130432129,-4.57251501083374
1773232870493149700,8.147149658203125,0.4831860065460205,-8.764198303222656,-4.358370780944824
1773232870512969200,8.16696923828125,0.24489900469779968,-8.858248710632324,-4.184668064117432
1773232870532788500,8.18678857421875,0.017358999699354172,-8.897163391113281,-4.108551979064941
1773232870552608000,8.20660791015625,-0.2829059958457947,-8.89899730682373,-4.094852924346924
1773232870572427800,8.226427734375,-0.5291780233383179,-8.950274467468262,-3.9563300609588623
1773232870592247000,8.2462470703125,-0.8161299824714661,-8.999393463134766,-3.792738914489746
1773232870612066600,8.266066650390625,-1.0757739543914795,-9.051944732666016,-3.5979208946228027
1773232870631885800,8.2858857421875,-1.224437952041626,-9.113714218139648,-3.3883581161499023
1773232870651705300,8.305705322265625,-1.2786649465560913,-9.177165985107422,-3.1913390159606934
1773232870671524900,8.32552490234375,-1.318943977355957,-9.225606918334961,-3.0312678813934326
1773232870691344400,8.345344482421876,-1.3395249843597412,-9.258569717407227,-2.9196889400482178
1773232870711164000,8.365163818359376,-1.356166958808899,-9.279309272766113,-2.8452188968658447
1773232870730983400,8.3849833984375,-1.3829740285873413,-9.28653335571289,-2.8085079193115234
1773232870750802700,8.404802734375,-1.3623299598693848,-9.27448844909668,-2.857961893081665
1773232870770622200,8.424622314453124,-1.3083759546279907,-9.243742942810059,-2.9801669120788574
1773232870790441700,8.444441650390624,-1.2768909931182861,-9.189462661743164,-3.156475067138672
1773232870810261200,8.46426123046875,-1.2840499877929688,-9.087613105773926,-3.43605899810791
1773232870830080800,8.484080810546875,-1.3191909790039062,-8.992595672607422,-3.66510009765625
1773232870849900300,8.503900390625,-1.3613100051879883,-8.885128021240234,-3.904015064239502
1773232870869719600,8.523719482421875,-1.3639580011367798,-8.77358341217041,-4.147755146026611
1773232870889539000,8.5435390625,-1.1637059450149536,-8.74022102355957,-4.277187824249268
1773232870909358800,8.56335888671875,-0.8254370093345642,-8.735258102416992,-4.365080833435059
1773232870929178000,8.58317822265625,-0.3005659878253937,-8.739347457885742,-4.424190998077393
1773232870948997600,8.60299755859375,0.1985349953174591,-8.645462989807129,-4.610482215881348
1773232870968817000,8.62281689453125,0.5404589772224426,-8.467429161071777,-4.904138088226318
1773232870988636700,8.64263671875,0.7208690047264099,-8.274740219116211,-5.200870037078857
1773232871008456000,8.6624560546875,0.7088580131530762,-8.100485801696777,-5.469884872436523
1773232871028275200,8.682275146484375,0.5482500195503235,-7.872931003570557,-5.810025215148926
1773232871048094700,8.7020947265625,0.35211700201034546,-7.581783771514893,-6.199398994445801
1773232871067914200,8.721914306640626,0.3064740002155304,-7.229034900665283,-6.609623908996582
1773232871087734000,8.741734130859374,0.6864969730377197,-6.779269218444824,-7.04345178604126
1773232871107553300,8.76155322265625,1.397104024887085,-6.3097028732299805,-7.367207050323486
1773232871127372800,8.781372802734374,1.788172960281372,-5.983357906341553,-7.552608013153076
1773232871147192000,8.801192138671874,2.0127370357513428,-5.810937881469727,-7.630327224731445
1773232871167011800,8.82101171875,2.28747296333313,-5.685183048248291,-7.647624969482422
1773232871186831000,8.8408310546875,2.4926629066467285,-5.491105079650879,-7.72491979598999
1773232871206650600,8.860650634765625,2.720828056335449,-5.187601089477539,-7.856583118438721
1773232871226470000,8.880469970703125,3.1492979526519775,-4.83067512512207,-7.923793792724609
1773232871246289700,8.90028955078125,3.5192089080810547,-4.530055046081543,-7.945676803588867
1773232871266109000,8.92010888671875,3.7157859802246094,-4.520781993865967,-7.861009120941162
1773232871285928400,8.939928466796875,3.8148539066314697,-4.778325080871582,-7.658624172210693
1773232871305747700,8.959747802734375,3.4268651008605957,-5.103480815887451,-7.6322407722473145
1773232871325567200,8.979567138671875,3.1773691177368164,-5.137548923492432,-7.716859817504883
1773232871345386800,8.99938671875,2.890688896179199,-5.1975579261779785,-7.789050102233887
1773232871365206000,9.0192060546875,2.5342159271240234,-5.375004768371582,-7.792757034301758
1773232871385025500,9.039025634765625,2.215609073638916,-5.748982906341553,-7.6210408210754395
1773232871404845300,9.05884521484375,1.9037339687347412,-6.239683151245117,-7.313150882720947
1773232871424664600,9.07866455078125,1.3500900268554688,-6.565577983856201,-7.1491570472717285
1773232871444484000,9.098484130859376,0.6774929761886597,-6.724067211151123,-7.097033977508545
1773232871464303400,9.118303466796876,0.3503899872303009,-6.697832107543945,-7.145366191864014
1773232871484123000,9.138122802734374,0.657863974571228,-6.7818498611450195,-7.043701171875
1773232871503942400,9.1579423828125,0.7676389813423157,-7.038696765899658,-6.775504112243652
1773232871523762000,9.177761962890624,0.7718219757080078,-7.418976783752441,-6.356339931488037
1773232871543581200,9.197581298828124,0.6329339742660522,-7.757065773010254,-5.955442905426025
1773232871563400700,9.217400634765625,0.40078699588775635,-7.994690895080566,-5.653697967529297
1773232871583220000,9.237219970703125,0.13616099953651428,-8.17276668548584,-5.406232833862305
1773232871603039500,9.25703955078125,-0.07600100338459015,-8.293741226196289,-5.219971179962158
1773232871622859000,9.27685888671875,-0.21412800252437592,-8.451668739318848,-4.956155776977539
1773232871642678500,9.296678466796875,-0.3240549862384796,-8.5969877243042,-4.693270206451416
1773232871662498300,9.316498291015625,-0.45996201038360596,-8.720202445983887,-4.448204040527344
1773232871682317600,9.336317626953125,-0.6315749883651733,-8.836466789245605,-4.190226078033447
1773232871702136800,9.35613671875,-0.8337590098381042,-8.944168090820312,-3.9174890518188477
1773232871721956400,9.375956298828125,-1.0195339918136597,-9.042810440063477,-3.637049913406372
1773232871741776000,9.39577587890625,-1.1450530290603638,-9.142980575561523,-3.3368771076202393
1773232871761595100,9.41559521484375,-1.2335360050201416,-9.23449993133545,-3.0401339530944824
1773232871781414700,9.43541455078125,-1.3228399753570557,-9.308897018432617,-2.763071060180664
1773232871801234200,9.455234130859376,-1.4321949481964111,-9.360631942749023,-2.523374080657959
1773232871821053700,9.4750537109375,-1.5587190389633179,-9.39620304107666,-2.306900978088379
1773232871840873000,9.494873046875,-1.675137996673584,-9.420503616333008,-2.118499994277954
1773232871860692500,9.5146923828125,-1.7367750406265259,-9.424517631530762,-2.049891948699951
1773232871880511700,9.53451171875,-1.735414981842041,-9.415523529052734,-2.0919439792633057
1773232871900331500,9.55433154296875,-1.661486029624939,-9.40584945678711,-2.193049907684326
1773232871920150800,9.57415087890625,-1.6317540407180786,-9.408285140991211,-2.204893112182617
1773232871939970000,9.593969970703125,-1.653602957725525,-9.40560245513916,-2.2000579833984375
1773232871959789600,9.61378955078125,-1.7166930437088013,-9.383182525634766,-2.2469708919525146
1773232871979609000,9.633609130859375,-1.7558269500732422,-9.34141731262207,-2.3864169120788574
1773232871999428400,9.653428466796875,-1.735733985900879,-9.288183212280273,-2.599402904510498
1773232872019247900,9.673247802734375,-1.6924220323562622,-9.221355438232422,-2.8534789085388184
1773232872039067400,9.6930673828125,-1.6591839790344238,-9.151788711547852,-3.0873770713806152
1773232872058886700,9.71288671875,-1.4714080095291138,-9.107454299926758,-3.305938959121704
1773232872078706200,9.7327060546875,-1.0856050252914429,-9.107163429260254,-3.452687978744507
1773232872098525400,9.752525390625,-0.5377230048179626,-9.115761756896973,-3.557210922241211
1773232872118345000,9.772344970703125,0.08589000254869461,-9.083488464355469,-3.6773440837860107
1773232872138164500,9.79216455078125,0.6611700057983398,-8.993293762207031,-3.837125062942505
1773232872157983700,9.811983642578125,1.0618239641189575,-8.860410690307617,-4.0503950119018555
1773232872177803300,9.83180322265625,1.1240780353546143,-8.699864387512207,-4.369074821472168
1773232872197622800,9.851622802734376,0.8665720224380493,-8.461777687072754,-4.866970062255859
1773232872217442000,9.871442138671876,0.4837529957294464,-8.150564193725586,-5.419804096221924
1773232872237261600,9.891261474609376,0.3194870054721832,-7.793270111083984,-5.933198928833008
1773232872257081000,9.9110810546875,0.6257830262184143,-7.3784050941467285,-6.419310092926025
1773232872276900400,9.930900390625,1.2743669748306274,-6.884920120239258,-6.856665134429932
1773232872296720000,9.950719970703124,1.7782080173492432,-6.447451114654541,-7.162984848022461
1773232872316539400,9.970539306640624,2.0366249084472656,-6.1725311279296875,-7.334303855895996
1773232872336359000,9.99035888671875,2.1980841159820557,-5.8964948654174805,-7.512642860412598
1773232872356178200,10.01017822265625,2.3498289585113525,-5.597089767456055,-7.693562030792236
1773232872375997400,10.02999755859375,2.6524300575256348,-5.240902900695801,-7.8445868492126465
1773232872395817000,10.04981689453125,2.988218069076538,-4.817152976989746,-7.994099140167236
1773232872415636500,10.069636474609375,3.2229790687561035,-4.465647220611572,-8.106195449829102
1773232872435455700,10.089455810546875,3.4407129287719727,-4.423824787139893,-8.039359092712402
1773232872455275000,10.10927490234375,3.599531888961792,-4.666421890258789,-7.829933166503906
1773232872475094500,10.129094482421875,3.5238819122314453,-5.098321914672852,-7.591401100158691
1773232872494914000,10.1489140625,3.1395950317382812,-5.350019931793213,-7.586846828460693
1773232872514733600,10.168733642578125,2.8009109497070312,-5.492673873901367,-7.617443084716797
1773232872534552800,10.188552734375,2.504426956176758,-5.688324928283691,-7.576993942260742
1773232872554372400,10.208372314453126,2.2623050212860107,-5.970647811889648,-7.434604167938232
1773232872574191900,10.22819189453125,2.0647380352020264,-6.406292915344238,-7.12293815612793
1773232872594011100,10.24801123046875,1.7052580118179321,-6.905881881713867,-6.740984916687012
1773232872613830400,10.267830322265626,1.2050909996032715,-7.365594863891602,-6.35104513168335
1773232872633650200,10.287650146484374,0.6395879983901978,-7.670286178588867,-6.066103935241699
1773232872653469400,10.307469482421874,0.39980199933052063,-7.651352882385254,-6.110397815704346
1773232872673289000,10.3272890625,0.5471000075340271,-7.63121223449707,-6.124155044555664
1773232872693108200,10.347108154296874,0.46412599086761475,-7.881072044372559,-5.806315898895264
1773232872712927700,10.366927734375,0.3122360110282898,-8.071051597595215,-5.549829959869385
1773232872732747300,10.386747314453125,0.16153299808502197,-8.305084228515625,-5.199948787689209
1773232872752566500,10.40656640625,-0.05453899875283241,-8.476926803588867,-4.9171881675720215
1773232872772386000,10.426385986328125,-0.29862600564956665,-8.596329689025879,-4.696162223815918
1773232872792205300,10.446205322265625,-0.5264089703559875,-8.688359260559082,-4.50281286239624
1773232872812024800,10.46602490234375,-0.7097740173339844,-8.783937454223633,-4.287035942077637
1773232872831844400,10.48584423828125,-0.9062280058860779,-8.880870819091797,-4.043377876281738
1773232872851663600,10.50566357421875,-1.0951160192489624,-8.964387893676758,-3.80531907081604
1773232872871483100,10.525483154296875,-1.239182949066162,-9.04814624786377,-3.554642915725708
1773232872891302700,10.545302734375,-1.3576589822769165,-9.126571655273438,-3.301887035369873
1773232872911122000,10.565121826171875,-1.4705009460449219,-9.190690040588379,-3.0673890113830566
1773232872930941200,10.584941162109375,-1.5780550241470337,-9.226736068725586,-2.9012200832366943
1773232872950760700,10.6047607421875,-1.644307017326355,-9.244428634643555,-2.8065600395202637
1773232872970580200,10.624580322265626,-1.664523959159851,-9.234598159790039,-2.826932907104492
1773232872990399700,10.644399658203126,-1.7657599449157715,-9.227184295654297,-2.789473056793213
1773232873010219000,10.664218994140626,-1.872709035873413,-9.221882820129395,-2.7367570400238037
1773232873030038500,10.68403857421875,-1.9499640464782715,-9.21358871459961,-2.71061110496521
1773232873049857800,10.70385791015625,-1.9790810346603394,-9.222869873046875,-2.657423973083496
1773232873069677300,10.72367724609375,-2.0087549686431885,-9.250700950622559,-2.5356369018554688
1773232873089496600,10.74349658203125,-2.0293710231781006,-9.275748252868652,-2.4253170490264893
1773232873109316000,10.763316162109374,-2.0085489749908447,-9.292473793029785,-2.3781630992889404
1773232873129135600,10.783135498046875,-1.8788599967956543,-9.29970932006836,-2.454648971557617
1773232873148955000,10.802954833984375,-1.6944010257720947,-9.28252124786377,-2.6464691162109375
1773232873168774400,10.8227744140625,-1.5241860151290894,-9.262419700622559,-2.815035104751587
1773232873188594000,10.842593994140625,-1.3662029504776,-9.245928764343262,-2.9472548961639404
1773232873208413200,10.8624130859375,-1.1883020401000977,-9.234457015991211,-3.05822491645813
1773232873228232400,10.882232421875,-0.9792709946632385,-9.227714538574219,-3.1512410640716553
1773232873248052000,10.902052001953125,-0.6925340294837952,-9.224053382873535,-3.2368528842926025
1773232873267871500,10.92187158203125,-0.26279500126838684,-9.215811729431152,-3.322613000869751
1773232873287690800,10.941690673828125,0.33794599771499634,-9.172463417053223,-3.433907985687256
1773232873307510300,10.96151025390625,0.9704620242118835,-9.041295051574707,-3.6542038917541504
1773232873327329500,10.98132958984375,1.5492459535598755,-8.828718185424805,-3.9615108966827393
1773232873347149000,11.001149169921876,1.9449540376663208,-8.592366218566895,-4.2928290367126465
1773232873366968300,11.02096826171875,2.098771095275879,-8.38869571685791,-4.611394882202148
1773232873386787800,11.040787841796876,2.0873990058898926,-8.238807678222656,-4.879016876220703
1773232873406607400,11.060607421875,2.0200390815734863,-8.069104194641113,-5.181603908538818
1773232873426426600,11.080426513671876,2.112442970275879,-7.7734880447387695,-5.581258773803711
1773232873446246100,11.10024609375,2.3863980770111084,-7.358686923980713,-6.016213893890381
1773232873466065700,11.120065673828124,2.697208881378174,-6.893775939941406,-6.421910762786865
1773232873495794700,11.149794677734375,3.0408740043640137,-6.220447063446045,-6.935355186462402
1773232873515614200,11.1696142578125,3.1819539070129395,-5.876657962799072,-7.167990207672119
1773232873535433500,11.18943359375,3.3769099712371826,-5.588930130004883,-7.307553768157959
1773232873555253000,11.2092529296875,3.567352056503296,-5.22935676574707,-7.48116397857666
1773232873575072300,11.229072265625,3.7132010459899902,-4.803688049316406,-7.692640781402588
1773232873594891800,11.248891845703126,3.8518309593200684,-4.411643981933594,-7.857532024383545
1773232873614711000,11.2687109375,3.9527859687805176,-4.127962112426758,-7.960866928100586
1773232873634530600,11.288530517578126,3.963315010070801,-4.14530086517334,-7.946609973907471
1773232873654349800,11.308349853515624,3.767040967941284,-4.378537178039551,-7.916933059692383
1773232873674169300,11.32816943359375,3.4528989791870117,-4.679181098937988,-7.88814115524292
1773232873693988600,11.347988525390624,3.31345796585083,-4.812013149261475,-7.868008136749268
1773232873713808100,11.36780810546875,3.187079906463623,-4.931900978088379,-7.845946788787842
1773232873733627400,11.38762744140625,3.0052030086517334,-5.148587226867676,-7.778226852416992
1773232873753447000,11.407447021484375,2.8406929969787598,-5.502628803253174,-7.59549617767334
1773232873773266200,11.42726611328125,2.727715015411377,-5.9799909591674805,-7.269064903259277
1773232873793085700,11.447085693359375,2.5306758880615234,-6.503754138946533,-6.880178928375244
1773232873812905000,11.466905029296875,2.245748996734619,-6.866531848907471,-6.62173318862915
1773232873832724500,11.486724365234375,2.0470759868621826,-6.928109169006348,-6.621992111206055
1773232873852544000,11.5065439453125,1.9069299697875977,-7.016679763793945,-6.570374965667725
1773232873872363300,11.52636328125,1.8075109720230103,-7.253373146057129,-6.337309837341309
1773232873892182800,11.546182861328125,1.684541940689087,-7.457357883453369,-6.131082057952881
1773232873912002000,11.566001953125,1.6098209619522095,-7.555385112762451,-6.030311107635498
1773232873931821600,11.585821533203125,1.5634069442749023,-7.562794208526611,-6.033234119415283
1773232873951640800,11.605640869140625,1.5058059692382812,-7.585279941558838,-6.019641876220703
1773232873971460400,11.62546044921875,1.4479379653930664,-7.6208648681640625,-5.9888129234313965
1773232873991279600,11.645279541015626,1.344565987586975,-7.640740871429443,-5.987588882446289
1773232874011099100,11.66509912109375,1.1636619567871094,-7.684426784515381,-5.969545841217041
1773232874030918400,11.68491845703125,0.896930992603302,-7.730541229248047,-5.956027984619141
1773232874050738000,11.704738037109376,0.6514589786529541,-7.751035213470459,-5.961298942565918
1773232874070557200,11.72455712890625,0.4301689863204956,-7.7426300048828125,-5.992212772369385
1773232874090376700,11.744376708984374,0.18924400210380554,-7.7295098304748535,-6.02153205871582
1773232874110196000,11.764196044921874,-0.08240900188684464,-7.76485013961792,-5.978316783905029
1773232874130015700,11.784015625,-0.3260450065135956,-7.841279983520508,-5.869243144989014
1773232874149835000,11.8038349609375,-0.40981200337409973,-7.932938098907471,-5.739387035369873
1773232874169654500,11.823654541015625,-0.3277980089187622,-8.082900047302246,-5.531661033630371
1773232874189473800,11.843473876953125,-0.15433800220489502,-8.282079696655273,-5.236729145050049
1773232874209293300,11.863293212890625,-0.014015000313520432,-8.481449127197266,-4.909665107727051
1773232874229112600,11.883112548828125,0.1590459942817688,-8.638768196105957,-4.624538898468018
1773232874258841600,11.912841552734376,0.5358780026435852,-8.791389465332031,-4.297012805938721
1773232874278661000,11.9326611328125,0.9297549724578857,-8.836709976196289,-4.133779048919678
1773232874298480600,11.952480712890624,1.5352760553359985,-8.810566902160645,-4.0071001052856445
1773232874318300000,11.9722998046875,2.2710530757904053,-8.68572998046875,-3.929431915283203
1773232874338119400,11.992119384765624,3.073683977127075,-8.438153266906738,-3.9230151176452637
1773232874357938700,12.011938720703125,3.834260940551758,-8.083903312683105,-3.998616933822632
1773232874377758200,12.03175830078125,4.547576904296875,-7.659328937530518,-4.085855960845947
1773232874397577700,12.05157763671875,5.296201229095459,-7.160405158996582,-4.0888671875
1773232874417397000,12.07139697265625,6.089982032775879,-6.571857929229736,-3.9702401161193848
1773232874437216500,12.091216552734375,6.866744041442871,-5.856738090515137,-3.8192191123962402
1773232874457036000,12.1110361328125,7.515732765197754,-5.027915954589844,-3.778074026107788
1773232874476855300,12.130855224609375,7.958571910858154,-4.227212905883789,-3.8512051105499268
1773232874496674800,12.1506748046875,8.293645858764648,-3.4833428859710693,-3.888669013977051
1773232874516494000,12.170494140625,8.60506534576416,-2.7815840244293213,-3.7756619453430176
1773232874536313600,12.190313720703125,8.855854988098145,-2.0885169506073,-3.6403229236602783
1773232874556132900,12.2101328125,8.95258617401123,-1.5150690078735352,-3.6872470378875732
1773232874575952400,12.229952392578125,8.928057670593262,-1.1372699737548828,-3.87768292427063
1773232874595771600,12.249771728515626,8.980116844177246,-0.7211689949035645,-3.8571269512176514
1773232874615591200,12.269591064453126,9.091778755187988,-0.12718899548053741,-3.6556010246276855
1773232874635410400,12.289410400390626,9.071582794189453,0.4140560030937195,-3.6844160556793213
1773232874655230200,12.309230224609376,8.985718727111816,0.8755300045013428,-3.811868906021118
1773232874675049500,12.329049560546874,8.883465766906738,1.1345809698104858,-3.9795479774475098
1773232874694869000,12.348868896484374,8.928609848022461,1.188359022140503,-3.861053943634033
1773232874714688300,12.368688232421874,9.015329360961914,1.2333569526672363,-3.639051914215088
1773232874734507800,12.3885078125,9.063077926635742,1.251505970954895,-3.5120298862457275
1773232874754327000,12.4083271484375,9.084269523620605,1.2778760194778442,-3.4471869468688965
1773232874774146600,12.428146484375,9.075068473815918,1.3550790548324585,-3.4419360160827637
1773232874793965800,12.4479658203125,9.08933162689209,1.4661040306091309,-3.357767105102539
1773232874813785300,12.467785400390625,9.093111991882324,1.583912968635559,-3.2934110164642334
1773232874833604600,12.4876044921875,9.138751029968262,1.740699052810669,-3.0811100006103516
1773232874853424400,12.50742431640625,9.191351890563965,1.947590947151184,-2.786736011505127
1773232874873243600,12.52724365234375,9.238954544067383,2.220149040222168,-2.398474931716919
1773232874893063200,12.547063232421875,9.24626636505127,2.4800989627838135,-2.0965819358825684
1773232874912882700,12.566882568359375,9.256216049194336,2.662653923034668,-1.8090649843215942
1773232874932702000,12.586701904296875,9.279742240905762,2.6988699436187744,-1.6255769729614258
1773232874952521200,12.606521240234375,9.322075843811035,2.583319902420044,-1.5701420307159424
1773232874972340700,12.6263408203125,9.346546173095703,2.5364201068878174,-1.4995510578155518
1773232874992160300,12.64616015625,9.330745697021484,2.6039700508117676,-1.482069969177246
1773232875011979800,12.665979736328126,9.310006141662598,2.7414710521698,-1.3594609498977661
1773232875031799000,12.685799072265626,9.316330909729004,2.789691925048828,-1.2097829580307007
1773232875051618600,12.70561865234375,9.34502124786377,2.7529850006103516,-1.063804030418396
1773232875071437800,12.725437744140624,9.34295654296875,2.786505937576294,-0.9922530055046082
1773232875091257300,12.74525732421875,9.31333065032959,2.8796839714050293,-1.0046340227127075
1773232875111076600,12.76507666015625,9.305413246154785,2.883668899536133,-1.0647920370101929
1773232875130896100,12.784896240234374,9.32935905456543,2.7945148944854736,-1.0925899744033813
1773232875150715400,12.80471533203125,9.353553771972656,2.7084860801696777,-1.102329969406128
1773232875170535000,12.824534912109375,9.342281341552734,2.758513927459717,-1.0735019445419312
1773232875190354200,12.844354248046875,9.28994369506836,2.9261510372161865,-1.0837889909744263
1773232875210173700,12.864173583984375,9.237464904785156,3.0723280906677246,-1.1269750595092773
1773232875229993200,12.8839931640625,9.211167335510254,3.1444859504699707,-1.1430619955062866
1773232875249812700,12.903812744140625,9.179856300354004,3.2045059204101562,-1.2253069877624512
1773232875269632000,12.923632080078125,9.142245292663574,3.2613959312438965,-1.350061058998108
1773232875289451500,12.943451416015625,9.120583534240723,3.2684690952301025,-1.4737839698791504
1773232875309271000,12.96327099609375,9.116220474243164,3.252316951751709,-1.5352519750595093
1773232875329090300,12.98309033203125,9.125419616699219,3.2334210872650146,-1.5204390287399292
1773232875348909600,13.00290966796875,9.140693664550781,3.1952719688415527,-1.5092920064926147
1773232875368729000,13.02272900390625,9.147236824035645,3.1677799224853516,-1.52749502658844
1773232875388548600,13.042548583984376,9.142951965332031,3.17728590965271,-1.5333830118179321
1773232875408367900,13.062367919921876,9.084587097167969,3.305540084838867,-1.6073880195617676
1773232875428187400,13.0821875,9.013495445251465,3.438659906387329,-1.724100947380066
1773232875448007000,13.1020068359375,8.992918014526367,3.4513089656829834,-1.8044110536575317
1773232875467826200,13.121826171875,9.02172565460205,3.3838601112365723,-1.7882859706878662
1773232875487645700,13.141645751953124,9.05179214477539,3.323293924331665,-1.7495160102844238
