time,seconds_elapsed,z,y,x
1772698665814142000,0.071141845703125,1.6878193616867065,-1.5952733755111694,-0.544891357421875
1772698665831488800,0.08848876953125,2.747058868408203,-1.840230107307434,-0.4471530318260193
1772698665848835300,0.10583544921875,2.3591597080230713,-1.8744385242462158,-0.033597562462091446
1772698665866182100,0.12318212890625,0.3744601011276245,-0.6172788739204407,-0.14599667489528656
1772698665883529000,0.140529052734375,1.3964369297027588,-0.2861901521682739,-1.29503333568573
1772698665900875500,0.15787548828125,2.29624080657959,0.6166679859161377,-2.1227550506591797
1772698665918222300,0.175222412109375,3.1679446697235107,1.079703450202942,-2.3371686935424805
1772698665935569200,0.192569091796875,3.7091710567474365,0.29596397280693054,-2.171013355255127
1772698665952915700,0.209915771484375,3.955960273742676,-0.8029817342758179,-1.8002184629440308
1772698665970262500,0.227262451171875,4.244288444519043,-1.8768820762634277,-1.3054180145263672
1772698665987609300,0.244609375,4.613861560821533,-2.573267936706543,-1.3756674528121948
1772698666004956000,0.261955810546875,5.380496978759766,-2.190255641937256,-2.086714029312134
1772698666022302700,0.279302734375,6.244870662689209,-1.4309507608413696,-3.1648905277252197
1772698666039649500,0.2966494140625,7.015781879425049,-1.201265573501587,-4.08424186706543
1772698666056996400,0.313996337890625,7.450717926025391,-1.6258165836334229,-4.50390625
1772698666074343000,0.331343017578125,7.630922794342041,-1.8243476152420044,-4.6285223960876465
1772698666091689700,0.348689697265625,7.60587739944458,-1.2568542957305908,-4.655400276184082
1772698666109036500,0.36603662109375,7.513636589050293,-0.629496157169342,-4.7122111320495605
1772698666126383000,0.383383056640625,7.6156511306762695,-0.08521563559770584,-4.577820777893066
1772698666143730000,0.40072998046875,7.765313148498535,0.038789913058280945,-4.172206401824951
1772698666161076700,0.41807666015625,7.758593559265137,-0.33139413595199585,-3.7647595405578613
1772698666178423600,0.435423583984375,7.58999490737915,-0.35705047845840454,-2.824638843536377
1772698666195770000,0.45277001953125,7.1068010330200195,0.05833758786320686,-1.525329351425171
1772698666213117000,0.470116943359375,6.591230869293213,0.47983428835868835,-0.36285367608070374
1772698666230463700,0.487463623046875,6.16912317276001,0.8121446967124939,0.3384190797805786
1772698666247810300,0.504810302734375,5.569254398345947,0.8542944192886353,1.008537769317627
1772698666265157000,0.5221572265625,4.742143154144287,1.28556489944458,1.5222749710083008
1772698666282504000,0.53950390625,3.481929302215576,2.173762321472168,1.4269801378250122
1772698666299850800,0.556850830078125,2.0940444469451904,2.4712533950805664,1.2626575231552124
1772698666317197300,0.574197265625,1.0787872076034546,2.508516311645508,1.3127484321594238
1772698666334544100,0.591544189453125,0.4276053309440613,1.866497278213501,1.6157373189926147
1772698666351891000,0.608890869140625,-0.15515965223312378,0.8732311725616455,1.8093814849853516
1772698666369237800,0.62623779296875,-0.6462949514389038,-0.20372340083122253,0.4410443603992462
1772698666386584300,0.643584228515625,0.4831940531730652,0.40225446224212646,-2.1025965213775635
1772698666403931100,0.66093115234375,-0.5955931544303894,-1.570227861404419,-0.4862483739852905
1772698666421278000,0.67827783203125,-0.026878049597144127,-0.5207622051239014,-0.2571740746498108
1772698666438624500,0.69562451171875,-0.09346231073141098,0.537255585193634,-0.7898481488227844
1772698666455971300,0.712971435546875,-0.472198486328125,0.22266021370887756,-0.9388991594314575
1772698666473318100,0.730318115234375,-1.2241730690002441,-0.8530726432800293,-0.8826996088027954
1772698666490665000,0.7476650390625,-2.0134103298187256,-0.7870992422103882,-0.8124501705169678
1772698666508011800,0.76501171875,-2.598007917404175,-0.02107483521103859,-0.5375609993934631
1772698666525358300,0.7823583984375,-2.4037528038024902,1.0955859422683716,0.06352993845939636
1772698666542705200,0.799705078125,-1.8600832223892212,1.5427390336990356,0.22907429933547974
1772698666560052000,0.817052001953125,-1.1527018547058105,0.9062178730964661,0.11117739230394363
1772698666577398500,0.8343984375,0.11728604137897491,-0.6453786492347717,-0.19242240488529205
1772698666594745300,0.851745361328125,1.0720677375793457,-1.2177588939666748,-0.5815432667732239
1772698666612092200,0.869092041015625,0.7959567904472351,-1.1927134990692139,-0.7574723362922668
1772698666629438700,0.886438720703125,0.258395791053772,-1.1640028953552246,-0.8313869833946228
1772698666646785500,0.90378564453125,-0.24251331388950348,-1.1707223653793335,-0.9865466356277466
1772698666664132400,0.92113232421875,-0.21197007596492767,-0.8720094561576843,-0.9474512934684753
1772698666681479200,0.938479248046875,-0.020158538594841957,0.17684535682201385,-0.6676751971244812
1772698666698826000,0.955825927734375,0.1649334877729416,1.278234601020813,-0.31459537148475647
1772698666716172500,0.973172607421875,0.06963858753442764,0.6887500286102295,-0.5235111117362976
1772698666733519400,0.990519287109375,-0.9236275553703308,-0.29596397280693054,-0.5021308660507202
1772698666750866200,1.0078662109375,-1.941939115524292,-0.49510589241981506,-0.555276095867157
1772698666768212700,1.025212646484375,-2.279747247695923,-0.11698060482740402,-0.32070401310920715
1772698666785559600,1.0425595703125,-2.886336088180542,0.3943132162094116,-0.573602020740509
1772698666802906400,1.05990625,-3.6065456867218018,-0.10048725455999374,-0.9651663303375244
1772698666820253000,1.0772529296875,-3.3658649921417236,-0.6459894776344299,-1.2229512929916382
1772698666837599700,1.094599853515625,-2.0573925971984863,0.2788597643375397,-1.1924080848693848
1772698666854946600,1.111946533203125,-0.3042106628417969,1.201265573501587,-1.3432916402816772
1772698666872293400,1.12929345703125,-0.1337793916463852,-0.05955931544303894,-0.6554579138755798
1772698666889640000,1.146639892578125,-0.01893680728971958,-2.3429718017578125,-0.235793799161911
1772698666906986800,1.16398681640625,0.1802051067352295,-0.003359756199643016,0.35063639283180237
1772698666924333600,1.18133349609375,1.4911209344863892,-1.4376702308654785,2.1887285709381104
1772698666941680000,1.19868017578125,2.889390468597412,-1.1267400979995728,1.8985676765441895
1772698666959027000,1.21602685546875,2.5833470821380615,0.4211912751197815,0.574212908744812
1772698666976373800,1.233373779296875,-0.39400777220726013,0.8359684348106384,-1.709810495376587
1772698666993720600,1.250720458984375,-1.6187916994094849,0.22204934060573578,-1.7073670625686646
1772698667011067100,1.268067138671875,-0.14782927930355072,-0.7834340929985046,-0.5149590373039246
1772698667028414000,1.2854140625,0.24740023910999298,-0.6582068204879761,-0.277332603931427
1772698667045760800,1.3027607421875,0.5699368119239807,-0.21716243028640747,-0.739757239818573
1772698667063107600,1.320107666015625,0.5412262082099915,0.3094030022621155,-0.6743947267532349
1772698667080454100,1.3374541015625,0.34636032581329346,0.10048725455999374,-0.34636032581329346
1772698667097801000,1.354801025390625,0.4324922561645508,-0.18661919236183167,-0.21197007596492767
1772698667115147800,1.372147705078125,0.6120865345001221,0.0974329337477684,-0.26450446248054504
1772698667132494300,1.389494384765625,0.6792816519737244,0.5378664135932922,-0.3029889166355133
1772698667149841200,1.406841064453125,0.6194168925285339,0.9599739909172058,-0.2565632164478302
1772698667167188000,1.42418798828125,0.536339282989502,1.2049307823181152,-0.2009745091199875
1772698667184534800,1.44153466796875,0.4477638900279999,1.1530072689056396,-0.16676609218120575
1772698667201881300,1.45888134765625,0.26878049969673157,1.2464696168899536,-0.17715078592300415
1772698667219228200,1.476228271484375,0.03176496922969818,1.5708388090133667,-0.17898337543010712
1772698667236575000,1.493574951171875,-0.1740964651107788,1.8719950914382935,-0.2260199636220932
1772698667253921800,1.510921875,-0.4166097939014435,1.961792230606079,-0.2889390289783478
1772698667271268400,1.528268310546875,-0.7324268817901611,1.9147557020187378,-0.3854556679725647
1772698667288615200,1.545615234375,-0.9731075763702393,1.6972877979278564,-0.4838049113750458
1772698667305962000,1.5629619140625,-0.9541707634925842,1.525634765625,-0.6181951761245728
1772698667323308800,1.580308837890625,-0.7171552777290344,1.2873975038528442,-0.8442151546478271
1772698667340655400,1.5976552734375,-0.35246896743774414,1.17499840259552,-0.9859357476234436
1772698667358002200,1.615002197265625,0.07086031138896942,0.9978476166725159,-0.9132428169250488
1772698667375349000,1.632348876953125,0.2706131041049957,1.0308343172073364,-0.7984002828598022
1772698667392695600,1.649695556640625,0.06352993845939636,1.2843432426452637,-0.3756818473339081
1772698667410042400,1.66704248046875,-0.26389357447624207,1.2745693922042847,0.6621774435043335
1772698667427389200,1.68438916015625,-0.15760311484336853,0.7571669220924377,1.2143992185592651
1772698667444735700,1.70173583984375,0.39217519760131836,0.7363975048065186,0.778241753578186
1772698667462082600,1.71908251953125,0.7195987105369568,0.8903354406356812,-0.014049889519810677
1772698667479429400,1.736429443359375,0.5705476999282837,0.7186824083328247,-0.3176496922969818
1772698667496776200,1.753776123046875,-0.16615521907806396,0.4676169753074646,-0.03787361457943916
1772698667514122800,1.771122802734375,-0.8826996088027954,-0.09498947113752365,-0.14110976457595825
1772698667531469600,1.788469482421875,-0.5210676789283752,0.21960589289665222,-0.034208428114652634
1772698667548816400,1.80581640625,0.6322450637817383,0.26358816027641296,0.31031930446624756
1772698667566163200,1.8231630859375,1.7287473678588867,-0.26419901847839355,0.35613417625427246
1772698667583509800,1.840509765625,2.2363760471343994,-0.19639302790164948,0.41905322670936584
1772698667600856600,1.857856689453125,2.118479013442993,0.16035200655460358,0.37812530994415283
1772698667618203400,1.875203369140625,1.6022982597351074,0.25992295145988464,0.462424635887146
1772698667635550200,1.89255029296875,0.841160774230957,0.21288637816905975,1.08978271484375
1772698667652896800,1.909896728515625,0.35613417625427246,-0.2629773020744324,2.0024147033691406
1772698667670243600,1.92724365234375,0.07635809481143951,-0.5342012643814087,2.12886381149292
1772698667687590400,1.94459033203125,-0.14172062277793884,-0.4260781705379486,1.552207350730896
1772698667704937000,1.96193701171875,-0.29626941680908203,-0.6667588949203491,1.1050543785095215
1772698667722283800,1.97928369140625,-0.5632173418998718,-0.9385937452316284,1.0555742979049683
1772698667739630600,1.996630615234375,-1.1441497802734375,-0.3289506733417511,1.084285020828247
1772698667756977400,2.013977294921875,-1.497840404510498,0.9831868410110474,0.739757239818573
1772698667774324200,2.03132421875,-1.544877052307129,1.3387101888656616,0.4581485986709595
1772698667791670800,2.0486708984375,-1.3041963577270508,0.8811724185943604,0.3335321843624115
1772698667809017600,2.066017578125,-1.117882490158081,-0.012522728182375431,0.4367683231830597
1772698667826364400,2.083364501953125,-1.0372483730316162,-0.5928442478179932,0.5784889459609985
1772698667843711000,2.1007109375,-0.8106175661087036,-0.5042688846588135,0.38667741417884827
1772698667861057800,2.118057861328125,-0.46364638209342957,-0.630107045173645,0.15271618962287903
1772698667878404600,2.135404541015625,-0.28588470816612244,-0.7461713552474976,-0.06047561392188072
1772698667895751400,2.15275146484375,-0.17592905461788177,-0.6582068204879761,-0.2877173125743866
1772698667913098000,2.170097900390625,-0.06902772188186646,-0.5665770769119263,-0.44348782300949097
1772698667930444800,2.18744482421875,0.06780599057674408,-0.6258309483528137,-0.5241219997406006
1772698667947791600,2.20479150390625,0.18142683804035187,-0.6863065958023071,-0.5015199780464172
1772698667965138400,2.222138427734375,0.19303326308727264,-0.7101303339004517,-0.18264856934547424
1772698667982485200,2.2394853515625,0.3738492429256439,-0.8927788734436035,0.2864955961704254
1772698667999831800,2.256831787109375,0.6029235124588013,-1.20981764793396,0.5907062292098999
1772698668017178600,2.2741787109375,0.5198459029197693,-1.3753620386123657,0.6499601006507874
1772698668034525400,2.291525390625,0.2254091054201126,-1.6936225891113281,0.370184063911438
1772698668051872000,2.3088720703125,-0.24006985127925873,-1.2220350503921509,-0.014660755172371864
1772698668069218800,2.32621875,-0.15699224174022675,-0.250149130821228,-0.07147117704153061
1772698668086565600,2.343565673828125,0.17531819641590118,1.1646137237548828,-0.8820887207984924
1772698668103912400,2.360912353515625,-0.2889390289783478,0.4315759539604187,-1.1129956245422363
1772698668121259300,2.37825927734375,-0.9401208758354187,-0.13469567894935608,-0.35613417625427246
1772698668138606000,2.395606201171875,-1.5387684106826782,0.6869174242019653,-0.5137372612953186
1772698668155952600,2.41295263671875,-1.9107850790023804,0.8481857180595398,-0.7122683525085449
1772698668173299500,2.430299560546875,-1.0195332765579224,0.10109812021255493,-1.091004490852356
1772698668190646300,2.447646240234375,0.16859868168830872,-0.4224129915237427,-1.211344838142395
1772698668207992800,2.464992919921875,0.8057306408882141,-1.1609485149383545,-1.0115920305252075
1772698668225339600,2.482339599609375,0.8576541543006897,-1.6319252252578735,-0.6456840634346008
1772698668242686500,2.4996865234375,0.7153226733207703,-1.4578287601470947,-0.5314523577690125
1772698668260033300,2.517033203125,0.7800742983818054,-1.0699297189712524,-0.554665207862854
1772698668277380000,2.534380126953125,0.8820887207984924,-0.13591741025447845,-0.5039634704589844
1772698668294726700,2.5517265625,0.7825177907943726,0.04306596517562866,-0.5491674542427063
1772698668312073500,2.569073486328125,0.40317076444625854,0.08460476994514465,-0.5681042671203613
1772698668329420300,2.586420166015625,0.04581485688686371,0.3631591200828552,-0.5375609993934631
1772698668346767000,2.60376708984375,-0.043982263654470444,0.9404263496398926,-0.3292561173439026
1772698668364113700,2.62111376953125,-0.03176496922969818,1.112079381942749,-0.16676609218120575
1772698668381460500,2.63846044921875,-0.08063415437936783,0.9593631625175476,-0.16187916696071625
1772698668398807300,2.655807373046875,-0.14599667489528656,0.8463531732559204,-0.31642794609069824
1772698668416154000,2.673154052734375,-0.2260199636220932,1.079703450202942,-0.4838049113750458
1772698668433501000,2.6905009765625,-0.3170388340950012,1.219591498374939,-0.5803215503692627
1772698668450847500,2.707847412109375,-0.347582072019577,1.1328487396240234,-0.7024945020675659
1772698668468194300,2.7251943359375,-0.2828303873538971,0.962417483329773,-0.8429933786392212
1772698668485541000,2.742541015625,-0.1692095398902893,0.8860593438148499,-0.9474512934684753
1772698668502887700,2.7598876953125,0.006719512399286032,0.8530726432800293,-0.8564324378967285
1772698668520234500,2.777234375,0.22907429933547974,0.9282090067863464,-0.472198486328125
1772698668537581300,2.794581298828125,0.29626941680908203,1.082757830619812,0.1386663019657135
1772698668554928000,2.81192822265625,0.08002328872680664,1.1071923971176147,0.5790998339653015
1772698668572275000,2.82927490234375,-0.18325942754745483,0.9410371780395508,0.6896663308143616
1772698668589621500,2.84662158203125,-0.08613193035125732,0.6130027770996094,0.3249800503253937
1772698668606968300,2.86396826171875,0.31581708788871765,0.44990190863609314,-0.33719736337661743
1772698668624315100,2.881315185546875,0.7128791809082031,0.3863719701766968,-0.5821541547775269
1772698668641662000,2.898661865234375,0.6872228980064392,0.31184646487236023,-0.1637117564678192
1772698668659008500,2.916008544921875,0.09468404203653336,-0.23426663875579834,-0.007330377586185932
1772698668676355300,2.933355224609375,0,-0.25809037685394287,-0.25045454502105713
1772698668693702100,2.9507021484375,0.7977893948554993,-0.06872228533029556,-0.25045454502105713
1772698668711049000,2.968049072265625,1.5650355815887451,-0.14080433547496796,0.014049889519810677
1772698668728395500,2.9853955078125,1.9132285118103027,-0.6215549111366272,0.34086254239082336
1772698668745742300,3.002742431640625,2.065333843231201,-0.5775726437568665,0.7648026943206787
1772698668763089200,3.020089111328125,1.5699224472045898,-0.250149130821228,1.2082905769348145
1772698668780436000,3.03743603515625,0.6982184648513794,-0.2214384824037552,1.7006475925445557
1772698668797782500,3.054782470703125,0.03909534588456154,-0.7333431839942932,1.7299690246582031
1772698668815129300,3.07212939453125,-0.32620179653167725,-0.8659008145332336,1.2974767684936523
1772698668832476200,3.08947607421875,-0.4257727563381195,-0.7370083332061768,0.8668171167373657
1772698668849823000,3.106822998046875,-0.5528326034545898,-0.5879573225975037,0.896138608455658
1772698668867169800,3.124169677734375,-0.9718858599662781,-0.1444695144891739,1.1392627954483032
1772698668884516600,3.1415166015625,-1.3946043252944946,0.20189081132411957,1.073289394378662
1772698668901863200,3.15886328125,-1.5289945602416992,0.5109884142875671,0.7348703145980835
1772698668919210000,3.1762099609375,-1.3842196464538574,0.5348120927810669,0.3756818473339081
1772698668936556800,3.193556884765625,-1.0311397314071655,0.29901832342147827,0.20402882993221283
1772698668953903600,3.210903564453125,-0.7250964641571045,-0.22266021370887756,0.39767298102378845
1772698668971250200,3.228250244140625,-0.6017017960548401,-0.6911935210227966,0.7098248600959778
1772698668988597000,3.245596923828125,-0.4569268524646759,-0.8060360550880432,0.7959567904472351
1772698669005943800,3.26294384765625,-0.25900667905807495,-0.7663298845291138,0.6169734001159668
1772698669023290600,3.28029052734375,-0.13133592903614044,-0.5702422857284546,0.35246896743774414
1772698669040637400,3.297637451171875,-0.03298669680953026,-0.33200499415397644,0.12950333952903748
1772698669057984000,3.31498388671875,0.001221729558892548,-0.2367101013660431,0.020769402384757996
1772698669075330800,3.332330810546875,0.0873536616563797,-0.25931209325790405,0.056199558079242706
1772698669092677600,3.349677734375,0.17653992772102356,-0.30634868144989014,0.12705987691879272
1772698669110024400,3.3670244140625,0.16676609218120575,-0.36132651567459106,0.25900667905807495
1772698669127371000,3.38437109375,0.16615521907806396,-0.49571678042411804,0.3536907136440277
1772698669144717800,3.4017177734375,0.21991132199764252,-0.8005383014678955,0.2565632164478302
1772698669162064600,3.419064697265625,0.14721840620040894,-1.0296125411987305,0.03848448023200035
1772698669179411500,3.436411376953125,-0.05864302068948746,-0.8738420605659485,-0.06963858753442764
1772698669196758300,3.45375830078125,-0.30115634202957153,-0.6478220820426941,-0.06047561392188072
1772698669214104800,3.471104736328125,-0.28405213356018066,-0.47983428835868835,-0.24312418699264526
1772698669231451600,3.48845166015625,-0.056810423731803894,0.24892739951610565,-0.6731730103492737
1772698669248798500,3.505798583984375,-0.16859868168830872,1.6392556428909302,-0.8735366463661194
1772698669266145300,3.523145263671875,-0.5296197533607483,1.1725549697875977,-0.9022472500801086
1772698669283492000,3.5404921875,-1.2925899028778076,0.21410810947418213,-0.5351175665855408
1772698669300839000,3.5578388671875,-1.6969823837280273,-0.10354158282279968,-0.943786084651947
1772698669318185500,3.575185546875,-1.8173227310180664,0.5232056975364685,-0.8393282294273376
1772698669335532300,3.5925322265625,-1.1129956245422363,0.1597411334514618,-1.0128138065338135
1772698669352879000,3.609879150390625,0.0256563201546669,-0.33322674036026,-0.9908226728439331
1772698669370226000,3.627225830078125,0.6511818766593933,-0.7461713552474976,-0.5668824911117554
1772698669387572500,3.644572509765625,0.9364557266235352,-0.9874629378318787,-0.1386663019657135
1772698669404919300,3.661919189453125,1.0238093137741089,-0.7693842053413391,-0.23823726177215576
1772698669422266000,3.67926611328125,0.9089667797088623,-0.15485422313213348,-0.48991355299949646
1772698669439613000,3.696613037109375,0.5009090900421143,0.2507599890232086,-0.4373791813850403
1772698669456959700,3.713959716796875,0.13561198115348816,0.21899501979351044,-0.45875945687294006
1772698669474306300,3.731306396484375,-0.06719512492418289,0.2519817352294922,-0.5338957905769348
1772698669491653000,3.748653076171875,-0.012217295356094837,0.5714640021324158,-0.6988292932510376
1772698669509000000,3.766,0.17043127119541168,1.148120403289795,-0.5803215503692627
1772698669526346800,3.7833466796875,0.30115634202957153,1.4223986864089966,-0.3750709891319275
1772698669543693600,3.800693603515625,0.2779434621334076,1.4303399324417114,-0.4416552484035492
1772698669561040100,3.8180400390625,0.0409279391169548,1.3661991357803345,-0.7935133576393127
1772698669578387000,3.835386962890625,-0.164322629570961,1.5512911081314087,-0.832608699798584
1772698669595733800,3.852733642578125,-0.12217295914888382,1.6630793809890747,-0.6957749724388123
1772698669613080600,3.87008056640625,0.09957095980644226,1.7119485139846802,-0.6914989352226257
1772698669630427400,3.887427490234375,0.3335321843624115,1.8701624870300293,-0.5485565662384033
1772698669647774000,3.90477392578125,0.4728093445301056,1.878714680671692,-0.0665842592716217
1772698669665120800,3.922120849609375,0.48013970255851746,1.6972877979278564,0.3634645342826843
1772698669682467600,3.939467529296875,0.17837251722812653,1.3466514348983765,0.28588470816612244
1772698669699814400,3.956814453125,-0.5064069032669067,1.0961968898773193,0.06780599057674408
1772698669717161200,3.9741611328125,-1.0567960739135742,0.8323032855987549,0.11117739230394363
1772698669734507800,3.9915078125,-1.072678565979004,0.3393353819847107,-0.1899789422750473
1772698669751854600,4.0088544921875,-0.6719512343406677,-0.13041962683200836,-0.3915643095970154
1772698669769201400,4.026201416015625,-0.053756099194288254,0.16584978997707367,0.18203771114349365
1772698669786548200,4.04354833984375,0.43432486057281494,0.2910770773887634,0.0824667438864708
1772698669803895000,4.06089501953125,0.8686497211456299,-0.22693626582622528,-0.7360920310020447
1772698669821241600,4.07824169921875,1.2095122337341309,-0.3588830530643463,-0.8655954003334045
1772698669838588400,4.09558837890625,1.4715732336044312,-0.26908594369888306,-0.3854556679725647
1772698669855935200,4.112935302734375,1.4953969717025757,-0.5647444725036621,0.009773836471140385
1772698669873282000,4.130281982421875,1.2730422019958496,-0.8683443069458008,0.4679224193096161
1772698669890628600,4.147628662109375,1.2431098222732544,-1.3106104135513306,0.7226530313491821
1772698669907975400,4.164975341796875,1.6255111694335938,-1.434615969657898,1.0604612827301025
1772698669925322200,4.182322265625,1.8723005056381226,-1.1230748891830444,1.9077306985855103
1772698669942669000,4.1996689453125,1.2925899028778076,-0.897665798664093,2.671311616897583
1772698669960016000,4.217015869140625,0.5821541547775269,-1.0393863916397095,2.0689990520477295
1772698669977362700,4.23436279296875,0.08613193035125732,-1.2898409366607666,1.3225222826004028
1772698669994709200,4.251709228515625,-0.5192350745201111,-1.0296125411987305,0.8747583627700806
1772698670012056000,4.26905615234375,-1.094058871269226,-1.0595449209213257,0.6731730103492737
1772698670029403000,4.28640283203125,-1.3536763191223145,-0.43279770016670227,0.45448338985443115
1772698670046749700,4.303749755859375,-1.3652827739715576,0.6411026120185852,0.2626718580722809
1772698670064096500,4.321096435546875,-1.2577705383300781,0.7418952584266663,0.1948658674955368
1772698670081443300,4.338443359375,-0.8924734592437744,-0.013744457624852657,0.3744601011276245
1772698670098790000,4.355789794921875,-0.7788525819778442,-1.0589340925216675,0.6597339510917664
1772698670116136700,4.37313671875,-0.546113133430481,-1.8939862251281738,0.768467903137207
1772698670133483500,4.3904833984375,-0.04520399495959282,-2.0100505352020264,0.6713404059410095
1772698670150830300,4.407830322265625,0.14782927930355072,-1.3942989110946655,0.48441576957702637
1772698670168177200,4.42517724609375,-0.05436696484684944,-0.5794052481651306,0.17287473380565643
1772698670185523700,4.442523681640625,-0.30482152104377747,0.04917461425065994,-0.11545344442129135
1772698670202870500,4.45987060546875,-0.41844236850738525,0.3491092324256897,-0.2467893660068512
1772698670220217300,4.47721728515625,-0.18814635276794434,0.3344484567642212,-0.2614501118659973
1772698670237564200,4.494564208984375,0.07635809481143951,0.10720676928758621,-0.26389357447624207
1772698670254911000,4.511910888671875,0.3090975880622864,-0.15302163362503052,-0.268169641494751
1772698670272257800,4.5292578125,0.5412262082099915,-0.23243404924869537,-0.24373504519462585
1772698670289604400,4.546604248046875,0.6621774435043335,-0.31184646487236023,-0.19242240488529205
1772698670306951200,4.563951171875,0.5393936038017273,-0.37843072414398193,-0.02626718580722809
1772698670324298000,4.581298095703125,0.2663370370864868,-0.19639302790164948,0.3133736252784729
1772698670341644800,4.598644775390625,-0.1288924664258957,-0.035124726593494415,0.5968148708343506
1772698670358991600,4.61599169921875,-0.4581485986709595,-0.25442516803741455,0.42943793535232544
1772698670376338400,4.63333837890625,-0.5558869242668152,-0.2782489061355591,-0.12278381735086441
1772698670393685000,4.65068505859375,-0.1386663019657135,-0.16646064817905426,-0.916297197341919
1772698670411031800,4.66803173828125,-0.10323614627122879,0.7284562587738037,-1.398269534111023
1772698670428378600,4.685378662109375,-0.47097674012184143,1.0699297189712524,-0.8765909671783447
1772698670445725400,4.702725341796875,-0.94439697265625,0.9453132748603821,-0.9199623465538025
1772698670463072300,4.720072265625,-1.4471386671066284,0.5958985686302185,-0.8839213252067566
1772698670480418800,4.737418701171875,-1.6615521907806396,0.8127555847167969,-1.0928370952606201
1772698670497765600,4.754765625,-1.490510106086731,0.6899717450141907,-1.0867284536361694
1772698670515112400,4.772112548828125,-0.9505056142807007,0.15546508133411407,-1.3158026933670044
1772698670532459300,4.789459228515625,-0.15149445831775665,-0.6435460448265076,-1.1068869829177856
1772698670549806000,4.80680615234375,0.40317076444625854,-1.0198386907577515,-0.6224712133407593
1772698670567153000,4.82415283203125,0.43493571877479553,-0.7932079434394836,-0.44348782300949097
1772698670584499500,4.84149951171875,0.3909534513950348,-0.39248061180114746,-0.46364638209342957
1772698670601846300,4.85884619140625,0.40866854786872864,0.05955931544303894,-0.3231474757194519
1772698670619193000,4.876193115234375,0.4147771894931793,0.2556469142436981,-0.2419024556875229
1772698670636540000,4.893539794921875,0.3897317349910736,0.48594292998313904,-0.33169957995414734
1772698670653886700,4.91088671875,0.17043127119541168,0.5665770769119263,-0.3433060050010681
1772698670671233500,4.928233642578125,-0.002443459117785096,0.6801979541778564,-0.23029601573944092
1772698670688580400,4.945580322265625,0.04214967042207718,0.7357866168022156,-0.1282816082239151
1772698670705927000,4.962927001953125,0.22785256803035736,0.795040488243103,-0.2254091054201126
1772698670723273700,4.980273681640625,0.3836230933666229,1.0650427341461182,-0.34636032581329346
1772698670740620500,4.99762060546875,0.3836230933666229,1.191491723060608,-0.3659079968929291
1772698670757967400,5.01496728515625,0.23396120965480804,1.248913049697876,-0.3439168632030487
1772698670775314200,5.032314208984375,0.0616973415017128,1.2104285955429077,-0.4471530318260193
1772698670792661000,5.049660888671875,-0.014660755172371864,1.0198386907577515,-0.6371319890022278
1772698670810007600,5.067007568359375,0.008552107028663158,0.7980948090553284,-0.7452550530433655
1772698670827354400,5.084354248046875,0.07452550530433655,0.8206968307495117,-0.6633991599082947
1772698670844701200,5.101701171875,0.06108647957444191,1.1829396486282349,-0.2974911332130432
1772698670862048000,5.119048095703125,-0.15515965223312378,1.7119485139846802,0.2315177470445633
1772698670879394800,5.136394775390625,-0.3090975880622864,1.6771292686462402,0.6462949514389038
1772698670896741400,5.153741455078125,-0.031154103577136993,0.9251546859741211,0.7312051653862
1772698670914088200,5.171088134765625,0.2614501118659973,0.31123560667037964,0.37262752652168274
1772698670931435000,5.18843505859375,0.18264856934547424,0.012522728182375431,-0.21930044889450073
1772698670948781800,5.20578173828125,0.053756099194288254,-0.16646064817905426,-0.6084213256835938
1772698670966128600,5.223128662109375,-0.007330377586185932,-0.2000582218170166,-0.47464191913604736
1772698670983475500,5.240475341796875,-0.04214967042207718,-0.3442223072052002,-0.15699224174022675
1772698671000822000,5.257822021484375,0.23823726177215576,-0.5665770769119263,-0.47952884435653687
1772698671018168800,5.2751689453125,0.8527672290802002,-0.43829548358917236,-0.5015199780464172
1772698671035515600,5.292515625,1.145371437072754,-0.3552178740501404,0.000610864779446274
1772698671052862500,5.309862548828125,1.3090832233428955,-0.7296779751777649,0.2993237376213074
1772698671070209300,5.327209228515625,1.561981201171875,-1.0992511510849,0.6267472505569458
1772698671087556000,5.34455615234375,1.8808526992797852,-1.434615969657898,1.0592395067214966
1772698671104902700,5.361902587890625,1.8588615655899048,-1.758985161781311,1.4001020193099976
1772698671122249500,5.37924951171875,1.2681553363800049,-1.821904182434082,1.64566969871521
1772698671139596300,5.39659619140625,0.5778780579566956,-1.5140283107757568,1.6279546022415161
1772698671156943000,5.413943115234375,0.2877173125743866,-0.9532544612884521,1.3695588111877441
1772698671174290000,5.4312900390625,-0.05192350596189499,-0.6740893125534058,1.1685843467712402
1772698671191636700,5.44863671875,-0.5583304166793823,-0.602007269859314,0.9779945015907288
1772698671208983300,5.4659833984375,-0.9169080257415771,-0.5195404887199402,0.8277217745780945
1772698671226330000,5.483330078125,-1.0769546031951904,-0.20616686344146729,0.7134900689125061
1772698671243677000,5.500677001953125,-1.1117738485336304,-0.03145953640341759,0.6291907429695129
1772698671261023700,5.518023681640625,-1.0421353578567505,0.054672397673130035,0.6163625717163086
1772698671278370600,5.53537060546875,-0.8552106618881226,-0.01802051067352295,0.6798924803733826
1772698671295717400,5.55271728515625,-0.749531090259552,-0.4004218578338623,0.7165443897247314
1772698671313064200,5.570064208984375,-0.6175842881202698,-0.7388409376144409,0.6017017960548401
1772698671330410800,5.58741064453125,-0.44409868121147156,-0.7431169748306274,0.38179048895835876
1772698671347757600,5.604757568359375,-0.3072649836540222,-0.5836812853813171,0.2211330533027649
1772698671365104400,5.6221044921875,-0.18753549456596375,-0.3393353819847107,0.12583814561367035
1772698671382451200,5.639451171875,-0.06597339361906052,-0.2684750556945801,0.020158538594841957
1772698671399798000,5.656798095703125,0.06230820715427399,-0.3075704276561737,-0.0665842592716217
1772698671417144800,5.674144775390625,0.2205221801996231,-0.3582721948623657,-0.10323614627122879
1772698671434491600,5.69149169921875,0.36285367608070374,-0.39675667881965637,-0.10751219838857651
1772698671451838200,5.708838134765625,0.43921178579330444,-0.4315759539604187,-0.15699224174022675
1772698671469185000,5.72618505859375,0.39828383922576904,-0.3582721948623657,-0.2816086709499359
1772698671486531800,5.74353173828125,0.25350889563560486,-0.30634868144989014,-0.2522871494293213
1772698671503878700,5.760878662109375,0.0409279391169548,-0.19089524447917938,-0.09957095980644226
1772698671521225500,5.7782255859375,-0.17287473380565643,-0.15302163362503052,0.13439024984836578
1772698671538572300,5.795572265625,-0.4214966893196106,-0.016187917441129684,0.35185810923576355
1772698671555919000,5.812919189453125,-0.5296197533607483,-0.10048725455999374,0.3848448097705841
1772698671573265700,5.830265625,-0.42332929372787476,-0.34238970279693604,0.18081597983837128
1772698671590612500,5.847612548828125,-0.15027274191379547,-0.25503605604171753,-0.4324922561645508
1772698671607959300,5.864959228515625,0.21441353857517242,0.07360920310020447,-1.451414704322815
1772698671625306000,5.88230615234375,-0.1282816082239151,0.8451313972473145,-1.4001020193099976
1772698671642653000,5.89965283203125,-0.6120865345001221,1.1407899856567383,-1.0024291276931763
1772698671659999700,5.916999755859375,-1.173471212387085,0.5036579966545105,-0.7935133576393127
1772698671677346600,5.9343466796875,-1.416595458984375,-0.30146175622940063,-0.8521563410758972
1772698671694693000,5.951693115234375,-1.6615521907806396,0.35155269503593445,-1.2192860841751099
1772698671712040000,5.9690400390625,-1.4019346237182617,-0.038789913058280945,-1.3445134162902832
1772698671729386800,5.98638671875,-0.6737838387489319,-0.7076868414878845,-1.4422518014907837
1772698671746733600,6.003733642578125,0.35124725103378296,-1.3826924562454224,-1.05496346950531
1772698671764080400,6.021080322265625,0.84177166223526,-1.4230095148086548,-0.39767298102378845
1772698671781427200,6.03842724609375,0.7672461867332458,-1.0131192207336426,-0.2663370370864868
1772698671798774000,6.05577392578125,0.7293725609779358,-0.5256491303443909,-0.5137372612953186
1772698671816120800,6.073120849609375,0.5076286196708679,-0.189673513174057,-0.5748237371444702
1772698671833467400,6.09046728515625,0.27977606654167175,0.11514800786972046,-0.646905779838562
1772698671850814200,6.107814208984375,0.034208428114652634,0.4211912751197815,-0.850934624671936
1772698671868161000,6.1251611328125,-0.15699224174022675,0.8616247773170471,-0.833219587802887
1772698671885507800,6.1425078125,-0.034208428114652634,1.2764019966125488,-0.49968740344047546
1772698671902854700,6.159854736328125,0.18142683804035187,1.2910627126693726,-0.1288924664258957
1772698671920201500,6.177201416015625,0.3035998046398163,0.9954041838645935,-0.006108647678047419
1772698671937548000,6.194548095703125,0.21685700118541718,0.8848376274108887,-0.14538581669330597
1772698671954895000,6.21189501953125,-0.16004657745361328,0.8848376274108887,-0.24923282861709595
1772698671972241700,6.22924169921875,-0.4361574649810791,0.9221003651618958,-0.13622283935546875
1772698671989588500,6.24658837890625,-0.360410213470459,0.7797688841819763,-0.11728604137897491
1772698672006935300,6.263935302734375,0.029932374134659767,0.6832522749900818,-0.3494146466255188
1772698672024282000,6.2812822265625,0.48075059056282043,0.5360338687896729,-0.5674933791160583
1772698672041629000,6.29862890625,0.6194168925285339,0.291687935590744,-0.6096430420875549
1772698672058975500,6.3159755859375,0.4874700903892517,0.3295615613460541,-0.4453204274177551
1772698672076322300,6.333322265625,0.2101374864578247,0.815199077129364,-0.08552107214927673
1772698672093669000,6.350669189453125,-0.009162971749901772,1.368031620979309,0.4159989058971405
1772698672111016000,6.368015869140625,0.1282816082239151,1.1804962158203125,0.6432406306266785
1772698672128362800,6.38536279296875,0.3390299379825592,0.8579595685005188,0.2724456787109375
1772698672145709600,6.40270947265625,0.28038692474365234,0.6062833070755005,-0.23335035145282745
1772698672163056400,6.420056396484375,0.09896009415388107,0.28435754776000977,-0.5088503360748291
1772698672180403000,6.43740283203125,-0.07819069176912308,-0.047952886670827866,-0.41783151030540466
1772698672197749800,6.454749755859375,-0.18142683804035187,-0.2519817352294922,-0.2864955961704254
1772698672215096600,6.4720966796875,0.1380554437637329,-0.3246746361255646,-0.3530798554420471
1772698672232443400,6.489443359375,0.9187406301498413,-0.15241076052188873,-0.011606430634856224
1772698672249790200,6.506790283203125,1.5198315382003784,-0.3601047992706299,0.38301220536231995
1772698672267137000,6.524136962890625,1.6145156621932983,-0.6966912746429443,0.4978547990322113
1772698672284483800,6.54148388671875,1.552207350730896,-1.1194096803665161,0.5790998339653015
1772698672301830400,6.558830322265625,1.470962405204773,-0.9312633275985718,0.8185588121414185
1772698672319177200,6.57617724609375,1.1184934377670288,-0.7082977294921875,1.3829978704452515
1772698672336524000,6.59352392578125,0.6395754218101501,-0.47372564673423767,1.796553373336792
1772698672353870800,6.610870849609375,0.20158538222312927,-0.36682429909706116,1.6377284526824951
1772698672371217700,6.6282177734375,0.14599667489528656,-0.40775224566459656,1.1233803033828735
1772698672388564500,6.645564453125,0.10201441496610641,-0.5360338687896729,0.8307760953903198
1772698672405911300,6.662911376953125,-0.23396120965480804,-0.6905826330184937,0.9621120095252991
1772698672423258000,6.680258056640625,-0.42821621894836426,-0.44990190863609314,1.2229512929916382
1772698672440605000,6.69760498046875,-0.6304124593734741,0.0925460159778595,1.1209368705749512
1772698672457951500,6.714951416015625,-0.9572250843048096,0.4010327160358429,0.7861829996109009
1772698672475298300,6.73229833984375,-0.9382883310317993,0.32589635252952576,0.4874700903892517
1772698672492645000,6.74964501953125,-0.7727439403533936,-0.0565049909055233,0.4318813979625702
1772698672509992000,6.766991943359375,-0.6151408553123474,-0.5342012643814087,0.5387827157974243
1772698672527338800,6.7843388671875,-0.555276095867157,-0.7260127663612366,0.6334667801856995
1772698672544685600,6.801685546875,-0.4740310609340668,-0.619722306728363,0.5320632457733154
1772698672562032400,6.819032470703125,-0.37140578031539917,-0.4572322964668274,0.3964512348175049
1772698672579379200,6.836379150390625,-0.29077163338661194,-0.364991694688797,0.34086254239082336
1772698672596725800,6.853725830078125,-0.15699224174022675,-0.34605491161346436,0.2718348205089569
1772698672614072600,6.871072509765625,0.014660755172371864,-0.3594939112663269,0.15149445831775665
1772698672631419400,6.88841943359375,0.19242240488529205,-0.3546070158481598,0.010384701192378998
1772698672648766200,6.90576611328125,0.32192572951316833,-0.2874118685722351,-0.13744457066059113
1772698672666113000,6.923113037109375,0.3744601011276245,-0.2263254076242447,-0.2528980076313019
1772698672683459800,6.9404599609375,0.30482152104377747,-0.05955931544303894,-0.3243691921234131
1772698672700806700,6.957806640625,0.15210533142089844,0.04917461425065994,-0.29138249158859253
1772698672718153500,6.975153564453125,0.0256563201546669,0.032070402055978775,-0.09834922850131989
1772698672735500300,6.992500244140625,0.04459312930703163,0.0015271619195118546,0.04459312930703163
1772698672752846800,7.009846923828125,0.07391463965177536,0.09132428467273712,0.16554436087608337
1772698672770193700,7.027193603515625,0.12583814561367035,0.11514800786972046,0.277332603931427
1772698672787540500,7.04454052734375,0.1496618688106537,-0.2776380479335785,0.2107483446598053
1772698672804887300,7.06188720703125,0.21380266547203064,-0.6569850444793701,-0.23945899307727814
1772698672822234000,7.079234130859375,0.15271618962287903,-0.26419901847839355,-1.065959095954895
1772698672839581000,7.096580810546875,-0.554665207862854,0.45539969205856323,-1.0470222234725952
1772698672856927700,7.113927734375,-1.1001675128936768,0.9874629378318787,-0.7996219992637634
1772698672874274600,7.131274658203125,-1.388495683670044,-0.022296564653515816,-0.5210676789283752
1772698672891621400,7.148621337890625,-1.5406010150909424,-0.015577051788568497,-0.7159335017204285
1772698672908968000,7.165968017578125,-1.5424336194992065,0.1597411334514618,-0.8008437156677246
1772698672926314800,7.183314697265625,-1.0152572393417358,-0.1334739476442337,-0.8081740736961365
1772698672943661600,7.20066162109375,0.03787361457943916,-0.6466003656387329,-0.750141978263855
1772698672961008400,7.21800830078125,0.6236929297447205,-1.2049307823181152,-0.4923570156097412
1772698672978355200,7.235355224609375,0.8161153197288513,-1.1951569318771362,-0.21868959069252014
1772698672995702000,7.252701904296875,0.62857985496521,-0.9129374027252197,-0.27977606654167175
1772698673013048800,7.270048828125,0.28954991698265076,-0.5384773015975952,-0.39278605580329895
1772698673030395600,7.287395751953125,0.22479823231697083,-0.005192350596189499,-0.36774060130119324
1772698673047742500,7.304742431640625,0.15149445831775665,0.04734202101826668,-0.34574946761131287
1772698673065089300,7.32208935546875,-0.0665842592716217,0.22693626582622528,-0.37201663851737976
1772698673082436000,7.33943603515625,-0.04581485688686371,0.5702422857284546,-0.3500255048274994
1772698673099783000,7.356782958984375,0.08918625861406326,0.7486147880554199,-0.3017672002315521
1772698673117129500,7.37412939453125,0.16737695038318634,0.7376192212104797,-0.22724169492721558
1772698673134476300,7.391476318359375,0.19364413619041443,0.7296779751777649,-0.13255766034126282
1772698673151823000,7.408822998046875,0.2107483446598053,0.8420770764350891,-0.2461785078048706
1772698673169170000,7.426169921875,0.15515965223312378,1.0338886976242065,-0.4990765154361725
1772698673186516700,7.443516845703125,0.03909534588456154,1.1230748891830444,-0.6713404059410095
1772698673203863600,7.460863525390625,0.025045456364750862,1.0277799367904663,-0.7690787315368652
1772698673221210400,7.47821044921875,0.12278381735086441,0.8384119272232056,-0.831997811794281
1772698673238557200,7.49555712890625,0.2412915825843811,0.7993165850639343,-0.8643736839294434
1772698673255904000,7.512904052734375,0.36285367608070374,0.9685261249542236,-0.8155044913291931
1772698673273250600,7.53025048828125,0.43860089778900146,1.2250893115997314,-0.6316341757774353
1772698673290597400,7.547597412109375,0.38301220536231995,1.5347977876663208,-0.40744680166244507
1772698673307944200,7.564944091796875,0.1997527778148651,1.6423099040985107,-0.3744601011276245
1772698673325291000,7.582291015625,-0.034208428114652634,1.3484840393066406,-0.48441576957702637
1772698673342637800,7.599637939453125,-0.35063639283180237,1.1346813440322876,-0.28466299176216125
1772698673359984600,7.616984619140625,-0.6902772188186646,0.8536835312843323,0.07391463965177536
1772698673377331500,7.63433154296875,-0.675616443157196,0.3949240744113922,0.0873536616563797
1772698673394678300,7.65167822265625,-0.4276053309440613,0.18723005056381226,0.05070177838206291
1772698673412025000,7.669025146484375,-0.16004657745361328,-0.016187917441129684,0.029932374134659767
1772698673429371600,7.68637158203125,0.10201441496610641,-0.2886336147785187,-0.27488914132118225
1772698673446718500,7.703718505859375,0.5760455131530762,-0.3448331654071808,-0.26878049969673157
1772698673464065300,7.721065185546875,1.0012073516845703,-0.05955931544303894,0.1997527778148651
1772698673481412000,7.738412109375,1.109330415725708,-0.25381430983543396,0.5253437161445618
1772698673498759000,7.755759033203125,1.0610721111297607,-0.5024362802505493,0.9010255336761475
1772698673516105700,7.773105712890625,1.0836740732192993,-0.962417483329773,1.2974767684936523
1772698673533452500,7.79045263671875,1.416595458984375,-1.303279995918274,1.6401718854904175
1772698673550799400,7.80779931640625,1.5063925981521606,-1.1756092309951782,1.935219645500183
1772698673568146200,7.825146240234375,0.9950987100601196,-0.7553343176841736,2.0445644855499268
1772698673585492700,7.84249267578125,0.6310232877731323,-0.5342012643814087,1.7806708812713623
1772698673602839600,7.859839599609375,0.35185810923576355,-0.5751292109489441,1.4856231212615967
1772698673620186400,7.877186279296875,-0.25534147024154663,-1.005788803100586,1.2162318229675293
1772698673637533200,7.894533203125,-0.8295543789863586,-1.0509928464889526,0.943786084651947
1772698673654880000,7.9118798828125,-1.1325433254241943,-0.31062474846839905,0.5613847374916077
1772698673672226800,7.929226806640625,-1.137430191040039,0.23548837006092072,0.23212862014770508
1772698673689573600,7.94657373046875,-0.9517273306846619,0.31184646487236023,0.14049890637397766
1772698673706920400,7.96392041015625,-0.6969966888427734,0.008857538923621178,0.4001164436340332
1772698673724267300,7.981267333984375,-0.6163625717163086,-0.6068941354751587,0.8026763200759888
1772698673741614000,7.998614013671875,-0.5797106623649597,-1.2605195045471191,0.8374956250190735
1772698673758961000,8.0159609375,-0.3958403766155243,-1.4963133335113525,0.4361574649810791
1772698673776307700,8.0333076171875,-0.10018182545900345,-1.434615969657898,0.09651663154363632
1772698673793654500,8.050654541015625,0.033597562462091446,-1.092531681060791,0.05742128938436508
1772698673811001000,8.0680009765625,0.11606431007385254,-0.6331613659858704,0.04764745384454727
1772698673828348000,8.085347900390625,0.21807873249053955,-0.3686569035053253,-0.01893680728971958
1772698673845694700,8.10269482421875,0.3652971386909485,-0.2507599890232086,-0.10018182545900345
1772698673863041500,8.12004150390625,0.5051851868629456,-0.21716243028640747,-0.1539379209280014
1772698673880388400,8.137388427734376,0.5626064538955688,-0.30024003982543945,-0.20952661335468292
1772698673897735200,8.154735107421875,0.5192350745201111,-0.40408703684806824,-0.3127627670764923
1772698673915082000,8.17208203125,0.3347539007663727,-0.38759371638298035,-0.4251618981361389
1772698673932428800,8.1894287109375,0.0256563201546669,-0.3546070158481598,-0.32070401310920715
1772698673949775600,8.206775634765625,-0.16187916696071625,-0.3656025826931,-0.05253437161445618
1772698673967122400,8.224122314453124,-0.1331685185432434,-0.3246746361255646,0.31642794609069824
1772698673984469200,8.24146923828125,0.03481929376721382,-0.26908594369888306,0.5772672295570374
1772698674001815800,8.25881591796875,0.17531819641590118,-0.6673697829246521,0.47464191913604736
1772698674019162600,8.27616259765625,0.24923282861709595,-1.0161736011505127,-0.09407317638397217
1772698674036509400,8.293509521484374,0.21319180727005005,-0.36743515729904175,-0.685390293598175
1772698674053856300,8.310856201171875,-0.3995055556297302,0.7797688841819763,-0.36224281787872314
1772698674071203000,8.328203125,-1.007315993309021,0.8811724185943604,-0.5894845128059387
1772698674088550000,8.3455498046875,-1.415373682975769,-0.5641336441040039,-0.6878337264060974
1772698674105896700,8.362896728515626,-1.426369309425354,-0.767551600933075,-0.7238747477531433
1772698674123243500,8.380243408203125,-1.406821608543396,-0.14996729791164398,-0.8265000581741333
1772698674140590300,8.39759033203125,-1.0592395067214966,-0.3686569035053253,-1.0787872076034546
1772698674157937200,8.414937255859375,-0.3249800503253937,-0.9104939699172974,-1.266933560371399
1772698674175284000,8.432283935546875,0.10323614627122879,-1.2678498029708862,-0.860708475112915
1772698674192630800,8.449630859375,0.33231043815612793,-1.3503166437149048,-0.2516762912273407
1772698674209977600,8.4669775390625,0.39767298102378845,-1.230587124824524,-0.08979712426662445
1772698674227324400,8.484324462890624,0.546113133430481,-0.5519163012504578,-0.26878049969673157
1772698674244671200,8.501671142578125,0.37323838472366333,0.13225223124027252,-0.3897317349910736
1772698674262018000,8.51901806640625,0.10873392969369888,0.6508764028549194,-0.45020735263824463
1772698674279364600,8.536364501953125,0.03909534588456154,1.1041381359100342,-0.5900954008102417
1772698674296711400,8.55371142578125,0.14049890637397766,1.3643665313720703,-0.6456840634346008
1772698674314058200,8.571058349609375,0.30543237924575806,1.4621047973632812,-0.5571087002754211
1772698674331405000,8.588405029296876,0.4508182108402252,1.499367594718933,-0.4111120104789734
1772698674348752000,8.605751953125,0.4508182108402252,1.6019928455352783,-0.33169957995414734
1772698674366098700,8.6230986328125,0.28405213356018066,1.755930781364441,-0.4318813979625702
1772698674383445500,8.640445556640625,0.03848448023200035,1.906814455986023,-0.5619956254959106
1772698674400792300,8.657792236328126,-0.1496618688106537,1.9214751720428467,-0.6328558921813965
1772698674418139100,8.67513916015625,-0.10445787757635117,1.7449352741241455,-0.6805033683776855
1772698674435486000,8.69248583984375,0.1588248461484909,1.6050472259521484,-0.6713404059410095
1772698674452832800,8.709832763671875,0.43432486057281494,1.5079196691513062,-0.5760455131530762
1772698674470179600,8.7271796875,0.5607738494873047,1.590997338294983,-0.379347026348114
1772698674487526400,8.7445263671875,0.4880809485912323,1.746156930923462,-0.16310089826583862
1772698674504873000,8.761873046875,0.2828303873538971,1.7528765201568604,-0.05497783049941063
1772698674522219800,8.7792197265625,0.04276053607463837,1.4840959310531616,-0.10690133273601532
1772698674539566600,8.796566650390625,-0.16737695038318634,1.1450660228729248,-0.19364413619041443
1772698674556913400,8.813913330078124,-0.37751442193984985,0.9019418358802795,-0.22846342623233795
1772698674574260200,8.83126025390625,-0.48013970255851746,0.5482511520385742,-0.28038692474365234
1772698674591607000,8.84860693359375,-0.360410213470459,0.17134757339954376,-0.1905898153781891
1772698674608953900,8.865953857421875,-0.031154103577136993,0.1847866028547287,-0.10751219838857651
1772698674626300700,8.88330078125,0.31642794609069824,0.40775224566459656,-0.41844236850738525
1772698674643647500,8.9006474609375,0.5717694163322449,0.3246746361255646,-0.5711585879325867
1772698674660994300,8.917994384765626,0.7171552777290344,0.22693626582622528,-0.18203771114349365
1772698674678341000,8.935341064453125,0.8148936033248901,0.09926552325487137,0.19181154668331146
1772698674695688000,8.95268798828125,1.1001675128936768,-0.1444695144891739,0.5491674542427063
1772698674713034500,8.970034423828125,1.426369309425354,-0.16279546916484833,1.0012073516845703
1772698674730381300,8.98738134765625,1.6242893934249878,-0.2617555558681488,1.2877029180526733
1772698674747728400,9.004728271484375,1.5687007904052734,-0.6466003656387329,1.3695588111877441
1772698674765075000,9.022074951171875,1.2241730690002441,-0.7663298845291138,1.5870267152786255
1772698674782421800,9.039421875,0.6530144214630127,-0.8555161356925964,1.8521419763565063
1772698674799768600,9.0567685546875,0.3225366175174713,-0.7278453707695007,1.6328415870666504
1772698674817115400,9.074115478515624,0.11667517572641373,-0.9269872903823853,1.2901464700698853
1772698674834462200,9.091462158203125,-0.2761108875274658,-1.3814706802368164,1.053741693496704
1772698674851809000,9.10880908203125,-0.7428115606307983,-0.9636391997337341,0.8790343999862671
1772698674869155800,9.12615576171875,-1.0934479236602783,-0.10842850059270859,0.526565432548523
1772698674886502700,9.143502685546874,-1.1410953998565674,0.21655155718326569,0.21197007596492767
1772698674903849500,9.160849365234375,-1.007315993309021,0.0717766135931015,0.18203771114349365
1772698674921196300,9.1781962890625,-0.7709113359451294,-0.39675667881965637,0.4373791813850403
1772698674938543000,9.195543212890625,-0.6701186895370483,-1.1377356052398682,0.695164144039154
1772698674955890000,9.212889892578126,-0.627968966960907,-1.6673554182052612,0.6047561168670654
1772698674973236700,9.23023681640625,-0.4153880476951599,-1.712559461593628,0.30604326725006104
1772698674990583600,9.24758349609375,-0.24740023910999298,-1.5121957063674927,0.1905898153781891
1772698675007930400,9.264930419921875,-0.21380266547203064,-1.117577075958252,0.18387030065059662
1772698675025277200,9.282277099609376,-0.17287473380565643,-0.6557633280754089,0.06902772188186646
1772698675042624000,9.2996240234375,-0.05925388261675835,-0.4828886091709137,-0.06780599057674408
1772698675059970800,9.316970703125,0.1484401375055313,-0.40714138746261597,-0.1594357043504715
1772698675077317600,9.334317626953125,0.34208428859710693,-0.41263917088508606,-0.20891575515270233
1772698675094664200,9.351664306640625,0.44898560643196106,-0.44501498341560364,-0.27488914132118225
1772698675112011000,9.369010986328124,0.4410443603992462,-0.3124573230743408,-0.40927940607070923
1772698675129357800,9.38635791015625,0.2522871494293213,-0.025350889191031456,-0.5222893953323364
1772698675146704600,9.40370458984375,-0.02932151034474373,0.10354158282279968,-0.3689623177051544
1772698675164051500,9.421051513671875,-0.2919933497905731,0.0821613147854805,-0.04825831577181816
1772698675181398300,9.438398193359374,-0.2510654330253601,0.015577051788568497,0.164322629570961
1772698675198745000,9.4557451171875,-0.024434590712189674,0.0021380267571657896,0.21868959069252014
1772698675216092000,9.473091796875,0.20280711352825165,-0.18784092366695404,0.13500112295150757
1772698675233438700,9.490438720703125,0.30115634202957153,-0.7302888631820679,-0.1954767256975174
1772698675250785500,9.50778564453125,-0.056810423731803894,-0.1493564397096634,-0.8759800791740417
1772698675268132400,9.52513232421875,-0.6579013466835022,0.5122101306915283,-0.6243038177490234
1772698675285479200,9.542479248046876,-1.0720677375793457,0.757777750492096,-0.45509424805641174
1772698675302826000,9.559825927734375,-1.275485634803772,-0.2922987937927246,-0.6004800796508789
1772698675320172800,9.5771728515625,-1.5106686353683472,-0.8872811198234558,-0.7458658814430237
1772698675337519600,9.59451953125,-1.4074324369430542,-0.3686569035053253,-0.9657772183418274
1772698675354866400,9.611866455078125,-0.8081740736961365,-0.8683443069458008,-1.0983349084854126
1772698675372213200,9.629213134765624,0.12461641430854797,-1.339931845664978,-1.0390809774398804
1772698675389560000,9.64656005859375,0.5968148708343506,-1.2996147871017456,-0.6597339510917664
1772698675406907000,9.663906982421874,0.6750055551528931,-0.9269872903823853,-0.4789179861545563
1772698675424253700,9.681253662109375,0.5699368119239807,-0.37293294072151184,-0.5296197533607483
1772698675441600500,9.6986005859375,0.4831940531730652,0.1798996776342392,-0.42332929372787476
1772698675458947300,9.715947265625,0.4776962697505951,0.47983428835868835,-0.3225366175174713
1772698675476294100,9.733294189453124,0.3329212963581085,0.7987056970596313,-0.3610210716724396
1772698675493641000,9.750640869140625,0.3127627670764923,1.074205756187439,-0.42332929372787476
1772698675510987800,9.76798779296875,0.3610210716724396,1.2250893115997314,-0.33169957995414734
1772698675528334300,9.785334228515625,0.39217519760131836,1.079703450202942,-0.12583814561367035
1772698675545681400,9.802681396484376,0.43310311436653137,0.9471458196640015,-0.0030543238390237093
1772698675563028000,9.820028076171875,0.4153880476951599,1.1279618740081787,-0.07635809481143951
1772698675580374800,9.837374755859376,0.31642794609069824,1.3338232040405273,-0.2938259541988373
1772698675597721600,9.8547216796875,0.1288924664258957,1.3649773597717285,-0.43371400237083435
1772698675615068400,9.872068359375,-0.05192350596189499,1.1591159105300903,-0.5021308660507202
1772698675632415200,9.889415283203125,-0.08429934084415436,0.869566023349762,-0.593149721622467
1772698675649762000,9.906761962890625,0.004276053514331579,0.7486147880554199,-0.6151408553123474
1772698675667108900,9.92410888671875,0.09101885557174683,0.9685261249542236,-0.4667007029056549
1772698675684455700,9.94145556640625,0.053145237267017365,1.5586215257644653,-0.12278381735086441
1772698675701802500,9.958802490234374,-0.0616973415017128,1.7876957654953003,0.2889390289783478
1772698675719149300,9.9761494140625,0.10567960888147354,0.9837977290153503,0.42394015192985535
1772698675736496000,9.99349609375,0.46608981490135193,0.34238970279693604,-0.011606430634856224
1772698675753843000,10.010843017578125,0.3384190797805786,0.4981602132320404,-0.4276053309440613
1772698675771189800,10.028189697265624,0.1081230640411377,0.2984074354171753,-0.6071996092796326
1772698675788536600,10.04553662109375,-0.10018182545900345,0.29535311460494995,-0.34086254239082336
1772698675805883400,10.06288330078125,-0.28588470816612244,0.13958260416984558,0.1337793916463852
1772698675823230200,10.080230224609375,-0.15088360011577606,-0.003970621153712273,-0.009773836471140385
1772698675840577000,10.097576904296876,0.2883281707763672,-0.07116574794054031,-0.583375871181488
1772698675857923800,10.114923828125,0.9211840629577637,0.07360920310020447,-0.5112938284873962
1772698675875270700,10.132270751953126,1.3811652660369873,0.25381430983543396,0.037262752652168274
1772698675892617500,10.149617431640625,1.453247308731079,0.3283398151397705,0.5558869242668152
1772698675909964300,10.16696435546875,1.1789690256118774,0.11453714966773987,0.943786084651947
1772698675927310800,10.184310791015625,1.0671807527542114,-0.47555822134017944,1.2064579725265503
1772698675944658000,10.201657958984375,1.4074324369430542,-0.9789108037948608,1.4819579124450684
1772698675962004700,10.219004638671874,1.452636480331421,-0.9605848789215088,1.8637484312057495
1772698675979351300,10.236351318359375,0.8924734592437744,-0.7168498039245605,1.832594394683838
1772698675996698000,10.253697998046874,0.34086254239082336,-1.0668753385543823,1.5363249778747559
1772698676014045000,10.271044921875,-0.33597561717033386,-1.387579321861267,1.2791508436203003
1772698676031391700,10.288391845703124,-1.0305289030075073,-1.0735948085784912,1.0977239608764648
1772698676048738600,10.305738525390625,-1.2822052240371704,-0.17195843160152435,0.8271108865737915
1772698676066085400,10.32308544921875,-1.2327251434326172,0.78648841381073,0.5412262082099915
1772698676083432200,10.34043212890625,-0.9993748068809509,0.878118097782135,0.4221075773239136
1772698676100779000,10.357779052734376,-0.6554579138755798,0.14569124579429626,0.4789179861545563
1772698676118125800,10.375125732421875,-0.5962040424346924,-0.8213077187538147,0.7293725609779358
1772698676135472600,10.39247265625,-0.6786707639694214,-1.5476258993148804,0.8167262077331543
1772698676152819500,10.4098193359375,-0.45326167345046997,-1.6019928455352783,0.5900954008102417
1772698676170166300,10.427166259765626,-0.0922405794262886,-1.286786675453186,0.4312705397605896
1772698676187513000,10.44451318359375,0.036651886999607086,-0.8359684348106384,0.4581485986709595
1772698676204860000,10.46185986328125,-0.037262752652168274,-0.3698786199092865,0.3543015718460083
1772698676222206700,10.479206787109375,-0.09896009415388107,-0.22815799713134766,0.04459312930703163
1772698676239553500,10.496553466796875,-0.15271618962287903,-0.2049451321363449,-0.30970844626426697
1772698676256900400,10.513900390625,-0.10323614627122879,-0.19211697578430176,-0.4685332775115967
1772698676274247200,10.5312470703125,0.009162971749901772,-0.1230892539024353,-0.4465421438217163
1772698676291594000,10.548593994140624,0.1185077652335167,-0.01435532234609127,-0.40744680166244507
1772698676308940800,10.56594091796875,0.16859868168830872,0.17562362551689148,-0.46914416551589966
1772698676326287600,10.58328759765625,0.1545487940311432,0.3503309488296509,-0.5326740741729736
1772698676343634400,10.600634521484375,0.1288924664258957,0.22937972843647003,-0.38301220536231995
1772698676360981200,10.617981201171874,0.017104214057326317,0.048563748598098755,-0.1893680840730667
1772698676378328000,10.635328125,-0.1337793916463852,0.07971785217523575,0.029932374134659767
1772698676395675000,10.6526748046875,-0.007941242307424545,0.22754712402820587,0.11178825795650482
1772698676413021700,10.670021728515625,0.14110976457595825,0.00946840364485979,-0.007330377586185932
1772698676430368500,10.687368408203126,0.20830489695072174,-0.34238970279693604,-0.32009315490722656
1772698676447715300,10.70471533203125,-0.07635809481143951,0.10659590363502502,-0.7257073521614075
1772698676465062100,10.722062255859376,-0.5516108870506287,0.36621344089508057,-0.6395754218101501
1772698676482409000,10.739408935546875,-1.0286962985992432,0.6215549111366272,-0.5583304166793823
1772698676499755800,10.756755859375,-1.174692988395691,-0.3796524703502655,-0.5919279456138611
1772698676517102600,10.7741025390625,-1.5039490461349487,-0.5702422857284546,-0.8448259830474854
1772698676534449400,10.791449462890625,-1.4636319875717163,-0.5287034511566162,-0.9480621218681335
1772698676551796200,10.808796142578124,-1.05496346950531,-0.962417483329773,-1.130099892616272
1772698676569143000,10.82614306640625,-0.11362084746360779,-1.4749330282211304,-1.1221586465835571
1772698676586489900,10.84348974609375,0.5338957905769348,-1.546404242515564,-0.7336485981941223
1772698676603836700,10.860836669921875,0.6169734001159668,-1.1774418354034424,-0.3585776388645172
1772698676621183500,10.87818359375,0.6224712133407593,-0.476779967546463,-0.3549124300479889
1772698676638530300,10.8955302734375,0.44959646463394165,0.015577051788568497,-0.4111120104789734
1772698676655877000,10.912877197265624,0.14782927930355072,0.39858928322792053,-0.4935787320137024
1772698676673224000,10.930223876953125,-0.006719512399286032,0.7699950337409973,-0.6218603253364563
1772698676690570800,10.94757080078125,-0.08491020649671555,1.0503820180892944,-0.6346884965896606
1772698676707917600,10.96491748046875,0.07330377399921417,1.2287545204162598,-0.544891357421875
1772698676725264400,10.982264404296876,0.235793799161911,1.1212422847747803,-0.40378162264823914
1772698676742611200,10.999611083984375,0.3280344009399414,0.9306524991989136,-0.2528980076313019
1772698676759958000,11.0169580078125,0.337808221578598,0.8854485154151917,-0.18264856934547424
1772698676777304800,11.034304931640625,0.2706131041049957,0.9550870656967163,-0.27427828311920166
1772698676794651600,11.051651611328126,0.15699224174022675,1.1133010387420654,-0.4068359434604645
1772698676811998500,11.06899853515625,0.09712749719619751,1.1866048574447632,-0.43432486057281494
1772698676829345300,11.08634521484375,0.17165300250053406,0.9111047983169556,-0.4581485986709595
1772698676846692000,11.103692138671875,0.2974911332130432,0.5219839811325073,-0.5473348498344421
1772698676864039000,11.121038818359375,0.2889390289783478,0.2880227565765381,-0.6096430420875549
1772698676881385700,11.1383857421875,0.08552107214927673,0.3185659945011139,-0.5198459029197693
1772698676898732500,11.155732666015625,-0.20402882993221283,0.6478220820426941,-0.1893680840730667
1772698676916079400,11.173079345703124,-0.4098902642726898,1.0687079429626465,0.31459537148475647
1772698676933426200,11.19042626953125,-0.2974911332130432,1.14017915725708,0.6872228980064392
1772698676950773000,11.20777294921875,0.16676609218120575,0.7455604672431946,0.544891357421875
1772698676968119800,11.225119873046875,0.5681042671203613,0.41813695430755615,0.09529490768909454
1772698676985466600,11.242466552734374,0.44470956921577454,0.16340632736682892,-0.24495677649974823
1772698677002813400,11.2598134765625,0.12400554865598679,-0.09315688163042068,-0.31459537148475647
1772698677020160300,11.27716015625,-0.06291907280683517,0.003970621153712273,-0.1905898153781891
1772698677037507000,11.294507080078125,0.07147117704153061,0.2837466895580292,-0.15210533142089844
1772698677054854000,11.31185400390625,0.46486809849739075,0.34177884459495544,-0.10506874322891235
1772698677072200700,11.32920068359375,0.8081740736961365,0.3387245237827301,-0.028099779039621353
1772698677089547500,11.346547607421876,0.9932661056518555,0.2202167510986328,0.02626718580722809
1772698677106894300,11.363894287109375,1.1527018547058105,-0.07055488228797913,0.22968515753746033
1772698677124241200,11.3812412109375,1.2944225072860718,-0.22937972843647003,0.544891357421875
1772698677141588000,11.398587890625,1.4617993831634521,-0.3136790692806244,0.7391464114189148
1772698677158934800,11.415934814453125,1.6316198110580444,-0.3949240744113922,0.8772017955780029
1772698677176281600,11.433281494140624,1.5118902921676636,-0.6973021626472473,1.2498292922973633
1772698677193628400,11.45062841796875,0.9786053895950317,-1.053436279296875,1.6285655498504639
1772698677210975200,11.467975341796874,0.3451386094093323,-1.3729186058044434,1.5289945602416992
1772698677228322000,11.485322021484375,0.06780599057674408,-1.4737112522125244,1.2076796293258667
1772698677245668900,11.5026689453125,-0.17348559200763702,-1.4462224245071411,1.0641264915466309
1772698677263015700,11.520015625,-0.5418370366096497,-1.416290044784546,0.9920443892478943
1772698677280362500,11.537362548828124,-0.880256175994873,-0.8866702318191528,0.8167262077331543
1772698677297709300,11.554709228515625,-1.0952805280685425,-0.3124573230743408,0.49663305282592773
1772698677315056000,11.57205615234375,-1.0775654315948486,-0.4871646761894226,0.2864955961704254
1772698677332403000,11.58940283203125,-0.952949047088623,-1.0241148471832275,0.2614501118659973
1772698677349749800,11.606749755859376,-0.8582650423049927,-1.6349796056747437,0.472198486328125
1772698677367096600,11.6240966796875,-0.7232639193534851,-1.953240156173706,0.6695078015327454
1772698677384443400,11.641443359375,-0.4013381600379944,-1.7876957654953003,0.7672461867332458
1772698677401790200,11.658790283203125,-0.15149445831775665,-1.341153621673584,0.7373138070106506
1772698677419137000,11.676136962890626,-0.14660754799842834,-0.9367611408233643,0.5974257588386536
1772698677436483800,11.69348388671875,-0.20952661335468292,-0.5971203446388245,0.32009315490722656
1772698677453830700,11.71083056640625,-0.2461785078048706,-0.33139413595199585,0.01649334840476513
1772698677471177500,11.728177490234375,-0.1692095398902893,-0.08949168771505356,-0.17165300250053406
1772698677488524300,11.745524169921875,-0.06841685622930527,0.13041962683200836,-0.2632827162742615
1772698677505871000,11.76287109375,0.033597562462091446,0.2623664140701294,-0.31520622968673706
1772698677523218000,11.780218017578125,0.1331685185432434,0.3808741867542267,-0.3903425931930542
1772698677540564700,11.797564697265624,0.1441640853881836,0.5012145638465881,-0.5106829404830933
1772698677557911600,11.81491162109375,0.06108647957444191,0.46395179629325867,-0.5503891706466675
1772698677575258400,11.83225830078125,-0.031154103577136993,0.19089524447917938,-0.4263836145401001
1772698677592605200,11.849605224609375,-0.07757982611656189,0.08765909820795059,-0.318871408700943
1772698677609952000,11.866951904296876,0.10690133273601532,0.3197877109050751,-0.1637117564678192
1772698677627298800,11.884298828125,0.39278605580329895,0.5451968312263489,-0.04581485688686371
1772698677644645600,11.901645751953126,0.4514290690422058,0.014966187067329884,-0.043371398001909256
1772698677661992400,11.918992431640625,0.2816086709499359,-0.3851502537727356,-0.23518294095993042
1772698677679339300,11.93633935546875,-0.19425499439239502,0.03695731982588768,-0.4404335021972656
1772698677696686000,11.95368603515625,-0.7507528066635132,0.33139413595199585,-0.287106454372406
1772698677714033000,11.971032958984376,-1.2815942764282227,0.39248061180114746,-0.546113133430481
1772698677731379700,11.988379638671875,-1.5192207098007202,-0.9031635522842407,-0.9682206511497498
1772698677748726500,12.0057265625,-1.508836030960083,-0.7510582208633423,-0.9786053895950317
1772698677766073300,12.0230732421875,-1.1331541538238525,-0.732121467590332,-1.1221586465835571
1772698677783420400,12.04042041015625,-0.2571740746498108,-1.1133010387420654,-1.2192860841751099
1772698677800767200,12.057767333984375,0.5992583632469177,-1.1194096803665161,-1.0751219987869263
1772698677818114000,12.075114013671875,0.851545512676239,-0.8310815095901489,-0.6041452884674072
1772698677835460900,12.0924609375,0.9046907424926758,-0.2257145345211029,-0.389120876789093
1772698677852807700,12.1098076171875,0.6866120100021362,0.2006690800189972,-0.4416552484035492
1772698677870154500,12.127154541015624,0.29016077518463135,0.5390881896018982,-0.46547895669937134
1772698677887501300,12.144501220703125,0.0873536616563797,0.9935715794563293,-0.5674933791160583
1772698677904848100,12.16184814453125,-0.09896009415388107,1.2440260648727417,-0.6499601006507874
1772698677922195000,12.17919482421875,-0.0030543238390237093,1.4413354396820068,-0.6444623470306396
1772698677939541800,12.196541748046876,0.20769402384757996,1.4352267980575562,-0.5161807537078857
1772698677956888600,12.213888671875,0.33169957995414734,1.165224552154541,-0.31459537148475647
1772698677974235400,12.2312353515625,0.35613417625427246,1.1267400979995728,-0.17348559200763702
1772698677991582200,12.248582275390625,0.2919933497905731,1.257465124130249,-0.1747073233127594
1772698678008929000,12.265928955078126,0.15577052533626556,1.3356558084487915,-0.2675587832927704
1772698678026275800,12.28327587890625,-0.0030543238390237093,1.432172417640686,-0.3481929302215576
1772698678043622700,12.30062255859375,-0.03176496922969818,1.3472622632980347,-0.42394015192985535
1772698678060969500,12.317969482421875,0.1026252806186676,0.9917389750480652,-0.4776962697505951
1772698678078316300,12.33531640625,0.2577849328517914,0.6215549111366272,-0.4685332775115967
1772698678095663000,12.3526630859375,0.2565632164478302,0.5323686599731445,-0.36651885509490967
1772698678113010000,12.370010009765625,-0.006719512399286032,0.8512400984764099,-0.08918625861406326
1772698678130356700,12.387356689453124,-0.4221075773239136,1.3136646747589111,0.3488037884235382
1772698678147703600,12.40470361328125,-0.5674933791160583,1.2892301082611084,0.6224712133407593
1772698678165050400,12.42205029296875,-0.17226386070251465,0.8365793228149414,0.3707949221134186
1772698678182397200,12.439397216796875,0.35735589265823364,0.6246092319488525,-0.19303326308727264
1772698678199744000,12.456743896484374,0.4990765154361725,0.5555815100669861,-0.56382817029953
1772698678217090800,12.4740908203125,0.26022839546203613,0.4425715208053589,-0.36163195967674255
1772698678234437600,12.491437744140624,-0.21135921776294708,0.4053087830543518,-0.034208428114652634
1772698678251784400,12.508784423828125,-0.32559093832969666,0.4633409380912781,-0.18203771114349365
1772698678269131300,12.52613134765625,0.10690133273601532,0.7137954831123352,-0.27855435013771057
1772698678286478000,12.54347802734375,0.5919279456138611,0.8066469430923462,-0.11606431007385254
1772698678303825000,12.560824951171876,0.8863648176193237,0.3032943606376648,-0.056199558079242706
1772698678321171700,12.578171630859375,1.2681553363800049,0.029626941308379173,0.18142683804035187
1772698678338518500,12.5955185546875,1.499062180519104,0.2764163017272949,0.7690787315368652
1772698678355865300,12.612865234375,1.1588104963302612,0.43401941657066345,1.37078058719635
1772698678373212200,12.630212158203125,0.6328558921813965,0.2880227565765381,1.905898094177246
1772698678390559000,12.64755908203125,0.21135921776294708,-0.1701258420944214,1.7544035911560059
1772698678407905800,12.66490576171875,0.012217295356094837,-0.8066469430923462,1.1221586465835571
1772698678425252900,12.6822529296875,-0.04581485688686371,-0.8323032855987549,0.6243038177490234
1772698678442599700,12.699599609375,-0.06536252796649933,-0.49999281764030457,0.7153226733207703
1772698678459946500,12.716946533203124,-0.19242240488529205,-0.22327107191085815,1.0989457368850708
1772698678477293300,12.734293212890625,-0.5760455131530762,-0.024740023538470268,1.0250310897827148
1772698678494640000,12.75164013671875,-0.8148936033248901,0.0015271619195118546,0.5687150955200195
1772698678511987000,12.768987060546875,-0.7415898442268372,-0.25442516803741455,0.14294235408306122
1772698678529333800,12.786333740234374,-0.48991355299949646,-0.5189296007156372,0.13011419773101807
1772698678546680600,12.8036806640625,-0.35246896743774414,-0.7260127663612366,0.39278605580329895
1772698678564027400,12.82102734375,-0.360410213470459,-0.897665798664093,0.5894845128059387
1772698678581374200,12.838374267578125,-0.3426951467990875,-1.0564906597137451,0.5473348498344421
1772698678598721000,12.855720947265626,-0.28405213356018066,-1.072983980178833,0.31093016266822815
1772698678616067800,12.87306787109375,-0.22357651591300964,-0.9532544612884521,0.05925388261675835
1772698678633414700,12.89041455078125,-0.16554436087608337,-0.6777544617652893,-0.08491020649671555
1772698678650761500,12.907761474609375,-0.0360410213470459,-0.40286532044410706,-0.14049890637397766
1772698678668108300,12.9251083984375,0.09285144507884979,-0.2464839369058609,-0.13133592903614044
1772698678685455000,12.942455078125,0.23335035145282745,-0.20189081132411957,-0.1185077652335167
1772698678702802000,12.959802001953125,0.37262752652168274,-0.21410810947418213,-0.1484401375055313
1772698678720148700,12.977148681640625,0.47464191913604736,-0.21899501979351044,-0.26389357447624207
1772698678737495600,12.99449560546875,0.4728093445301056,-0.08460476994514465,-0.411722868680954
1772698678754842400,13.01184228515625,0.3390299379825592,-0.019853105768561363,-0.31520622968673706
1772698678772189200,13.029189208984375,0.16615521907806396,-0.1078176349401474,0.009162971749901772
1772698678789536300,13.046536376953124,0.12583814561367035,-0.16707152128219604,0.3023780584335327
1772698678806883000,13.063883056640625,0.08063415437936783,-0.40408703684806824,0.3811796307563782
1772698678824230000,13.08122998046875,0.021991131827235222,-0.7003564834594727,0.2669478952884674
1772698678841576700,13.09857666015625,0.043982263654470444,-0.9489784240722656,0.21441353857517242
1772698678858923500,13.115923583984374,0.07086031138896942,-0.980743408203125,0.04581485688686371
1772698678876270300,13.133270263671875,-0.000610864779446274,-0.4981602132320404,-0.27977606654167175
1772698678893617200,13.1506171875,-0.13011419773101807,0.3130682110786438,-0.16126830875873566
1772698678910964000,13.1679638671875,-0.5992583632469177,0.029626941308379173,-0.21746785938739777
1772698678928310800,13.185310791015626,-1.2907572984695435,-0.9837977290153503,-0.7971785664558411
1772698678945657600,13.20265771484375,-1.8362594842910767,-0.7058542370796204,-0.8625410795211792
1772698678963004400,13.22000439453125,-1.5094468593597412,-0.8011491298675537,-0.8289434909820557
1772698678980351200,13.237351318359375,-0.7770199775695801,-1.2525782585144043,-0.9993748068809509
1772698678997698000,13.254697998046876,0.42821621894836426,-1.1615593433380127,-0.7770199775695801
1772698679015044900,13.272044921875,1.0989457368850708,-0.5207622051239014,-0.17837251722812653
1772698679032391700,13.2893916015625,1.2260055541992188,0.4816668927669525,0.0054977829568088055
1772698679049738800,13.30673876953125,1.026863694190979,1.036332130432129,-0.2260199636220932
1772698679067085600,13.32408544921875,0.39400777220726013,1.1523964405059814,-0.21807873249053955
1772698679084432400,13.341432373046874,0.14233149588108063,1.41506826877594,-0.19181154668331146
1772698679101779200,13.358779296875,0.028099779039621353,1.6197079420089722,-0.3231474757194519
1772698679119126000,13.3761259765625,0.14660754799842834,1.9269729852676392,-0.5094612240791321
1772698679136472800,13.393472900390625,0.3549124300479889,2.0809109210968018,-0.5174024701118469
1772698679153819600,13.410819580078124,0.4269944727420807,1.9208643436431885,-0.3329212963581085
1772698679171166500,13.42816650390625,0.3170388340950012,1.5384629964828491,-0.1698204129934311
1772698679188513300,13.44551318359375,0.08429934084415436,1.4621047973632812,-0.2718348205089569
1772698679205860000,13.462860107421875,-0.13133592903614044,1.63620126247406,-0.5290089249610901
1772698679223207000,13.48020703125,-0.29138249158859253,1.6685771942138672,-0.6023126840591431
1772698679240553700,13.4975537109375,-0.3995055556297302,1.3918553590774536,-0.4789179861545563
1772698679257900500,13.514900634765626,-0.4269944727420807,1.072983980178833,-0.3909534513950348
1772698679275247400,13.532247314453125,-0.4202749729156494,0.9330959320068359,-0.40255987644195557
1772698679292594200,13.54959423828125,-0.45998117327690125,0.9825760126113892,-0.3640754222869873
1772698679309941000,13.56694091796875,-0.5161807537078857,1.1475094556808472,-0.09529490768909454
1772698679327287800,13.584287841796876,-0.41905322670936584,1.0680971145629883,0.3610210716724396
1772698679344634600,13.601634521484375,-0.09101885557174683,0.44929105043411255,0.4062250852584839
1772698679361981400,13.6189814453125,0.2559523284435272,0.11331541836261749,-0.01588248461484909
1772698679379328300,13.636328369140625,0.16310089826583862,-0.13469567894935608,-0.33536475896835327
1772698679396675000,13.653675048828125,-0.07880155742168427,-0.5256491303443909,-0.6047561168670654
1772698679414022000,13.67102197265625,-0.07391463965177536,-0.5476402640342712,-0.5754346251487732
1772698679431369000,13.688368896484375,0.12583814561367035,-0.2764163017272949,-0.22785256803035736
1772698679448715800,13.7057158203125,0.4575377106666565,-0.2360992431640625,-0.1533270627260208
1772698679466062600,13.7230625,0.7916807532310486,-0.3283398151397705,-0.31581708788871765
1772698679483409400,13.740409423828124,1.0586286783218384,-0.14202606678009033,-0.2516762912273407
1772698679500756200,13.757756103515625,1.074511170387268,-0.060781046748161316,-0.10140355676412582
1772698679518103000,13.77510302734375,0.9688315391540527,-0.3020726442337036,0.02871064469218254
1772698679535449900,13.792449951171875,1.0751219987869263,-0.6899717450141907,0.13194678723812103
1772698679552796700,13.809796630859376,1.5015056133270264,-0.9111047983169556,0.25900667905807495
1772698679570143500,13.8271435546875,1.72141695022583,-0.9337068200111389,0.7079922556877136
1772698679587490300,13.844490234375,1.3964369297027588,-0.9343177080154419,1.3408482074737549
1772698679604837000,13.861837158203125,0.7898481488227844,-1.089477300643921,1.6884303092956543
1772698679622184000,13.879183837890626,0.24801109731197357,-1.1927134990692139,1.5265511274337769
1772698679639530800,13.89653076171875,0.03848448023200035,-0.8860593438148499,1.094058871269226
1772698679656877600,13.913877685546876,0.03237583488225937,-0.5739074349403381,0.905912458896637
1772698679674224600,13.931224609375,-0.11239911615848541,-0.7730493545532227,0.8784235715866089
1772698679691571500,13.948571533203125,-0.4838049113750458,-0.6362156867980957,0.8631519079208374
1772698679708918300,13.965918212890625,-0.8087849617004395,-0.537255585193634,0.7507528066635132
1772698679726265000,13.98326513671875,-0.94439697265625,-0.8872811198234558,0.5137372612953186
1772698679743612000,14.00061181640625,-1.0091485977172852,-0.859792172908783,0.36774060130119324
1772698679760958700,14.017958740234375,-1.0128138065338135,-0.4975493550300598,0.33597561717033386
1772698679778305500,14.035305419921874,-1.0488548278808594,-0.3271180987358093,0.37812530994415283
1772698679795652400,14.05265234375,-0.9370665550231934,-0.8713986277580261,0.38850998878479004
1772698679812999200,14.069999267578124,-0.583375871181488,-1.4969241619110107,0.3909534513950348
1772698679830346000,14.087345947265625,-0.2571740746498108,-1.5806126594543457,0.3549124300479889
1772698679847692800,14.10469287109375,-0.06780599057674408,-1.2177588939666748,0.29993459582328796
1772698679865039600,14.12203955078125,0.024434590712189674,-0.9245438575744629,0.235793799161911
1772698679882386400,14.139386474609376,0.07513637095689774,-0.6459894776344299,0.11911863088607788
1772698679899733200,14.156733154296875,0.06352993845939636,-0.5335903763771057,-0.020769402384757996
1772698679917080000,14.174080078125,0.020158538594841957,-0.5665770769119263,-0.13561198115348816
1772698679934427100,14.19142724609375,0.004886918235570192,-0.5103775262832642,-0.268169641494751
1772698679951774000,14.20877392578125,-0.06536252796649933,-0.2721402645111084,-0.40378162264823914
1772698679969120800,14.226120849609375,-0.1637117564678192,0.08399390429258347,-0.38240134716033936
1772698679986467600,14.243467529296876,-0.12034036219120026,0.06383536756038666,-0.09407317638397217
1772698680003814400,14.260814453125,-0.03481929376721382,-0.2574795186519623,0.1692095398902893
1772698680021161200,14.2781611328125,0.17104214429855347,-0.3759872615337372,0.15149445831775665
1772698680038508000,14.295508056640625,0.42394015192985535,-0.2831358313560486,-0.08674279600381851
1772698680055854800,14.312854736328125,0.42394015192985535,-0.3283398151397705,-0.25350889563560486
1772698680073201700,14.33020166015625,0.3139844834804535,-0.630107045173645,-0.287106454372406
1772698680090548500,14.347548583984375,-0.043982263654470444,-0.39186975359916687,-0.5015199780464172
1772698680107895300,14.364895263671874,-0.5222893953323364,-0.17867794632911682,-0.7147117853164673
1772698680125242000,14.3822421875,-0.8863648176193237,0.12980876863002777,-0.7599157691001892
1772698680142589000,14.3995888671875,-1.2412772178649902,-0.1389717310667038,-0.648127555847168
1772698680159936000,14.41693603515625,-1.4624103307724,-0.8353576064109802,-0.8051197528839111
1772698680177282800,14.43428271484375,-1.4269801378250122,-0.6698132157325745,-0.7831286191940308
1772698680194629600,14.451629638671875,-1.099556565284729,-0.9569196701049805,-1.0042617321014404
1772698680211976400,14.4689765625,-0.3445277214050293,-1.2996147871017456,-1.0109812021255493
1772698680229323300,14.4863232421875,0.27000224590301514,-1.5360194444656372,-0.6407971382141113
1772698680246670000,14.503670166015626,0.48013970255851746,-1.498756766319275,-0.13255766034126282
1772698680264017000,14.521016845703125,0.6328558921813965,-1.1236857175827026,-0.01588248461484909
1772698680281363700,14.53836376953125,0.6499601006507874,-0.6575959324836731,-0.23273947834968567
1772698680298710500,14.55571044921875,0.36163195967674255,-0.22937972843647003,-0.5112938284873962
1772698680316057300,14.573057373046876,0.3384190797805786,0.27030766010284424,-0.6615665555000305
1772698680333404200,14.590404052734375,0.3042106628417969,0.7626646757125854,-0.5992583632469177
1772698680350751200,14.607751220703125,0.37629270553588867,1.267238974571228,-0.47464191913604736
1772698680368098000,14.62509814453125,0.4422661066055298,1.4175117015838623,-0.3500255048274994
1772698680385444900,14.64244482421875,0.46914416551589966,1.3448188304901123,-0.21685700118541718
1772698680402791700,14.659791748046874,0.4612029194831848,1.3472622632980347,-0.1185077652335167
1772698680420138500,14.677138427734375,0.4404335021972656,1.5347977876663208,-0.12522727251052856
1772698680437485300,14.6944853515625,0.34636032581329346,1.6997312307357788,-0.19914191961288452
1772698680454832000,14.71183203125,0.21502439677715302,1.8029674291610718,-0.21868959069252014
1772698680472179000,14.729178955078124,0.16065743565559387,1.6905683279037476,-0.20891575515270233
1772698680489525800,14.74652587890625,0.1905898153781891,1.3637555837631226,-0.2718348205089569
1772698680506872600,14.76387255859375,0.19853104650974274,1.1242966651916504,-0.32131487131118774
1772698680524219400,14.781219482421875,0.12522727251052856,1.0571014881134033,-0.21258094906806946
1772698680541566200,14.798566162109376,-0.06597339361906052,1.2037090063095093,0.06108647957444191
1772698680558913000,14.8159130859375,-0.3555232882499695,1.4462224245071411,0.23762640357017517
1772698680576260000,14.833260009765626,-0.5247328281402588,1.2635737657546997,0.13988803327083588
1772698680593607000,14.85060693359375,-0.42821621894836426,0.7602212429046631,-0.09529490768909454
1772698680610953700,14.86795361328125,-0.19608759880065918,0.43463030457496643,-0.1893680840730667
1772698680628300500,14.885300537109375,0.036651886999607086,0.25442516803741455,-0.28405213356018066
1772698680645647400,14.9026474609375,0.27427828311920166,0.14141519367694855,-0.19120067358016968
1772698680662994200,14.919994140625,0.370184063911438,0.17562362551689148,0.08857539296150208
1772698680680341000,14.937341064453125,0.3121519088745117,0.17867794632911682,-0.06108647957444191
1772698680697687800,14.954687744140625,0.2968802750110626,0.09315688163042068,-0.35246896743774414
1772698680715034600,14.97203466796875,0.4257727563381195,-0.035124726593494415,-0.3634645342826843
1772698680732381400,14.98938134765625,0.6499601006507874,-0.1591302752494812,-0.19914191961288452
1772698680749728300,15.006728271484375,0.924238383769989,-0.3381136655807495,0.1337793916463852
1772698680767075000,15.024074951171874,1.1740821599960327,-0.5170970559120178,0.6267472505569458
1772698680784422000,15.041421875,1.4929535388946533,-0.7583886384963989,1.2315033674240112
1772698680801769000,15.05876904296875,1.6975932121276855,-0.9752455949783325,1.7715078592300415
1772698680819115800,15.07611572265625,1.3793326616287231,-0.9599739909172058,2.10687255859375
1772698680836462600,15.093462646484374,0.7690787315368652,-0.9440914988517761,1.849698543548584
1772698680853809400,15.110809326171875,0.4172206521034241,-0.7644972801208496,1.2577705383300781
1772698680871156200,15.12815625,0.2461785078048706,-0.5745183229446411,0.9578359723091125
1772698680888503000,15.1455029296875,-0.06475166976451874,-0.989906370639801,0.9779945015907288
1772698680905849900,15.162849853515626,-0.647516667842865,-1.2947279214859009,0.9107993841171265
1772698680923196700,15.18019677734375,-1.094058871269226,-0.9208786487579346,0.6633991599082947
1772698680940543500,15.19754345703125,-1.045189619064331,-0.6056724190711975,0.3347539007663727
1772698680957890300,15.214890380859375,-0.7965676784515381,-0.527481734752655,0.143553227186203
1772698680975237000,15.232237060546876,-0.6200277805328369,-0.7455604672431946,0.20891575515270233
1772698680992584200,15.249584228515625,-0.5900954008102417,-1.2611303329467773,0.4862483739852905
1772698681009931000,15.266930908203125,-0.5308414697647095,-1.7815871238708496,0.6090322136878967
1772698681027277800,15.28427783203125,-0.21258094906806946,-2.043037176132202,0.47586366534233093
1772698681044624600,15.301624755859375,0.1545487940311432,-2.0082180500030518,0.3646862804889679
1772698681061971500,15.318971435546874,0.24862197041511536,-1.5806126594543457,0.3543015718460083
1772698681079318300,15.336318359375,0.24251331388950348,-1.0601558685302734,0.22479823231697083
1772698681096665000,15.3536650390625,0.19242240488529205,-0.7620537877082825,-0.007330377586185932
1772698681114012000,15.371011962890625,0.20830489695072174,-0.5189296007156372,-0.23884813487529755
1772698681131358700,15.388358642578124,0.26450446248054504,-0.39675667881965637,-0.38179048895835876
1772698681148705500,15.40570556640625,0.31581708788871765,-0.3454440236091614,-0.4514290690422058
1772698681166052600,15.423052490234374,0.2730565667152405,-0.1029307171702385,-0.500298261642456
1772698681183399400,15.4403994140625,0.09712749719619751,0.1951712965965271,-0.38179048895835876
1772698681200746200,15.457746337890624,-0.039706211537122726,0.06383536756038666,0.02932151034474373
1772698681218093000,15.475093017578125,-0.22235478460788727,-0.06872228533029556,0.28527384996414185
1772698681235439900,15.49243994140625,-0.18203771114349365,-0.015577051788568497,0.26939135789871216
1772698681252786700,15.50978662109375,0.14477495849132538,0.1389717310667038,0.0977383628487587
1772698681270133500,15.527133544921876,0.3707949221134186,0.1182023361325264,-0.06230820715427399
1772698681287480300,15.544480224609375,0.4459312856197357,-0.32162031531333923,-0.2370155304670334
1772698681304827100,15.5618271484375,0.35124725103378296,-0.6417134404182434,-0.6982184648513794
1772698681322174200,15.57917431640625,-0.1233946830034256,-0.34238970279693604,-0.7935133576393127
1772698681339521000,15.59652099609375,-0.5094612240791321,0.21288637816905975,-0.27916520833969116
1772698681356867800,15.613867919921875,-0.832608699798584,0.41935867071151733,-0.49480047821998596
1772698681374214700,15.631214599609375,-1.2333359718322754,-0.5665770769119263,-0.6450732350349426
1772698681391561500,15.6485615234375,-1.397047758102417,-0.6282744407653809,-0.8680388331413269
1772698681408908300,15.665908203125,-1.3304635286331177,-0.5128209590911865,-1.0458004474639893
1772698681426255000,15.683255126953124,-0.7134900689125061,-0.9385937452316284,-1.1508692502975464
1772698681443602000,15.700601806640625,0.23945899307727814,-1.2177588939666748,-0.9560033679008484
1772698681460948700,15.71794873046875,0.6884446144104004,-1.1218531131744385,-0.4324922561645508
1772698681478295600,15.735295654296875,0.8637627959251404,-0.43340855836868286,-0.17837251722812653
1772698681495642600,15.752642578125,0.924849271774292,0.16279546916484833,-0.38240134716033936
1772698681512989400,15.769989501953125,0.6029235124588013,0.5079340934753418,-0.4667007029056549
1772698681530336300,15.787336181640624,0.4013381600379944,0.9434806704521179,-0.4428769648075104
1772698681547683000,15.80468310546875,0.23457208275794983,1.341153621673584,-0.472198486328125
1772698681565030000,15.82202978515625,0.19364413619041443,1.6777400970458984,-0.5155698657035828
1772698681582376700,15.839376708984375,0.2614501118659973,1.9465205669403076,-0.5589412450790405
1772698681599723500,15.8567236328125,0.3646862804889679,1.8341214656829834,-0.43982264399528503
1772698681617070300,15.8740703125,0.42088583111763,1.6924008131027222,-0.22663083672523499
1772698681634417200,15.891417236328126,0.3335321843624115,1.6740748882293701,-0.16554436087608337
1772698681651764200,15.90876416015625,0.15149445831775665,1.7736458778381348,-0.2993237376213074
1772698681669111000,15.926111083984376,0.01893680728971958,1.9184207916259766,-0.4410443603992462
1772698681686457900,15.943457763671875,0.01954767294228077,1.8799363374710083,-0.5070177912712097
1772698681703804700,15.9608046875,0.0720820426940918,1.5012001991271973,-0.5748237371444702
1772698681721151500,15.9781513671875,0.07513637095689774,1.0754274129867554,-0.6542361974716187
1772698681738498300,15.995498291015625,-0.03237583488225937,0.9178243279457092,-0.6365211009979248
1772698681755845000,16.01284521484375,-0.24373504519462585,1.1328487396240234,-0.4056142270565033
1772698681773192000,16.03019189453125,-0.5057960152626038,1.4957023859024048,0.12950333952903748
1772698681790538800,16.047538818359374,-0.5412262082099915,1.5903865098953247,0.7776308655738831
1772698681807885600,16.064885498046873,-0.08857539296150208,1.1420117616653442,0.8943060636520386
1772698681825232600,16.082232666015624,0.49663305282592773,0.6191114783287048,0.2009745091199875
1772698681842579500,16.099579345703123,0.6902772188186646,0.36804601550102234,-0.5412262082099915
1772698681859926300,16.11692626953125,0.34147340059280396,0.22937972843647003,-0.6548470258712769
1772698681877273000,16.134273193359373,-0.12400554865598679,0.1640172004699707,-0.2919933497905731
1772698681894620000,16.151619873046876,-0.2626718580722809,0.45051276683807373,-0.1130099818110466
1772698681911966700,16.168966796875,0.033597562462091446,0.6814196705818176,-0.28954991698265076
1772698681929313500,16.1863134765625,0.337808221578598,0.5506945848464966,-0.3298669755458832
1772698681946660400,16.203660400390625,0.618806004524231,0.24831652641296387,-0.379347026348114
1772698681964007200,16.221007080078124,0.832608699798584,0.3081812858581543,-0.2156352698802948
1772698681981354000,16.23835400390625,0.9706641435623169,0.26542073488235474,0.22663083672523499
1772698681998700800,16.25570068359375,1.0671807527542114,-0.0204639695584774,0.7067705392837524
1772698682016047900,16.2730478515625,1.3310743570327759,-0.3698786199092865,1.0500766038894653
1772698682033394700,16.290394775390624,1.6132938861846924,-0.7449495792388916,1.3347395658493042
1772698682050741500,16.307741455078126,1.4123194217681885,-0.9129374027252197,1.8765766620635986
1772698682068088300,16.32508837890625,0.7147117853164673,-0.7987056970596313,1.9999712705612183
1772698682085435100,16.34243505859375,0.2614501118659973,-0.8940005898475647,1.6701042652130127
1772698682102782000,16.359781982421875,-0.05436696484684944,-0.7993165850639343,1.3671153783798218
1772698682120128800,16.377128662109374,-0.5473348498344421,-0.8506292104721069,1.1038326025009155
1772698682137475600,16.3944755859375,-1.0506874322891235,-0.602007269859314,0.8344413042068481
1772698682154822700,16.41182275390625,-1.2168426513671875,0.10659590363502502,0.5112938284873962
1772698682172169500,16.42916943359375,-1.0690133571624756,0.30451610684394836,0.3231474757194519
1772698682189516300,16.446516357421874,-0.8032872080802917,0.047952886670827866,0.35613417625427246
1772698682206863000,16.463863037109373,-0.5864301919937134,-0.4938841760158539,0.6126973628997803
1772698682224210000,16.4812099609375,-0.5516108870506287,-1.0198386907577515,0.8100066781044006
1772698682241556700,16.498556640625,-0.5021308660507202,-1.24769127368927,0.6151408553123474
1772698682258903600,16.515903564453126,-0.39400777220726013,-1.1743875741958618,0.20830489695072174
1772698682276250400,16.53325048828125,-0.4013381600379944,-0.8891136646270752,-0.04581485688686371
1772698682293597400,16.550597412109376,-0.3634645342826843,-0.364991694688797,-0.1282816082239151
1772698682310944300,16.5679443359375,-0.25900667905807495,0.021685699000954628,-0.13683371245861053
1772698682328291000,16.585291015625,-0.09285144507884979,0.032681263983249664,-0.1380554437637329
1772698682345638000,16.602637939453125,0.11117739230394363,-0.10231985151767731,-0.18692462146282196
1772698682362984700,16.619984619140624,0.28527384996414185,-0.2733619809150696,-0.2657261788845062
1772698682380331500,16.63733154296875,0.3652971386909485,-0.37232208251953125,-0.34636032581329346
1772698682397678300,16.65467822265625,0.3744601011276245,-0.291687935590744,-0.4465421438217163
1772698682415025200,16.672025146484376,0.2767217457294464,-0.06017018109560013,-0.5412262082099915
1772698682432372200,16.689372314453124,0.08796452730894089,0.1127045527100563,-0.4062250852584839
1772698682449719000,16.706718994140626,-0.15515965223312378,0.14508038759231567,-0.1380554437637329
1772698682467065900,16.72406591796875,-0.22663083672523499,0.07299833744764328,0.09346231073141098
1772698682484412700,16.74141259765625,-0.08552107214927673,0.006414080038666725,0.17592905461788177
1772698682501759500,16.758759521484375,-0.010384701192378998,-0.15302163362503052,0.11423171311616898
1772698682519106300,16.776106201171874,0.10201441496610641,-0.5806269645690918,-0.06536252796649933
1772698682536453000,16.793453125,0.20647229254245758,-0.8139773011207581,-0.5601630210876465
1772698682553800000,16.810800048828124,-0.07391463965177536,-0.33689191937446594,-1.0763437747955322
1772698682571147000,16.82814697265625,-0.38728827238082886,0.0565049909055233,-0.7953459620475769
1772698682588493800,16.845493896484374,-0.4880809485912323,0.1951712965965271,-0.9749401807785034
1772698682605840600,16.862840576171877,-0.7751874327659607,-0.26358816027641296,-0.7965676784515381
1772698682623187500,16.8801875,-1.3084723949432373,-0.4272999167442322,-0.8063415288925171
1772698682640534300,16.8975341796875,-1.284037709236145,0.1182023361325264,-0.7037162184715271
1772698682657881000,16.914881103515626,-1.0207550525665283,-0.2770271897315979,-0.962722897529602
1772698682675228000,16.932227783203125,-0.24251331388950348,-0.9312633275985718,-1.0952805280685425
1772698682692574700,16.94957470703125,0.5082395076751709,-1.3106104135513306,-0.7428115606307983
1772698682709921800,16.966921875,0.646905779838562,-1.0259474515914917,-0.1698204129934311
1772698682727268600,16.9842685546875,0.6267472505569458,-0.6600393652915955,-0.30543237924575806
1772698682744615400,17.001615478515625,0.48013970255851746,-0.3197877109050751,-0.62857985496521
1772698682761962200,17.018962158203124,0.3597993552684784,0.18417572975158691,-0.6322450637817383
1772698682779309000,17.03630908203125,0.4105011224746704,0.6704241037368774,-0.4612029194831848
1772698682796655900,17.05365576171875,0.2657261788845062,1.0613775253295898,-0.30604326725006104
1772698682814002700,17.071002685546876,0.22785256803035736,1.370475172996521,-0.2767217457294464
1772698682831349500,17.088349609375,0.22296564280986786,1.4297289848327637,-0.26939135789871216
1772698682848696600,17.105696533203126,0.2156352698802948,1.2287545204162598,-0.13011419773101807
1772698682866043400,17.12304345703125,0.24984370172023773,1.0454950332641602,-0.007330377586185932
1772698682883390200,17.14039013671875,0.2926042377948761,1.0583232641220093,-0.1337793916463852
1772698682900737000,17.157737060546875,0.2254091054201126,1.2336413860321045,-0.4007273018360138
1772698682918083800,17.175083740234374,0.10079269111156464,1.3271037340164185,-0.5149590373039246
1772698682935430700,17.1924306640625,0.010995565913617611,1.204319953918457,-0.49602219462394714
1772698682952777500,17.209777587890624,-0.025045456364750862,0.9630283117294312,-0.5100721120834351
1772698682970124500,17.22712451171875,-0.009773836471140385,0.7308996915817261,-0.5662716627120972
1772698682987471400,17.244471435546874,0.059864748269319534,0.572685718536377,-0.5766563415527344
1772698683004818200,17.261818115234377,0.12767073512077332,0.467006117105484,-0.5235111117362976
1772698683022165000,17.2791650390625,0.11117739230394363,0.5928442478179932,-0.4221075773239136
1772698683039511800,17.29651171875,-0.03237583488225937,0.9367611408233643,-0.26389357447624207
1772698683056858600,17.313858642578126,-0.1795942485332489,1.1896591186523438,-0.027488915249705315
1772698683074205400,17.331205322265625,-0.17776164412498474,0.9758564829826355,0.20158538222312927
1772698683091552300,17.34855224609375,-0.004276053514331579,0.5115992426872253,0.21807873249053955
1772698683108899300,17.3658994140625,0.0720820426940918,0.18723005056381226,-0.13133592903614044
1772698683126246100,17.38324609375,0.14538581669330597,-0.041844237595796585,-0.430659681558609
1772698683143593000,17.400593017578124,0.07574722915887833,-0.17073670029640198,-0.3298669755458832
1772698683160939800,17.417939697265624,-0.07024945318698883,-0.032070402055978775,-0.10751219838857651
1772698683178286600,17.43528662109375,0.1441640853881836,0.13469567894935608,-0.043371398001909256
1772698683195633400,17.45263330078125,0.5418370366096497,0.23915356397628784,0.07391463965177536
1772698683212980200,17.469980224609376,0.7562506198883057,0.16768237948417664,0.29443681240081787
1772698683230327000,17.4873271484375,0.9285144805908203,-0.20738859474658966,0.4819723069667816
1772698683247674000,17.504674072265626,1.2773182392120361,-0.4981602132320404,0.7538071274757385
1772698683265021000,17.52202099609375,1.6438370943069458,-0.527481734752655,1.2260055541992188
1772698683282367700,17.53936767578125,1.4117084741592407,-0.44318240880966187,1.7501275539398193
1772698683299714600,17.556714599609375,0.7464767694473267,-0.39736753702163696,2.028681993484497
1772698683317061400,17.574061279296874,0.19730933010578156,-0.5067123174667358,1.7599014043807983
1772698683334408200,17.591408203125,0.07757982611656189,-0.4413498044013977,1.266933560371399
1772698683351755000,17.608755126953124,-0.0054977829568088055,-0.6252201199531555,1.046411395072937
1772698683369102000,17.62610205078125,-0.28588470816612244,-1.0571014881134033,1.110552191734314
1772698683386449000,17.643448974609374,-0.6517927050590515,-0.9208786487579346,1.1606431007385254
1772698683403795700,17.660795654296876,-0.7971785664558411,-0.2153298407793045,0.8594867587089539
1772698683421142500,17.678142578125,-0.8026763200759888,-0.04673115536570549,0.45448338985443115
1772698683438489300,17.6954892578125,-0.7629700899124146,-0.30146175622940063,0.27366742491722107
1772698683455836200,17.712836181640625,-0.7348703145980835,-0.6423243284225464,0.4422661066055298
1772698683473183000,17.730182861328124,-0.6939423680305481,-0.9550870656967163,0.6792816519737244
1772698683490529800,17.74752978515625,-0.6090322136878967,-1.193324327468872,0.6750055551528931
1772698683507876900,17.764876953125,-0.44409868121147156,-1.3106104135513306,0.4789179861545563
1772698683525223700,17.7822236328125,-0.2816086709499359,-1.3191624879837036,0.3182605504989624
1772698683542570500,17.799570556640624,-0.18325942754745483,-1.0864230394363403,0.23273947834968567
1772698683559917300,17.816917236328123,-0.1178968995809555,-0.6594285368919373,0.1178968995809555
1772698683577264000,17.83426416015625,-0.033597562462091446,-0.3692677617073059,0.031154103577136993
1772698683594611000,17.85161083984375,0.11362084746360779,-0.2006690800189972,0.01954767294228077
1772698683611957800,17.868957763671876,0.2730565667152405,-0.10415244847536087,0.03176496922969818
1772698683629304800,17.886304931640623,0.37751442193984985,-0.10354158282279968,-0.015271619893610477
1772698683646651600,17.903651611328126,0.43371400237083435,-0.05100720748305321,-0.18631376326084137
1772698683663998500,17.92099853515625,0.370184063911438,0.12186752259731293,-0.42271843552589417
1772698683681345300,17.93834521484375,0.23335035145282745,0.1334739476442337,-0.5662716627120972
1772698683698692000,17.955692138671875,0.09040798991918564,-0.09865466505289078,-0.471587598323822
1772698683716039000,17.973038818359374,-0.09590577334165573,-0.20677772164344788,-0.2315177470445633
1772698683733386000,17.990385986328125,-0.009773836471140385,-0.054672397673130035,0.09896009415388107
1772698683750732800,18.00773291015625,0.15699224174022675,-0.15057817101478577,0.11728604137897491
1772698683768079600,18.02507958984375,0.19730933010578156,-0.4413498044013977,-0.017104214057326317
1772698683785426400,18.042426513671874,0.1081230640411377,-0.5506945848464966,-0.21380266547203064
1772698683802773200,18.059773193359376,-0.2809978127479553,-0.15118902921676636,-0.401949018239975
1772698683820120000,18.0771201171875,-0.6023126840591431,0.13958260416984558,-0.22907429933547974
1772698683837467100,18.094467041015626,-1.1056652069091797,0.5329795479774475,-0.3439168632030487
1772698683854814000,18.11181396484375,-1.7110322713851929,-0.015577051788568497,-0.4618137776851654
1772698683872160800,18.129160888671876,-1.690262794494629,-0.4462367296218872,-0.7147117853164673
1772698683889507600,18.146507568359375,-1.29503333568573,-0.7455604672431946,-1.0610721111297607
1772698683906854400,18.1638544921875,-0.5778780579566956,-0.7938187718391418,-1.4660754203796387
1772698683924201200,18.181201171875,0.2107483446598053,-0.457843154668808,-1.1398736238479614
1772698683941548000,18.198548095703124,0.536339282989502,-0.07605266571044922,-0.3585776388645172
1772698683958895000,18.21589501953125,0.7550288438796997,0.44318240880966187,-0.030543239787220955
1772698683976242000,18.233241943359374,0.8112284541130066,0.8164207935333252,-0.3689623177051544
1772698683993588700,18.250588623046873,0.17287473380565643,1.0558797121047974,-0.5790998339653015
1772698684010935600,18.267935546875,-0.18753549456596375,1.4773764610290527,-0.6126973628997803
1772698684028282400,18.285282470703127,-0.3017672002315521,1.832899808883667,-0.5998691916465759
1772698684045629200,18.302629150390626,-0.07269290834665298,2.1200063228607178,-0.5778780579566956
1772698684062976000,18.31997607421875,0.18692462146282196,2.0326526165008545,-0.5088503360748291
1772698684080323000,18.337322998046876,0.3695732057094574,1.5140283107757568,-0.2889390289783478
1772698684097670000,18.354669921875,0.3836230933666229,1.1682789325714111,-0.12278381735086441
1772698684115016700,18.3720166015625,0.28954991698265076,1.1725549697875977,-0.18814635276794434
1772698684132363500,18.389363525390625,0.19364413619041443,1.3277145624160767,-0.3842339515686035
1772698684149710300,18.40671044921875,0.09040798991918564,1.352149248123169,-0.42455101013183594
1772698684167057200,18.42405712890625,0.026878049597144127,1.1255183219909668,-0.32620179653167725
1772698684184404200,18.441404296875,0.002443459117785096,0.7791580557823181,-0.3121519088745117
1772698684201751000,18.4587509765625,0.01893680728971958,0.5445859432220459,-0.40805765986442566
1772698684219097900,18.476097900390624,0.047036588191986084,0.4584540128707886,-0.5076286196708679
1772698684236444700,18.493444580078126,-0.001221729558892548,0.49021899700164795,-0.5296197533607483
1772698684253791500,18.51079150390625,-0.1588248461484909,0.6130027770996094,-0.4166097939014435
1772698684271138300,18.52813818359375,-0.34697118401527405,0.7803797721862793,-0.21197007596492767
1772698684288485000,18.545485107421875,-0.43310311436653137,0.8182533979415894,-0.011606430634856224
1772698684305832000,18.56283203125,-0.4263836145401001,0.6753110289573669,0.09834922850131989
1772698684323179000,18.580178955078125,-0.3695732057094574,0.48655378818511963,0.02260199747979641
1772698684340525800,18.59752587890625,-0.21380266547203064,0.2415970265865326,-0.16065743565559387
1772698684357872600,18.61487255859375,0.06047561392188072,0.1646280586719513,-0.18692462146282196
1772698684375219500,18.632219482421874,0.23884813487529755,0.314289927482605,-0.053756099194288254
1772698684392566300,18.649566162109377,0.25350889563560486,0.1542433500289917,-0.043371398001909256
1772698684409913000,18.6669130859375,0.2712239623069763,-0.08643736690282822,-0.1178968995809555
1772698684427260000,18.684260009765627,0.3298669755458832,-0.16768237948417664,-0.32131487131118774
1772698684444607000,18.70160693359375,0.379347026348114,-0.05711585655808449,-0.3439168632030487
1772698684461953800,18.718953857421877,0.4581485986709595,-0.3686569035053253,-0.18325942754745483
1772698684479300600,18.736300537109376,0.8833104968070984,-0.8408553600311279,0.11362084746360779
1772698684496647400,18.7536474609375,1.525940179824829,-0.7412844300270081,0.7550288438796997
1772698684513994200,18.770994140625,1.6578869819641113,-0.5665770769119263,1.422093152999878
1772698684531341000,18.788341064453125,1.091004490852356,-0.3381136655807495,1.981034517288208
1772698684548688000,18.80568798828125,0.37201663851737976,-0.6276635527610779,2.0488405227661133
1772698684566035000,18.823034912109375,-0.013439024798572063,-1.2599085569381714,1.5094468593597412
1772698684583381800,18.8403818359375,-0.006719512399286032,-1.5628975629806519,0.7428115606307983
1772698684600728600,18.857728515625,0.27977606654167175,-1.3716968297958374,0.5320632457733154
1772698684618075400,18.875075439453123,0.44837474822998047,-1.1591159105300903,1.033583164215088
1772698684635422200,18.892422119140626,-0.1081230640411377,-1.015562653541565,1.3151918649673462
1772698684652769000,18.90976904296875,-0.5681042671203613,-0.6227766275405884,1.110552191734314
1772698684670116000,18.9271162109375,-0.5375609993934631,-0.6667588949203491,0.7018836140632629
1772698684687463000,18.944462890625,-0.3597993552684784,-0.7247910499572754,0.3848448097705841
1772698684704809700,18.961809814453126,-0.19914191961288452,-0.9831868410110474,0.29077163338661194
1772698684722156500,18.979156494140625,-0.1747073233127594,-1.4004075527191162,0.33231043815612793
1772698684739503400,18.99650341796875,-0.19792018830776215,-1.6221513748168945,0.360410213470459
1772698684756850200,19.01385009765625,-0.04825831577181816,-1.5848886966705322,0.31459537148475647
1772698684774197000,19.031197021484374,0.17776164412498474,-1.3900227546691895,0.30054548382759094
1772698684791544000,19.0485439453125,0.28588470816612244,-1.038164734840393,0.2528980076313019
1772698684808891000,19.065890869140624,0.30543237924575806,-0.6863065958023071,0.08368847519159317
1772698684826237700,19.08323779296875,0.26022839546203613,-0.5073232054710388,-0.15638138353824615
1772698684843584500,19.10058447265625,0.2260199636220932,-0.3295615613460541,-0.35674503445625305
1772698684860931300,19.117931396484376,0.20830489695072174,-0.1902843713760376,-0.49418962001800537
1772698684878278100,19.135278076171875,0.2156352698802948,-0.1334739476442337,-0.5662716627120972
1772698684895625200,19.152625244140626,0.2809978127479553,-0.0009162971982732415,-0.6194168925285339
1772698684912972000,19.169971923828125,0.2370155304670334,0.19089524447917938,-0.6157516837120056
1772698684930318800,19.18731884765625,0.13744457066059113,0.23976442217826843,-0.3555232882499695
1772698684947665700,19.204665771484375,-0.05253437161445618,0.11331541836261749,0.013439024798572063
1772698684965012500,19.222012451171874,-0.16615521907806396,0.003970621153712273,0.3023780584335327
1772698684982359300,19.239359375,-0.04153880476951599,-0.019242240116000175,0.347582072019577
1772698684999706400,19.256706298828124,0.1337793916463852,-0.19639302790164948,0.13683371245861053
1772698685017053200,19.27405322265625,0.17898337543010712,-0.7510582208633423,0.12522727251052856
1772698685034400000,19.29139990234375,0.2516762912273407,-1.0198386907577515,0.02626718580722809
1772698685051746800,19.308746826171873,0.32009315490722656,-1.0332777500152588,-0.6169734001159668
1772698685069093600,19.32609375,0.17348559200763702,-0.4059196412563324,-0.9303470849990845
1772698685086440700,19.343440673828123,0.07941242307424545,-0.22204934060573578,-0.6194168925285339
1772698685103787500,19.36078759765625,-0.536339282989502,0.1383608728647232,-0.5564978122711182
1772698685121134300,19.37813427734375,-1.2980875968933105,-0.2153298407793045,-0.7770199775695801
1772698685138481200,19.395481201171876,-1.3976585865020752,-0.3442223072052002,-0.6805033683776855
1772698685155828000,19.412827880859375,-1.094058871269226,-0.5409207344055176,-0.915686309337616
1772698685173174800,19.4301748046875,-0.21135921776294708,-0.6887500286102295,-1.0836740732192993
1772698685190521900,19.44752197265625,0.4972439408302307,-0.9098830819129944,-0.8362739086151123
1772698685207868700,19.46486865234375,0.685390293598175,-0.8585704565048218,-0.2370155304670334
1772698685225215500,19.482215576171875,0.6933315396308899,-0.518318772315979,-0.20463970303535461
1772698685242562300,19.499562255859374,0.5369501113891602,-0.4156934916973114,-0.5021308660507202
1772698685259909000,19.5169091796875,0.25473061203956604,-0.07483093440532684,-0.6126973628997803
1772698685277256000,19.534255859375,0.17348559200763702,0.3753764033317566,-0.5815432667732239
1772698685294603000,19.55160302734375,0.010384701192378998,0.7284562587738037,-0.462424635887146
1772698685311949800,19.56894970703125,0.16004657745361328,1.2061525583267212,-0.38850998878479004
1772698685329296600,19.586296630859376,0.3915643095970154,1.3350449800491333,-0.40317076444625854
1772698685346643500,19.6036435546875,0.5351175665855408,1.0949751138687134,-0.3433060050010681
1772698685363990300,19.620990234375,0.5241219997406006,0.8353576064109802,-0.08857539296150208
1772698685381337000,19.638337158203125,0.3995055556297302,0.8347467184066772,0.0873536616563797
1772698685398684200,19.65568408203125,0.31093016266822815,1.083979606628418,-0.0616973415017128
1772698685416031000,19.673031005859375,0.20158538222312927,1.2910627126693726,-0.2675587832927704
1772698685433377800,19.690377685546874,0.10751219838857651,1.2006547451019287,-0.3494146466255188
1772698685450724600,19.707724609375,0.021380268037319183,0.9062178730964661,-0.3842339515686035
1772698685468071400,19.725071533203124,-0.0769689604640007,0.6209440231323242,-0.4520399272441864
1772698685485418200,19.742418212890627,-0.12095122784376144,0.5342012643814087,-0.48991355299949646
1772698685502765300,19.759765380859374,-0.11972949653863907,0.5696313977241516,-0.4202749729156494
1772698685520112000,19.777112060546877,-0.10140355676412582,0.6979129910469055,-0.19792018830776215
1772698685537459000,19.794458984375,-0.053145237267017365,0.9135482907295227,0.11667517572641373
1772698685554805800,19.8118056640625,0.08307760953903198,1.0216712951660156,0.32070401310920715
1772698685572152600,19.829152587890626,0.26939135789871216,0.8469640016555786,0.2406807243824005
1772698685589499400,19.84649951171875,0.2883281707763672,0.5971203446388245,-0.053145237267017365
1772698685606846500,19.863846435546876,0.014660755172371864,0.3484983444213867,-0.2467893660068512
1772698685624193300,19.881193359375,-0.1899789422750473,0.19639302790164948,-0.29138249158859253
1772698685641540000,19.8985400390625,-0.16065743565559387,0.23732095956802368,-0.32559093832969666
1772698685658887000,19.915886962890625,0.08124501258134842,0.48105600476264954,-0.22724169492721558
1772698685676233700,19.933233642578124,0.3439168632030487,0.5708531141281128,-0.1282816082239151
1772698685693580500,19.95058056640625,0.49541133642196655,0.6881392002105713,-0.0030543238390237093
1772698685710927400,19.96792724609375,0.5009090900421143,0.8561269640922546,0.25411975383758545
1772698685728274400,19.9852744140625,0.4526508152484894,0.6759218573570251,0.5705476999282837
1772698685745621200,20.002621337890623,0.6200277805328369,0.36621344089508057,0.8552106618881226
1772698685762968000,20.019968017578126,1.1618647575378418,0.13469567894935608,1.1588104963302612
1772698685780315000,20.03731494140625,1.3286309242248535,-0.13164135813713074,1.6621630191802979
1772698685797661700,20.05466162109375,0.6914989352226257,-0.21471896767616272,2.008523464202881
1772698685815008500,20.072008544921875,-0.000610864779446274,-0.47983428835868835,1.8374812602996826
1772698685832355600,20.08935546875,-0.4373791813850403,-0.5048797130584717,1.4129302501678467
1772698685849702400,20.106702392578125,-0.7318159937858582,-0.129197895526886,0.9584468603134155
1772698685867049200,20.12404931640625,-0.943786084651947,0.19333870708942413,0.7800742983818054
1772698685884396000,20.14139599609375,-1.071456789970398,0.4657844007015228,0.80389803647995
1772698685901742800,20.158742919921874,-1.0238093137741089,0.8213077187538147,0.7440332770347595
1772698685919089700,20.176089599609377,-0.8307760953903198,0.5335903763771057,0.6579013466835022
1772698685936436700,20.193436767578124,-0.6701186895370483,0.04734202101826668,0.5290089249610901
1772698685953783600,20.210783447265626,-0.6823359727859497,-0.3228420317173004,0.5094612240791321
1772698685971130400,20.22813037109375,-0.6725621223449707,-0.581848680973053,0.46547895669937134
1772698685988477200,20.245477294921876,-0.5919279456138611,-0.5946768522262573,0.2657261788845062
1772698686005824000,20.262823974609375,-0.4728093445301056,-0.4676169753074646,0.01282816007733345
1772698686023171000,20.280171142578126,-0.43310311436653137,-0.22204934060573578,-0.14538581669330597
1772698686040518000,20.297517822265625,-0.31642794609069824,0.06017018109560013,-0.25473061203956604
1772698686057864700,20.31486474609375,-0.1233946830034256,0.1945604383945465,-0.3897317349910736
1772698686075211500,20.33221142578125,0.07635809481143951,0.13103049993515015,-0.5021308660507202
1772698686092558300,20.349558349609374,0.26939135789871216,-0.000305432389723137,-0.5485565662384033
1772698686109905400,20.366905517578125,0.42394015192985535,-0.05589412897825241,-0.5662716627120972
1772698686127252200,20.384252197265624,0.5393936038017273,0.018631376326084137,-0.6352993845939636
1772698686144599000,20.40159912109375,0.565049946308136,0.19272783398628235,-0.7409789562225342
1772698686161945900,20.41894580078125,0.4679224193096161,0.425467312335968,-0.7538071274757385
1772698686179292700,20.436292724609373,0.30115634202957153,0.47494736313819885,-0.44959646463394165
1772698686196639700,20.4536396484375,0.1380554437637329,0.31184646487236023,-0.1533270627260208
1772698686213986600,20.470986572265623,0.11117739230394363,0.17745621502399445,0.036651886999607086
1772698686231333400,20.48833349609375,0.20341797173023224,-0.048563748598098755,0.18631376326084137
1772698686248680200,20.50568017578125,0.23762640357017517,-0.4205803871154785,0.22846342623233795
1772698686266027000,20.523027099609376,0.14538581669330597,-0.8555161356925964,0.25900667905807495
1772698686283373800,20.540373779296875,0.03481929376721382,-0.9544762372970581,-0.20341797173023224
1772698686300720600,20.557720703125,-0.0256563201546669,-1.0204496383666992,-0.7788525819778442
1772698686318067700,20.575067626953125,-0.22479823231697083,-0.09682206809520721,-0.8112284541130066
1772698686335414500,20.59241455078125,-0.5235111117362976,-0.19150610268115997,-0.5827649831771851
1772698686352761300,20.60976123046875,-0.7470875978469849,-0.41263917088508606,-0.5888736248016357
1772698686370108200,20.627108154296874,-1.359174132347107,-0.1744018942117691,-0.767857015132904
1772698686387455000,20.644455078125,-1.5748094320297241,0.13469567894935608,-0.7916807532310486
1772698686404802000,20.661802001953124,-1.2528836727142334,-0.26480987668037415,-1.0079269409179688
1772698686422148900,20.67914892578125,-0.5229002237319946,-0.6417134404182434,-1.2632683515548706
1772698686439495700,20.69649560546875,0.33597561717033386,-0.4828886091709137,-0.8552106618881226
1772698686456842500,20.713842529296876,0.5204567909240723,0.2721402645111084,-0.389120876789093
1772698686474189300,20.731189208984375,0.5027416944503784,1.0491602420806885,-0.5772672295570374
1772698686491536400,20.748536376953126,0.318871408700943,1.2910627126693726,-0.6835576891899109
1772698686508883200,20.76588330078125,-0.0720820426940918,1.1798852682113647,-0.4874700903892517
1772698686526230000,20.78322998046875,-0.2419024556875229,1.3564252853393555,-0.4477638900279999
1772698686543576800,20.800576904296875,-0.21502439677715302,1.612377643585205,-0.5180133581161499
1772698686560923600,20.817923583984374,0.04153880476951599,1.814573884010315,-0.544891357421875
1772698686578270700,20.835270751953125,0.2864955961704254,1.6490294933319092,-0.32620179653167725
1772698686595617500,20.852617431640624,0.40744680166244507,1.3625339269638062,0.006719512399286032
1772698686621637600,20.8786376953125,0.3591884970664978,1.3839141130447388,0.18081597983837128
1772698686638984700,20.895984619140624,0.2626718580722809,1.6881247758865356,-0.007330377586185932
1772698686656331500,20.91333154296875,0.04214967042207718,1.7797545194625854,-0.16004657745361328
1772698686673678300,20.93067822265625,-0.2370155304670334,1.377805471420288,-0.22357651591300964
1772698686691025200,20.948025146484376,-0.42821621894836426,0.906828761100769,-0.3176496922969818
1772698686708372000,20.9653720703125,-0.48563748598098755,0.6569850444793701,-0.3170388340950012
1772698686725719000,20.982718994140626,-0.3756818473339081,0.5360338687896729,-0.19303326308727264
1772698686743065900,21.00006591796875,-0.06841685622930527,0.467006117105484,-0.06414080411195755
1772698686760412700,21.01741259765625,0.21197007596492767,0.6130027770996094,0.0922405794262886
1772698686777759500,21.034759521484375,0.28405213356018066,0.7907644510269165,0.3445277214050293
1772698686795106300,21.052106201171874,0.3121519088745117,0.6679806113243103,0.5864301919937134
1772698686812453000,21.069453125,0.26878049969673157,0.21166464686393738,0.44409868121147156
1772698686829800200,21.08680029296875,0.040317077189683914,-0.06017018109560013,-0.07269290834665298
1772698686847147000,21.10414697265625,-0.2260199636220932,-0.11209368705749512,-0.5290089249610901
1772698686864493800,21.121493896484374,-0.28588470816612244,0.0668896958231926,-0.5442805290222168
1772698686881840600,21.138840576171877,-0.12705987691879272,0.11087195575237274,-0.21746785938739777
1772698686899187500,21.1561875,0.08918625861406326,0.1945604383945465,0.04825831577181816
1772698686916534300,21.1735341796875,0.3341430425643921,0.1591302752494812,0.12705987691879272
1772698686933881300,21.19088134765625,0.6017017960548401,0.1432477980852127,0.10079269111156464
1772698686951228200,21.208228271484376,0.7800742983818054,0.057726722210645676,-0.012217295356094837
1772698686968575000,21.225574951171875,0.9498947262763977,-0.28008151054382324,-0.20708316564559937
1772698686985921800,21.242921875,1.2052361965179443,-0.5170970559120178,-0.23212862014770508
1772698687003268600,21.2602685546875,1.3060288429260254,-0.3387245237827301,0.2987128794193268
1772698687020615700,21.27761572265625,1.008537769317627,-0.14080433547496796,1.1557561159133911
1772698687037962500,21.29496240234375,0.40255987644195557,-0.08582650125026703,1.9914191961288452
1772698687055309300,21.312309326171874,-0.01282816007733345,-0.4718930423259735,2.1282529830932617
1772698687072656100,21.32965625,-0.1288924664258957,-1.1713331937789917,1.4953969717025757
1772698687090003000,21.3470029296875,0.02626718580722809,-1.407127022743225,0.7464767694473267
1772698687107349800,21.364349853515623,0.31093016266822815,-1.237917423248291,0.5729911923408508
1772698687124696800,21.38169677734375,0.034208428114652634,-0.7999274134635925,0.9456186890602112
1772698687142043600,21.399043701171873,-0.5962040424346924,-0.12492185086011887,1.0378592014312744
1772698687159390500,21.416390380859376,-0.8747583627700806,-0.051618073135614395,0.8478803038597107
1772698687176737300,21.4337373046875,-0.7422007322311401,-0.6863065958023071,0.6120865345001221
1772698687194084000,21.451083984375,-0.47036588191986084,-0.9135482907295227,0.38179048895835876
1772698687211431200,21.46843115234375,-0.39828383922576904,-0.7980948090553284,0.28405213356018066
1772698687228778000,21.485778076171876,-0.36835145950317383,-0.8506292104721069,0.3646862804889679
1772698687246124800,21.503124755859375,-0.2565632164478302,-1.0344995260238647,0.4679224193096161
1772698687263471600,21.5204716796875,-0.10323614627122879,-1.1921026706695557,0.4098902642726898
