time,seconds_elapsed,z,y,x
1772698665827925800,0.08492578125,5.065605640411377,6.908079147338867,2.012363910675049
1772698665845268700,0.102268798828125,2.550748825073242,2.3569302558898926,1.0600204467773438
1772698665862615600,0.119615478515625,-0.004785645287483931,3.730410575866699,1.31365966796875
1772698665879962000,0.136962158203125,1.1629117727279663,6.029912948608398,-0.9547362327575684
1772698665897309000,0.154308837890625,1.1772687435150146,1.954936146736145,-1.0719845294952393
1772698665914655700,0.17165576171875,3.706482172012329,0.550349235534668,-1.3471591472625732
1772698665932002300,0.189002197265625,4.814359188079834,-1.0456634759902954,0.24167509377002716
1772698665949349000,0.20634912109375,3.5844483375549316,-2.550748825073242,1.7252250909805298
1772698665966696000,0.223696044921875,2.5363919734954834,-3.9672999382019043,1.9214365482330322
1772698665984042800,0.241042724609375,-0.5407779216766357,-7.037291526794434,1.8041882514953613
1772698666001389300,0.258389404296875,-3.3619158267974854,-10.066604614257812,1.8185452222824097
1772698666018736000,0.275736083984375,-3.6538400650024414,-13.182060241699219,2.256431818008423
1772698666036083000,0.2930830078125,-1.6534404754638672,-16.01276969909668,3.82373046875
1772698666053429500,0.310429443359375,1.2562319040298462,-18.518054962158203,6.058627128601074
1772698666070776300,0.3277763671875,3.050848960876465,-20.556739807128906,8.135597229003906
1772698666088123100,0.345123046875,5.048855781555176,-21.671794891357422,9.418149948120117
1772698666105470000,0.362469970703125,7.692924976348877,-22.485353469848633,9.757930755615234
1772698666122816500,0.37981640625,10.928021430969238,-23.215166091918945,8.762516975402832
1772698666140163300,0.397163330078125,14.009976387023926,-24.107688903808594,8.470592498779297
1772698666157510100,0.41451025390625,16.400405883789062,-24.38764762878418,9.128618240356445
1772698666174856700,0.431856689453125,18.76930046081543,-23.650659561157227,10.171889305114746
1772698666192203500,0.44920361328125,19.357934951782227,-23.129024505615234,11.49512004852295
1772698666209550300,0.46655029296875,19.13300895690918,-21.20758628845215,11.344371795654297
1772698666226897000,0.48389697265625,17.29292869567871,-18.905691146850586,11.545369148254395
1772698666244243700,0.50124365234375,16.180267333984375,-16.139589309692383,12.007184028625488
1772698666261590500,0.518590576171875,12.373286247253418,-12.827921867370605,14.120046615600586
1772698666278937300,0.535937255859375,8.908478736877441,-9.882357597351074,16.72822380065918
1772698666296284000,0.553283935546875,8.094919204711914,-8.291130065917969,16.04148292541504
1772698666313630700,0.570630615234375,7.183253765106201,-8.075776100158691,13.938192367553711
1772698666330977500,0.5879775390625,7.6737823486328125,-8.34138011932373,10.643275260925293
1772698666348324000,0.605323974609375,4.534399032592773,-7.448856830596924,10.593026161193848
1772698666365671000,0.6226708984375,-10.052248001098633,-10.518848419189453,5.936593055725098
1772698666383017700,0.640017822265625,-5.010570526123047,-4.00319242477417,0.2512463629245758
1772698666400364500,0.657364501953125,4.067798614501953,-7.542177200317383,0.8422735929489136
1772698666417711000,0.674711181640625,-3.2446675300598145,-7.582854747772217,-6.616154670715332
1772698666435058000,0.692057861328125,-2.495713949203491,-9.422935485839844,-3.6634113788604736
1772698666452404700,0.70940478515625,2.9790642261505127,-10.882556915283203,-1.7563318014144897
1772698666469751600,0.72675146484375,4.749752998352051,-10.430314064025879,3.483949661254883
1772698666487098000,0.74409814453125,4.328616142272949,-10.13599681854248,6.417550563812256
1772698666504445000,0.76144482421875,7.10429048538208,-9.05444049835205,7.250252723693848
1772698666521791700,0.778791748046875,7.288537979125977,-9.17886734008789,1.7132610082626343
1772698666539138600,0.796138671875,5.175675392150879,-8.166703224182129,-2.2995026111602783
1772698666556485000,0.813485107421875,4.900500774383545,-7.3914289474487305,-8.85344409942627
1772698666573832000,0.83083203125,1.459621787071228,-7.0755767822265625,-15.567704200744629
1772698666591178800,0.8481787109375,1.521835207939148,-5.85284423828125,-11.303693771362305
1772698666608525300,0.865525390625,1.038485050201416,-4.744967460632324,-3.651447296142578
1772698666625872100,0.8828720703125,0.7226324677467346,-4.187439441680908,-1.4069796800613403
1772698666643219000,0.900218994140625,2.2995026111602783,-7.520641803741455,-1.184447169303894
1772698666660565800,0.917565673828125,3.5270206928253174,-9.836894035339355,-2.5842485427856445
1772698666677912300,0.934912353515625,5.793023586273193,-12.138789176940918,-1.5696916580200195
1772698666695259100,0.952259033203125,3.036491870880127,-10.942378044128418,-0.41874396800994873
1772698666712606000,0.96960595703125,0.6699903607368469,-9.623932838439941,2.2923240661621094
1772698666729952500,0.986952392578125,2.069791555404663,-7.262216567993164,6.415157318115234
1772698666747299300,1.00429931640625,2.9168508052825928,-6.446264266967773,6.027520179748535
1772698666764646100,1.021646240234375,5.553741455078125,-6.135197162628174,3.7423746585845947
1772698666781993000,1.038992919921875,5.563312530517578,-8.504091262817383,5.230710506439209
1772698666799339500,1.056339599609375,6.197410583496094,-13.191631317138672,0.9236295223236084
1772698666816686300,1.073686279296875,4.146761417388916,-16.137195587158203,-2.258824586868286
1772698666834033200,1.091033203125,2.7637102603912354,-14.584254264831543,-0.13160525262355804
1772698666851380000,1.1083798828125,3.34995174407959,-18.221343994140625,-0.380458801984787
1772698666868726500,1.1257265625,5.816951751708984,-13.722837448120117,3.0963125228881836
1772698666886073300,1.1430732421875,6.501298904418945,-3.436093330383301,4.005585193634033
1772698666903420200,1.160420166015625,-1.0600204467773438,-10.657631874084473,0.9020941257476807
1772698666920767000,1.17776708984375,5.151747226715088,-14.718252182006836,-4.0319061279296875
1772698666938113500,1.195113525390625,0.8327022790908813,-10.86580753326416,-1.2203395366668701
1772698666955460400,1.21246044921875,-0.14117653667926788,-18.91765594482422,2.7828526496887207
1772698666972807200,1.22980712890625,0.5982056856155396,-20.173887252807617,-3.6945180892944336
1772698666990153700,1.24715380859375,-4.536791801452637,-15.103496551513672,-1.2035897970199585
1772698667007500500,1.26450048828125,-2.557927370071411,-12.547962188720703,1.588834285736084
1772698667024847400,1.281847412109375,-1.703689694404602,-10.387243270874023,-0.8949156403541565
1772698667042194000,1.29919384765625,-1.3280165195465088,-6.967899322509766,-1.8759729862213135
1772698667059540700,1.316540771484375,0.26081767678260803,-9.360722541809082,-0.641276478767395
1772698667076887600,1.333887451171875,0.6675975322723389,-8.336593627929688,-1.069591760635376
1772698667094234400,1.351234375,-0.2991028428077698,-7.381857872009277,-2.196611166000366
1772698667111581000,1.368580810546875,-1.1222338676452637,-7.286144733428955,-2.909672260284424
1772698667128927700,1.385927734375,-1.124626636505127,-7.657032489776611,-3.091526746749878
1772698667146274600,1.403274658203125,-0.8925228714942932,-7.664210796356201,-3.3236305713653564
1772698667163621400,1.420621337890625,-0.4833501875400543,-7.523034572601318,-3.675375461578369
1772698667180968000,1.437968017578125,0.04307080805301666,-7.458428382873535,-3.342773199081421
1772698667198314800,1.455314697265625,0.3565305769443512,-7.616354465484619,-2.6057839393615723
1772698667215661600,1.47266162109375,0.5455635786056519,-8.178668022155762,-1.8711873292922974
1772698667233008400,1.49000830078125,0.397208571434021,-8.652446746826172,-1.1892328262329102
1772698667250355000,1.50735498046875,0.9834501147270203,-9.21715259552002,0.3206382393836975
1772698667267701800,1.52470166015625,1.2538390159606934,-9.643074989318848,1.6845471858978271
1772698667285048600,1.542048583984375,1.5314065217971802,-9.516255378723145,2.8737800121307373
1772698667302395100,1.55939501953125,0.7417750358581543,-9.004191398620605,3.115455150604248
1772698667319742000,1.576741943359375,0.2799602448940277,-9.09272575378418,3.345165967941284
1772698667337088800,1.5940888671875,0.6197410821914673,-9.379864692687988,2.6392834186553955
1772698667354435600,1.611435546875,1.34476637840271,-9.81535816192627,1.7635103464126587
1772698667371782100,1.6287822265625,1.155733346939087,-10.41356372833252,0.48813581466674805
1772698667389129000,1.64612890625,2.6392834186553955,-9.944570541381836,-0.21296121180057526
1772698667406475800,1.663475830078125,5.558526992797852,-7.271788120269775,-0.5168496966362
1772698667423822300,1.680822265625,4.553541660308838,-4.043870449066162,-1.4165509939193726
1772698667441169200,1.698169189453125,2.069791555404663,-4.390829563140869,-2.1607189178466797
1772698667458516000,1.715515869140625,0.641276478767395,-9.860821723937988,-1.7228323221206665
1772698667475862800,1.73286279296875,2.991028308868408,-15.64666748046875,-0.9978070259094238
1772698667493209300,1.750209228515625,4.326223373413086,-17.010576248168945,2.108076810836792
1772698667510556200,1.76755615234375,1.6941183805465698,-14.778072357177734,3.838087558746338
1772698667527903000,1.784903076171875,1.5720844268798828,-12.658031463623047,3.8811583518981934
1772698667545249800,1.802249755859375,1.495514154434204,-9.820143699645996,3.768695592880249
1772698667562596400,1.819596435546875,-0.4211367964744568,-8.429914474487305,2.5674986839294434
1772698667579943200,1.836943115234375,-1.6247265338897705,-8.319844245910645,-0.7369893789291382
1772698667597290000,1.8542900390625,-1.9884356260299683,-8.154739379882812,-3.6921253204345703
1772698667614636500,1.871636474609375,-2.1415762901306152,-8.57348346710205,-5.553741455078125
1772698667631983400,1.8889833984375,-3.366701364517212,-9.714859962463379,-6.628118515014648
1772698667649330200,1.906330078125,-2.0650060176849365,-10.691131591796875,-6.8410797119140625
1772698667666677000,1.923677001953125,-3.0077781677246094,-12.75613784790039,-4.895715236663818
1772698667684023800,1.94102392578125,-1.3208380937576294,-15.464812278747559,-2.864208698272705
1772698667701370400,1.958370361328125,-0.30149564146995544,-17.228322982788086,0.11006984114646912
1772698667718717200,1.97571728515625,-1.4452649354934692,-15.991233825683594,5.158925533294678
1772698667736064000,1.99306396484375,-3.864408493041992,-11.791830062866211,7.688138961791992
1772698667753410600,2.01041064453125,-4.254438877105713,-8.475378036499023,5.953342914581299
1772698667770757400,2.02775732421875,-0.1459621787071228,-6.305087566375732,2.806781053543091
1772698667788104200,2.045104248046875,2.6608188152313232,-5.240281581878662,0.46420758962631226
1772698667805451000,2.062450927734375,4.3310089111328125,-5.120640277862549,-0.7800601720809937
1772698667822797600,2.079797607421875,3.342773199081421,-7.439285755157471,-1.4069796800613403
1772698667840144400,2.097144287109375,2.1296122074127197,-8.635697364807129,-0.04546362906694412
1772698667857491200,2.1144912109375,1.8041882514953613,-8.755337715148926,1.3184453248977661
1772698667874838000,2.131838134765625,1.1485549211502075,-8.62612533569336,2.0865414142608643
1772698667892184600,2.1491845703125,1.1437692642211914,-8.188239097595215,2.5387847423553467
1772698667909531400,2.166531494140625,2.4191436767578125,-7.020541667938232,2.3880369663238525
1772698667926878200,2.183878173828125,3.1657042503356934,-5.711667537689209,2.3497519493103027
1772698667944225000,2.20122509765625,3.4025938510894775,-4.5822553634643555,2.6321048736572266
1772698667961571600,2.218571533203125,3.964907169342041,-3.13220477104187,2.4837498664855957
1772698667978918400,2.23591845703125,3.957728624343872,-3.0891339778900146,1.6845471858978271
1772698667996265200,2.25326513671875,3.3882367610931396,-6.168696880340576,1.6175481081008911
1772698668013612000,2.270612060546875,3.7328033447265625,-10.248459815979004,1.1365907192230225
1772698668030958800,2.287958740234375,5.367101192474365,-14.766108512878418,0.7776673436164856
1772698668048305400,2.305305419921875,5.85284423828125,-17.92463493347168,1.2083754539489746
1772698668065652200,2.32265234375,5.350351333618164,-16.79522132873535,1.9621145725250244
1772698668082999000,2.3399990234375,0.4977070987224579,-22.98784637451172,-0.6628118753433228
1772698668100345600,2.357345703125,-0.6652047038078308,-20.578275680541992,-4.1491546630859375
1772698668117692400,2.3746923828125,-1.0887342691421509,-17.364713668823242,-7.824530124664307
1772698668135039200,2.392039306640625,-0.5718846321105957,-13.325629234313965,-3.0245277881622314
1772698668152386000,2.409385986328125,-4.137190341949463,-9.396614074707031,3.211168050765991
1772698668169732900,2.42673291015625,-3.531806230545044,-6.920042991638184,2.8977081775665283
1772698668187079400,2.444079345703125,-2.9958138465881348,-9.389435768127441,3.383451223373413
1772698668204426200,2.46142626953125,-1.8424733877182007,-12.083754539489746,4.596612453460693
1772698668221773000,2.47877294921875,-1.153340458869934,-11.085947036743164,2.7182464599609375
1772698668239120000,2.496119873046875,-0.16271193325519562,-9.719645500183105,-0.39960137009620667
1772698668256466400,2.513466552734375,0.46899324655532837,-8.755337715148926,-3.014956474304199
1772698668273813200,2.530813232421875,1.6654045581817627,-7.427321434020996,-5.103890895843506
1772698668291160000,2.54816015625,1.5409778356552124,-6.367300987243652,-5.01296329498291
1772698668308507000,2.5655068359375,0.4498506486415863,-5.44845724105835,-4.232903480529785
1772698668325853700,2.582853759765625,-0.4713860750198364,-4.515256404876709,-3.0939197540283203
1772698668343200300,2.6002001953125,-0.5647061467170715,-5.113461971282959,-2.0482561588287354
1772698668360547000,2.617547119140625,0.882951557636261,-6.654439926147461,-0.27756741642951965
1772698668377894000,2.634893798828125,1.368694543838501,-7.946564197540283,0.4905286431312561
1772698668395240700,2.65224072265625,0.7824530005455017,-9.339186668395996,0.8255237936973572
1772698668412587300,2.669587158203125,0.05024927482008934,-10.059426307678223,1.1198409795761108
1772698668429934000,2.68693408203125,0.4498506486415863,-9.707681655883789,1.6319050788879395
1772698668447281000,2.704281005859375,0.8231309652328491,-8.8438720703125,1.9262222051620483
1772698668464627700,2.721627685546875,0.727418065071106,-8.353343963623047,2.376072883605957
1772698668481974300,2.738974365234375,0.275174617767334,-8.417949676513672,2.9144580364227295
1772698668499321000,2.756321044921875,0.8949156403541565,-8.769695281982422,2.854637384414673
1772698668516668000,2.77366796875,1.9597218036651611,-8.987442016601562,1.526620864868164
1772698668534014700,2.7910146484375,3.146561861038208,-9.059226989746094,-0.062213387340307236
1772698668551361300,2.808361328125,3.3571300506591797,-8.439485549926758,-0.4977070987224579
1772698668568708000,2.8257080078125,2.9790642261505127,-6.5419769287109375,-0.7322037220001221
1772698668586055000,2.843054931640625,0.9643075466156006,-5.675775527954102,-0.35413774847984314
1772698668603401700,2.860401611328125,-0.7489534616470337,-8.23848819732666,0.29431718587875366
1772698668620748500,2.87774853515625,0.059820566326379776,-12.452248573303223,0.7585247755050659
1772698668638095000,2.89509521484375,3.0891339778900146,-15.52224063873291,2.746960401535034
1772698668655442000,2.91244189453125,2.431107759475708,-14.95274829864502,5.278566837310791
1772698668672788700,2.929788818359375,0.1698904037475586,-12.844672203063965,6.072983741760254
1772698668690135300,2.94713525390625,-0.8901300430297852,-9.970891952514648,3.806980848312378
1772698668707482000,2.964482177734375,-2.4717857837677,-9.41336441040039,1.911865234375
1772698668724829000,2.981828857421875,-2.414358139038086,-10.006784439086914,-1.581655740737915
1772698668742175700,2.99917578125,-2.3258235454559326,-10.439885139465332,-4.278367042541504
1772698668759522600,3.0165224609375,-2.3712873458862305,-11.779866218566895,-5.594419479370117
1772698668776869000,3.033869140625,-2.4358935356140137,-13.404592514038086,-7.70967435836792
1772698668794216000,3.0512158203125,-0.7106683254241943,-15.151352882385254,-9.41336441040039
1772698668811562800,3.068562744140625,-0.7130611538887024,-14.196617126464844,-6.728617191314697
1772698668828909600,3.08590966796875,-0.9188438653945923,-13.332807540893555,-2.5196423530578613
1772698668846256000,3.103256103515625,-2.342573404312134,-13.146167755126953,2.3641088008880615
1772698668863603000,3.12060302734375,-3.029313564300537,-11.71286678314209,5.874379634857178
1772698668880949800,3.13794970703125,-2.974278450012207,-9.21715259552002,6.271588325500488
1772698668898296600,3.155296630859375,-1.0193424224853516,-6.534798622131348,4.587040901184082
1772698668915643100,3.17264306640625,0.6580262184143066,-4.821537494659424,2.60339093208313
1772698668932990000,3.189989990234375,1.9884356260299683,-4.642076015472412,0.8422735929489136
1772698668950336800,3.207336669921875,3.0077781677246094,-5.438885688781738,-0.14835500717163086
1772698668967683600,3.22468359375,2.7349963188171387,-6.106483459472656,0.19621145725250244
1772698668985030400,3.242030517578125,1.4213366508483887,-6.393621921539307,0.42831525206565857
1772698669002377000,3.259376953125,0.6795616149902344,-7.0923261642456055,0.4378865361213684
1772698669019723800,3.276723876953125,0.7561319470405579,-7.719245910644531,0.5886343717575073
1772698669037070600,3.294070556640625,1.6007983684539795,-8.09970474243164,0.7537391185760498
1772698669054417400,3.31141748046875,2.455035924911499,-7.805387496948242,0.9427721500396729
1772698669071764200,3.32876416015625,2.691925525665283,-6.546762943267822,0.9619147181510925
1772698669089111000,3.346111083984375,2.737389087677002,-6.214160442352295,1.5074782371520996
1772698669106457600,3.36345751953125,3.0580272674560547,-6.080162525177002,2.0027925968170166
1772698669123804400,3.380804443359375,3.2757742404937744,-6.8243303298950195,2.342573404312134
1772698669141151200,3.398151123046875,3.383451223373413,-9.147761344909668,3.2159535884857178
1772698669158498000,3.415498046875,3.2470602989196777,-12.617353439331055,4.144368648529053
1772698669175844600,3.4328447265625,3.4743785858154297,-15.713665962219238,3.641875982284546
1772698669193191400,3.45019140625,4.1730828285217285,-16.632511138916016,2.541177749633789
1772698669210538200,3.467538330078125,3.436093330383301,-13.674981117248535,2.5292134284973145
1772698669227885000,3.484885009765625,4.0079779624938965,-16.091732025146484,2.1774685382843018
1772698669245231900,3.50223193359375,0.04785645380616188,-20.657238006591797,-0.5982056856155396
1772698669262578400,3.519578369140625,-3.6993038654327393,-19.434505462646484,-5.565705299377441
1772698669279925200,3.53692529296875,-1.2083754539489746,-14.443077087402344,-5.78345251083374
1772698669297272000,3.55427197265625,-0.9762716293334961,-9.516255378723145,-3.187239646911621
1772698669314619000,3.571618896484375,-1.2538390159606934,-6.953542709350586,1.8065811395645142
1772698669331965700,3.588965576171875,-1.698904037475586,-4.9052863121032715,3.620340585708618
1772698669349312300,3.606312255859375,-0.882951557636261,-7.144968509674072,4.555934429168701
1772698669366659000,3.6236591796875,-0.8470591902732849,-9.657432556152344,3.964907169342041
1772698669384006000,3.641005859375,-0.21774685382843018,-10.238887786865234,0.9547362327575684
1772698669401352700,3.658352783203125,-0.33738797903060913,-10.899307250976562,-1.8783657550811768
1772698669418699500,3.675699462890625,0.39481574296951294,-10.73420238494873,-3.7782669067382812
1772698669436046000,3.693046142578125,1.6821542978286743,-8.654839515686035,-3.5844483375549316
1772698669453393000,3.710392822265625,0.7585247755050659,-7.015756130218506,-1.828116536140442
1772698669470739700,3.72773974609375,-0.32542386651039124,-6.38165807723999,-1.2059825658798218
1772698669488086500,3.74508642578125,-1.057627558708191,-6.367300987243652,-1.6701902151107788
1772698669505433300,3.762433349609375,-0.8015955686569214,-7.597211837768555,-1.765903115272522
1772698669522780200,3.7797802734375,-0.27756741642951965,-8.71226692199707,-1.34476637840271
1772698669540126700,3.797126708984375,0.21296121180057526,-9.616754531860352,-0.07657032459974289
1772698669557473500,3.8144736328125,0.5335994362831116,-10.358529090881348,0.882951557636261
1772698669574820400,3.8318203125,0.97148597240448,-9.53779125213623,1.1820544004440308
1772698669592167200,3.849167236328125,1.0145567655563354,-8.63330364227295,1.6175481081008911
1772698669609513700,3.866513671875,0.4259224236011505,-8.147561073303223,1.947757601737976
1772698669626860500,3.883860595703125,0.9571290612220764,-8.204988479614258,1.4572290182113647
1772698669644207400,3.901207275390625,2.7254250049591064,-8.221738815307617,0.576670229434967
1772698669661554200,3.91855419921875,3.359523057937622,-8.056633949279785,-0.11246266216039658
1772698669678901000,3.93590087890625,2.4813570976257324,-7.740781307220459,-0.07178468257188797
1772698669696247600,3.95324755859375,2.306680917739868,-7.750352382659912,0.914058268070221
1772698669713594400,3.970594482421875,2.56510591506958,-7.814958572387695,1.552941918373108
1772698669730941200,3.987941162109375,1.1102696657180786,-8.94676399230957,2.431107759475708
1772698669748288000,4.0052880859375,2.1583259105682373,-12.399606704711914,2.912065267562866
1772698669765634800,4.022634765625,5.048855781555176,-15.694523811340332,3.4097721576690674
1772698669782981400,4.0399814453125,5.1876397132873535,-14.409578323364258,4.299902439117432
1772698669800328200,4.057328125,1.825723648071289,-9.293723106384277,4.1970109939575195
1772698669817675000,4.074675048828125,-0.9834501147270203,-7.317251682281494,3.6466617584228516
1772698669835021800,4.092021728515625,-0.8805587291717529,-7.17368221282959,2.170290231704712
1772698669852368600,4.10936865234375,-1.490728497505188,-7.010970115661621,1.5649060010910034
1772698669869715200,4.126715087890625,-1.9645073413848877,-6.872186660766602,-0.0023928226437419653
1772698669887062000,4.14406201171875,-2.3617160320281982,-7.568498134613037,-1.6103696823120117
1772698669904408800,4.161408935546875,-1.2945170402526855,-9.267401695251465,-4.972285270690918
1772698669921755600,4.178755615234375,-1.7180466651916504,-12.339786529541016,-7.056434154510498
1772698669939102500,4.1961025390625,-2.3569302558898926,-17.568103790283203,-7.255038261413574
1772698669956449000,4.213448974609375,-1.6510475873947144,-21.588045120239258,-7.683353424072266
1772698669973795800,4.2307958984375,-2.7804598808288574,-20.059032440185547,-2.7828526496887207
1772698669991142700,4.248142578125,-3.397808074951172,-15.560525894165039,3.5030922889709473
1772698670008489500,4.265489501953125,-3.266202926635742,-11.672188758850098,7.7455668449401855
1772698670025836300,4.282836181640625,-2.2133610248565674,-7.420143127441406,8.537590980529785
1772698670043182800,4.300182861328125,1.222732424736023,-4.060619831085205,6.728617191314697
1772698670060529700,4.31752978515625,3.7902309894561768,-2.6775684356689453,2.455035924911499
1772698670077876500,4.33487646484375,3.88594388961792,-3.2063822746276855,-0.760917603969574
1772698670095223300,4.352223388671875,2.1439690589904785,-6.027520179748535,-0.6963114142417908
1772698670112570000,4.369570068359375,0.12681959569454193,-8.01356315612793,0.397208571434021
1772698670129917000,4.3869169921875,-0.5312066078186035,-10.518848419189453,0.6699903607368469
1772698670147263500,4.404263427734375,0.2560320198535919,-12.315857887268066,0.36610186100006104
1772698670164610300,4.4216103515625,1.5433706045150757,-11.397014617919922,-0.363709032535553
1772698670181957000,4.43895703125,2.344966173171997,-8.34138011932373,-0.8279166221618652
1772698670199304000,4.456303955078125,2.9240293502807617,-6.1399827003479,-1.8065811395645142
1772698670216650800,4.473650634765625,3.0317063331604004,-5.4867424964904785,-2.196611166000366
1772698670233997600,4.49099755859375,2.799602508544922,-5.682953834533691,-1.4189438819885254
1772698670251344100,4.50834423828125,2.5842485427856445,-5.876772403717041,-0.10767702013254166
1772698670268691000,4.52569091796875,2.6297121047973633,-6.38883638381958,1.179661512374878
1772698670286037800,4.543037841796875,2.864208698272705,-7.6737823486328125,2.964707374572754
1772698670303384600,4.560384521484375,2.3186452388763428,-9.30329418182373,5.0464630126953125
1772698670320731400,4.5777314453125,1.9716858863830566,-11.045269012451172,5.496313571929932
1772698670338078000,4.595077880859375,2.6775684356689453,-12.658031463623047,3.414557933807373
1772698670355424800,4.6124248046875,3.730410575866699,-14.579468727111816,1.919043779373169
1772698670372771600,4.629771484375,4.211368083953857,-13.74915885925293,2.0745773315429688
1772698670390118400,4.647118408203125,4.704289436340332,-16.252052307128906,1.1724830865859985
1772698670407465200,4.66446533203125,2.3641088008880615,-20.063817977905273,0.34217363595962524
1772698670424812000,4.68181201171875,-0.9451649188995361,-16.898113250732422,-4.8574299812316895
1772698670442158800,4.699158935546875,-2.4502503871917725,-11.184053421020508,-3.084348440170288
1772698670459505400,4.71650537109375,-1.0480563640594482,-9.32722282409668,-1.667797327041626
1772698670476852200,4.733852294921875,-1.4931213855743408,-13.100704193115234,0.6508477330207825
1772698670494199000,4.751198974609375,-3.5294134616851807,-10.188638687133789,3.462414264678955
1772698670511545900,4.7685458984375,-3.665804386138916,-8.135597229003906,3.8668015003204346
1772698670528892700,4.785892578125,-0.6484549641609192,-7.544569969177246,3.074777126312256
1772698670546239200,4.8032392578125,-0.34695929288864136,-8.695517539978027,2.8737800121307373
1772698670563586000,4.8205859375,-1.1892328262329102,-8.666803359985352,1.0648061037063599
1772698670580932900,4.837932861328125,-1.0887342691421509,-8.659625053405762,-0.9930213689804077
1772698670598279700,4.85527978515625,0.5312066078186035,-8.3629150390625,-3.0867412090301514
1772698670615626500,4.87262646484375,0.727418065071106,-7.8795647621154785,-3.2374889850616455
1772698670632973300,4.889973388671875,-0.32542386651039124,-7.5708909034729,-2.218146562576294
1772698670650320000,4.90731982421875,-0.32303106784820557,-7.735995769500732,-0.9451649188995361
1772698670667666700,4.924666748046875,0.12442677468061447,-7.908278942108154,-0.1746760457754135
1772698670685013500,4.942013427734375,0.33738797903060913,-8.571090698242188,0.21296121180057526
1772698670702360300,4.9593603515625,0.14117653667926788,-9.571290969848633,0.009571290574967861
1772698670719707100,4.97670703125,1.007378339767456,-10.341779708862305,0.28953152894973755
1772698670737054000,4.994053955078125,1.3543375730514526,-10.652846336364746,0.6460621356964111
1772698670754400500,5.011400390625,0.7800601720809937,-9.879964828491211,1.0815558433532715
1772698670771747300,5.028747314453125,0.2105683982372284,-8.870193481445312,1.7826528549194336
1772698670789094100,5.04609423828125,0.3613162338733673,-8.410771369934082,2.63449764251709
1772698670806441000,5.06344091796875,0.7920243144035339,-8.281558990478516,3.4504501819610596
1772698670823787800,5.080787841796875,1.0289137363433838,-8.161917686462402,3.8213376998901367
1772698670841134300,5.09813427734375,1.2969099283218384,-7.814958572387695,3.6921253204345703
1772698670858481200,5.115481201171875,1.5792629718780518,-7.441678524017334,2.895315408706665
1772698670875828000,5.132827880859375,3.311666488647461,-6.738188743591309,0.7704889178276062
1772698670893174800,5.1501748046875,4.041477680206299,-6.297909259796143,-1.2418749332427979
1772698670910521600,5.167521484375,2.493321180343628,-7.133004188537598,-0.1579262912273407
1772698670927868400,5.184868408203125,0.9451649188995361,-9.389435768127441,1.8687944412231445
1772698670945215000,5.202215087890625,0.9068797826766968,-12.023933410644531,2.572284460067749
1772698670962561800,5.219561767578125,2.8594231605529785,-14.663217544555664,3.4121651649475098
1772698670979908600,5.23690869140625,4.199403762817383,-14.711073875427246,4.646861553192139
1772698670997255400,5.25425537109375,1.423729419708252,-11.751152038574219,4.701896667480469
1772698671014602200,5.271602294921875,0.23449662327766418,-9.674181938171387,3.9290146827697754
1772698671031949000,5.288948974609375,0.4713860750198364,-8.085348129272461,2.3018953800201416
1772698671049296000,5.3062958984375,0.2991028428077698,-6.991827964782715,0.19381862878799438
1772698671066642400,5.323642333984375,0.15314064919948578,-6.857829570770264,-2.524427890777588
1772698671083989200,5.3409892578125,-0.9260223507881165,-7.3986077308654785,-5.087141036987305
1772698671101336000,5.358336181640625,-2.043470621109009,-9.456435203552246,-6.31944465637207
1772698671118683000,5.375682861328125,-3.7232320308685303,-13.73480224609375,-6.321837425231934
1772698671136029700,5.39302978515625,-3.562912940979004,-17.888742446899414,-6.1088762283325195
1772698671153376500,5.41037646484375,-3.005385160446167,-19.944177627563477,-4.091726779937744
1772698671170723000,5.42772314453125,-3.218346357345581,-16.792829513549805,1.0336993932724
1772698671188070000,5.44506982421875,-2.6009981632232666,-12.842279434204102,4.627718925476074
1772698671205416700,5.462416748046875,-1.1198409795761108,-10.16710376739502,5.532206058502197
1772698671222763500,5.479763427734375,-0.11246266216039658,-7.8819580078125,4.240081787109375
1772698671240110300,5.4971103515625,1.0265209674835205,-6.50608491897583,2.383251428604126
1772698671257457200,5.51445703125,1.1150553226470947,-6.491727828979492,0.27756741642951965
1772698671274803700,5.5318037109375,1.3663017749786377,-7.307680130004883,-1.2610175609588623
1772698671292150500,5.549150634765625,1.5720844268798828,-8.396414756774902,-1.4763715267181396
1772698671309497300,5.566497314453125,0.7178468108177185,-8.568697929382324,-0.4163511395454407
1772698671326844200,5.58384423828125,0.2273181527853012,-8.666803359985352,0.882951557636261
1772698671344191000,5.60119091796875,0.6029912829399109,-8.554341316223145,1.4380863904953003
1772698671361537800,5.618537841796875,1.3040883541107178,-7.812565803527832,1.4333007335662842
1772698671378884600,5.635884521484375,1.8999011516571045,-7.1856465339660645,1.337587833404541
1772698671396231200,5.653231201171875,2.3545374870300293,-6.764509677886963,0.885344386100769
1772698671413578000,5.670577880859375,2.8283164501190186,-6.8243303298950195,0.5048855543136597
1772698671430924800,5.6879248046875,3.1274192333221436,-7.070790767669678,0.4905286431312561
1772698671448271600,5.705271728515625,2.8522446155548096,-7.125825881958008,0.9595218896865845
1772698671465618400,5.722618408203125,2.311466693878174,-7.338787078857422,1.8041882514953613
1772698671482965200,5.73996533203125,2.4909284114837646,-7.848458290100098,2.3856441974639893
1772698671500312000,5.75731201171875,2.163111686706543,-8.997013092041016,2.462214469909668
1772698671517658600,5.77465869140625,2.4119651317596436,-10.64088249206543,2.2755744457244873
1772698671535005400,5.79200537109375,3.249453067779541,-12.758530616760254,0.6484549641609192
1772698671552352300,5.809352294921875,4.34536600112915,-13.385449409484863,0.11246266216039658
1772698671569699000,5.826698974609375,4.376472473144531,-12.196216583251953,1.3471591472625732
1772698671587046000,5.8440458984375,5.3312087059021,-11.289337158203125,2.778067111968994
1772698671604392700,5.861392822265625,4.560719966888428,-16.725830078125,3.2279176712036133
1772698671621739500,5.878739501953125,1.2346965074539185,-19.434505462646484,3.2350962162017822
1772698671639086000,5.896086181640625,-1.25144624710083,-16.735401153564453,-1.6103696823120117
1772698671656433000,5.913432861328125,-0.7657032608985901,-11.294122695922852,-1.576870083808899
1772698671673779700,5.93077978515625,-1.3854442834854126,-14.392827987670898,-2.383251428604126
1772698671691126500,5.94812646484375,-1.5840486288070679,-13.533804893493652,0.02392822690308094
1772698671708473300,5.965473388671875,-3.3954153060913086,-9.207581520080566,1.9980069398880005
1772698671725820200,5.982820068359375,-2.172683000564575,-5.558526992797852,1.9262222051620483
1772698671743167000,6.0001669921875,0.07178468257188797,-3.893122434616089,2.2372891902923584
1772698671760513500,6.017513427734375,-0.3613162338733673,-6.446264266967773,2.651247501373291
1772698671777860400,6.0348603515625,-1.8616160154342651,-8.384450912475586,0.9834501147270203
1772698671795207200,6.052207275390625,-1.4835500717163086,-10.102497100830078,-1.4979069232940674
1772698671812554000,6.069553955078125,0.22013968229293823,-11.184053421020508,-2.871387243270874
1772698671829900800,6.08690087890625,0.5599204897880554,-9.257830619812012,-3.9768712520599365
1772698671847247600,6.10424755859375,-0.5144568681716919,-7.295716285705566,-2.0745773315429688
1772698671864594400,6.121594482421875,-1.4979069232940674,-5.065605640411377,-1.306481122970581
1772698671881941200,6.138941162109375,-1.277767300605774,-4.07258415222168,-0.7226324677467346
1772698671899288000,6.1562880859375,-0.28235307335853577,-5.850451469421387,-0.46899324655532837
1772698671916634600,6.173634521484375,0.3278166949748993,-8.74337387084961,-1.1102696657180786
1772698671933981400,6.1909814453125,1.1748759746551514,-12.167503356933594,0.009571290574967861
1772698671951328300,6.208328369140625,2.6153552532196045,-14.160724639892578,2.6321048736572266
1772698671968675000,6.225675048828125,2.823530673980713,-12.452248573303223,4.225724697113037
1772698671986022000,6.24302197265625,1.5696916580200195,-8.918049812316895,4.828716278076172
1772698672003368400,6.260368408203125,-0.09092725813388824,-6.106483459472656,4.340580463409424
1772698672020715500,6.277715576171875,-0.5383850932121277,-6.092126369476318,3.957728624343872
1772698672038062000,6.29506201171875,-0.363709032535553,-7.776673793792725,3.610769271850586
1772698672055409000,6.312408935546875,-0.10767702013254166,-9.166903495788574,3.404986619949341
1772698672072755700,6.329755615234375,0.3684946894645691,-9.659825325012207,2.68953275680542
1772698672090102500,6.3471025390625,2.122433662414551,-8.62612533569336,0.8327022790908813
1772698672107449300,6.364449462890625,2.306680917739868,-7.073183536529541,-1.7132610082626343
1772698672124796000,6.3817958984375,0.8255237936973572,-7.2430739402771,-1.9716858863830566
1772698672142142700,6.399142822265625,0.3732803463935852,-8.989834785461426,0.2560320198535919
1772698672159489500,6.416489501953125,0.727418065071106,-11.578868865966797,1.947757601737976
1772698672176836400,6.43383642578125,2.256431818008423,-13.746766090393066,3.1800613403320312
1772698672194183200,6.45118310546875,1.892722725868225,-13.73480224609375,5.1565327644348145
1772698672211530000,6.468530029296875,0.24406790733337402,-11.92343521118164,5.649454116821289
1772698672228876800,6.485876708984375,0.30628129839897156,-9.128618240356445,5.359922885894775
1772698672246223400,6.503223388671875,-0.37088751792907715,-7.101897716522217,3.4169507026672363
1772698672263570200,6.520570068359375,-0.698704183101654,-7.850851058959961,0.7537391185760498
1772698672280917000,6.5379169921875,-0.6771687865257263,-9.645467758178711,-2.557927370071411
1772698672298263800,6.555263916015625,-1.4069796800613403,-11.459227561950684,-5.864808082580566
1772698672315610600,6.572610595703125,-1.3830515146255493,-12.935599327087402,-8.018348693847656
1772698672332957400,6.58995751953125,-2.737389087677002,-13.670195579528809,-8.774480819702148
1772698672350304300,6.60730419921875,-2.7876384258270264,-13.588839530944824,-7.001399040222168
1772698672367651000,6.624651123046875,-2.287538528442383,-12.136396408081055,-3.359523057937622
1772698672384997600,6.64199755859375,-1.3830515146255493,-11.767901420593262,1.3591232299804688
1772698672402344400,6.659344482421875,-0.6125625967979431,-12.342179298400879,6.044270038604736
1772698672419691300,6.676691162109375,-1.25144624710083,-11.57408332824707,7.755138397216797
1772698672437038000,6.6940380859375,-1.6821542978286743,-10.202995300292969,6.147161483764648
1772698672454385000,6.711385009765625,-1.098305583000183,-9.272188186645508,3.2350962162017822
1772698672471731700,6.728731689453125,-0.2584248483181,-8.305487632751465,0.5814558863639832
1772698672489078500,6.74607861328125,1.1676974296569824,-7.506284713745117,-0.6699903607368469
1772698672506425300,6.76342529296875,1.911865234375,-6.455835342407227,-0.7848458290100098
1772698672523772000,6.78077197265625,1.797009825706482,-6.300302028656006,-0.064606212079525
1772698672541118700,6.79811865234375,1.1581261157989502,-7.403393268585205,0.10767702013254166
1772698672558465500,6.815465576171875,1.129412293434143,-7.9657063484191895,0.3278166949748993
1772698672575812400,6.832812255859375,1.0528420209884644,-8.00638484954834,0.4737788736820221
1772698672593159200,6.8501591796875,1.0336993932724,-8.044670104980469,0.4618147611618042
1772698672610506000,6.867506103515625,1.3232308626174927,-8.334200859069824,0.3924229145050049
1772698672627852800,6.884852783203125,1.9764715433120728,-8.650053977966309,0.13160525262355804
1772698672645199600,6.90219970703125,2.5220351219177246,-8.702695846557617,0.02392822690308094
1772698672662546400,6.91954638671875,3.0388846397399902,-8.090133666992188,0.05742774158716202
1772698672679893200,6.936893310546875,2.754138946533203,-7.692924976348877,0.41874396800994873
1772698672697239800,6.95423974609375,3.4432718753814697,-7.853243827819824,1.2035897970199585
1772698672714586600,6.971586669921875,3.407379388809204,-8.142775535583496,1.5433706045150757
1772698672731933400,6.988933349609375,2.6273193359375,-8.774480819702148,2.495713949203491
1772698672749280300,7.0062802734375,3.022135019302368,-10.313065528869629,2.3641088008880615
1772698672766627000,7.023626953125,4.3549370765686035,-11.406585693359375,0.8255237936973572
1772698672783974000,7.040973876953125,5.1182475090026855,-11.92343521118164,1.4644074440002441
1772698672801320700,7.05832080078125,4.922036170959473,-13.806586265563965,3.3858439922332764
1772698672818667500,7.07566748046875,3.1992039680480957,-19.925033569335938,3.297309637069702
1772698672836014000,7.09301416015625,0.3086741268634796,-20.28874397277832,1.2323036193847656
1772698672853361200,7.110361083984375,-3.3020951747894287,-17.297714233398438,-2.287538528442383
1772698672870707700,7.127707763671875,1.7395820617675781,-13.263416290283203,-1.9836499691009521
1772698672888054500,7.145054443359375,-0.6532405614852905,-10.461421012878418,-1.674975872039795
1772698672905401300,7.1624013671875,-1.0719845294952393,-6.585047721862793,1.4428720474243164
1772698672922748200,7.179748046875,-2.3952155113220215,-4.383651256561279,2.3234307765960693
1772698672940095000,7.197094970703125,-1.3543375730514526,-4.754538536071777,2.5196423530578613
1772698672957441800,7.21444189453125,-0.4043870270252228,-8.764909744262695,3.7782669067382812
1772698672974788600,7.23178857421875,-0.29431718587875366,-10.980663299560547,2.801995277404785
1772698672992135400,7.249135498046875,-0.11006984114646912,-12.248859405517578,1.31365966796875
1772698673009482200,7.266482177734375,-0.5982056856155396,-11.12901782989502,-1.6223337650299072
1772698673026828800,7.283828857421875,0.23688943684101105,-8.389236450195312,-4.697110652923584
1772698673044175600,7.301175537109375,0.4977070987224579,-6.970292568206787,-4.59421968460083
1772698673061522400,7.3185224609375,-0.6675975322723389,-6.51326322555542,-3.046063184738159
1772698673078869200,7.335869140625,-1.1270195245742798,-6.900900363922119,-1.5744773149490356
1772698673096216000,7.353216064453125,-0.6891329288482666,-8.288737297058105,-0.09092725813388824
1772698673113563000,7.37056298828125,0.5000999569892883,-9.667003631591797,0.7345965504646301
1772698673130909700,7.38790966796875,1.0289137363433838,-10.387243270874023,1.0193424224853516
1772698673148256500,7.405256591796875,0.019142581149935722,-10.470992088317871,0.9499505758285522
1772698673165603300,7.422603271484375,-0.4977070987224579,-10.183853149414062,1.0863415002822876
1772698673182950100,7.4399501953125,-0.03349951654672623,-9.628718376159668,1.1078768968582153
1772698673200296700,7.457296630859375,0.47617170214653015,-9.375079154968262,1.0767701864242554
1772698673217643500,7.4746435546875,0.5934200286865234,-9.410971641540527,1.5337992906570435
1772698673234990300,7.491990234375,0.40677985548973083,-9.31047248840332,2.0267207622528076
1772698673252337200,7.509337158203125,0.5670989751815796,-8.827122688293457,1.8640087842941284
1772698673269684000,7.52668408203125,0.9475577473640442,-8.324629783630371,1.3830515146255493
1772698673287030800,7.54403076171875,0.8733802437782288,-7.953742504119873,0.6891329288482666
1772698673304377600,7.561377685546875,0.9786644577980042,-7.652246952056885,-0.11006984114646912
1772698673321724400,7.578724365234375,1.5074782371520996,-7.494320392608643,-0.8662018179893494
1772698673339071000,7.596071044921875,2.8283164501190186,-7.795815944671631,-0.15314064919948578
1772698673356417800,7.613417724609375,3.3643085956573486,-8.432307243347168,1.5146567821502686
1772698673373764600,7.6307646484375,2.7326035499572754,-10.162318229675293,2.012363910675049
1772698673391111400,7.648111328125,3.304488182067871,-12.610175132751465,2.7732813358306885
1772698673408458200,7.665458251953125,3.634697675704956,-13.737195014953613,4.67078971862793
1772698673425805000,7.68280517578125,1.2729816436767578,-12.224930763244629,5.982056617736816
1772698673443152000,7.70015185546875,0.4498506486415863,-9.891928672790527,5.405386447906494
1772698673460498700,7.717498779296875,-0.14835500717163086,-8.300702095031738,2.6368906497955322
1772698673477845500,7.734845458984375,-0.12921242415905,-7.240681171417236,0.46420758962631226
1772698673495192300,7.7521923828125,-0.5838487148284912,-6.616154670715332,-1.9094724655151367
1772698673512539000,7.769538818359375,-1.4333007335662842,-6.69990348815918,-3.799802303314209
1772698673529885700,7.7868857421875,-1.4452649354934692,-7.523034572601318,-6.056233882904053
1772698673547232500,7.804232421875,-3.014956474304199,-11.126625061035156,-6.565905570983887
1772698673564579300,7.821579345703125,-2.8737800121307373,-16.69711685180664,-6.271588325500488
1772698673581926100,7.838926025390625,-2.242074728012085,-20.38924217224121,-5.166104316711426
1772698673599273000,7.85627294921875,-2.1750757694244385,-19.161724090576172,0.6699903607368469
1772698673616619800,7.873619873046875,-2.5459632873535156,-15.725630760192871,6.16391134262085
1772698673633966600,7.890966552734375,-2.7086751461029053,-12.119647026062012,8.676374435424805
1772698673651313400,7.9083134765625,-1.789831280708313,-8.549555778503418,8.094919204711914
1772698673668660000,7.925659912109375,0.5958128571510315,-5.678168296813965,5.938985824584961
1772698673686006800,7.9430068359375,2.366501569747925,-4.852644443511963,2.8450660705566406
1772698673703353900,7.960353759765625,3.249453067779541,-5.680561065673828,0.26081767678260803
1772698673720700400,7.977700439453125,3.273381471633911,-6.941578388214111,-0.9858429431915283
1772698673738047200,7.995047119140625,1.495514154434204,-7.963313579559326,-1.2275179624557495
1772698673755394000,8.01239404296875,-0.12921242415905,-8.334200859069824,-0.08135596662759781
1772698673772740900,8.029740966796876,-0.09571290761232376,-8.82951545715332,0.851844847202301
1772698673790087700,8.047087646484375,0.4905286431312561,-8.9850492477417,1.404586911201477
1772698673807434500,8.0644345703125,1.0289137363433838,-8.623732566833496,0.9427721500396729
1772698673824781300,8.08178125,1.919043779373169,-8.169096946716309,0.5216353535652161
1772698673842128100,8.099128173828126,2.6632115840911865,-7.707281589508057,-0.20817556977272034
1772698673859475000,8.116474853515625,3.218346357345581,-7.568498134613037,-0.7465606927871704
1772698673876821800,8.13382177734375,3.524627685546875,-7.487142086029053,-0.794417142868042
1772698673894168600,8.15116845703125,3.201596736907959,-7.5804619789123535,-0.18424734473228455
1772698673911515400,8.168515380859375,2.902493953704834,-8.070990562438965,1.222732424736023
1772698673928862000,8.185862060546874,2.940778970718384,-8.525627136230469,2.691925525665283
1772698673946208800,8.203208740234375,3.0388846397399902,-8.755337715148926,4.158725738525391
1772698673963555600,8.2205556640625,3.5126636028289795,-9.686145782470703,4.764110088348389
1772698673980902400,8.23790234375,4.666004180908203,-10.74855899810791,2.8043880462646484
1772698673998249200,8.255249267578124,5.079962253570557,-11.839686393737793,2.8115665912628174
1772698674015596000,8.272595947265625,4.761716842651367,-14.31625747680664,3.8045880794525146
1772698674032942800,8.28994287109375,4.534399032592773,-19.89153480529785,3.6634113788604736
1772698674050289700,8.30728955078125,0.11964113265275955,-20.55195426940918,0.5862415432929993
1772698674067636500,8.324636474609376,-2.242074728012085,-18.321842193603516,-2.6608188152313232
1772698674084983300,8.3419833984375,0.7178468108177185,-12.330215454101562,-1.8089739084243774
1772698674102330000,8.359330078125,-0.5718846321105957,-9.755537986755371,-1.3830515146255493
1772698674119677000,8.376677001953125,-1.2203395366668701,-8.403593063354492,0.3924229145050049
1772698674137023700,8.394023681640626,-3.3164522647857666,-7.032505512237549,2.7110681533813477
1772698674154370600,8.41137060546875,-2.227717876434326,-6.7310099601745605,2.7493531703948975
1772698674171717000,8.428717041015625,-0.5383850932121277,-8.307880401611328,2.2085752487182617
1772698674189064000,8.44606396484375,0.7800601720809937,-9.075976371765137,0.2847459018230438
1772698674206410800,8.46341064453125,-0.23449662327766418,-8.941978454589844,-1.8137595653533936
1772698674223757600,8.480757568359374,-0.6269195079803467,-8.762516975402832,-4.3070807456970215
1772698674241104400,8.4981044921875,0.04785645380616188,-9.008976936340332,-4.560719966888428
1772698674258451200,8.515451171875,-0.5551348328590393,-8.307880401611328,-3.8907296657562256
1772698674275798000,8.532798095703125,-1.6414763927459717,-7.623532772064209,-3.5341989994049072
1772698674293144800,8.550144775390624,-1.3950155973434448,-7.769495010375977,-2.2923240661621094
1772698674310491600,8.56749169921875,-0.5096712112426758,-8.475378036499023,-1.0169496536254883
1772698674327838500,8.58483837890625,0.2105683982372284,-9.77707290649414,-0.2273181527853012
1772698674345185300,8.602185302734375,0.1818545162677765,-10.571490287780762,0.15074782073497772
1772698674362532000,8.619531982421876,0.48574298620224,-10.578668594360352,0.8566305041313171
1772698674379879000,8.63687890625,1.00259268283844,-10.358529090881348,1.6390835046768188
1772698674397225700,8.654225830078126,1.7826528549194336,-10.104889869689941,2.132004976272583
1772698674414572300,8.671572265625,1.5050854682922363,-9.525827407836914,2.495713949203491
1772698674431919000,8.688919189453125,0.8757730722427368,-8.930013656616211,2.572284460067749
1772698674449266000,8.706265869140625,0.8542376756668091,-8.3629150390625,2.304288148880005
1772698674466612700,8.72361279296875,1.0001999139785767,-8.12123966217041,2.021935224533081
1772698674483959600,8.74095947265625,1.4644074440002441,-8.080561637878418,1.9046868085861206
1772698674501306400,8.758306396484375,1.9716858863830566,-8.008777618408203,1.7419748306274414
1772698674518653200,8.775653076171874,2.383251428604126,-7.590033531188965,1.2681959867477417
1772698674536000000,8.793,2.4047868251800537,-7.338787078857422,1.1748759746551514
1772698674553346800,8.810346923828124,2.2061824798583984,-8.484949111938477,1.9262222051620483
1772698674570693600,8.827693603515625,2.390429735183716,-10.710273742675781,2.3473589420318604
1772698674588040400,8.84504052734375,3.5772697925567627,-13.179667472839355,2.447857618331909
1772698674605387300,8.86238720703125,4.113262176513672,-13.95972728729248,2.964707374572754
1772698674622733800,8.87973388671875,2.9766714572906494,-12.184252738952637,3.7950167655944824
1772698674640080600,8.89708056640625,1.2969099283218384,-8.73619556427002,4.060619831085205
1772698674657427500,8.914427490234376,0.29431718587875366,-7.276573657989502,3.3643085956573486
1772698674674774300,8.931774169921875,-0.17228323221206665,-6.802794933319092,1.8424733877182007
1772698674692121000,8.94912109375,-0.6221339106559753,-6.460621356964111,0.2153540402650833
1772698674709468000,8.966468017578125,-1.1413763761520386,-6.695117950439453,-2.234896421432495
1772698674726814700,8.983814697265625,-1.5840486288070679,-7.599604606628418,-3.9433717727661133
1772698674744161500,9.00116162109375,-1.770688772201538,-9.57607650756836,-5.410171985626221
1772698674761508400,9.01850830078125,-2.342573404312134,-12.53599739074707,-5.520241737365723
1772698674778855200,9.035855224609374,-2.500499725341797,-16.5391902923584,-4.7234320640563965
1772698674796202000,9.053201904296875,-2.3569302558898926,-19.20718765258789,-2.4885356426239014
1772698674813548800,9.070548828125,-1.3423734903335571,-18.407983779907227,2.9455647468566895
1772698674830895600,9.0878955078125,-2.2468605041503906,-15.28056526184082,7.601997375488281
1772698674848242400,9.105242431640624,-3.13220477104187,-11.633903503417969,9.812965393066406
1772698674865589200,9.12258935546875,-1.8352949619293213,-8.884550094604492,7.767102241516113
1772698674882936000,9.13993603515625,0.6580262184143066,-6.613761901855469,4.639683246612549
1772698674900282600,9.15728271484375,2.644068956375122,-5.888736724853516,1.7515461444854736
1772698674917629400,9.17462939453125,3.7232320308685303,-6.967899322509766,-0.7178468108177185
1772698674934976500,9.1919765625,3.3379876613616943,-8.745766639709473,-1.3304094076156616
1772698674952323000,9.209322998046876,1.3854442834854126,-9.590433120727539,-0.5335994362831116
1772698674969670000,9.226669921875,0.0933200865983963,-9.324830055236816,0.8662018179893494
1772698674987016700,9.2440166015625,0.3756731450557709,-9.020941734313965,1.667797327041626
1772698675004363500,9.261363525390625,0.8327022790908813,-8.250452041625977,1.3567304611206055
1772698675021710300,9.27871044921875,1.581655740737915,-7.5637125968933105,0.8805587291717529
1772698675039057200,9.29605712890625,2.5196423530578613,-7.015756130218506,0.19381862878799438
1772698675056404000,9.313404052734375,3.1896326541900635,-6.879364967346191,-0.7058826684951782
1772698675073750800,9.330750732421874,3.452843189239502,-7.015756130218506,-1.0456634759902954
1772698675091097600,9.34809765625,3.3786656856536865,-7.317251682281494,-0.5862415432929993
1772698675108444400,9.3654443359375,2.730210542678833,-7.652246952056885,0.43549370765686035
1772698675125791200,9.382791259765625,2.313859462738037,-8.312665939331055,1.7730815410614014
1772698675143138000,9.400137939453124,2.9766714572906494,-9.241081237792969,3.0723843574523926
1772698675160484900,9.41748486328125,2.974278450012207,-9.970891952514648,3.7663028240203857
1772698675177831700,9.434831787109376,2.991028308868408,-10.600204467773438,3.2135608196258545
1772698675195178500,9.452178466796875,4.005585193634033,-10.829915046691895,1.7228323221206665
1772698675212525300,9.469525390625,5.979663848876953,-10.155138969421387,1.6031911373138428
1772698675229872000,9.4868720703125,6.0777692794799805,-11.964113235473633,3.4552359580993652
1772698675247219000,9.504218994140626,5.898307800292969,-17.965312957763672,5.675775527954102
1772698675264565800,9.521565673828125,1.5696916580200195,-19.36989974975586,3.460021495819092
1772698675281912600,9.53891259765625,-4.438685894012451,-15.804593086242676,0.9092726111412048
1772698675299259100,9.556259033203125,-2.59621262550354,-12.155538558959961,1.911865234375
1772698675316606000,9.57360595703125,-1.5050854682922363,-12.56710433959961,0.5455635786056519
1772698675333952800,9.590952880859374,-2.2995026111602783,-8.468199729919434,0.1052841991186142
1772698675351299600,9.608299560546875,-1.9022940397262573,-5.733202934265137,-0.02392822690308094
1772698675368646400,9.625646484375,-0.8422735929489136,-6.8554368019104,0.5312066078186035
1772698675385993200,9.6429931640625,-0.8566305041313171,-10.2747802734375,0.97148597240448
1772698675403340000,9.660340087890624,-1.5984054803848267,-11.676974296569824,-0.12442677468061447
1772698675420686800,9.677686767578125,-1.3902299404144287,-11.46401309967041,-1.9956140518188477
1772698675438033700,9.69503369140625,0.23449662327766418,-9.004191398620605,-3.9792640209198
1772698675455380500,9.71238037109375,0.363709032535553,-6.594619274139404,-4.1491546630859375
1772698675472727300,9.729727294921876,-0.5718846321105957,-5.560919761657715,-3.1561331748962402
1772698675490074000,9.74707421875,-1.2681959867477417,-5.836094379425049,-1.8783657550811768
1772698675507421000,9.7644208984375,-0.29431718587875366,-7.573283672332764,-0.02871387079358101
1772698675524767700,9.781767822265625,0.7704889178276062,-9.387042999267578,1.1988041400909424
1772698675542114600,9.799114501953126,0.8877372145652771,-10.557133674621582,1.5002998113632202
1772698675559461400,9.81646142578125,0.3158525824546814,-10.949556350708008,1.5720844268798828
1772698675576808200,9.83380810546875,0.35892340540885925,-10.482955932617188,1.6462619304656982
1772698675594155000,9.851155029296875,1.098305583000183,-9.870393753051758,2.172683000564575
1772698675611501800,9.868501708984375,1.25144624710083,-9.269794464111328,2.943171739578247
1772698675628848600,9.8858486328125,0.46420758962631226,-8.48016357421875,3.5198421478271484
1772698675646195500,9.903195556640625,0.05742774158716202,-7.714460372924805,3.8021950721740723
1772698675663542300,9.920542236328124,0.04307080805301666,-7.345965385437012,3.641875982284546
1772698675680889000,9.93788916015625,0.3900300860404968,-7.685746192932129,3.014956474304199
1772698675698236000,9.95523583984375,2.4717857837677,-8.389236450195312,1.7012969255447388
1772698675715582700,9.972582763671875,3.8883368968963623,-8.317451477050781,-0.5527420043945312
1772698675732929500,9.989929443359374,1.4787644147872925,-8.26241683959961,-1.4165509939193726
1772698675750276400,10.0072763671875,-0.12921242415905,-9.619147300720215,-0.07657032459974289
1772698675767623200,10.024623046875,0.5670989751815796,-10.863414764404297,0.8183453679084778
1772698675784969700,10.0419697265625,2.541177749633789,-12.689138412475586,2.0267207622528076
1772698675802316500,10.059316650390626,4.816751956939697,-12.79202938079834,3.8500516414642334
1772698675819663400,10.076663330078125,3.1106693744659424,-10.667202949523926,4.910071849822998
1772698675837010200,10.09401025390625,0.5072783827781677,-9.528220176696777,5.3216376304626465
1772698675854357000,10.11135693359375,0.17228323221206665,-9.10229778289795,4.043870449066162
1772698675871703800,10.128703857421876,0.019142581149935722,-7.89631462097168,1.7324036359786987
1772698675889050600,10.146050537109375,-0.37088751792907715,-6.809973239898682,-1.100698471069336
1772698675906397400,10.1633974609375,-0.8446664214134216,-6.754938125610352,-3.184846878051758
1772698675923744300,10.180744140625,-1.6390835046768188,-8.104490280151367,-5.37906551361084
1772698675941091000,10.198091064453125,-1.7826528549194336,-10.64088249206543,-7.609176158905029
1772698675958438000,10.21543798828125,-2.7086751461029053,-14.859428405761719,-6.869793891906738
1772698675975784700,10.23278466796875,-1.7539390325546265,-18.27159309387207,-4.563112735748291
1772698675993131500,10.250131591796874,-1.0408778190612793,-19.161724090576172,-0.763310432434082
1772698676010478300,10.267478271484375,-1.887937068939209,-17.008182525634766,5.0703911781311035
1772698676027825200,10.2848251953125,-3.16331148147583,-13.397414207458496,9.32004451751709
1772698676045172000,10.302171875,-3.6705899238586426,-9.41336441040039,8.958727836608887
1772698676062518800,10.319518798828126,-1.0360921621322632,-6.403193473815918,5.970092296600342
1772698676079865600,10.336865478515625,1.950150489807129,-4.867001056671143,1.8831514120101929
1772698676097212400,10.35421240234375,3.2781670093536377,-5.592026710510254,-1.4213366508483887
1772698676114559200,10.371559326171875,2.8761727809906006,-7.743174076080322,-2.562713146209717
1772698676131906000,10.388906005859376,0.6652047038078308,-8.47298526763916,-1.8640087842941284
1772698676149252900,10.4062529296875,-0.9882357716560364,-8.214560508728027,0.6484549641609192
1772698676166599700,10.423599609375,-0.07417750358581543,-9.32004451751709,1.454836130142212
1772698676183946500,10.440946533203125,1.25144624710083,-10.628918647766113,1.3471591472625732
1772698676201293300,10.458293212890625,1.9645073413848877,-10.269994735717773,0.8398807644844055
1772698676218640100,10.47564013671875,2.2540390491485596,-9.308079719543457,0.7752745151519775
1772698676235987000,10.492987060546875,2.368894338607788,-8.539983749389648,0.19621145725250244
1772698676253333800,10.510333740234374,2.7900311946868896,-8.087740898132324,-0.380458801984787
1772698676270680600,10.5276806640625,3.2303106784820557,-7.606783390045166,-0.32303106784820557
1772698676288027400,10.54502734375,3.436093330383301,-7.085147857666016,0.05024927482008934
1772698676305374200,10.562374267578125,3.1824541091918945,-6.709474563598633,0.6149554252624512
1772698676322721000,10.579720947265624,3.5150563716888428,-6.6831536293029785,1.8065811395645142
1772698676340067800,10.59706787109375,3.8596229553222656,-7.343572616577148,3.2709884643554688
1772698676357414700,10.61441455078125,2.857030153274536,-8.994620323181152,4.232903480529785
1772698676374761500,10.631761474609375,2.1367905139923096,-10.901700019836426,3.862015724182129
1772698676392108300,10.6491083984375,2.9838497638702393,-11.655439376831055,0.97148597240448
1772698676409455000,10.666455078125,4.926821708679199,-11.021341323852539,1.0815558433532715
1772698676426802000,10.683802001953126,6.025127410888672,-11.964113235473633,2.825923442840576
1772698676444148700,10.701148681640625,6.190232276916504,-16.498512268066406,4.685146808624268
1772698676461495600,10.71849560546875,2.861815929412842,-17.087146759033203,3.046063184738159
1772698676478842400,10.73584228515625,-4.2281174659729,-14.400006294250488,1.7204394340515137
1772698676496189200,10.753189208984375,-2.115255117416382,-12.526426315307617,1.2562319040298462
1772698676513536000,10.770535888671875,-2.6392834186553955,-16.90289878845215,1.8305093050003052
1772698676530882800,10.7878828125,-1.8855443000793457,-10.77248764038086,1.069591760635376
1772698676548229600,10.805229736328124,-1.1581261157989502,-5.5106706619262695,0.42352959513664246
1772698676565576400,10.822576416015625,-0.33499518036842346,-3.7639100551605225,-0.35892340540885925
1772698676582923300,10.83992333984375,0,-7.2430739402771,1.069591760635376
1772698676600270000,10.85727001953125,-1.0241280794143677,-10.04267692565918,0.48574298620224
1772698676617617000,10.874616943359374,-1.098305583000183,-11.854043006896973,-1.5672988891601562
1772698676634963700,10.891963623046875,0.038285162299871445,-12.75613784790039,-3.4648072719573975
1772698676652310500,10.909310546875,0.20099709928035736,-9.688538551330566,-4.249652862548828
1772698676669657300,10.9266572265625,-0.16271193325519562,-7.156932353973389,-3.0245277881622314
1772698676687004200,10.944004150390626,-0.6221339106559753,-5.292923450469971,-1.9310078620910645
1772698676704351000,10.96135107421875,-0.6604190468788147,-5.757131099700928,-0.16031911969184875
1772698676721697800,10.97869775390625,-0.12921242415905,-7.901100158691406,1.3663017749786377
1772698676739044600,10.996044677734375,0.15314064919948578,-9.523433685302734,1.950150489807129
1772698676756391400,11.013391357421876,0.3038884699344635,-10.39202880859375,2.249253273010254
1772698676773738200,11.03073828125,0.3206382393836975,-10.466206550598145,2.4047868251800537
1772698676791085000,11.0480849609375,0.6269195079803467,-10.03310489654541,2.455035924911499
1772698676808431900,11.065431884765625,1.2873386144638062,-9.42054271697998,2.2851455211639404
1772698676825778700,11.08277880859375,1.2203395366668701,-8.975478172302246,1.8711873292922974
1772698676843125500,11.10012548828125,0.29431718587875366,-8.82951545715332,1.8807586431503296
1772698676860472300,11.117472412109375,-0.20817556977272034,-8.934800148010254,2.4981069564819336
1772698676877819100,11.134819091796874,0.23449662327766418,-8.980263710021973,3.4025938510894775
1772698676895165700,11.152165771484375,1.1198409795761108,-8.496912956237793,3.8524444103240967
1772698676912512500,11.169512451171874,2.2325034141540527,-7.393822193145752,3.2518460750579834
1772698676929859600,11.186859619140625,2.6967110633850098,-6.465406894683838,1.5744773149490356
1772698676947206400,11.204206298828124,1.6941183805465698,-7.039684295654297,-0.41156548261642456
1772698676964553200,11.22155322265625,0.6245267391204834,-9.382257461547852,-0.7704889178276062
1772698676981899800,11.238899658203126,0.7034898400306702,-12.490533828735352,1.28255295753479
1772698676999246600,11.25624658203125,1.5170495510101318,-14.079368591308594,2.115255117416382
1772698677016593400,11.273593505859376,2.4741785526275635,-13.421341896057129,2.56510591506958
1772698677033940200,11.290940185546875,2.6847469806671143,-10.660024642944336,3.2829527854919434
1772698677051287300,11.308287353515626,2.1296122074127197,-8.322237014770508,3.579662561416626
1772698677068634000,11.325634033203125,1.3256237506866455,-7.865208148956299,2.940778970718384
1772698677085981000,11.34298095703125,0.7010970115661621,-7.668996810913086,1.8616160154342651
1772698677103327500,11.360327392578125,0.5312066078186035,-7.381857872009277,0.882951557636261
1772698677120674300,11.37767431640625,0.09810572862625122,-7.5708909034729,-0.4833501875400543
1772698677138021000,11.395021240234374,-0.576670229434967,-8.451449394226074,-2.5459632873535156
1772698677155368000,11.412367919921875,-1.5146567821502686,-10.15035343170166,-4.8191447257995605
1772698677172714800,11.42971484375,-1.648654818534851,-11.545369148254395,-5.910272121429443
1772698677190061800,11.447061767578125,-2.6632115840911865,-12.863814353942871,-4.941178798675537
1772698677207408600,11.46440869140625,-2.517249345779419,-14.904891967773438,-3.0723843574523926
1772698677224755200,11.481755126953125,-1.9980069398880005,-16.737794876098633,-0.42831525206565857
1772698677242102000,11.49910205078125,-0.9690931439399719,-17.111074447631836,4.0797624588012695
1772698677259448800,11.51644873046875,-1.5672988891601562,-14.79960823059082,7.716853141784668
1772698677276795600,11.533795654296876,-1.7371892929077148,-11.382657051086426,7.905886173248291
1772698677294142500,11.551142578125,-0.14117653667926788,-8.60459041595459,5.13021183013916
1772698677311489500,11.568489501953126,1.6103696823120117,-6.7692952156066895,1.97407865524292
1772698677328836400,11.58583642578125,1.9286150932312012,-6.620940208435059,-0.550349235534668
1772698677346183200,11.60318310546875,1.6893328428268433,-7.393822193145752,-1.6821542978286743
1772698677363530000,11.620530029296875,1.1389836072921753,-7.7455668449401855,-0.7417750358581543
1772698677380876800,11.637876708984376,0.9858429431915283,-8.274380683898926,0.7465606927871704
1772698677398223600,11.6552236328125,1.2346965074539185,-9.305686950683594,0.6125625967979431
1772698677415570400,11.6725703125,1.5744773149490356,-9.501898765563965,-0.02153540402650833
1772698677432917200,11.689917236328125,1.7132610082626343,-8.61176872253418,-0.6652047038078308
1772698677450264000,11.70726416015625,1.97407865524292,-7.992027759552002,-1.0528420209884644
1772698677467611000,11.72461083984375,2.390429735183716,-7.860422611236572,-1.6342978477478027
1772698677484957700,11.741957763671875,2.8450660705566406,-7.88913631439209,-1.6007983684539795
1772698677502304500,11.759304443359374,3.122633457183838,-7.410571575164795,-0.6771687865257263
1772698677519651300,11.7766513671875,3.1800613403320312,-7.073183536529541,0.6317051649093628
1772698677536998100,11.793998046875,2.933600664138794,-6.97986364364624,2.03629207611084
1772698677554345000,11.811344970703125,3.8285162448883057,-7.369893550872803,3.6993038654327393
1772698677571691800,11.82869189453125,3.761517286300659,-8.288737297058105,5.101497650146484
1772698677589038600,11.84603857421875,2.1655044555664062,-9.717252731323242,5.828916072845459
1772698677606385400,11.863385498046876,2.0554347038269043,-10.638489723205566,3.4911282062530518
1772698677623732200,11.880732177734375,3.7663028240203857,-10.700702667236328,1.4021940231323242
1772698677641079000,11.8980791015625,5.962913990020752,-10.241280555725098,1.6534404754638672
1772698677658425900,11.91542578125,6.999006271362305,-13.363914489746094,4.187439441680908
1772698677675772700,11.932772705078126,6.130411624908447,-18.307485580444336,5.288137912750244
1772698677693119500,11.950119384765625,-1.4428720474243164,-18.424734115600586,2.7828526496887207
1772698677710466300,11.96746630859375,-6.465406894683838,-16.01276969909668,2.0195422172546387
1772698677727813000,11.984813232421875,-2.8283164501190186,-15.933806419372559,1.8592232465744019
1772698677745160000,12.002159912109375,-1.3782658576965332,-12.583854675292969,-0.004785645287483931
1772698677762506800,12.0195068359375,-1.8065811395645142,-6.747759819030762,-0.5359922647476196
1772698677779853600,12.036853515625,-0.8781659007072449,-3.5365917682647705,-1.098305583000183
1772698677797200400,12.054200439453124,-0.2392822653055191,-6.017949104309082,-0.3086741268634796
1772698677814547200,12.071547119140625,-0.19621145725250244,-9.915857315063477,-0.07657032459974289
1772698677831894000,12.08889404296875,-1.100698471069336,-11.56690502166748,-1.6007983684539795
1772698677849240800,12.10624072265625,-0.5096712112426758,-12.698709487915039,-3.014956474304199
1772698677866587600,12.123587646484374,0.24167509377002716,-10.107282638549805,-3.672982692718506
1772698677883934500,12.1409345703125,0.08374879509210587,-7.475177764892578,-2.713460922241211
1772698677901281300,12.15828125,-0.44745782017707825,-5.438885688781738,-2.1032910346984863
1772698677918628000,12.175628173828125,-0.8183453679084778,-4.785645484924316,-0.9906286001205444
1772698677935975000,12.192974853515626,-0.34695929288864136,-6.32662296295166,0.9308080077171326
1772698677953322000,12.210322021484375,0.26560330390930176,-8.24566650390625,1.8352949619293213
1772698677970668800,12.227668701171876,0.48574298620224,-10.15035343170166,2.194218397140503
1772698677988015600,12.245015625,0.7010970115661621,-11.35633659362793,2.2133610248565674
1772698678005362200,12.262362060546875,0.9044869542121887,-11.10030460357666,2.1655044555664062
1772698678022709000,12.279708984375,1.1509476900100708,-9.772287368774414,2.0338993072509766
1772698678040056000,12.29705615234375,1.399801254272461,-8.640482902526855,1.9334007501602173
1772698678057403000,12.31440283203125,1.4428720474243164,-8.334200859069824,1.919043779373169
1772698678074749400,12.33174951171875,1.0959128141403198,-8.664410591125488,2.093719720840454
1772698678092096500,12.349096435546874,0.7417750358581543,-9.018548965454102,2.455035924911499
1772698678109443300,12.366443359375,0.9834501147270203,-9.111868858337402,2.682354211807251
1772698678126790100,12.3837900390625,2.0506489276885986,-8.74337387084961,2.548356056213379
1772698678144137000,12.401136962890625,2.9527430534362793,-7.752745151519775,1.129412293434143
1772698678161483800,12.41848388671875,2.0961127281188965,-7.341179847717285,-0.9116654396057129
1772698678178830600,12.43583056640625,0.2632105052471161,-9.001798629760742,-1.31365966796875
1772698678196177400,12.453177490234374,0.2991028428077698,-12.143574714660645,-0.29431718587875366
1772698678213524200,12.470524169921875,2.4335005283355713,-14.373685836791992,0.380458801984787
1772698678230871000,12.48787109375,2.864208698272705,-13.564911842346191,1.923829436302185
1772698678248217900,12.5052177734375,1.1940184831619263,-11.009376525878906,2.713460922241211
1772698678265564700,12.522564697265626,0.885344386100769,-9.695717811584473,2.775674343109131
1772698678282911500,12.539911376953125,-0.1818545162677765,-8.537590980529785,2.2396819591522217
1772698678300258300,12.55725830078125,-1.6630117893218994,-8.2695951461792,1.6031911373138428
1772698678317605000,12.574605224609375,-1.9166508913040161,-9.047262191772461,-0.29431718587875366
1772698678334952000,12.591951904296875,-1.9094724655151367,-9.68375301361084,-1.2993026971817017
1772698678352298800,12.609298828125,-1.6630117893218994,-9.7938232421875,-1.730010747909546
1772698678369645600,12.6266455078125,-1.1485549211502075,-8.903693199157715,-2.5698914527893066
1772698678386992400,12.643992431640624,-0.9020941257476807,-9.91825008392334,-1.6223337650299072
1772698678404339200,12.661339111328125,-0.5599204897880554,-11.674581527709961,0.1986042857170105
1772698678421686000,12.67868603515625,-0.4666004180908203,-13.469198226928711,3.5198421478271484
1772698678439032800,12.69603271484375,-1.0049854516983032,-14.694323539733887,7.051648139953613
1772698678456379600,12.713379638671874,-0.9858429431915283,-13.643875122070312,9.31047248840332
1772698678473726500,12.7307265625,-1.7730815410614014,-11.313265800476074,7.618747234344482
1772698678491073300,12.7480732421875,-0.45224347710609436,-9.083154678344727,4.6995038986206055
1772698678508420000,12.765420166015625,0.6795616149902344,-7.044469833374023,2.59621262550354
1772698678525767000,12.782766845703126,1.8161523342132568,-6.376872539520264,0.8135597109794617
1772698678543113700,12.80011376953125,2.6225335597991943,-7.786244869232178,-0.11006984114646912
1772698678560460500,12.81746044921875,2.3569302558898926,-8.918049812316895,-0.6293123364448547
1772698678577807400,12.834807373046875,1.306481122970581,-9.470791816711426,-0.1339980661869049
1772698678595154400,12.852154541015626,0.24406790733337402,-9.923035621643066,1.062413215637207
1772698678612501200,12.869501220703125,0.007178467698395252,-9.729216575622559,2.0099709033966064
1772698678629848000,12.88684814453125,0.48095735907554626,-9.075976371765137,1.7252250909805298
1772698678647195000,12.90419482421875,1.3591232299804688,-8.365307807922363,0.7513462901115417
1772698678664541700,12.921541748046875,2.414358139038086,-7.680960655212402,0.01196411345154047
1772698678681888500,12.938888427734375,3.053241729736328,-7.018148899078369,-0.2919243574142456
1772698678699235300,12.9562353515625,3.2470602989196777,-6.4941205978393555,-0.13878370821475983
1772698678716582100,12.97358203125,2.8139593601226807,-6.5252275466918945,0.5216353535652161
1772698678733929000,12.990928955078125,2.737389087677002,-7.2813591957092285,1.730010747909546
1772698678751275800,13.00827587890625,3.3882367610931396,-8.336593627929688,3.218346357345581
1772698678768622600,13.02562255859375,3.4672000408172607,-9.578469276428223,4.271188259124756
1772698678785969400,13.042969482421874,3.2279176712036133,-10.621739387512207,4.256831645965576
1772698678803316200,13.060316162109375,3.7543387413024902,-10.877771377563477,3.617947816848755
1772698678820663000,13.0776630859375,4.47697114944458,-10.073782920837402,3.4169507026672363
1772698678838009900,13.095009765625,6.259624004364014,-9.487542152404785,4.278367042541504
1772698678855356700,13.112356689453126,6.690331935882568,-10.545169830322266,5.505885124206543
1772698678872703500,13.129703369140625,3.620340585708618,-14.09133243560791,5.218746185302734
1772698678890050300,13.14705029296875,-3.2279176712036133,-16.74018669128418,1.6941183805465698
1772698678907397400,13.1643974609375,-6.556334018707275,-17.13739585876465,-0.2225325107574463
1772698678924744200,13.181744140625,-4.1347975730896,-18.029918670654297,-0.7130611538887024
1772698678942091000,13.199091064453125,-1.5553346872329712,-14.648859977722168,-1.5936198234558105
1772698678959437800,13.216437744140626,-1.0911271572113037,-8.166703224182129,-0.9978070259094238
1772698678976784600,13.23378466796875,0.18424734473228455,-5.06082010269165,-1.0911271572113037
1772698678994131500,13.25113134765625,0.5096712112426758,-4.666004180908203,-2.0243279933929443
1772698679011478300,13.268478271484375,-0.20578274130821228,-8.700303077697754,-2.132004976272583
1772698679028825000,13.2858251953125,-1.4093725681304932,-10.87298583984375,-3.5198421478271484
1772698679046172000,13.303171875,-0.8135597109794617,-13.050455093383789,-3.13220477104187
1772698679063518700,13.320518798828125,0.14835500717163086,-12.028719902038574,-2.2851455211639404
1772698679080865500,13.337865478515624,-0.15074782073497772,-8.717052459716797,-2.9072794914245605
1772698679098212400,13.35521240234375,-0.5575276613235474,-7.652246952056885,-2.2683959007263184
1772698679115559200,13.37255908203125,-0.8207381963729858,-7.678567886352539,-0.8542376756668091
1772698679132906000,13.389906005859375,-0.007178467698395252,-8.37966537475586,0.7130611538887024
1772698679150252800,13.407252685546876,1.246660590171814,-8.870193481445312,1.794616937637329
1772698679167599600,13.424599609375,1.7994025945663452,-9.245866775512695,2.376072883605957
1772698679184946400,13.441946533203126,1.1078768968582153,-9.53061294555664,2.431107759475708
1772698679202293200,13.459293212890625,1.0360921621322632,-9.822537422180176,2.541177749633789
1772698679219640000,13.47664013671875,1.9262222051620483,-9.741181373596191,3.084348440170288
1772698679236987100,13.493987060546875,2.3712873458862305,-9.06401252746582,3.6634113788604736
1772698679254334000,13.511333984375,1.6821542978286743,-8.10688304901123,3.9601213932037354
1772698679271680800,13.5286806640625,1.155733346939087,-7.465606689453125,4.309473514556885
1772698679289027600,13.546027587890626,1.129412293434143,-7.393822193145752,4.510470867156982
1772698679306374400,13.56337451171875,2.062613010406494,-7.496713161468506,4.328616142272949
1772698679323721200,13.58072119140625,3.570091485977173,-7.475177764892578,3.0388846397399902
1772698679341068000,13.598068115234375,2.5938198566436768,-7.3986077308654785,1.1509476900100708
1772698679358414800,13.615414794921875,0.8111668825149536,-8.48016357421875,-0.727418065071106
1772698679375761700,13.63276171875,1.2897313833236694,-11.028519630432129,0.019142581149935722
1772698679393108500,13.6501083984375,1.6582261323928833,-11.921042442321777,1.4859428405761719
1772698679410455300,13.667455322265624,2.895315408706665,-12.241681098937988,2.4885356426239014
1772698679427802000,13.684802001953125,4.409972190856934,-12.224930763244629,3.2829527854919434
1772698679445149000,13.70214892578125,3.8500516414642334,-10.351350784301758,3.895515203475952
1772698679462495700,13.719495849609375,2.342573404312134,-8.683553695678711,4.35254430770874
1772698679479842600,13.736842529296876,1.2658032178878784,-8.441878318786621,2.8211379051208496
1772698679497189400,13.754189453125,1.1581261157989502,-8.212167739868164,0.6293123364448547
1772698679514536200,13.7715361328125,0.5455635786056519,-7.9250288009643555,-0.5048855543136597
1772698679531883000,13.788883056640625,-0.25363919138908386,-8.207381248474121,-1.5170495510101318
1772698679549229800,13.806229736328126,-1.093519926071167,-9.159725189208984,-3.06999135017395
1772698679566576600,13.82357666015625,-2.014756679534912,-10.207781791687012,-3.8596229553222656
1772698679583923700,13.840923828125,-2.6871397495269775,-10.52363395690918,-3.8668015003204346
1772698679601270500,13.8582705078125,-2.919243574142456,-11.59561824798584,-3.6921253204345703
1772698679618617300,13.875617431640626,-2.59621262550354,-14.32582950592041,-2.9527430534362793
1772698679635964200,13.892964111328125,-1.698904037475586,-15.926627159118652,-1.2897313833236694
1772698679653311000,13.91031103515625,-0.6580262184143066,-15.309279441833496,2.043470621109009
1772698679670657800,13.92765771484375,-1.1629117727279663,-13.703695297241211,4.2592244148254395
1772698679688004600,13.945004638671875,-1.3471591472625732,-12.105289459228516,4.309473514556885
1772698679705351400,13.962351318359374,-0.31106695532798767,-10.571490287780762,3.2685956954956055
1772698679722698200,13.9796982421875,0.8566305041313171,-9.262616157531738,3.5198421478271484
1772698679740045000,13.997045166015624,0.6149554252624512,-7.802994728088379,1.8616160154342651
1772698679757392000,14.014391845703125,0.9475577473640442,-6.726224422454834,1.031306505203247
1772698679774738700,14.03173876953125,2.203789710998535,-6.51326322555542,0.8733802437782288
1772698679792085500,14.04908544921875,2.1511476039886475,-7.860422611236572,1.2442678213119507
1772698679809432600,14.0664326171875,1.0432707071304321,-9.489934921264648,1.6965112686157227
1772698679826779400,14.083779296875,0.4450650215148926,-9.736394882202148,1.6965112686157227
1772698679844126200,14.101126220703126,1.2538390159606934,-8.38684368133545,1.404586911201477
1772698679861473000,14.11847314453125,2.1894326210021973,-7.81974458694458,0.519242525100708
1772698679878819800,14.13581982421875,2.8043880462646484,-8.09252643585205,-0.35413774847984314
1772698679896166700,14.153166748046875,3.2135608196258545,-8.281558990478516,-0.8805587291717529
1772698679913513500,14.170513427734376,3.136990547180176,-7.738388538360596,-0.7345965504646301
1772698679930860300,14.1878603515625,2.667997360229492,-7.0301127433776855,0.08853443711996078
1772698679948207000,14.20520703125,2.416750907897949,-6.9104719161987305,1.0911271572113037
1772698679965554000,14.222553955078125,3.0939197540283203,-7.29810905456543,2.0506489276885986
1772698679982900700,14.239900634765625,4.4410786628723145,-8.061419486999512,3.067598581314087
1772698680000247600,14.25724755859375,4.256831645965576,-9.442078590393066,4.158725738525391
1772698680017594400,14.274594482421875,2.8594231605529785,-11.179266929626465,4.225724697113037
1772698680034941400,14.29194140625,2.423929452896118,-12.335000991821289,2.4717857837677
1772698680052288300,14.309288330078125,3.8524444103240967,-11.507083892822266,2.021935224533081
1772698680069635000,14.326635009765624,5.484349727630615,-10.420742988586426,2.6057839393615723
1772698680086982000,14.34398193359375,5.747560024261475,-13.715659141540527,4.60139799118042
1772698680104328700,14.36132861328125,4.505684852600098,-15.78545093536377,3.8021950721740723
1772698680121675500,14.378675537109375,-3.0388846397399902,-15.615560531616211,1.3256237506866455
1772698680139022300,14.396022216796876,-2.012363910675049,-15.464812278747559,0.3732803463935852
1772698680156369200,14.413369140625,-1.674975872039795,-14.624932289123535,-0.8877372145652771
1772698680173716000,14.430716064453126,-1.7563318014144897,-8.8438720703125,0.5575276613235474
1772698680191062800,14.448062744140625,-1.797009825706482,-4.067798614501953,0.4546363055706024
1772698680208409600,14.46540966796875,-1.1509476900100708,-3.153740167617798,1.191625714302063
1772698680225756700,14.482756591796875,-0.6149554252624512,-6.9344000816345215,1.7587246894836426
1772698680243103500,14.500103515625,-0.8709874153137207,-9.719645500183105,0.9930213689804077
1772698680260450300,14.5174501953125,-0.6484549641609192,-12.595818519592285,-0.9451649188995361
1772698680277797000,14.534797119140626,-0.9762716293334961,-14.612967491149902,-2.6799614429473877
1772698680295144000,14.55214404296875,-0.6891329288482666,-11.772686958312988,-3.7639100551605225
1772698680312490800,14.56949072265625,-0.5647061467170715,-8.496912956237793,-3.5820555686950684
1772698680329837600,14.586837646484375,-0.7130611538887024,-6.716653347015381,-3.1034910678863525
1772698680347184400,14.604184326171875,-0.8374879360198975,-6.477370738983154,-1.9262222051620483
1772698680364531200,14.62153125,-0.16031911969184875,-7.489534854888916,-0.6652047038078308
1772698680381878000,14.6388779296875,0.3158525824546814,-8.628518104553223,0.09571290761232376
1772698680399224800,14.656224853515624,0.5000999569892883,-9.609575271606445,0.5000999569892883
1772698680416571600,14.673571533203125,0.2967100143432617,-10.171889305114746,0.9954141974449158
1772698680433918500,14.69091845703125,0.6843472719192505,-10.124032974243164,1.7874385118484497
1772698680451265300,14.708265380859375,1.4835500717163086,-9.365508079528809,2.194218397140503
1772698680468612000,14.725612060546876,1.9980069398880005,-8.73619556427002,2.3976082801818848
1772698680485959200,14.742959228515625,1.6654045581817627,-8.477770805358887,2.6081767082214355
1772698680503306000,14.760305908203126,1.490728497505188,-8.592626571655273,3.0173492431640625
1772698680520652800,14.77765283203125,1.7587246894836426,-8.896514892578125,3.3403804302215576
1772698680537999600,14.79499951171875,1.7826528549194336,-9.066405296325684,3.4504501819610596
1772698680555346400,14.812346435546875,1.5720844268798828,-9.030512809753418,3.2039895057678223
1772698680572693200,14.829693359375,2.069791555404663,-8.405985832214355,2.344966173171997
1772698680590040000,14.8470400390625,2.304288148880005,-7.836493968963623,1.4021940231323242
1772698680607387000,14.864386962890626,1.923829436302185,-8.367700576782227,1.4021940231323242
1772698680624733700,14.881733642578125,1.4213366508483887,-9.951749801635742,1.7874385118484497
1772698680642080500,14.89908056640625,3.046063184738159,-11.739188194274902,1.7276179790496826
1772698680659427300,14.91642724609375,4.565505504608154,-12.401999473571777,2.1774685382843018
1772698680676774100,14.933774169921875,4.029513359069824,-11.25344467163086,2.967100143432617
1772698680694121200,14.951121337890624,2.5148565769195557,-10.013962745666504,3.38105845451355
1772698680711468000,14.968468017578125,1.4739787578582764,-9.164510726928711,2.919243574142456
1772698680728814800,14.98581494140625,0.6675975322723389,-8.391629219055176,2.1750757694244385
1772698680746161700,15.00316162109375,-0.11964113265275955,-7.752745151519775,0.9667003750801086
1772698680763508500,15.020508544921874,-0.8757730722427368,-7.645068168640137,-0.672383189201355
1772698680780855300,15.037855224609375,-1.4213366508483887,-7.841279983520508,-2.4358935356140137
1772698680798202000,15.0552021484375,-1.4428720474243164,-8.422736167907715,-3.9696927070617676
1772698680815549000,15.072548828125,-2.854637384414673,-11.018948554992676,-4.48414945602417
1772698680832895700,15.089895751953126,-2.7038896083831787,-15.098711013793945,-4.989035129547119
1772698680850242600,15.10724267578125,-2.242074728012085,-18.17109489440918,-3.500699520111084
1772698680867589400,15.12458935546875,-1.5433706045150757,-18.4510555267334,1.3112667798995972
1772698680884936400,15.1419365234375,-1.2035897970199585,-16.046268463134766,6.508477687835693
1772698680902283300,15.159283203125,-1.5696916580200195,-12.562318801879883,8.693124771118164
1772698680919630000,15.176630126953125,-0.3206382393836975,-8.779266357421875,7.731209754943848
1772698680936977000,15.193976806640626,1.397408366203308,-5.292923450469971,5.089533805847168
1772698680954323700,15.21132373046875,2.830709218978882,-4.807180881500244,2.6632115840911865
1772698680971670500,15.22867041015625,3.3403804302215576,-6.652047157287598,0.5359922647476196
1772698680989017300,15.246017333984375,3.201596736907959,-8.803194046020508,-0.7322037220001221
1772698681006364200,15.2633642578125,1.730010747909546,-9.631111145019531,-1.0241280794143677
1772698681023711000,15.2807109375,0.2512463629245758,-9.477970123291016,0.24885354936122894
1772698681041057800,15.298057861328125,0.3565305769443512,-9.265008926391602,1.6319050788879395
1772698681058404900,15.31540478515625,1.0145567655563354,-8.810373306274414,1.8137595653533936
1772698681075751700,15.332751708984375,1.7994025945663452,-8.413164138793945,1.00259268283844
1772698681093098500,15.350098388671874,2.342573404312134,-7.932207107543945,0.34695929288864136
1772698681110445300,15.3674453125,2.857030153274536,-7.642675399780273,-0.727418065071106
1772698681127792000,15.384792236328124,3.1752755641937256,-7.592426300048828,-1.454836130142212
1772698681145139000,15.402138916015625,3.043670415878296,-7.365108013153076,-1.2299108505249023
1772698681162485800,15.41948583984375,2.65842604637146,-7.159325122833252,-0.016749758273363113
1772698681179832600,15.43683251953125,3.2685956954956055,-7.319644451141357,1.7180466651916504
1772698681197179400,15.454179443359376,4.170690059661865,-8.140382766723633,3.2374889850616455
1772698681214526500,15.4715263671875,2.7110681533813477,-9.638289451599121,4.4650068283081055
1772698681231873300,15.488873291015626,1.674975872039795,-10.521241188049316,4.2831525802612305
1772698681249220000,15.50622021484375,2.1343977451324463,-11.040483474731445,2.620140790939331
1772698681266567000,15.52356689453125,4.656432628631592,-10.62413215637207,2.2755744457244873
1772698681283913700,15.540913818359375,6.726224422454834,-10.286744117736816,2.902493953704834
1772698681301260500,15.558260498046875,7.070790767669678,-12.811172485351562,4.95074987411499
1772698681318607400,15.575607421875,5.862415313720703,-16.723438262939453,5.905486106872559
1772698681335954200,15.5929541015625,-0.12681959569454193,-16.33101463317871,1.404586911201477
1772698681353301000,15.610301025390624,-5.383851051330566,-16.27358627319336,-0.09810572862625122
1772698681370647800,15.627647705078125,-1.4500504732131958,-14.880964279174805,0.6125625967979431
1772698681387995000,15.644994873046874,-2.445464849472046,-11.430513381958008,0.02871387079358101
1772698681405341700,15.662341796875,-2.550748825073242,-6.661618232727051,0.02153540402650833
1772698681422688500,15.6796884765625,-1.6271194219589233,-3.8979079723358154,0.10289137065410614
1772698681440035300,15.697035400390625,-0.8087740540504456,-5.201996326446533,0.2560320198535919
1772698681457382100,15.714382080078124,-0.6699903607368469,-8.980263710021973,-0.03349951654672623
1772698681474729000,15.73172900390625,-1.9764715433120728,-11.016555786132812,-1.6941183805465698
1772698681492075800,15.74907568359375,-1.3423734903335571,-12.921242713928223,-3.8739798069000244
1772698681509422600,15.766422607421875,0.34695929288864136,-12.54556941986084,-4.326223373413086
1772698681526769400,15.783769287109376,0.2919243574142456,-8.645268440246582,-3.6993038654327393
1772698681544116200,15.8011162109375,-0.3732803463935852,-6.419943332672119,-2.66560435295105
1772698681561463300,15.81846337890625,-1.1748759746551514,-5.663811206817627,-2.0003998279571533
1772698681578810000,15.83581005859375,-0.7058826684951782,-7.168896675109863,-0.6029912829399109
1772698681596157000,15.853156982421876,0.6915257573127747,-9.075976371765137,0.26560330390930176
1772698681613503700,15.870503662109375,1.6965112686157227,-10.631311416625977,1.062413215637207
1772698681630850600,15.8878505859375,1.4620146751403809,-11.140982627868652,1.6773686408996582
1772698681648197400,15.905197265625,1.0265209674835205,-10.526026725769043,2.091326951980591
1772698681665544200,15.922544189453125,0.9978070259094238,-9.56889820098877,2.311466693878174
1772698681682891000,15.93989111328125,1.1772687435150146,-9.095118522644043,2.3712873458862305
1772698681700237800,15.95723779296875,1.100698471069336,-8.956335067749023,2.524427890777588
1772698681717585000,15.9745849609375,0.5407779216766357,-8.839086532592773,3.0029923915863037
1772698681734931700,15.991931640625,0.26081767678260803,-8.810373306274414,3.500699520111084
1772698681752278500,16.009278564453126,1.007378339767456,-8.817551612854004,3.924229145050049
1772698681769625300,16.026625244140625,2.5842485427856445,-8.401200294494629,3.9696927070617676
1772698681786972200,16.04397216796875,4.067798614501953,-7.195217609405518,2.746960401535034
1772698681804319000,16.061319091796875,3.0652058124542236,-6.340980052947998,0.8566305041313171
1772698681821665800,16.078665771484374,0.5168496966362,-7.57806921005249,-0.1818545162677765
1772698681839012600,16.0960126953125,0.1866401731967926,-10.88016414642334,0.7106683254241943
1772698681856359400,16.113359375,1.8089739084243774,-13.686945915222168,2.3401806354522705
1772698681873706200,16.130706298828127,3.3379876613616943,-13.911870956420898,3.0005996227264404
1772698681891053000,16.148052978515626,3.4504501819610596,-11.736795425415039,2.9766714572906494
1772698681908399900,16.16539990234375,2.7661030292510986,-9.030512809753418,2.5052852630615234
1772698681925747000,16.182746826171876,1.7084753513336182,-7.549355506896973,2.447857618331909
1772698681943093800,16.20009375,0.727418065071106,-7.920242786407471,2.0793628692626953
1772698681960440600,16.217440673828126,0.7465606927871704,-8.082955360412598,1.2586246728897095
1772698681977787400,16.234787353515625,0.5096712112426758,-7.195217609405518,0.4091726839542389
1772698681995134200,16.25213427734375,-0.26560330390930176,-6.63769006729126,-0.8446664214134216
1772698682012481000,16.26948095703125,-1.1078768968582153,-7.6474609375,-2.9958138465881348
1772698682029827800,16.286827880859374,-1.4715858697891235,-9.56650447845459,-4.95074987411499
1772698682047174700,16.304174560546876,-2.3473589420318604,-12.519248008728027,-4.883750915527344
1772698682064521500,16.321521484375,-2.8689942359924316,-16.62533187866211,-4.175475597381592
1772698682081868500,16.33886865234375,-2.438286304473877,-19.740787506103516,-2.510071039199829
1772698682099215400,16.35621533203125,-2.2947168350219727,-18.862621307373047,2.6009981632232666
1772698682116562200,16.373562255859376,-2.2779672145843506,-14.878571510314941,7.133004188537598
1772698682133909000,16.390908935546875,-1.947757601737976,-10.906485557556152,8.181060791015625
1772698682151255800,16.408255859375,0.08853443711996078,-7.5804619789123535,6.39601469039917
1772698682168602600,16.4256025390625,2.486142635345459,-5.527420520782471,3.572484254837036
1772698682185949400,16.442949462890624,3.6873397827148438,-5.934200286865234,0.8614161610603333
1772698682203296300,16.460296142578127,3.1202406883239746,-8.338987350463867,-0.8997012972831726
1772698682220643300,16.477643310546874,1.5553346872329712,-10.432706832885742,-1.2035897970199585
1772698682237990100,16.494990234375,-0.2153540402650833,-10.815558433532715,-0.03349951654672623
1772698682255337000,16.5123369140625,-0.6580262184143066,-9.973284721374512,1.3830515146255493
1772698682272683800,16.529683837890627,0.064606212079525,-8.930013656616211,2.053041934967041
1772698682290030600,16.547030517578126,1.1581261157989502,-7.867600917816162,1.466800332069397
1772698682307377400,16.56437744140625,2.3162522315979004,-7.073183536529541,0.8590233325958252
1772698682324724200,16.58172412109375,3.053241729736328,-6.6352972984313965,0.10049854964017868
1772698682342071300,16.5990712890625,3.3954153060913086,-6.580262184143066,-0.3086741268634796
1772698682359418000,16.616418212890625,3.4025938510894775,-6.829115867614746,-0.08135596662759781
1772698682376765000,16.633764892578125,3.1345977783203125,-7.17368221282959,0.7800601720809937
1772698682394111700,16.65111181640625,2.5698914527893066,-7.520641803741455,1.8089739084243774
1772698682411458600,16.66845849609375,2.495713949203491,-8.288737297058105,3.0723843574523926
1772698682428805400,16.685805419921873,3.0628130435943604,-8.992227554321289,4.082155227661133
1772698682446152200,16.703152099609376,3.0077781677246094,-9.300901412963867,4.113262176513672
1772698682463499000,16.7204990234375,3.091526746749878,-9.824930191040039,3.074777126312256
1772698682480845800,16.737845703125,3.8883368968963623,-10.61695384979248,1.4859428405761719
1772698682498193000,16.75519287109375,4.809573650360107,-10.700702667236328,1.435693621635437
1772698682515539700,16.772539794921876,6.049055576324463,-10.39920711517334,3.043670415878296
1772698682532886500,16.789886474609375,5.898307800292969,-13.1365966796875,5.295316696166992
1772698682550233300,16.8072333984375,3.8261234760284424,-18.269201278686523,6.592226505279541
1772698682567580200,16.824580078125,0.6652047038078308,-15.749558448791504,1.6055840253829956
1772698682584927000,16.841927001953124,-3.562912940979004,-13.883156776428223,-0.7489534616470337
1772698682602273800,16.859273681640627,-0.059820566326379776,-14.012369155883789,-1.155733346939087
1772698682619620600,16.87662060546875,-0.7704889178276062,-15.07717514038086,-2.0027925968170166
1772698682636967700,16.8939677734375,-2.517249345779419,-7.3292155265808105,-0.4905286431312561
1772698682654314500,16.911314453125,-2.988635540008545,-5.5728840827941895,0.6795616149902344
1772698682671661300,16.928661376953126,-1.3926228284835815,-5.221138954162598,1.521835207939148
1772698682689008000,16.946008056640625,-0.5958128571510315,-8.812766075134277,2.478964328765869
1772698682706355000,16.96335498046875,-1.3304094076156616,-11.306086540222168,1.703689694404602
1772698682723701800,16.98070166015625,-2.390429735183716,-12.004791259765625,-0.9355936646461487
1772698682741048600,16.998048583984374,-1.7180466651916504,-11.803793907165527,-2.9551360607147217
1772698682758395600,17.015395751953125,0.2225325107574463,-8.930013656616211,-4.649254322052002
1772698682775742500,17.032742431640624,0.973878800868988,-6.850651264190674,-4.42193603515625
1772698682793089300,17.05008935546875,-0.10289137065410614,-5.67338228225708,-2.933600664138794
1772698682810436000,17.06743603515625,-1.25144624710083,-6.178267955780029,-1.222732424736023
1772698682827783000,17.084782958984373,-1.0241280794143677,-7.9585280418396,0.36610186100006104
1772698682845129700,17.102129638671876,-0.13160525262355804,-9.463613510131836,1.4859428405761719
1772698682862476500,17.1194765625,0.3756731450557709,-10.339386940002441,1.8687944412231445
1772698682879823400,17.1368232421875,0.09092725813388824,-10.52363395690918,1.8448662757873535
1772698682897170400,17.15417041015625,0.37806597352027893,-10.16710376739502,1.820937991142273
1772698682914517200,17.171517333984376,1.2729816436767578,-9.590433120727539,1.9764715433120728
1772698682931864000,17.188864013671875,1.4691931009292603,-9.044869422912598,2.376072883605957
1772698682949211000,17.2062109375,0.8590233325958252,-8.731410026550293,2.9599215984344482
1772698682966557700,17.2235576171875,0.4378865361213684,-8.671588897705078,3.34995174407959
1772698682983904500,17.240904541015624,0.4785645306110382,-8.74337387084961,3.460021495819092
1772698683001251300,17.258251220703126,0.6125625967979431,-9.028120040893555,3.345165967941284
1772698683018598100,17.27559814453125,0.31345975399017334,-9.181260108947754,3.081955671310425
1772698683035945200,17.2929453125,0.44745782017707825,-8.97787094116211,2.5914268493652344
1772698683053292000,17.3102919921875,1.648654818534851,-8.475378036499023,1.643869161605835
1772698683070638800,17.327638916015626,3.036491870880127,-7.5637125968933105,0.3756731450557709
1772698683087985700,17.344985595703125,2.5435705184936523,-7.16650390625,-0.12203395366668701
1772698683105332500,17.36233251953125,0.7106683254241943,-8.673981666564941,1.0552347898483276
1772698683122679300,17.37967919921875,0.5838487148284912,-11.392229080200195,1.6773686408996582
1772698683140026000,17.397026123046874,1.923829436302185,-13.88076400756836,2.5938198566436768
1772698683157373000,17.414373046875,2.115255117416382,-13.452448844909668,3.4480574131011963
1772698683174720000,17.431719970703124,1.2921242713928223,-10.6624174118042,3.665804386138916
1772698683192066800,17.44906689453125,1.0600204467773438,-8.72901725769043,2.68953275680542
1772698683209413600,17.46641357421875,0.9379864931106567,-7.077969551086426,1.246660590171814
1772698683226760400,17.483760498046873,-0.02871387079358101,-6.704689025878906,-0.24646073579788208
1772698683244107300,17.501107177734376,-0.5910272002220154,-7.489534854888916,-2.6536402702331543
1772698683261454000,17.5184541015625,-1.210768222808838,-8.776873588562012,-4.4961137771606445
1772698683278801000,17.53580078125,-2.2707886695861816,-10.432706832885742,-4.893322467803955
1772698683296148000,17.55314794921875,-2.3880369663238525,-12.356535911560059,-4.996213912963867
1772698683313494800,17.570494873046876,-2.124826431274414,-14.56511116027832,-4.194618225097656
1772698683330841600,17.587841552734375,-1.3399807214736938,-15.924234390258789,-1.3160524368286133
1772698683348188400,17.6051884765625,-0.13639089465141296,-15.914663314819336,3.8356947898864746
1772698683365535200,17.62253515625,-0.17228323221206665,-14.665610313415527,8.776873588562012
1772698683382882000,17.639882080078124,-1.794616937637329,-11.708081245422363,10.363314628601074
1772698683400228900,17.657228759765626,-1.8113667964935303,-8.523234367370605,7.401000499725342
1772698683417575700,17.67457568359375,-0.0526420995593071,-7.499105930328369,4.051048755645752
1772698683434922800,17.6919228515625,1.5314065217971802,-7.929814338684082,1.5050854682922363
1772698683452269600,17.70926953125,2.493321180343628,-8.86780071258545,-0.37806597352027893
1772698683469616400,17.726616455078126,2.4119651317596436,-9.370293617248535,-1.2299108505249023
1772698683486963200,17.743963134765625,1.3304094076156616,-9.391828536987305,-1.2323036193847656
1772698683504310000,17.76131005859375,0.4977070987224579,-8.9850492477417,-0.7106683254241943
1772698683521656800,17.77865673828125,0.27756741642951965,-8.427521705627441,-0.035892341285943985
1772698683539004000,17.79600390625,0.19381862878799438,-8.25523853302002,0.6963114142417908
1772698683556350700,17.813350830078125,0.3613162338733673,-8.171489715576172,0.973878800868988
1772698683573697500,17.830697509765624,1.3160524368286133,-7.824530124664307,0.9044869542121887
1772698683591044400,17.84804443359375,2.311466693878174,-7.704888820648193,0.20817556977272034
1772698683608391200,17.86539111328125,3.211168050765991,-7.630711555480957,-0.39960137009620667
1772698683625738000,17.882738037109377,3.589233875274658,-7.427321434020996,-0.4833501875400543
1772698683643084800,17.900084716796876,3.294916868209839,-7.214360237121582,-0.019142581149935722
1772698683660432000,17.917431884765627,2.9718856811523438,-7.436892986297607,1.191625714302063
1772698683677778700,17.93477880859375,3.510270833969116,-8.214560508728027,2.6009981632232666
1772698683695125500,17.95212548828125,3.7232320308685303,-9.820143699645996,4.417150497436523
1772698683712472300,17.969472412109376,2.675175666809082,-11.576476097106934,5.965306758880615
1772698683729819100,17.986819091796875,2.376072883605957,-11.686545372009277,4.5583271980285645
1772698683747166000,18.004166015625,2.840280532836914,-10.760523796081543,2.861815929412842
1772698683764512800,18.0215126953125,3.9314076900482178,-8.949156761169434,2.249253273010254
1772698683781859800,18.03885986328125,5.0225348472595215,-11.152946472167969,3.012563705444336
1772698683799206700,18.05620654296875,5.927021503448486,-14.46461296081543,3.2542388439178467
1772698683816553500,18.073553466796874,2.500499725341797,-14.612967491149902,1.0719845294952393
1772698683833900300,18.090900390625,-6.044270038604736,-16.869400024414062,0.8709874153137207
1772698683851247000,18.1082470703125,-3.4648072719573975,-18.850656509399414,-0.41874396800994873
1772698683868594000,18.125593994140626,-3.129812002182007,-12.851850509643555,-1.7754744291305542
1772698683885941000,18.14294091796875,-1.5720844268798828,-7.09711217880249,-0.9116654396057129
1772698683903287800,18.160287841796876,-0.8566305041313171,-3.737588882446289,-0.3158525824546814
1772698683920634600,18.177634521484375,-0.7369893789291382,-5.292923450469971,-1.0767701864242554
1772698683937981400,18.1949814453125,-0.3278166949748993,-8.425128936767578,-1.5912270545959473
1772698683955328300,18.212328369140625,-0.7800601720809937,-10.84427261352539,-3.0652058124542236
1772698683972675000,18.229675048828124,-0.4953143000602722,-14.32582950592041,-3.7950167655944824
1772698683990022000,18.24702197265625,0.914058268070221,-14.244473457336426,-2.644068956375122
1772698684007369000,18.264368896484374,0.8039883971214294,-9.559326171875,-1.6295121908187866
1772698684024715800,18.2817158203125,0.28235307335853577,-7.020541667938232,-0.9188438653945923
1772698684042062600,18.2990625,-0.2727817893028259,-6.429514408111572,0.24885354936122894
1772698684059409400,18.316409423828127,0.5288137793540955,-7.944170951843262,1.5744773149490356
1772698684076756200,18.333756103515626,1.4835500717163086,-9.090332984924316,2.414358139038086
1772698684094103000,18.35110302734375,1.3256237506866455,-10.164710998535156,3.2829527854919434
1772698684111449900,18.368449951171876,0.8327022790908813,-10.351350784301758,3.531806230545044
1772698684128797000,18.385796875,1.2610175609588623,-9.461220741271973,3.2279176712036133
1772698684146143700,18.403143798828125,2.548356056213379,-8.551948547363281,2.8139593601226807
1772698684163490600,18.420490478515624,2.909672260284424,-8.26241683959961,2.746960401535034
1772698684180837400,18.43783740234375,2.1774685382843018,-8.511270523071289,3.1561331748962402
1772698684198184200,18.45518408203125,1.4093725681304932,-8.791230201721191,3.469592809677124
1772698684215531000,18.472531005859373,1.25144624710083,-9.018548965454102,3.7399818897247314
1772698684232877800,18.4898779296875,1.4093725681304932,-9.267401695251465,3.7160534858703613
1772698684250225000,18.507224853515623,1.6295121908187866,-9.18843936920166,3.2925238609313965
1772698684267571700,18.52457177734375,1.9070796966552734,-8.695517539978027,2.344966173171997
1772698684284918500,18.54191845703125,2.352144718170166,-8.025527000427246,1.1341979503631592
1772698684302265300,18.559265380859376,2.3545374870300293,-7.712067604064941,0.1339980661869049
1772698684319612200,18.576612060546875,1.9573289155960083,-8.154739379882812,-0.35413774847984314
1772698684336959000,18.593958984375,1.765903115272522,-9.379864692687988,0.09092725813388824
1772698684354305800,18.611305908203125,2.3497519493103027,-10.6025972366333,0.32542386651039124
1772698684371652900,18.62865283203125,2.957528829574585,-11.229516983032227,0.7920243144035339
1772698684388999700,18.645999755859375,3.060420274734497,-11.229516983032227,1.698904037475586
1772698684406346500,18.663346435546874,2.5148565769195557,-11.219944953918457,2.581855535507202
1772698684423693300,18.680693359375,1.2705888748168945,-11.109875679016113,3.218346357345581
1772698684441040100,18.6980400390625,0.48813581466674805,-10.561919212341309,3.077169895172119
1772698684458387000,18.715386962890626,-0.2560320198535919,-9.233902931213379,2.6225335597991943
1772698684475733800,18.732733642578125,-0.3900300860404968,-8.659625053405762,1.4739787578582764
1772698684493080800,18.750080810546876,-0.3397808074951172,-8.652446746826172,0.0023928226437419653
1772698684510427600,18.767427734375,-0.97148597240448,-7.8819580078125,-1.3304094076156616
1772698684527774500,18.7847744140625,-1.490728497505188,-7.475177764892578,-2.060220241546631
1772698684545121300,18.802121337890625,-1.5672988891601562,-8.585447311401367,-2.9479575157165527
1772698684562468000,18.819468017578124,-1.9357935190200806,-10.25324535369873,-1.9381862878799438
1772698684579815000,18.83681494140625,-1.919043779373169,-12.679567337036133,0.8303094506263733
1772698684597161700,18.85416162109375,-1.057627558708191,-16.319049835205078,3.7734813690185547
1772698684614508800,18.8715087890625,-0.02153540402650833,-17.367107391357422,7.525427341461182
1772698684631855600,18.888855712890624,-0.7154539823532104,-13.234702110290527,7.913064479827881
1772698684649202400,18.906202392578123,-0.6652047038078308,-9.44447135925293,4.778466701507568
1772698684666549200,18.92354931640625,0.5862415432929993,-6.709474563598633,2.7493531703948975
1772698684683896000,18.94089599609375,1.6941183805465698,-6.290730953216553,1.038485050201416
1772698684701243000,18.958242919921876,3.1920254230499268,-7.302894592285156,-0.4905286431312561
1772698684718590000,18.97558984375,3.5054850578308105,-8.559126853942871,-1.2394821643829346
1772698684735936800,18.992936767578126,2.3090739250183105,-9.839286804199219,-1.3112667798995972
1772698684753283600,19.01028369140625,0.6556333899497986,-10.604990005493164,0.035892341285943985
1772698684770630400,19.02763037109375,-0.30628129839897156,-10.451848983764648,2.115255117416382
1772698684787977200,19.044977294921875,-0.0933200865983963,-9.45882797241211,2.7732813358306885
1772698684805324000,19.062323974609374,1.1724830865859985,-8.726624488830566,1.7587246894836426
1772698684822670800,19.0796708984375,2.4095723628997803,-8.260024070739746,0.6819544434547424
1772698684840018000,19.097017822265624,3.290131092071533,-7.554141044616699,-0.48095735907554626
1772698684857364700,19.11436474609375,3.893122434616089,-7.288537979125977,-1.0959128141403198
1772698684874711600,19.131711669921874,3.900300979614258,-7.054041385650635,-0.641276478767395
1772698684892058400,19.149058349609376,3.462414264678955,-7.013363361358643,0.7513462901115417
1772698684909405200,19.1664052734375,3.10109806060791,-7.204789161682129,2.2995026111602783
1772698684926752000,19.183751953125,3.6394832134246826,-7.549355506896973,3.596412420272827
1772698684944099000,19.20109912109375,3.16331148147583,-8.336593627929688,4.852644443511963
1772698684961446000,19.21844580078125,2.3545374870300293,-8.980263710021973,4.785645484924316
1772698684978792700,19.235792724609375,2.53399920463562,-10.15035343170166,2.6464617252349854
1772698684996139500,19.253139404296874,3.924229145050049,-11.337193489074707,1.672582983970642
1772698685013486300,19.270486328125,7.1473612785339355,-10.461421012878418,3.1202406883239746
1772698685030833200,19.287833251953124,7.0683979988098145,-10.363314628601074,4.833501815795898
1772698685048180200,19.30518017578125,5.651846885681152,-13.40698528289795,6.008377552032471
1772698685065527000,19.322527099609374,1.28255295753479,-16.95793342590332,3.9290146827697754
1772698685082873900,19.339873779296877,-3.046063184738159,-18.549161911010742,-0.9475577473640442
1772698685100220700,19.357220703125,-3.8285162448883057,-21.638294219970703,-1.2945170402526855
1772698685117567500,19.3745673828125,-1.5026925802230835,-16.04387664794922,-2.2157537937164307
1772698685134914600,19.39191455078125,-0.2632105052471161,-6.211767673492432,-0.09571290761232376
1772698685152261400,19.409261474609377,-2.062613010406494,-1.215553879737854,0.09092725813388824
1772698685169608200,19.426608154296876,-1.9980069398880005,-1.8592232465744019,0.5264210104942322
1772698685186955000,19.443955078125,-1.0432707071304321,-7.460821151733398,1.8831514120101929
1772698685204301800,19.4613017578125,-1.5146567821502686,-10.736595153808594,1.1030912399291992
1772698685221648600,19.478648681640625,-2.4023938179016113,-13.344772338867188,-0.7226324677467346
1772698685238995700,19.49599560546875,-1.3040883541107178,-14.06979751586914,-1.9214365482330322
1772698685256342500,19.513342529296875,0.7034898400306702,-10.430314064025879,-3.2039895057678223
1772698685273689300,19.530689453125,1.6534404754638672,-7.386643409729004,-2.9694929122924805
1772698685291036200,19.5480361328125,0.3924229145050049,-5.44845724105835,-2.4646072387695312
1772698685308383000,19.565383056640623,-1.3782658576965332,-5.00578498840332,-1.4117653369903564
1772698685325729800,19.582729736328126,-1.5984054803848267,-6.960721015930176,0.1986042857170105
1772698685343076900,19.600076904296873,-0.7178468108177185,-8.7505521774292,0.8877372145652771
1772698685360423700,19.617423583984376,0.7968099117279053,-10.097711563110352,1.3351950645446777
1772698685377770500,19.6347705078125,0.8398807644844055,-10.676774978637695,1.2969099283218384
1772698685395117300,19.652117431640626,0.3038884699344635,-10.561919212341309,1.1078768968582153
1772698685412464000,19.669464111328125,0.882951557636261,-10.109675407409668,1.1700903177261353
1772698685429811200,19.686811279296876,1.734796404838562,-9.789037704467773,0.9332008361816406
1772698685447158000,19.704157958984375,1.5050854682922363,-9.53061294555664,1.3519448041915894
1772698685464504800,19.7215048828125,0.6628118753433228,-9.200403213500977,2.210968017578125
1772698685481851600,19.7388515625,0.19621145725250244,-9.001798629760742,2.9599215984344482
1772698685499198500,19.756198486328124,0.5862415432929993,-8.901300430297852,3.510270833969116
1772698685516545300,19.773545166015627,1.3950155973434448,-8.717052459716797,3.5533416271209717
1772698685533892000,19.79089208984375,1.679761528968811,-8.413164138793945,2.7349963188171387
1772698685551239200,19.8082392578125,1.7156537771224976,-8.444271087646484,1.399801254272461
1772698685568586000,19.8255859375,1.2275179624557495,-8.793622970581055,0.18903298676013947
1772698685585932800,19.842932861328126,1.031306505203247,-9.851250648498535,-0.10767702013254166
1772698685603279600,19.860279541015625,1.423729419708252,-11.109875679016113,0.8877372145652771
1772698685620626400,19.87762646484375,1.2083754539489746,-11.624332427978516,1.5050854682922363
1772698685637973200,19.89497314453125,1.2251251935958862,-11.703295707702637,1.5146567821502686
1772698685655320000,19.912320068359374,1.9357935190200806,-10.86580753326416,1.7826528549194336
1772698685672667100,19.929667236328125,1.6558332443237305,-9.528220176696777,2.392822742462158
1772698685690014000,19.947013916015624,1.1150553226470947,-8.989834785461426,2.115255117416382
1772698685707360800,19.96436083984375,0.9188438653945923,-7.8388872146606445,1.3088740110397339
1772698685724707600,19.98170751953125,-0.25363919138908386,-6.601797580718994,-0.009571290574967861
1772698685742054400,19.999054443359373,-1.2801600694656372,-6.491727828979492,-2.392822742462158
1772698685759401200,20.016401123046876,-1.5385849475860596,-8.315058708190918,-4.66361141204834
1772698685776748300,20.033748291015623,-1.9812572002410889,-11.418549537658691,-4.728217601776123
1772698685794095000,20.05109521484375,-2.311466693878174,-13.837693214416504,-3.627519130706787
1772698685811442000,20.06844189453125,-2.1272194385528564,-15.663416862487793,-2.5914268493652344
1772698685828788700,20.085788818359376,-1.6965112686157227,-16.56551170349121,0.39960137009620667
1772698685846135600,20.103135498046875,-1.5792629718780518,-15.689738273620605,4.168296813964844
1772698685863482400,20.120482421875,-0.4019941985607147,-12.988241195678711,7.812565803527832
1772698685880829400,20.137829345703125,0.07657032459974289,-9.34157943725586,8.169096946716309
1772698685898176300,20.15517626953125,1.0600204467773438,-6.448657035827637,5.185246467590332
1772698685915523000,20.172523193359375,2.6081767082214355,-5.6446685791015625,1.8592232465744019
1772698685932870000,20.189869873046874,2.830709218978882,-7.393822193145752,-0.0023928226437419653
1772698685950216700,20.207216796875,2.4765713214874268,-9.468399047851562,-0.763310432434082
1772698685967563800,20.224563720703124,1.5170495510101318,-10.456634521484375,-0.35892340540885925
1772698685984910600,20.24191064453125,0.4043870270252228,-10.686346054077148,0.8303094506263733
1772698686002257400,20.25925732421875,-0.04307080805301666,-10.403992652893066,1.9166508913040161
1772698686019604200,20.276604248046876,0.37088751792907715,-9.377471923828125,2.4406790733337402
1772698686036951000,20.293950927734375,1.2490534782409668,-8.176275253295898,1.919043779373169
1772698686054298000,20.311298095703126,2.108076810836792,-7.51585578918457,1.062413215637207
1772698686071645000,20.32864501953125,2.6321048736572266,-7.331608772277832,0.1339980661869049
1772698686088991700,20.34599169921875,2.864208698272705,-7.379465103149414,-0.4618147611618042
1772698686106338600,20.363338623046875,2.854637384414673,-7.494320392608643,-0.19142581522464752
1772698686123685400,20.380685302734374,2.6057839393615723,-7.518248558044434,0.7130611538887024
1772698686141032200,20.3980322265625,2.4406790733337402,-7.664210796356201,1.5912270545959473
1772698686158379300,20.415379150390624,2.6536402702331543,-8.097311973571777,2.682354211807251
1772698686175726000,20.43272607421875,3.445664644241333,-8.475378036499023,3.570091485977173
1772698686193073000,20.450072998046874,2.610569477081299,-8.757730484008789,3.8572301864624023
1772698686210419700,20.467419677734377,2.691925525665283,-9.449256896972656,3.656233072280884
1772698686227766500,20.4847666015625,3.9744784832000732,-9.693324089050293,2.4095723628997803
1772698686245113300,20.50211328125,5.867201328277588,-10.186245918273926,2.7349963188171387
1772698686262460400,20.51946044921875,6.9344000816345215,-10.918449401855469,4.991427898406982
1772698686279807200,20.53680712890625,5.996413707733154,-10.985448837280273,6.86261510848999
1772698686297154000,20.554154052734376,3.5581271648406982,-14.151153564453125,7.456035137176514
1772698686314500900,20.5715009765625,-1.5002998113632202,-17.9820613861084,2.792423963546753
1772698686331847700,20.58884765625,-2.562713146209717,-15.290136337280273,-1.0504491329193115
1772698686349194800,20.60619482421875,-2.0554347038269043,-12.911670684814453,-2.304288148880005
1772698686366541600,20.62354150390625,-4.137190341949463,-14.694323539733887,-0.7776673436164856
1772698686383888400,20.640888427734374,-3.4887354373931885,-9.841679573059082,-2.586641311645508
1772698686401235200,20.658235107421874,-3.1561331748962402,-7.5804619789123535,-1.765903115272522
1772698686418582000,20.67558203125,-1.4524433612823486,-6.963113784790039,-1.576870083808899
1772698686435928800,20.6929287109375,-0.22971096634864807,-6.900900363922119,-0.4977070987224579
1772698686453276000,20.71027587890625,-1.6366907358169556,-9.913464546203613,-0.3852444589138031
1772698686470622700,20.727622802734373,-2.242074728012085,-11.040483474731445,-1.7467604875564575
1772698686487969500,20.744969482421876,0.059820566326379776,-11.889935493469238,-1.521835207939148
1772698686505316400,20.76231640625,0.9212366938591003,-9.650253295898438,-1.5170495510101318
1772698686522663200,20.7796630859375,-0.03349951654672623,-7.475177764892578,-1.069591760635376
1772698686540010200,20.79701025390625,-0.9786644577980042,-5.9437713623046875,-0.009571290574967861
1772698686557357000,20.814357177734376,-0.7369893789291382,-6.278766632080078,1.5481562614440918
1772698686574703900,20.831703857421875,0.4713860750198364,-7.458428382873535,2.407179594039917
1772698686592050700,20.84905078125,1.0767701864242554,-8.47298526763916,2.445464849472046
1772698686609397500,20.8663974609375,0.5407779216766357,-9.42054271697998,2.062613010406494
1772698686626744600,20.88374462890625,-0.4426721930503845,-10.358529090881348,1.4141582250595093
1772698686644091400,20.90109130859375,0.07417750358581543,-11.181660652160645,1.466800332069397
1772698686661438200,20.918438232421874,1.5481562614440918,-11.143375396728516,2.0482561588287354
1772698686678785000,20.935784912109376,1.6630117893218994,-9.753145217895508,3.0317063331604004
1772698686696131800,20.9531318359375,1.435693621635437,-8.279166221618652,4.187439441680908
1772698686713478700,20.970478759765626,1.7778671979904175,-7.668996810913086,4.962714195251465
1772698686730825700,20.98782568359375,2.2061824798583984,-7.420143127441406,5.089533805847168
1772698686748172500,21.005172607421876,1.8640087842941284,-7.7455668449401855,4.692325115203857
1772698686765519400,21.022519287109375,1.6606189012527466,-8.439485549926758,3.239881753921509
1772698686782866200,21.0398662109375,2.256431818008423,-8.980263710021973,1.215553879737854
1772698686800213000,21.057212890625,2.66560435295105,-9.592825889587402,-0.4785645306110382
1772698686817559800,21.074559814453124,1.552941918373108,-10.506884574890137,-1.1150553226470947
1772698686834907000,21.091906982421875,0.5144568681716919,-11.679367065429688,-0.1698904037475586
1772698686852253700,21.109253662109374,0.7489534616470337,-12.299108505249023,1.0097711086273193
1772698686869600500,21.1266005859375,2.744567632675171,-11.497512817382812,1.8233308792114258
1772698686886947300,21.143947265625,3.3332018852233887,-9.65503978729248,2.5770699977874756
1772698686904294100,21.161294189453123,2.6775684356689453,-8.059026718139648,2.9623143672943115
1772698686921641000,21.178640869140626,2.117648124694824,-8.085348129272461,2.837887763977051
1772698686938988000,21.195988037109377,1.3040883541107178,-8.34138011932373,2.1894326210021973
1772698686956334800,21.2133349609375,-0.3278166949748993,-8.243273735046387,1.1724830865859985
1772698686973681700,21.230681640625,-1.4333007335662842,-8.956335067749023,-0.06939185410737991
1772698686991028500,21.248028564453126,-1.7563318014144897,-10.17428207397461,-0.6364908218383789
1772698687008375300,21.265375244140625,-1.8496519327163696,-10.628918647766113,-1.3280165195465088
1772698687025722400,21.282722412109376,-1.8448662757873535,-10.310672760009766,-1.7395820617675781
1772698687043069200,21.300069091796875,-1.8305093050003052,-9.671789169311523,-1.9046868085861206
1772698687060416000,21.317416015625,-1.179661512374878,-11.011770248413086,-0.8087740540504456
1772698687077762800,21.3347626953125,-0.09092725813388824,-13.701302528381348,1.703689694404602
1772698687095109600,21.352109619140624,0.3278166949748993,-15.486348152160645,4.764110088348389
1772698687112456700,21.369456787109375,-0.4211367964744568,-14.577075958251953,8.597412109375
1772698687129803500,21.386803466796874,-1.7754744291305542,-11.801401138305664,8.02791976928711
1772698687147150300,21.404150390625,-1.0241280794143677,-9.695717811584473,4.974678039550781
1772698687164497200,21.4214970703125,1.6845471858978271,-7.357929706573486,3.0269205570220947
1772698687181844000,21.438843994140626,2.3258235454559326,-5.807380676269531,1.6342978477478027
1772698687199191000,21.45619091796875,2.201396942138672,-6.903293132781982,1.0504491329193115
1772698687216537900,21.473537841796876,2.706282377243042,-8.133204460144043,0.35892340540885925
1772698687233884700,21.490884765625,2.5459632873535156,-8.764909744262695,0.14835500717163086
1772698687251231500,21.5082314453125,1.557727575302124,-9.044869422912598,0.8207381963729858
1772698687268578300,21.525578369140625,0.8374879360198975,-9.205188751220703,1.852044701576233
1772698687285925000,21.542925048828124,0.8207381963729858,-9.233902931213379,2.4406790733337402
1772698687303272200,21.560272216796875,1.3926228284835815,-8.956335067749023,2.311466693878174
1772698687320619000,21.577618896484374,2.242074728012085,-8.551948547363281,1.8305093050003052
1772698687337965800,21.5949658203125,3.218346357345581,-7.936992645263672,1.3878371715545654
1772698687355312600,21.612312744140624,3.538984775543213,-7.324429988861084,1.184447169303894
1772698687372659500,21.629659423828127,3.579662561416626,-6.929614543914795,1.0097711086273193
1772698687390006500,21.647006591796874,3.335594654083252,-6.805187702178955,1.0648061037063599
1772698687407353300,21.664353271484377,3.955335855484009,-6.975078105926514,1.7515461444854736
1772698687424700200,21.6817001953125,3.9672999382019043,-7.81974458694458,2.878565549850464
1772698687442047000,21.699046875,2.548356056213379,-9.193224906921387,4.041477680206299
1772698687459394000,21.71639404296875,2.3473589420318604,-10.746166229248047,3.2781670093536377
1772698687476740900,21.733740966796876,3.838087558746338,-11.85165023803711,1.9621145725250244
1772698687494087700,21.751087646484375,5.965306758880615,-11.502298355102539,2.641676187515259
1772698687511434500,21.7684345703125,6.259624004364014,-12.337393760681152,3.737588882446289
1772698687528781300,21.78578125,3.404986619949341,-15.335599899291992,3.5988051891326904
1772698687546128400,21.80312841796875,-1.2729816436767578,-15.704094886779785,2.0889341831207275
1772698687563475200,21.82047509765625,-3.2685956954956055,-15.060425758361816,1.4189438819885254
1772698687580822000,21.837822021484374,-2.0315065383911133,-17.991634368896484,1.7611174583435059
1772698687598168800,21.8551689453125,-1.8951154947280884,-13.194024085998535,1.4524433612823486
1772698687615515600,21.872515625,-1.306481122970581,-6.697510719299316,-0.02632104977965355
1772698687632862500,21.889862548828123,-0.5096712112426758,-3.1680972576141357,-1.0815558433532715
1772698687650209500,21.90720947265625,-0.004785645287483931,-5.020142078399658,-0.07896314561367035
1772698687667556400,21.924556396484373,-0.10289137065410614,-8.865407943725586,0.607776939868927
1772698687684903200,21.941903076171876,-1.0863415002822876,-11.401800155639648,-0.7106683254241943
1772698687702250000,21.95925,-0.605384111404419,-14.34736442565918,-1.5050854682922363
1772698687719597000,21.97659716796875,0.5838487148284912,-13.495519638061523,-1.454836130142212
1772698687736943900,21.99394384765625,-0.064606212079525,-9.33440113067627,-1.007378339767456
