time,seconds_elapsed,z,y,x
1772534567952994800,0.251994873046875,8.963715553283691,0.6830779910087585,1.1203969717025757
1772534567967858000,0.26685791015625,8.89667797088623,0.6184340119361877,0.9551969766616821
1772534567977767700,0.276767578125,9.10018539428711,0.40774500370025635,0.8139389753341675
1772534567987677400,0.286677490234375,9.303691864013672,0.2114199995994568,0.6774700284004211
1772534567997587200,0.296587158203125,9.413825988769531,0.09410399943590164,0.708594024181366
1772534568007497200,0.306497314453125,9.459315299987793,0.10368099808692932,0.725354015827179
1772534568017407000,0.316406982421875,9.600573539733887,0.17550699412822723,0.7157769799232483
1772534568027316700,0.326316650390625,9.720284461975098,0.3239479959011078,0.8067569732666016
1772534568037226500,0.3362265625,9.851964950561523,0.4628109931945801,0.7971799969673157
1772534568047136500,0.346136474609375,9.916607856750488,0.49632999300956726,0.7708439826965332
1772534568057046300,0.35604638671875,9.954915046691895,0.40056198835372925,0.7157769799232483
1772534568066956000,0.3659560546875,9.978857040405273,0.19944900274276733,0.6343740224838257
1772534568076865800,0.37586572265625,9.727465629577637,0.113257996737957,0.5817019939422607
1772534568086775800,0.38577587890625,9.097790718078613,0.2353619933128357,0.641556978225708
1772534568096685600,0.395685546875,8.221512794494629,0.35986098647117615,0.8666120171546936
1772534568106595300,0.40559521484375,7.802526950836182,0.340707004070282,0.9647740125656128
1772534568116505000,0.415505126953125,8.753026008605957,0.07973899692296982,0.9384379982948303
1772534568126414800,0.425414794921875,9.74808406829834,0.028968000784516335,1.006993055343628
1772534568136324600,0.43532470703125,9.751002311706543,-0.03508299961686134,0.9781190156936646
1772534568146234400,0.445234375,9.752812385559082,-0.09967900067567825,0.9553599953651428
1772534568156144400,0.455144287109375,9.753129005432129,-0.16010800004005432,0.9438549876213074
1772534568166054100,0.46505419921875,9.752241134643555,-0.2225950062274933,0.9403529763221741
1772534568175964000,0.4749638671875,9.750035285949707,-0.2566939890384674,0.9544360041618347
1772534568185874000,0.4848740234375,9.746620178222656,-0.2642650008201599,0.9867010116577148
1772534568195783700,0.49478369140625,9.743260383605957,-0.258417010307312,1.0208369493484497
1772534568205693400,0.504693359375,9.739598274230957,-0.24191999435424805,1.0591009855270386
1772534568215603500,0.514603515625,9.734734535217285,-0.21810899674892426,1.1078579425811768
1772534568225513200,0.52451318359375,9.728326797485352,-0.19523300230503082,1.1668529510498047
1772534568235423000,0.534423095703125,9.720541000366211,-0.1783509999513626,1.232593059539795
1772534568245333000,0.5443330078125,9.713091850280762,-0.17338299751281738,1.29066002368927
1772534568255242800,0.55424267578125,9.709264755249023,-0.18004299700260162,1.3182580471038818
1772534568265152800,0.56415283203125,9.707372665405273,-0.19696499407291412,1.3297009468078613
1772534568275062500,0.5740625,9.71042537689209,-0.2220270037651062,1.30320405960083
1772534568284972300,0.58397216796875,9.71711254119873,-0.25609898567199707,1.2458460330963135
1772534568294882000,0.593882080078125,9.727326393127441,-0.2952269911766052,1.1541260480880737
1772534568304792000,0.6037919921875,9.739602088928223,-0.3340330123901367,1.0337320566177368
1772534568314701800,0.613701904296875,9.753731727600098,-0.3653169870376587,0.8782209753990173
1772534568324611600,0.623611572265625,9.765778541564941,-0.3912079930305481,0.7186890244483948
1772534568334521600,0.633521484375,9.774782180786133,-0.4120419919490814,0.5690680146217346
1772534568344431000,0.64343115234375,9.780281066894531,-0.4301370084285736,0.4484440088272095
1772534568354340900,0.6533408203125,9.783352851867676,-0.4535210132598877,0.34690800309181213
1772534568364251100,0.663251220703125,9.784661293029785,-0.48896199464797974,0.24769699573516846
1772534568374160600,0.67316064453125,9.784308433532715,-0.5352659821510315,0.14425800740718842
1772534568384070400,0.6830703125,9.782551765441895,-0.5828940272331238,0.0440169982612133
1772534568393980400,0.69298046875,9.779751777648926,-0.6276580095291138,-0.050276000052690506
1772534568403890200,0.70289013671875,9.776638984680176,-0.6632980108261108,-0.13191600143909454
1772534568413800000,0.712800048828125,9.776657104492188,-0.6534150242805481,-0.17332200706005096
1772534568423710000,0.7227099609375,9.778827667236328,-0.6281059980392456,-0.14149799942970276
1772534568433619700,0.73261962890625,9.781911849975586,-0.5928400158882141,-0.05245300009846687
1772534568443529500,0.742529541015625,9.783082008361816,-0.5729129910469055,0.055776000022888184
1772534568453439500,0.752439453125,9.781529426574707,-0.5826410055160522,0.14919400215148926
1772534568463349200,0.762349365234375,9.778449058532715,-0.6157280206680298,0.20690999925136566
1772534568473259000,0.772259033203125,9.775064468383789,-0.6606519818305969,0.22729599475860596
1772534568483169000,0.7821689453125,9.771303176879883,-0.7100229859352112,0.239765003323555
1772534568493078800,0.792078857421875,9.76694393157959,-0.7623310089111328,0.2562730014324188
1772534568502988500,0.801988525390625,9.762360572814941,-0.8136540055274963,0.2725760042667389
1772534568512898600,0.811898681640625,9.757589340209961,-0.8622919917106628,0.29309800267219543
1772534568522808300,0.821808349609375,9.752238273620605,-0.9139580130577087,0.31387001276016235
1772534568532718000,0.831718017578125,9.747204780578613,-0.9647470116615295,0.31824201345443726
1772534568542628000,0.841628173828125,9.742690086364746,-1.0138670206069946,0.3034450113773346
1772534568552537600,0.85153759765625,9.73780345916748,-1.068416953086853,0.27143898606300354
1772534568562447400,0.861447265625,9.731621742248535,-1.1329710483551025,0.22787199914455414
1772534568572357400,0.871357421875,9.723527908325195,-1.2093820571899414,0.17444199323654175
1772534568582267100,0.88126708984375,9.713534355163574,-1.2908309698104858,0.1449269950389862
1772534568592177000,0.891177001953125,9.7019624710083,-1.3770389556884766,0.12522000074386597
1772534568602087000,0.9010869140625,9.688111305236816,-1.470481038093567,0.1348620057106018
1772534568611996700,0.91099658203125,9.667701721191406,-1.6002639532089233,0.12140599638223648
1772534568621906400,0.920906494140625,9.644275665283203,-1.7373590469360352,0.09772499650716782
1772534568631816200,0.930816162109375,9.612988471984863,-1.903825044631958,0.07667499780654907
1772534568641726200,0.940726318359375,9.572490692138672,-2.0992319583892822,0.025989999994635582
1772534568651636000,0.950635986328125,9.521066665649414,-2.3208088874816895,-0.056258998811244965
1772534568661545700,0.960545654296875,9.460989952087402,-2.5484979152679443,-0.18664799630641937
1772534568671455700,0.970455810546875,9.39395523071289,-2.7698490619659424,-0.3486430048942566
1772534568681365200,0.980365234375,9.319070816040039,-2.9846301078796387,-0.5356550216674805
1772534568691275000,0.99027490234375,9.2338285446167,-3.198000907897949,-0.7410789728164673
1772534568701185000,1.00018505859375,9.137345314025879,-3.4090940952301025,-0.9628090262413025
1772534568711094800,1.0100947265625,9.03000545501709,-3.6147971153259277,-1.196789026260376
1772534568721004500,1.020004638671875,8.911211013793945,-3.81516695022583,-1.4404289722442627
1772534568730914600,1.02991455078125,8.781068801879883,-4.010015964508057,-1.6889710426330566
1772534568740824300,1.03982421875,8.63682746887207,-4.202470779418945,-1.9453779458999634
1772534568750734000,1.049734130859375,8.475137710571289,-4.3952460289001465,-2.2121999263763428
1772534568760644000,1.05964404296875,8.294936180114746,-4.593091011047363,-2.477415084838867
1772534568770553900,1.069553955078125,8.097479820251465,-4.804321765899658,-2.7183339595794678
1772534568780463600,1.079463623046875,7.889833927154541,-5.03241491317749,-2.9095211029052734
1772534568790373400,1.089373291015625,7.6772990226745605,-5.274313926696777,-3.0464251041412354
1772534568800283400,1.099283447265625,7.466063022613525,-5.515167236328125,-3.143378973007202
1772534568810193200,1.109193115234375,7.260976791381836,-5.739046096801758,-3.222043037414551
1772534568830012700,1.1290126953125,6.844982147216797,-6.13561487197876,-3.3971219062805176
1772534568839922400,1.13892236328125,6.6147332191467285,-6.323404788970947,-3.507111072540283
1772534568849832400,1.14883251953125,6.359556198120117,-6.5134711265563965,-3.629148006439209
1772534568859742200,1.1587421875,6.082766056060791,-6.702820777893066,-3.7566099166870117
1772534568869652000,1.16865185546875,5.801305770874023,-6.883766174316406,-3.872802972793579
1772534568879562000,1.17856201171875,5.532609939575195,-7.054412841796875,-3.957962989807129
1772534568889471700,1.1884716796875,5.291172027587891,-7.214702129364014,-3.998948097229004
1772534568899381500,1.198381591796875,5.075699806213379,-7.365971088409424,-4.002468109130859
1772534568909291300,1.208291259765625,4.8714919090271,-7.510251045227051,-3.9880690574645996
1772534568919201000,1.218200927734375,4.66080379486084,-7.6479997634887695,-3.9780609607696533
1772534568929111000,1.228111083984375,4.4328742027282715,-7.778473854064941,-3.9855990409851074
1772534568939020800,1.238020751953125,4.191083908081055,-7.895317077636719,-4.01731014251709
1772534568948930600,1.2479306640625,3.9459149837493896,-7.9879021644592285,-4.082054138183594
1772534568958840300,1.25784033203125,3.7081260681152344,-8.049261093139648,-4.183204174041748
1772534568968750000,1.26775,3.48995304107666,-8.07238483428955,-4.323984146118164
1772534568978660000,1.27766015625,3.295259952545166,-8.057005882263184,-4.50177001953125
1772534568988569900,1.28756982421875,3.115572929382324,-8.017176628112793,-4.696603775024414
1772534568998479600,1.297479736328125,2.939769983291626,-7.968465805053711,-4.888896942138672
1772534569008389600,1.3073896484375,2.760279893875122,-7.919343948364258,-5.06999397277832
1772534569028209200,1.327209228515625,2.4259510040283203,-7.806820869445801,-5.404472827911377
1772534569038119200,1.337119140625,2.290513038635254,-7.733051776885986,-5.567180156707764
1772534569048029000,1.34702880859375,2.171574115753174,-7.6507110595703125,-5.726335048675537
1772534569057938400,1.3569384765625,2.0673160552978516,-7.5735697746276855,-5.865771770477295
1772534569067848400,1.366848388671875,1.9677979946136475,-7.50635290145874,-5.985182762145996
1772534569077758200,1.37675830078125,1.8905800580978394,-7.424650192260742,-6.110668182373047
1772534569087668000,1.38666796875,1.858096957206726,-7.311600208282471,-6.255237102508545
1772534569097578000,1.396577880859375,1.8671740293502808,-7.186716079711914,-6.3956828117370605
1772534569107487700,1.40648779296875,1.899319052696228,-7.05056095123291,-6.536221981048584
1772534569117397500,1.4163974609375,1.9317859411239624,-6.908901214599609,-6.676473140716553
1772534569127307300,1.426307373046875,1.9548799991607666,-6.758594036102295,-6.822011947631836
1772534569137217300,1.43621728515625,1.9563859701156616,-6.597256183624268,-6.977732181549072
1772534569147126800,1.446126708984375,1.9247410297393799,-6.447567939758301,-7.124904155731201
1772534569157036800,1.456036865234375,1.8865530490875244,-6.300295829772949,-7.265480041503906
1772534569166946800,1.46594677734375,1.9069290161132812,-6.151628017425537,-7.3865509033203125
1772534569176856300,1.475856201171875,1.9504649639129639,-6.029892921447754,-7.475030899047852
1772534569186766000,1.48576611328125,1.8529080152511597,-6.072134971618652,-7.4656500816345215
1772534569196676000,1.495676025390625,1.8055599927902222,-6.164339065551758,-7.401412010192871
1772534569206585900,1.5055859375,1.8387349843978882,-6.215635776519775,-7.350164890289307
1772534569226405600,1.525405517578125,1.90739905834198,-6.302727222442627,-7.2579240798950195
1772534569236315400,1.5353154296875,1.9097219705581665,-6.394309043884277,-7.176753997802734
1772534569246225000,1.545224853515625,1.7362209558486938,-6.513033866882324,-7.113783836364746
1772534569256135000,1.555135009765625,1.5627950429916382,-6.694561004638672,-6.984306812286377
1772534569266044700,1.565044677734375,1.4500839710235596,-6.915438175201416,-6.7907280921936035
1772534569275954700,1.57495458984375,1.4254770278930664,-7.044067859649658,-6.662517070770264
1772534569285864400,1.584864501953125,1.4220249652862549,-7.152070045471191,-6.547192096710205
1772534569295774200,1.594774169921875,1.4408659934997559,-7.257190227508545,-6.42628288269043
1772534569305684000,1.60468408203125,1.424325942993164,-7.329525947570801,-6.347390174865723
1772534569315594000,1.614593994140625,1.4257210493087769,-7.417251110076904,-6.2443342208862305
1772534569325503700,1.624503662109375,1.4316810369491577,-7.500527858734131,-6.142667770385742
1772534569335413500,1.63441357421875,1.4199130535125732,-7.57234001159668,-6.056692123413086
1772534569345323300,1.6443232421875,1.4030510187149048,-7.6450982093811035,-5.9685797691345215
1772534569355233300,1.6542333984375,1.3910410404205322,-7.728704929351807,-5.862775802612305
1772534569365143000,1.66414306640625,1.4016180038452148,-7.826547145843506,-5.728931903839111
1772534569375052800,1.674052734375,1.430380940437317,-7.945737838745117,-5.555109024047852
1772534569384962600,1.683962646484375,1.4693800210952759,-8.088193893432617,-5.334983825683594
1772534569394872300,1.693872314453125,1.5163190364837646,-8.250831604003906,-5.066019058227539
1772534569404782300,1.7037822265625,1.5655449628829956,-8.414985656738281,-4.772535800933838
1772534569414692000,1.713692138671875,1.615218997001648,-8.548225402832031,-4.512086868286133
1772534569424601900,1.723601806640625,1.6451749801635742,-8.64023208618164,-4.322010040283203
1772534569434512000,1.733511962890625,1.6429879665374756,-8.702731132507324,-4.195600986480713
1772534569444421400,1.74342138671875,1.651553988456726,-8.709653854370117,-4.177836894989014
1772534569454331100,1.7533310546875,1.6371619701385498,-8.729527473449707,-4.141870975494385
1772534569464241200,1.7632412109375,1.5729180574417114,-8.770792961120605,-4.079109191894531
1772534569474151000,1.77315087890625,1.4973119497299194,-8.837051391601562,-3.9629011154174805
1772534569484060700,1.783060791015625,1.3890700340270996,-8.90381145477295,-3.851317882537842
1772534569493970400,1.792970458984375,1.2769869565963745,-8.972894668579102,-3.727797031402588
1772534569503880400,1.80288037109375,1.157384991645813,-9.051156997680664,-3.574497938156128
1772534569513790200,1.812790283203125,1.029999017715454,-9.1396484375,-3.3831870555877686
1772534569523700000,1.822699951171875,0.8930379748344421,-9.236209869384766,-3.1519649028778076
1772534569533609700,1.832609619140625,0.7440590262413025,-9.340865135192871,-2.8696000576019287
1772534569543519500,1.84251953125,0.5691840052604675,-9.450602531433105,-2.530241012573242
1772534569553429200,1.85242919921875,0.3557809889316559,-9.556989669799805,-2.1394779682159424
1772534569563339300,1.86233935546875,0.11756899952888489,-9.649807929992676,-1.7051019668579102
1772534569573249000,1.8722490234375,-0.12232699990272522,-9.722830772399902,-1.2213070392608643
1772534569583158800,1.88215869140625,-0.3626460134983063,-9.768526077270508,-0.695967972278595
1772534569593068800,1.89206884765625,-0.5973330140113831,-9.780583381652832,-0.15288099646568298
1772534569602978600,1.901978515625,-0.8073650002479553,-9.7590970993042,0.38493600487709045
1772534569612888000,1.91188818359375,-0.971340000629425,-9.709834098815918,0.9031059741973877
1772534569622798000,1.921798095703125,-1.0745619535446167,-9.640557289123535,1.394623041152954
1772534569632707800,1.931707763671875,-1.111510992050171,-9.560786247253418,1.8428080081939697
1772534569642617600,1.94161767578125,-1.0732309818267822,-9.490127563476562,2.1967380046844482
1772534569652527400,1.95152734375,-0.9566389918327332,-9.46059799194336,2.3710598945617676
1772534569662437000,1.96143701171875,-0.7622079849243164,-9.479865074157715,2.364582061767578
1772534569672347100,1.97134716796875,-0.4810520112514496,-9.503185272216797,2.3447930812835693
1772534569682256600,1.981256591796875,-0.16274400055408478,-9.515008926391602,2.340543031692505
1772534569692166400,1.99116650390625,0.13842399418354034,-9.517080307006836,2.3336710929870605
1772534569702076400,2.001076416015625,0.3872630000114441,-9.512446403503418,2.324521064758301
1772534569711986200,2.010986083984375,0.5594429969787598,-9.493819236755371,2.3652610778808594
1772534569721896000,2.02089599609375,0.6640200018882751,-9.458844184875488,2.4757559299468994
1772534569731806000,2.030805908203125,0.7742519974708557,-9.412437438964844,2.6165928840637207
1772534569741715700,2.0407158203125,0.9005470275878906,-9.362918853759766,2.7504169940948486
1772534569751625200,2.050625244140625,1.0178459882736206,-9.318588256835938,2.8579540252685547
1772534569761535200,2.06053515625,1.109516978263855,-9.285944938659668,2.9291999340057373
1772534569771445000,2.070445068359375,1.1874979734420776,-9.265647888183594,2.962707996368408
1772534569781354800,2.080354736328125,1.2869219779968262,-9.257572174072266,2.946384906768799
1772534569791264800,2.0902646484375,1.415442943572998,-9.264327049255371,2.865093946456909
1772534569801174500,2.100174560546875,1.562119960784912,-9.289761543273926,2.7018730640411377
1772534569811084500,2.11008447265625,1.6985160112380981,-9.329723358154297,2.472105026245117
1772534569820994300,2.119994384765625,1.7894829511642456,-9.370511054992676,2.243056058883667
1772534569830904000,2.129904052734375,1.8598029613494873,-9.400984764099121,2.0500268936157227
1772534569840813600,2.1398134765625,1.950194001197815,-9.420212745666504,1.8698480129241943
1772534569850723600,2.1497236328125,2.0662059783935547,-9.431733131408691,1.6772639751434326
1772534569860633300,2.15963330078125,2.2183589935302734,-9.433713912963867,1.4573709964752197
1772534569870543400,2.16954345703125,2.4000439643859863,-9.422602653503418,1.2224429845809937
1772534569880453000,2.179453125,2.6052699089050293,-9.395110130310059,0.9922040104866028
1772534569890363000,2.18936279296875,2.8343160152435303,-9.349933624267578,0.7651129961013794
1772534569900272600,2.199272705078125,3.0678610801696777,-9.291983604431152,0.5359809994697571
1772534569910182400,2.209182373046875,3.2925610542297363,-9.225146293640137,0.30940601229667664
1772534569920092200,2.219092041015625,3.500417947769165,-9.152997016906738,0.09858399629592896
1772534569930002000,2.229001953125,3.6725330352783203,-9.085306167602539,-0.0986739993095398
1772534569939912000,2.238911865234375,3.8081328868865967,-9.025031089782715,-0.29485300183296204
1772534569949821700,2.24882177734375,3.912903070449829,-8.971657752990723,-0.488413006067276
1772534569959731500,2.2587314453125,4.001863956451416,-8.921467781066895,-0.6576290130615234
1772534569969641200,2.26864111328125,4.085004806518555,-8.87322998046875,-0.7864699959754944
1772534569979551000,2.278551025390625,4.11427116394043,-8.854026794433594,-0.8479310274124146
1772534569989460700,2.288460693359375,4.1229472160339355,-8.843032836914062,-0.9176499843597412
1772534569999370500,2.29837060546875,4.089209079742432,-8.848064422607422,-1.0149530172348022
1772534570009280300,2.3082802734375,4.076467037200928,-8.837060928344727,-1.152735948562622
1772534570019190300,2.318190185546875,4.044723987579346,-8.83434772491455,-1.2784889936447144
1772534570029100000,2.32810009765625,3.9767749309539795,-8.856500625610352,-1.3370399475097656
1772534570039009800,2.338009765625,3.9157021045684814,-8.878417015075684,-1.3714929819107056
1772534570048919600,2.34791943359375,3.8751161098480225,-8.893815994262695,-1.3869129419326782
1772534570058829600,2.35782958984375,3.8778159618377686,-8.896320343017578,-1.3630939722061157
1772534570068739000,2.367739013671875,3.862997055053711,-8.9100923538208,-1.3143479824066162
1772534570078649000,2.377649169921875,3.8347599506378174,-8.934503555297852,-1.2285209894180298
1772534570088558800,2.387558837890625,3.748426914215088,-8.98439884185791,-1.126886010169983
1772534570098468600,2.397468505859375,3.6388509273529053,-9.043517112731934,-1.0067709684371948
1772534570108378400,2.40737841796875,3.510762929916382,-9.108375549316406,-0.867214024066925
1772534570118288400,2.417288330078125,3.3658499717712402,-9.176125526428223,-0.7139760255813599
1772534570128198100,2.4271982421875,3.2042219638824463,-9.245166778564453,-0.5476089715957642
1772534570138107600,2.437107666015625,3.0271360874176025,-9.313547134399414,-0.36645999550819397
1772534570148017700,2.447017578125,2.833095073699951,-9.38004207611084,-0.16856800019741058
1772534570157927400,2.456927490234375,2.6256771087646484,-9.441596984863281,0.04548700153827667
1772534570167837200,2.466837158203125,2.415510892868042,-9.493754386901855,0.27187401056289673
1772534570177747000,2.476746826171875,2.21330189704895,-9.53419017791748,0.49045199155807495
1772534570187657000,2.486656982421875,2.02724289894104,-9.564458847045898,0.6719110012054443
1772534570197566700,2.496566650390625,1.878119945526123,-9.585115432739258,0.798891007900238
1772534570207476500,2.5064765625,1.835664987564087,-9.594222068786621,0.7882080078125
1772534570217386200,2.51638623046875,1.835392951965332,-9.597599983215332,0.7466109991073608
1772534570227296000,2.5262958984375,1.856039047241211,-9.59811019897461,0.6865919828414917
1772534570237206000,2.5362060546875,1.8632279634475708,-9.601078033447266,0.6226580142974854
1772534570247115800,2.54611572265625,1.81175696849823,-9.614928245544434,0.557420015335083
1772534570257025500,2.556025634765625,1.7125489711761475,-9.635601043701172,0.5122169852256775
1772534570266935300,2.565935302734375,1.5919040441513062,-9.658390998840332,0.4704580008983612
1772534570276845000,2.575844970703125,1.4840060472488403,-9.676668167114258,0.4470309913158417
1772534570286754800,2.5857548828125,1.555521011352539,-9.662152290344238,0.5130169987678528
1772534570296664600,2.59566455078125,1.6546059846878052,-9.644033432006836,0.5430529713630676
1772534570306574600,2.60557470703125,1.8434549570083618,-9.607834815979004,0.575501024723053
1772534570316484400,2.615484375,1.9093999862670898,-9.595280647277832,0.5699059963226318
1772534570326394000,2.62539404296875,1.649772047996521,-9.649603843688965,0.4509890079498291
1772534570336303900,2.635303955078125,1.4890309572219849,-9.679844856262207,0.3513309955596924
1772534570346214000,2.6452138671875,1.462172031402588,-9.688178062438965,0.2031179964542389
1772534570356123400,2.655123291015625,1.5621169805526733,-9.674569129943848,0.050276000052690506
1772534570366033400,2.665033447265625,1.6855980157852173,-9.653740882873535,-0.06386999785900116
1772534570375943200,2.674943115234375,1.8203380107879639,-9.627678871154785,-0.18494699895381927
1772534570385853000,2.68485302734375,1.8984240293502808,-9.610340118408203,-0.27811500430107117
1772534570395762700,2.6947626953125,1.8796050548553467,-9.613187789916992,-0.30615100264549255
1772534570405672400,2.70467236328125,1.8881909847259521,-9.612631797790527,-0.2684229910373688
1772534570415582500,2.71458251953125,1.9007949829101562,-9.61164379119873,-0.2079939991235733
1772534570425492200,2.7244921875,1.92159104347229,-9.6087064743042,-0.1423790007829666
1772534570435402000,2.734402099609375,1.8848129510879517,-9.616854667663574,-0.060116998851299286
1772534570445311700,2.744311767578125,1.7139719724655151,-9.648895263671875,0.03319200128316879
1772534570455221500,2.754221435546875,1.5349090099334717,-9.678589820861816,0.09466499835252762
1772534570465131500,2.764131591796875,1.4600180387496948,-9.69006061553955,0.10535900294780731
1772534570475041300,2.774041259765625,1.393947958946228,-9.699803352355957,0.10365699976682663
1772534570484950800,2.78395068359375,1.346019983291626,-9.706636428833008,0.09737800061702728
1772534570494860800,2.79386083984375,1.3262250423431396,-9.709396362304688,0.09369800239801407
1772534570504770800,2.803770751953125,1.3278709650039673,-9.709222793579102,0.08805699646472931
1772534570514680300,2.813680419921875,1.3712220191955566,-9.703542709350586,0.03218400105834007
1772534570524590000,2.823590087890625,1.432163953781128,-9.694714546203613,-0.037647001445293427
1772534570534500000,2.8335,1.515354037284851,-9.681323051452637,-0.12529100477695465
1772534570544409900,2.843409912109375,1.5902659893035889,-9.668499946594238,-0.17652399837970734
1772534570554319400,2.8533193359375,1.6622999906539917,-9.656464576721191,-0.17159399390220642
1772534570564229400,2.8632294921875,1.7293189764022827,-9.6450777053833,-0.14816300570964813
1772534570574139100,2.87313916015625,1.811745047569275,-9.630078315734863,-0.13852599263191223
1772534570584049000,2.883048828125,1.8920819759368896,-9.614540100097656,-0.143668994307518
1772534570593958700,2.892958740234375,1.970621943473816,-9.598380088806152,-0.16665099561214447
1772534570603868700,2.90286865234375,2.0366621017456055,-9.583864212036133,-0.20387700200080872
1772534570613778400,2.9127783203125,2.108138084411621,-9.567156791687012,-0.25547099113464355
1772534570623688200,2.922688232421875,2.1733880043029785,-9.550779342651367,-0.3146829903125763
1772534570633598000,2.932597900390625,2.2303569316864014,-9.534808158874512,-0.391092985868454
1772534570643507700,2.9425078125,2.2847299575805664,-9.516695022583008,-0.5025709867477417
1772534570653417700,2.952417724609375,2.347546100616455,-9.497468948364258,-0.5719500184059143
1772534570663327500,2.962327392578125,2.428226947784424,-9.471407890319824,-0.6604089736938477
1772534570673237200,2.9722373046875,2.5361111164093018,-9.434835433959961,-0.7694330215454102
1772534570683147000,2.98214697265625,2.66838002204895,-9.386395454406738,-0.9029780030250549
1772534570693056800,2.992056884765625,2.8087449073791504,-9.329237937927246,-1.0565459728240967
1772534570702966500,3.001966552734375,2.949836015701294,-9.264514923095703,-1.2276979684829712
1772534570712876300,3.011876220703125,3.088318109512329,-9.1929292678833,-1.4115129709243774
1772534570722786300,3.021786376953125,3.217181921005249,-9.117198944091797,-1.6020070314407349
1772534570732696000,3.031696044921875,3.3277900218963623,-9.041101455688477,-1.7956490516662598
1772534570742605600,3.04160546875,3.4236040115356445,-8.964347839355469,-1.9898289442062378
1772534570752515300,3.051515380859375,3.52384090423584,-8.882076263427734,-2.175157070159912
1772534570762425300,3.06142529296875,3.6419920921325684,-8.791495323181152,-2.342107057571411
1772534570772335000,3.071335205078125,3.7724831104278564,-8.69835090637207,-2.479330062866211
1772534570782244900,3.081244873046875,3.8935799598693848,-8.614572525024414,-2.5824780464172363
1772534570792155000,3.09115478515625,3.975956916809082,-8.549969673156738,-2.670166015625
1772534570802064600,3.101064697265625,3.956120014190674,-8.553301811218262,-2.688900947570801
1772534570811974400,3.110974365234375,3.892807960510254,-8.57748794555664,-2.7042129039764404
1772534570821884000,3.1208837890625,3.7888898849487305,-8.6199312210083,-2.716823101043701
1772534570831794000,3.1307939453125,3.6715340614318848,-8.6656494140625,-2.7324728965759277
1772534570841703700,3.14070361328125,3.5556929111480713,-8.7103853225708,-2.743403911590576
1772534570851613400,3.150613525390625,3.4484119415283203,-8.755555152893066,-2.7365550994873047
1772534570861523200,3.160523193359375,3.3541340827941895,-8.803177833557129,-2.700716972351074
1772534570871433000,3.170432861328125,3.266716957092285,-8.853328704833984,-2.6433229446411133
1772534570881343000,3.180343017578125,3.186889886856079,-8.902155876159668,-2.5759270191192627
1772534570891252700,3.190252685546875,3.1194679737091064,-8.951744079589844,-2.4849979877471924
1772534570901162500,3.20016259765625,3.0065290927886963,-9.009661674499512,-2.4138760566711426
1772534570911072300,3.210072265625,2.8773200511932373,-9.076656341552734,-2.3184850215911865
1772534570920982000,3.21998193359375,2.730597972869873,-9.152481079101562,-2.194521903991699
1772534570930892000,3.22989208984375,2.5707950592041016,-9.234796524047852,-2.037045955657959
1772534570940801500,3.239801513671875,2.4069271087646484,-9.318482398986816,-1.8473299741744995
1772534570950711300,3.249711181640625,2.251081943511963,-9.39760971069336,-1.6302059888839722
1772534570960621300,3.259621337890625,2.1098320484161377,-9.468199729919434,-1.3934880495071411
1772534570970531000,3.269531005859375,1.9869639873504639,-9.527535438537598,-1.148061990737915
1772534570980440800,3.27944091796875,1.8901540040969849,-9.573248863220215,-0.9056789875030518
1772534570990350600,3.2893505859375,1.841148018836975,-9.600939750671387,-0.6870989799499512
1772534571000260600,3.299260498046875,1.8242980241775513,-9.614934921264648,-0.5147870182991028
1772534571010170400,3.30917041015625,1.792341947555542,-9.626856803894043,-0.3888170123100281
1772534571020080000,3.319080078125,1.8083269596099854,-9.62483024597168,-0.36413899064064026
1772534571029990000,3.328989990234375,1.8374919891357422,-9.62010669708252,-0.3423520028591156
1772534571039899600,3.338899658203125,1.8542490005493164,-9.617427825927734,-0.3268960118293762
1772534571049809400,3.348809326171875,1.8301169872283936,-9.62167739868164,-0.33763399720191956
1772534571059719400,3.358719482421875,1.7485599517822266,-9.636017799377441,-0.3601889908313751
1772534571069629200,3.368629150390625,1.6093510389328003,-9.660243034362793,-0.360181987285614
1772534571079538700,3.37853857421875,1.4676239490509033,-9.683693885803223,-0.3348950147628784
1772534571089448700,3.38844873046875,1.3690849542617798,-9.69908332824707,-0.30560100078582764
1772534571099358500,3.3983583984375,1.352323055267334,-9.701563835144043,-0.3015249967575073
1772534571109268200,3.408268310546875,1.4241299629211426,-9.690957069396973,-0.31181201338768005
1772534571119178000,3.418177978515625,1.5411030054092407,-9.672481536865234,-0.3287709951400757
1772534571129088000,3.428087890625,1.4320729970932007,-9.689661026000977,-0.31569498777389526
1772534571138997500,3.43799755859375,1.2256419658660889,-9.718375205993652,-0.3017059862613678
1772534571148907500,3.447907470703125,1.137071967124939,-9.729594230651855,-0.28649500012397766
1772534571158817300,3.4578173828125,1.125581979751587,-9.727416038513184,-0.38793298602104187
1772534571168727000,3.46772705078125,1.1637029647827148,-9.718016624450684,-0.4959369897842407
1772534571178636800,3.47763671875,1.213819980621338,-9.710026741027832,-0.5310530066490173
1772534571188546800,3.487546875,1.190412998199463,-9.709464073181152,-0.5909669995307922
1772534571198456600,3.49745654296875,1.2772020101547241,-9.694488525390625,-0.6524059772491455
1772534571208366000,3.507365966796875,1.363139033317566,-9.680322647094727,-0.6879159808158875
1772534571218276000,3.517276123046875,1.4042129516601562,-9.671189308166504,-0.7323039770126343
1772534571228185900,3.527185791015625,1.4473470449447632,-9.657440185546875,-0.8240320086479187
1772534571238095600,3.537095703125,1.390212059020996,-9.662198066711426,-0.8655840158462524
1772534571248005400,3.54700537109375,1.3214019536972046,-9.677477836608887,-0.800225019454956
1772534571257915400,3.556915283203125,1.3020329475402832,-9.692940711975098,-0.6257910132408142
1772534571267825000,3.566824951171875,1.286756992340088,-9.704209327697754,-0.4611069858074188
1772534571277735000,3.57673486328125,1.2642639875411987,-9.71483039855957,-0.25240200757980347
1772534571287644700,3.586644775390625,1.289497971534729,-9.71462631225586,-0.0569240003824234
1772534571297554400,3.596554443359375,1.314012050628662,-9.711380958557129,0.049577999860048294
1772534571307464200,3.606464111328125,1.2964489459991455,-9.71343994140625,0.09108299762010574
1772534571317374200,3.616374267578125,1.276386022567749,-9.715721130371094,0.12504500150680542
1772534571327284000,3.626283935546875,1.2503939867019653,-9.718828201293945,0.1446329951286316
1772534571337193500,3.636193359375,1.2108949422836304,-9.72382926940918,0.14444799721240997
1772534571347103500,3.646103515625,1.1779619455337524,-9.72805118560791,0.13203999400138855
1772534571357013200,3.65601318359375,1.1189899444580078,-9.735133171081543,0.12280499935150146
1772534571366923000,3.665923095703125,1.03302800655365,-9.744707107543945,0.11643700301647186
1772534571376832800,3.675832763671875,0.9834929704666138,-9.750056266784668,0.0957920029759407
1772534571386742800,3.68574267578125,0.9394569993019104,-9.754331588745117,0.10225799679756165
1772534571396652300,3.69565234375,0.9054909944534302,-9.757479667663574,0.10813400149345398
1772534571406562300,3.705562255859375,0.9072279930114746,-9.757891654968262,0.02269599959254265
1772534571416472000,3.71547216796875,0.9304360151290894,-9.755315780639648,-0.0900140032172203
1772534571426381800,3.7253818359375,0.9748330116271973,-9.74884033203125,-0.2231689989566803
1772534571436291600,3.73529150390625,0.9742050170898438,-9.747892379760742,-0.26370498538017273
1772534571446201300,3.745201416015625,1.0226130485534668,-9.738750457763672,-0.388621985912323
1772534571456111400,3.755111328125,1.0879689455032349,-9.727206230163574,-0.48761799931526184
1772534571466020900,3.765020751953125,1.1726789474487305,-9.71297836303711,-0.5682460069656372
1772534571475930600,3.7749306640625,1.261262059211731,-9.696784973144531,-0.6493160128593445
1772534571485840400,3.78484033203125,1.350456953048706,-9.677638053894043,-0.7480549812316895
1772534571495750400,3.79475048828125,1.4591970443725586,-9.65153694152832,-0.8709880113601685
1772534571505660200,3.80466015625,1.5859739780426025,-9.617480278015137,-1.0142799615859985
1772534571515570000,3.81456982421875,1.6971960067749023,-9.587242126464844,-1.1155129671096802
1772534571525480000,3.82447998046875,1.8320770263671875,-9.546553611755371,-1.243710994720459
1772534571535389400,3.834389404296875,1.9847209453582764,-9.494775772094727,-1.3964730501174927
1772534571545299500,3.844299560546875,2.146806001663208,-9.433624267578125,-1.561400055885315
1772534571555209200,3.854209228515625,2.3109068870544434,-9.365011215209961,-1.7309739589691162
1772534571565119000,3.864118896484375,2.4654619693756104,-9.29069995880127,-1.90903902053833
1772534571575028700,3.87402880859375,2.5872700214385986,-9.21631145477295,-2.0989699363708496
1772534571584938500,3.8839384765625,2.6720519065856934,-9.14549446105957,-2.293484926223755
1772534571594848300,3.89384814453125,2.74265193939209,-9.074173927307129,-2.485408067703247
1772534571604758300,3.90375830078125,2.821897029876709,-8.998191833496094,-2.6663520336151123
1772534571614668000,3.91366796875,2.918207883834839,-8.917951583862305,-2.8273990154266357
1772534571624577800,3.923577880859375,3.0274391174316406,-8.836910247802734,-2.9637210369110107
1772534571634487600,3.933487548828125,3.1316540241241455,-8.759904861450195,-3.081692934036255
1772534571644397600,3.9433974609375,3.215277910232544,-8.691920280456543,-3.186302900314331
1772534571654307000,3.95330712890625,3.2138729095458984,-8.696173667907715,-3.1760950088500977
1772534571664216800,3.963216796875,3.1919920444488525,-8.722732543945312,-3.124917984008789
1772534571674126800,3.973126953125,3.1393558979034424,-8.768333435058594,-3.0497210025787354
1772534571684036600,3.98303662109375,3.0499091148376465,-8.824399948120117,-2.977924108505249
1772534571693946400,3.9929462890625,2.9417009353637695,-8.881738662719727,-2.9156649112701416
1772534571703856000,4.002856201171875,2.8064920902252197,-8.949302673339844,-2.8414111137390137
1772534571713766000,4.012765869140625,2.653623104095459,-9.023615837097168,-2.7518510818481445
1772534571723675600,4.022675537109375,2.5216970443725586,-9.068766593933105,-2.7273619174957275
1772534571733585700,4.032585693359375,2.3870959281921387,-9.118741989135742,-2.68147611618042
1772534571743495400,4.042495361328125,2.256669044494629,-9.173005104064941,-2.608336925506592
1772534571753405200,4.0524052734375,2.1303179264068604,-9.232414245605469,-2.502859115600586
1772534571763315000,4.06231494140625,2.0033390522003174,-9.297286033630371,-2.363708972930908
1772534571773224700,4.072224609375,1.8710600137710571,-9.367341995239258,-2.1890718936920166
1772534571783134500,4.082134521484375,1.734192967414856,-9.44025993347168,-1.9784029722213745
1772534571793044200,4.092044189453125,1.5943679809570312,-9.51279354095459,-1.7334259748458862
1772534571802954000,4.1019541015625,1.463487982749939,-9.578807830810547,-1.4644700288772583
1772534571812864000,4.111864013671875,1.3549679517745972,-9.633827209472656,-1.180433988571167
1772534571822773800,4.121773681640625,1.2774909734725952,-9.674783706665039,-0.8980910181999207
1772534571832683500,4.13168359375,1.2304309606552124,-9.699250221252441,-0.6712819933891296
1772534571842593300,4.14159326171875,1.198246955871582,-9.711750984191895,-0.5349230170249939
1772534571852503000,4.1515029296875,1.1557860374450684,-9.720044136047363,-0.47424399852752686
1772534571862412800,4.161412841796875,1.1029000282287598,-9.725154876708984,-0.4949600100517273
1772534571872322800,4.17132275390625,1.0335010290145874,-9.732308387756348,-0.504023015499115
1772534571882232600,4.181232666015625,0.9223160147666931,-9.742191314697266,-0.5282610058784485
1772534571892142300,4.191142333984375,0.7903439998626709,-9.75251579284668,-0.5511959791183472
1772534571902052000,4.201052001953125,0.6568289995193481,-9.763800621032715,-0.526095986366272
1772534571911961900,4.2109619140625,0.5835350155830383,-9.77220344543457,-0.4511699974536896
1772534571921871600,4.22087158203125,0.6597650051116943,-9.772433280944824,-0.3229359984397888
1772534571931781600,4.23078173828125,0.8087949752807617,-9.76508617401123,-0.17016300559043884
1772534571941691100,4.240691162109375,0.8546990156173706,-9.76248836517334,-0.05752500146627426
1772534571951601000,4.250600830078125,0.7248010039329529,-9.773048400878906,-0.04692300036549568
1772534571961511000,4.260510986328125,0.6006320118904114,-9.781368255615234,-0.06397700309753418
1772534571971420700,4.270420654296875,0.6603090167045593,-9.777398109436035,-0.08060900121927261
1772534571981330400,4.280330322265625,0.7665550112724304,-9.769485473632812,-0.09777200222015381
1772534571991240200,4.290240234375,0.7727879881858826,-9.768898010253906,-0.10701300203800201
1772534572001150200,4.300150146484375,0.5268160104751587,-9.784456253051758,-0.16400699317455292
1772534572011059700,4.310059814453125,0.453451007604599,-9.788135528564453,-0.16369099915027618
1772534572020969700,4.3199697265625,0.524990975856781,-9.784542083740234,-0.1647070050239563
1772534572030879500,4.32987939453125,0.5532209873199463,-9.78292465209961,-0.16832399368286133
1772534572040789200,4.339789306640625,0.542385995388031,-9.783208847045898,-0.18611900508403778
1772534572050699000,4.349698974609375,0.5273150205612183,-9.783519744873047,-0.21143700182437897
1772534572060608500,4.3596083984375,0.5033259987831116,-9.782597541809082,-0.29572999477386475
1772534572070518500,4.3695185546875,0.45938101410865784,-9.781438827514648,-0.3904719948768616
1772534572080428300,4.37942822265625,0.45314401388168335,-9.783682823181152,-0.33799099922180176
1772534572090338000,4.389338134765625,0.46015599370002747,-9.786317825317383,-0.2371789962053299
1772534572100247800,4.399247802734375,0.47074899077415466,-9.788223266601562,-0.09535100311040878
1772534572110157600,4.409157470703125,0.48762598633766174,-9.78765869140625,0.06280100345611572
1772534572120067300,4.4190673828125,0.48855599761009216,-9.78557300567627,0.20952199399471283
1772534572129977300,4.428977294921875,0.4491100013256073,-9.783875465393066,0.3377799987792969
1772534572139887000,4.43888720703125,0.38906198740005493,-9.781298637390137,0.46355000138282776
1772534572149796900,4.448796875,0.3463900089263916,-9.775601387023926,0.5980169773101807
1772534572159706600,4.45870654296875,0.3192879855632782,-9.771252632141113,0.6787220239639282
1772534572169616600,4.46861669921875,0.2933860123157501,-9.766825675964355,0.7503740191459656
1772534572179526100,4.478526123046875,0.2632260024547577,-9.762615203857422,0.8136990070343018
1772534572189436000,4.488435791015625,0.2289769947528839,-9.758670806884766,0.8694459795951843
1772534572199346000,4.498345947265625,0.19390900433063507,-9.755268096923828,0.9149510264396667
1772534572209255700,4.508255615234375,0.1661739945411682,-9.752437591552734,0.9499179720878601
1772534572219165400,4.51816552734375,0.1491280049085617,-9.749794006347656,0.9794300198554993
1772534572229075200,4.5280751953125,0.13911199569702148,-9.747052192687988,1.0077769756317139
1772534572238985000,4.53798486328125,0.13626499474048615,-9.744161605834961,1.0357439517974854
1772534572248894700,4.547894775390625,0.18031999468803406,-9.750340461730957,0.9687119722366333
1772534572258804700,4.5578046875,0.2070160061120987,-9.756510734558105,0.8987020254135132
1772534572268714500,4.567714599609375,0.23280100524425507,-9.762229919433594,0.827459990978241
1772534572278624300,4.577624267578125,0.27512699365615845,-9.767194747924805,0.7524830102920532
1772534572288534000,4.587533935546875,0.31420600414276123,-9.771581649780273,0.6763830184936523
1772534572298443800,4.59744384765625,0.33595699071884155,-9.775105476379395,0.6119340062141418
1772534572308353500,4.607353515625,0.38437700271606445,-9.777350425720215,0.5437679886817932
1772534572318263300,4.61726318359375,0.47930800914764404,-9.776945114135742,0.47078898549079895
1772534572328173300,4.62717333984375,0.5921909809112549,-9.774154663085938,0.39396700263023376
1772534572338083000,4.6370830078125,0.7413280010223389,-9.767500877380371,0.29388800263404846
1772534572347992800,4.646992919921875,0.8469700217247009,-9.759583473205566,0.2705470025539398
1772534572357902800,4.65690283203125,0.9849929809570312,-9.748038291931152,0.21342900395393372
1772534572367812400,4.666812255859375,1.148082971572876,-9.731761932373047,0.12128099799156189
1772534572377722400,4.676722412109375,1.3177939653396606,-9.7109956741333,-0.003768000053241849
1772534572387631900,4.6866318359375,1.4798519611358643,-9.686169624328613,-0.16788899898529053
1772534572397542000,4.6965419921875,1.6392359733581543,-9.655184745788574,-0.36100998520851135
1772534572407451600,4.70645166015625,1.8055499792099,-9.616223335266113,-0.555213987827301
1772534572417361400,4.716361328125,1.9870680570602417,-9.567914962768555,-0.7393079996109009
1772534572427271200,4.726271240234375,2.174484968185425,-9.511433601379395,-0.9188380241394043
1772534572437181000,4.736180908203125,2.351047992706299,-9.45162582397461,-1.0859830379486084
1772534572447090700,4.746090576171875,2.507904052734375,-9.393515586853027,-1.2297379970550537
1772534572457000700,4.756000732421875,2.636176109313965,-9.340747833251953,-1.3568300008773804
1772534572466910200,4.76591015625,2.723128080368042,-9.297423362731934,-1.4773390293121338
1772534572476820200,4.7758203125,2.756333112716675,-9.266647338867188,-1.6037039756774902
1772534572486730000,4.78572998046875,2.7337920665740967,-9.245389938354492,-1.757604956626892
1772534572496639700,4.7956396484375,2.6615359783172607,-9.226884841918945,-1.9546849727630615
1772534572506549500,4.805549560546875,2.5559608936309814,-9.204992294311523,-2.185218095779419
1772534572516459300,4.815459228515625,2.4340078830718994,-9.178058624267578,-2.424638032913208
1772534572526369000,4.825369140625,2.3105099201202393,-9.14806842803955,-2.648468017578125
1772534572536278800,4.83527880859375,2.196742057800293,-9.118877410888672,-2.83909010887146
1772534572546188800,4.845188720703125,2.10201096534729,-9.092690467834473,-2.9907400608062744
1772534572556098600,4.8550986328125,2.057921886444092,-9.081823348999023,-3.053765058517456
1772534572566008300,4.86500830078125,2.038125991821289,-9.078583717346191,-3.0765879154205322
1772534572575918000,4.87491796875,2.054111957550049,-9.080546379089355,-3.0601119995117188
1772534572585827800,4.884827880859375,2.0837650299072266,-9.09870433807373,-2.9852170944213867
1772534572595737600,4.894737548828125,2.102515935897827,-9.139596939086914,-2.843806028366089
1772534572605647400,4.9046474609375,2.1083569526672363,-9.19861125946045,-2.642045021057129
1772534572615557000,4.91455712890625,2.0989060401916504,-9.270103454589844,-2.387428045272827
1772534572625467100,4.924467041015625,2.031459093093872,-9.319231986999512,-2.250580072402954
1772534572635376600,4.934376708984375,1.9403350353240967,-9.374422073364258,-2.0965049266815186
1772534572645286400,4.944286376953125,1.82893705368042,-9.432042121887207,-1.9317330121994019
1772534572655196700,4.95419677734375,1.7064590454101562,-9.489542961120605,-1.7540160417556763
1772534572665106200,4.964106201171875,1.6039210557937622,-9.54069709777832,-1.5628650188446045
1772534572675016000,4.974015869140625,1.559278964996338,-9.57807445526123,-1.3671640157699585
1772534572684925400,4.983925537109375,1.5746610164642334,-9.599989891052246,-1.1834889650344849
1772534572694835500,4.99383544921875,1.623317003250122,-9.609084129333496,-1.0345920324325562
1772534572704745200,5.0037451171875,1.6799780130386353,-9.597904205322266,-1.0478260517120361
1772534572714655000,5.013655029296875,1.6382980346679688,-9.5912446975708,-1.1679149866104126
1772534572724564700,5.023564697265625,1.5566610097885132,-9.595733642578125,-1.2404570579528809
1772534572734474800,5.033474853515625,1.4326250553131104,-9.60189437866211,-1.338358998298645
1772534572744384500,5.043384521484375,1.3025269508361816,-9.607159614562988,-1.430359959602356
1772534572754294300,5.053294189453125,1.1923550367355347,-9.612046241760254,-1.4922620058059692
1772534572764204000,5.0632041015625,1.1737949848175049,-9.612269401550293,-1.5054939985275269
1772534572774113800,5.07311376953125,1.3251229524612427,-9.60163688659668,-1.4465949535369873
1772534572784023600,5.0830234375,1.5345419645309448,-9.581114768981934,-1.373829960823059
1772534572793933600,5.09293359375,1.630499005317688,-9.555157661437988,-1.4423730373382568
1772534572803843000,5.102843017578125,1.5789040327072144,-9.537704467773438,-1.6060129404067993
1772534572813753000,5.112753173828125,1.4885549545288086,-9.533766746520996,-1.712170958518982
1772534572823662800,5.122662841796875,1.4957289695739746,-9.521674156188965,-1.7721539735794067
1772534572833572600,5.132572509765625,1.570451021194458,-9.509469032287598,-1.7730519771575928
1772534572843482400,5.142482421875,1.5320940017700195,-9.538302421569824,-1.6472569704055786
1772534572853392400,5.152392333984375,1.5943089723587036,-9.556221008300781,-1.4754170179367065
1772534572863302000,5.162302001953125,1.6899720430374146,-9.557927131652832,-1.3527820110321045
1772534572873212000,5.1722119140625,1.705834984779358,-9.564387321472168,-1.2855579853057861
1772534572883121700,5.18212158203125,1.7036349773406982,-9.571371078491211,-1.2355140447616577
1772534572893031400,5.192031494140625,1.6740390062332153,-9.579586029052734,-1.2120720148086548
1772534572902941200,5.201941162109375,1.6278549432754517,-9.589278221130371,-1.198269009590149
1772534572912851000,5.211850830078125,1.5616480112075806,-9.598428726196289,-1.2130320072174072
1772534572922760700,5.2217607421875,1.5183219909667969,-9.607865333557129,-1.1931569576263428
1772534572932670500,5.23167041015625,1.4567680358886719,-9.624383926391602,-1.1353780031204224
1772534572942580200,5.241580322265625,1.40658700466156,-9.641176223754883,-1.0532089471817017
1772534572952490200,5.251490234375,1.3648539781570435,-9.656447410583496,-0.9644700288772583
1772534572962400000,5.26139990234375,1.3060179948806763,-9.673722267150879,-0.868008017539978
1772534572972309800,5.271309814453125,1.2358380556106567,-9.690909385681152,-0.77394700050354
1772534572982219500,5.281219482421875,1.1681679487228394,-9.705000877380371,-0.6988329887390137
1772534572992129300,5.29112939453125,1.1132819652557373,-9.715728759765625,-0.6365709900856018
1772534573002039000,5.3010390625,1.0810389518737793,-9.723101615905762,-0.5767539739608765
1772534573011948800,5.31094873046875,1.0609970092773438,-9.728428840637207,-0.5214970111846924
1772534573021858600,5.320858642578125,1.037835955619812,-9.733480453491211,-0.4714530110359192
1772534573031768300,5.330768310546875,1.0084799528121948,-9.738544464111328,-0.4286929965019226
1772534573041678300,5.34067822265625,0.9859579801559448,-9.742144584655762,-0.39815598726272583
1772534573051588000,5.350588134765625,0.962975025177002,-9.744773864746094,-0.3899889886379242
1772534573061497900,5.360497802734375,0.9387210011482239,-9.747058868408203,-0.39198800921440125
1772534573071407400,5.370407470703125,0.9146580100059509,-9.748886108398438,-0.4032979905605316
1772534573081317000,5.380317138671875,0.899848997592926,-9.749247550964355,-0.4271309971809387
1772534573091227100,5.39022705078125,0.8889600038528442,-9.748393058776855,-0.46755799651145935
1772534573101137000,5.400136962890625,0.8745200037956238,-9.747222900390625,-0.5165680050849915
1772534573111046700,5.410046630859375,0.8454560041427612,-9.746895790100098,-0.5685639977455139
1772534573120956400,5.419956298828125,0.8102859854698181,-9.74629020690918,-0.6271200180053711
1772534573130866200,5.4298662109375,0.7834069728851318,-9.744044303894043,-0.6927549839019775
1772534573140776000,5.43977587890625,0.7771289944648743,-9.739773750305176,-0.7568950057029724
1772534573150685700,5.449685791015625,0.7953050136566162,-9.733290672302246,-0.8188819885253906
1772534573160595700,5.459595703125,0.8416720032691956,-9.723519325256348,-0.8858680129051208
1772534573170505500,5.46950537109375,0.9061329960823059,-9.711284637451172,-0.9538589715957642
1772534573180415200,5.479415283203125,0.9684399962425232,-9.698705673217773,-1.0184520483016968
1772534573190325000,5.489324951171875,1.026610016822815,-9.68757152557373,-1.0663100481033325
1772534573200234800,5.49923486328125,1.1086790561676025,-9.677565574645996,-1.0749820470809937
1772534573210144500,5.50914453125,1.1931780576705933,-9.669095039367676,-1.060634970664978
1772534573220054500,5.519054443359375,1.2768800258636475,-9.65983772277832,-1.0474309921264648
1772534573229964000,5.528964111328125,1.3504029512405396,-9.649910926818848,-1.0467230081558228
1772534573239873800,5.538873779296875,1.4145660400390625,-9.637850761413574,-1.0727839469909668
1772534573249783600,5.548783447265625,1.4635250568389893,-9.62790584564209,-1.096163034439087
1772534573259693600,5.558693603515625,1.5143380165100098,-9.61638355255127,-1.1278250217437744
1772534573269603300,5.568603271484375,1.575400948524475,-9.601893424987793,-1.1669509410858154
1772534573279513000,5.57851318359375,1.6490600109100342,-9.583527565002441,-1.2151579856872559
1772534573289422800,5.5884228515625,1.7334779500961304,-9.561408042907715,-1.2706420421600342
1772534573299332600,5.59833251953125,1.8328289985656738,-9.53358268737793,-1.3384939432144165
1772534573309242400,5.608242431640625,1.952828049659729,-9.496874809265137,-1.4268289804458618
1772534573319152000,5.618152099609375,2.0922770500183105,-9.45073413848877,-1.5316619873046875
1772534573329062000,5.628061767578125,2.248469114303589,-9.394953727722168,-1.6490219831466675
1772534573338971600,5.6379716796875,2.4153759479522705,-9.32756233215332,-1.7895649671554565
1772534573348881400,5.64788134765625,2.5888350009918213,-9.246673583984375,-1.958827018737793
1772534573358791200,5.657791259765625,2.755350112915039,-9.154597282409668,-2.1543869972229004
1772534573368701200,5.667701171875,2.894742012023926,-9.058348655700684,-2.3678689002990723
1772534573378611000,5.67761083984375,2.990360975265503,-8.965442657470703,-2.5920259952545166
1772534573388520700,5.687520751953125,3.0341899394989014,-8.880960464477539,-2.821739912033081
1772534573398430500,5.697430419921875,3.0427470207214355,-8.79871940612793,-3.0601089000701904
1772534573408340200,5.70734033203125,3.0456221103668213,-8.706673622131348,-3.3102869987487793
1772534573418250000,5.71725,3.0543010234832764,-8.600231170654297,-3.5703320503234863
1772534573428160000,5.727159912109375,3.0750041007995605,-8.479350090026855,-3.8320999145507812
1772534573438069500,5.737069580078125,3.094877004623413,-8.348552703857422,-4.0943121910095215
1772534573447979500,5.7469794921875,3.0786619186401367,-8.228119850158691,-4.3427958488464355
1772534573457889300,5.75688916015625,3.0247409343719482,-8.130139350891113,-4.5597991943359375
1772534573467799000,5.766799072265625,2.9596309661865234,-8.05643367767334,-4.730167865753174
1772534573477708800,5.776708740234375,2.9037818908691406,-8.031577110290527,-4.806437015533447
1772534573487618600,5.78661865234375,2.856982946395874,-8.025442123413086,-4.844577789306641
1772534573497528300,5.7965283203125,2.8177649974823,-8.02902889251709,-4.861574172973633
1772534573507438000,5.80643798828125,2.793191909790039,-8.038863182067871,-4.859502792358398
1772534573517348000,5.81634814453125,2.792663097381592,-8.057591438293457,-4.82869291305542
1772534573527257900,5.8262578125,2.8225491046905518,-8.086578369140625,-4.7624030113220215
1772534573537167600,5.836167724609375,2.8819310665130615,-8.127968788146973,-4.655171871185303
1772534573547077400,5.846077392578125,2.95156192779541,-8.186079025268555,-4.50737190246582
1772534573556987100,5.855987060546875,3.00162410736084,-8.266820907592773,-4.323185920715332
1772534573566897000,5.86589697265625,3.0172340869903564,-8.372671127319336,-4.1030120849609375
1772534573576807000,5.875806884765625,2.9923970699310303,-8.446157455444336,-3.9683749675750732
1772534573586716400,5.88571630859375,2.9437429904937744,-8.530285835266113,-3.822118043899536
1772534573596626200,5.895626220703125,2.868907928466797,-8.62297534942627,-3.667926073074341
1772534573606536200,5.9055361328125,2.773632049560547,-8.719730377197266,-3.509028911590576
1772534573616446000,5.915446044921875,2.6688880920410156,-8.816426277160645,-3.3447980880737305
1772534573626355700,5.925355712890625,2.5663061141967773,-8.912141799926758,-3.1666719913482666
1772534573636265200,5.93526513671875,2.4744839668273926,-9.006546974182129,-2.9663219451904297
1772534573646175200,5.94517529296875,2.39383602142334,-9.100393295288086,-2.7372241020202637
1772534573656085000,5.9550849609375,2.3188509941101074,-9.193334579467773,-2.479024887084961
1772534573665994800,5.964994873046875,2.2419209480285645,-9.282501220703125,-2.202040910720825
1772534573675904500,5.974904541015625,2.1628730297088623,-9.364635467529297,-1.9145710468292236
1772534573685814300,5.984814208984375,2.0852980613708496,-9.436715126037598,-1.6247940063476562
1772534573695724000,5.99472412109375,2.018563985824585,-9.495417594909668,-1.3425450325012207
1772534573705633800,6.0046337890625,1.9781579971313477,-9.536520004272461,-1.0870460271835327
1772534573715543800,6.014543701171875,1.9752930402755737,-9.558496475219727,-0.8794410228729248
1772534573725453600,6.02445361328125,1.9809720516204834,-9.569540023803711,-0.7346109747886658
1772534573735363000,6.034363037109375,1.9577360153198242,-9.580999374389648,-0.6416789889335632
1772534573745272800,6.04427294921875,1.8770610094070435,-9.596538543701172,-0.6504359841346741
1772534573755182800,6.054182861328125,1.7252110242843628,-9.623453140258789,-0.6729199886322021
1772534573765092600,6.064092529296875,1.5336010456085205,-9.653635025024414,-0.7038559913635254
1772534573775002400,6.07400244140625,1.3350419998168945,-9.681346893310547,-0.7274479866027832
1772534573784912400,6.083912353515625,1.162803053855896,-9.703164100646973,-0.7324550151824951
1772534573794822000,6.09382177734375,1.1466619968414307,-9.705948829650879,-0.7209360003471375
1772534573804731600,6.103731689453125,1.1435999870300293,-9.706827163696289,-0.7139279842376709
1772534573814641700,6.1136416015625,1.2138659954071045,-9.697951316833496,-0.7185369729995728
1772534573824551400,6.123551513671875,1.2777019739151,-9.68921184539795,-0.7256969809532166
1772534573834461200,6.133461181640625,1.3047959804534912,-9.692802429199219,-0.6221849918365479
1772534573844370700,6.14337060546875,1.2158869504928589,-9.705608367919922,-0.6023370027542114
1772534573854280700,6.15328076171875,1.160014033317566,-9.713569641113281,-0.5839229822158813
1772534573864190500,6.1631904296875,1.1194859743118286,-9.718622207641602,-0.5789030194282532
1772534573874100200,6.173100341796875,1.1167329549789429,-9.714810371398926,-0.6445099711418152
1772534573884010000,6.183010009765625,1.2003599405288696,-9.69931411743164,-0.7228109836578369
1772534573893919700,6.192919677734375,1.3713829517364502,-9.666909217834473,-0.8427320122718811
1772534573903829500,6.20282958984375,1.5532439947128296,-9.628335952758789,-0.9604949951171875
1772534573913739500,6.212739501953125,1.698891043663025,-9.592910766601562,-1.0629340410232544
1772534573923649300,6.222649169921875,1.8333699703216553,-9.556475639343262,-1.1629970073699951
1772534573933558800,6.232558837890625,1.8075549602508545,-9.558623313903809,-1.185534954071045
1772534573943468500,6.242468505859375,1.8684779405593872,-9.548103332519531,-1.1758060455322266
1772534573953378600,6.252378662109375,1.9122929573059082,-9.54695987701416,-1.1129640340805054
1772534573963288300,6.262288330078125,1.9554259777069092,-9.549128532409668,-1.0151000022888184
1772534573973198000,6.272197998046875,1.9769350290298462,-9.554830551147461,-0.9148510098457336
1772534573983107600,6.282107666015625,1.872413992881775,-9.582792282104492,-0.8391420245170593
1772534573993017600,6.292017578125,1.7622339725494385,-9.607149124145508,-0.7982710003852844
1772534574002927400,6.30192724609375,1.6642199754714966,-9.624954223632812,-0.7941269874572754
1772534574012837000,6.311837158203125,1.5874550342559814,-9.6393461227417,-0.7765510082244873
1772534574022747000,6.321746826171875,1.5499260425567627,-9.64570140838623,-0.7734180092811584
1772534574032657000,6.331656982421875,1.5371129512786865,-9.64841079711914,-0.7651540040969849
1772534574042566400,6.34156640625,1.5507030487060547,-9.647324562072754,-0.7512980103492737
1772534574052476400,6.351476318359375,1.5804450511932373,-9.643523216247559,-0.7379999756813049
1772534574062386200,6.36138623046875,1.6222100257873535,-9.637323379516602,-0.728318989276886
1772534574072296000,6.3712958984375,1.6607789993286133,-9.631850242614746,-0.7136260271072388
1772534574082205700,6.381205810546875,1.6954009532928467,-9.627634048461914,-0.6886820197105408
1772534574092115500,6.391115478515625,1.7329950332641602,-9.622876167297363,-0.6610559821128845
1772534574102025200,6.401025146484375,1.760159969329834,-9.618228912353516,-0.6569010019302368
1772534574111935000,6.41093505859375,1.7209420204162598,-9.6270112991333,-0.6316900253295898
1772534574121845000,6.420844970703125,1.735221028327942,-9.626031875610352,-0.6070539951324463
1772534574131754500,6.43075439453125,1.8210819959640503,-9.6121187210083,-0.5752099752426147
1772534574141664300,6.440664306640625,1.8466529846191406,-9.61026382446289,-0.5222139954566956
1772534574151574300,6.45057421875,1.8176560401916504,-9.618424415588379,-0.47122299671173096
1772534574161484000,6.460484130859375,1.7798449993133545,-9.627676963806152,-0.42429599165916443
1772534574171393500,6.4703935546875,1.8204050064086914,-9.620248794555664,-0.4206460118293762
1772534574181303600,6.480303466796875,1.8806370496749878,-9.608132362365723,-0.4324600100517273
1772534574191213300,6.49021337890625,1.945585012435913,-9.593454360961914,-0.4693939983844757
1772534574201123000,6.500123046875,2.0186688899993896,-9.574966430664062,-0.5338550209999084
1772534574211032800,6.51003271484375,2.1017839908599854,-9.55278205871582,-0.6057130098342896
1772534574220942800,6.51994287109375,2.171955108642578,-9.533824920654297,-0.6548280119895935
1772534574230852400,6.529852294921875,2.2437469959259033,-9.513320922851562,-0.7087640166282654
1772534574240762000,6.53976220703125,2.3075430393218994,-9.492775917053223,-0.7761989831924438
1772534574250672000,6.549672119140625,2.379570960998535,-9.466836929321289,-0.8698620200157166
1772534574260582000,6.559581787109375,2.4549379348754883,-9.435466766357422,-0.9925900101661682
1772534574270491600,6.56949169921875,2.524177074432373,-9.408114433288574,-1.0751359462738037
1772534574280401400,6.5794013671875,2.608947992324829,-9.373603820800781,-1.170022964477539
1772534574290311200,6.589311279296875,2.7064759731292725,-9.332300186157227,-1.2740449905395508
1772534574300221000,6.599220947265625,2.8165910243988037,-9.283019065856934,-1.3901100158691406
1772534574310130700,6.609130615234375,2.954619884490967,-9.217698097229004,-1.5311100482940674
1772534574320040400,6.61904052734375,3.124890089035034,-9.133360862731934,-1.6901999711990356
1772534574329950200,6.6289501953125,3.315843105316162,-9.033073425292969,-1.8570849895477295
1772534574339860000,6.63885986328125,3.505592107772827,-8.921174049377441,-2.0404670238494873
1772534574349769700,6.648769775390625,3.663520097732544,-8.807821273803711,-2.2452011108398438
1772534574359679700,6.6586796875,3.765861988067627,-8.705256462097168,-2.465117931365967
1772534574369589200,6.66858935546875,3.815408945083618,-8.615250587463379,-2.6944580078125
1772534574379499000,6.6784990234375,3.8408730030059814,-8.526396751403809,-2.930572032928467
1772534574389409000,6.688408935546875,3.8751330375671387,-8.423128128051758,-3.1740009784698486
1772534574399318800,6.69831884765625,3.932547092437744,-8.296831130981445,-3.42602801322937
1772534574409228500,6.708228515625,3.9944560527801514,-8.154987335205078,-3.6851749420166016
1772534574419138300,6.71813818359375,4.029825210571289,-8.01694107055664,-3.9407060146331787
1772534574429048000,6.728048095703125,4.019749164581299,-7.903379917144775,-4.173511981964111
1772534574438957800,6.737957763671875,3.9835619926452637,-7.815324783325195,-4.369431972503662
1772534574448867600,6.74786767578125,3.9443819522857666,-7.749846935272217,-4.519041061401367
1772534574458777600,6.757777587890625,3.904299020767212,-7.73331880569458,-4.581731796264648
1772534574468687000,6.76768701171875,3.873624086380005,-7.725231170654297,-4.6212382316589355
1772534574478596900,6.777596923828125,3.817915916442871,-7.7555670738220215,-4.61678409576416
1772534574488506600,6.787506591796875,3.742680072784424,-7.810830116271973,-4.585116863250732
1772534574498416600,6.797416748046875,3.681212902069092,-7.866350173950195,-4.539738178253174
1772534574508326100,6.807326171875,3.616683006286621,-7.9482340812683105,-4.44805383682251
1772534574518236000,6.81723583984375,3.562623977661133,-8.052712440490723,-4.301342010498047
1772534574528146000,6.82714599609375,3.521851062774658,-8.16971206665039,-4.110029220581055
1772534574538055700,6.8370556640625,3.486193895339966,-8.2920560836792,-3.8895039558410645
1772534574547965400,6.84696533203125,3.437251091003418,-8.420561790466309,-3.6495819091796875
1772534574557875200,6.856875244140625,3.34421706199646,-8.507357597351074,-3.532860040664673
1772534574567785000,6.866784912109375,3.231149911880493,-8.60494327545166,-3.399214029312134
1772534574577694700,6.87669482421875,3.0961060523986816,-8.711716651916504,-3.249634027481079
1772534574587604500,6.8866044921875,2.939629077911377,-8.82575798034668,-3.0829548835754395
1772534574597514500,6.896514404296875,2.7668440341949463,-8.944217681884766,-2.8957769870758057
1772534574607424000,6.906424072265625,2.583043098449707,-9.06331729888916,-2.687778949737549
1772534574617333800,6.916333740234375,2.391119956970215,-9.1803617477417,-2.458357095718384
1772534574627243500,6.926243408203125,2.1990621089935303,-9.29033088684082,-2.2122159004211426
1772534574637153500,6.936153564453125,2.0239551067352295,-9.385952949523926,-1.9615050554275513
1772534574647063300,6.946063232421875,1.8803620338439941,-9.461546897888184,-1.727249026298523
1772534574656972800,6.955972900390625,1.8037049770355225,-9.509915351867676,-1.5323779582977295
1772534574666882800,6.9658828125,1.785673975944519,-9.535582542419434,-1.3870999813079834
1772534574676792600,6.97579248046875,1.7636489868164062,-9.555964469909668,-1.270076036453247
1772534574686702300,6.985702392578125,1.7227760553359985,-9.576411247253418,-1.1680790185928345
1772534574696612000,6.995612060546875,1.7490739822387695,-9.578888893127441,-1.1070990562438965
1772534574706521900,7.00552197265625,1.7570899724960327,-9.578231811523438,-1.1000499725341797
1772534574716431600,7.015431640625,1.7106280326843262,-9.58106803894043,-1.1475739479064941
1772534574726341400,7.02534130859375,1.601449966430664,-9.588520050048828,-1.2392189502716064
1772534574736251400,7.03525146484375,1.504364013671875,-9.597271919250488,-1.2919989824295044
1772534574746161000,7.045160888671875,1.4165669679641724,-9.603251457214355,-1.3457109928131104
1772534574756070700,7.055070556640625,1.355376958847046,-9.604248046875,-1.400501012802124
1772534574765980700,7.064980712890625,1.3395520448684692,-9.59793472290039,-1.457834005355835
1772534574775890400,7.074890380859375,1.378533959388733,-9.585098266601562,-1.5051679611206055
1772534574785800000,7.084800048828125,1.4316279888153076,-9.578409194946289,-1.4981809854507446
1772534574795710000,7.0947099609375,1.4820679426193237,-9.588927268981934,-1.376939058303833
1772534574805619700,7.10461962890625,1.4348089694976807,-9.606489181518555,-1.3025799989700317
1772534574815529500,7.114529541015625,1.4102879762649536,-9.61368465423584,-1.2759979963302612
1772534574825439200,7.124439208984375,1.4113450050354004,-9.611163139343262,-1.2937029600143433
1772534574835349000,7.134348876953125,1.4456429481506348,-9.603981018066406,-1.309069037437439
1772534574845259000,7.144259033203125,1.5631510019302368,-9.584609985351562,-1.3159970045089722
1772534574855168800,7.154168701171875,1.6918270587921143,-9.55977725982666,-1.337319016456604
1772534574865078500,7.16407861328125,1.7691529989242554,-9.539848327636719,-1.3789080381393433
1772534574874988300,7.17398828125,1.8138339519500732,-9.519913673400879,-1.4564540386199951
1772534574884897800,7.183897705078125,1.8640899658203125,-9.497583389282227,-1.5365769863128662
1772534574894807800,7.193807861328125,1.9477250576019287,-9.469592094421387,-1.6041209697723389
1772534574904717600,7.203717529296875,1.9662530422210693,-9.459366798400879,-1.6414179801940918
1772534574914627300,7.21362744140625,1.9287320375442505,-9.471546173095703,-1.6154999732971191
1772534574924537000,7.223537109375,1.8946419954299927,-9.4924955368042,-1.5306379795074463
1772534574934446800,7.23344677734375,1.8602570295333862,-9.518913269042969,-1.4034819602966309
1772534574944356600,7.243356689453125,1.822625994682312,-9.54720401763916,-1.2525739669799805
1772534574954266400,7.253266357421875,1.7663689851760864,-9.575748443603516,-1.1067839860916138
1772534574964176100,7.263176025390625,1.6944160461425781,-9.602544784545898,-0.9798470139503479
1772534574974086000,7.2730859375,1.6125030517578125,-9.625077247619629,-0.8931480050086975
1772534574983995600,7.28299560546875,1.5178790092468262,-9.646132469177246,-0.8295770287513733
1772534574993905400,7.292905517578125,1.4257780313491821,-9.665328025817871,-0.7672010064125061
1772534575003815400,7.3028154296875,1.3522980213165283,-9.679116249084473,-0.725271999835968
1772534575013725000,7.312724853515625,1.315322995185852,-9.685980796813965,-0.7012220025062561
1772534575023634700,7.322634765625,1.2931499481201172,-9.690265655517578,-0.6830440163612366
1772534575033544700,7.332544677734375,1.267874002456665,-9.69429874420166,-0.6731119751930237
1772534575043454500,7.342454345703125,1.2538429498672485,-9.696531295776367,-0.6672000288963318
1772534575053364000,7.352364013671875,1.2621819972991943,-9.694832801818848,-0.6760979890823364
1772534575063274000,7.36227392578125,1.3204480409622192,-9.68169116973877,-0.7491999864578247
1772534575073183700,7.372183837890625,1.3942869901657104,-9.665353775024414,-0.8227360248565674
1772534575083093500,7.382093505859375,1.4832290410995483,-9.645736694335938,-0.8943079710006714
1772534575093003300,7.392003173828125,1.568945050239563,-9.62790584564209,-0.9390730261802673
1772534575102913000,7.4019130859375,1.6462889909744263,-9.610990524291992,-0.9790899753570557
1772534575112822800,7.41182275390625,1.6845619678497314,-9.603742599487305,-0.9850950241088867
1772534575122732500,7.421732666015625,1.7037739753723145,-9.600363731384277,-0.9849730134010315
1772534575132642300,7.431642333984375,1.7510230541229248,-9.590704917907715,-0.9961490035057068
1772534575142552000,7.441552001953125,1.8206720352172852,-9.575416564941406,-1.0181100368499756
1772534575152461800,7.4514619140625,1.8757129907608032,-9.562236785888672,-1.0418000221252441
1772534575162371600,7.46137158203125,1.9335789680480957,-9.548881530761719,-1.0583720207214355
1772534575172281600,7.471281494140625,1.9809900522232056,-9.537545204162598,-1.072816014289856
1772534575182191000,7.481191162109375,1.9771100282669067,-9.536203384399414,-1.0917309522628784
1772534575192101000,7.49110107421875,1.940811038017273,-9.540254592895508,-1.1210769414901733
1772534575202011000,7.501010986328125,1.9327410459518433,-9.534589767456055,-1.1815799474716187
1772534575211920600,7.510920654296875,1.9656879901885986,-9.514737129211426,-1.2829060554504395
1772534575221830100,7.520830078125,2.004390001296997,-9.488715171813965,-1.4095040559768677
1772534575231740400,7.530740478515625,2.0496609210968018,-9.459529876708984,-1.5349889993667603
1772534575241650000,7.54064990234375,2.117611885070801,-9.423993110656738,-1.6565220355987549
1772534575251559700,7.5505595703125,2.2061190605163574,-9.383509635925293,-1.7671500444412231
1772534575261469400,7.560469482421875,2.3248350620269775,-9.33462142944336,-1.8708269596099854
1772534575271379200,7.570379150390625,2.4894559383392334,-9.271804809570312,-1.9688199758529663
1772534575281289000,7.5802890625,2.6195878982543945,-9.221169471740723,-2.036616086959839
1772534575291199000,7.590198974609375,2.7653820514678955,-9.159163475036621,-2.121882915496826
1772534575301108700,7.600108642578125,2.9222629070281982,-9.084609031677246,-2.2294108867645264
1772534575311018500,7.6100185546875,3.090346097946167,-8.995906829833984,-2.358691930770874
1772534575320928000,7.619927978515625,3.258193016052246,-8.895594596862793,-2.5084989070892334
1772534575330838000,7.629838134765625,3.4127678871154785,-8.78775691986084,-2.677371025085449
1772534575340747800,7.639747802734375,3.551093101501465,-8.674423217773438,-2.8607900142669678
1772534575350657500,7.649657470703125,3.671278953552246,-8.558018684387207,-3.0532009601593018
1772534575360567000,7.659567138671875,3.7652010917663574,-8.441849708557129,-3.2555229663848877
1772534575370477000,7.66947705078125,3.8261749744415283,-8.329232215881348,-3.467602014541626
1772534575380386800,7.67938671875,3.853226900100708,-8.223942756652832,-3.68231201171875
1772534575390296600,7.689296630859375,3.8458709716796875,-8.125297546386719,-3.902414083480835
1772534575400206300,7.699206298828125,3.8049159049987793,-8.025575637817383,-4.1415839195251465
1772534575410116000,7.7091162109375,3.7326390743255615,-7.921634197235107,-4.399447917938232
1772534575420025900,7.71902587890625,3.6572868824005127,-7.817892074584961,-4.641636848449707
1772534575429935600,7.728935546875,3.608480930328369,-7.725685119628906,-4.830387115478516
1772534575439845600,7.738845703125,3.5941569805145264,-7.654782772064209,-4.9524078369140625
1772534575449755400,7.74875537109375,3.6186749935150146,-7.614512920379639,-4.9964399337768555
1772534575459665000,7.758664794921875,3.642875909805298,-7.5838470458984375,-5.02540922164917
1772534575469574700,7.76857470703125,3.6430699825286865,-7.583805084228516,-5.025331974029541
1772534575479484700,7.778484619140625,3.608802080154419,-7.614326000213623,-5.003856182098389
1772534575489394400,7.78839453125,3.541623115539551,-7.676527976989746,-4.956596851348877
1772534575499304000,7.798303955078125,3.4599831104278564,-7.764659881591797,-4.876328945159912
1772534575509214000,7.8082138671875,3.387976884841919,-7.864544868469238,-4.765560150146484
1772534575519123700,7.818123779296875,3.340353012084961,-7.965231895446777,-4.630022048950195
1772534575529033500,7.828033447265625,3.3156869411468506,-8.06462574005127,-4.473031997680664
1772534575538943200,7.837943115234375,3.3005220890045166,-8.169676780700684,-4.289862155914307
1772534575548853000,7.84785302734375,3.2806060314178467,-8.284387588500977,-4.08001708984375
1772534575558762800,7.8577626953125,3.250093936920166,-8.403595924377441,-3.8544070720672607
1772534575568672500,7.867672607421875,3.171638011932373,-8.483208656311035,-3.7437829971313477
1772534575578582000,7.87758203125,3.0735080242156982,-8.571642875671387,-3.6222240924835205
1772534575588492000,7.887491943359375,2.9641590118408203,-8.666001319885254,-3.4862899780273438
1772534575598401800,7.89740185546875,2.8522489070892334,-8.76533031463623,-3.3277130126953125
1772534575608311600,7.9073115234375,2.7415521144866943,-8.868450164794922,-3.1423699855804443
1772534575618221300,7.91722119140625,2.624819040298462,-8.975431442260742,-2.9312028884887695
1772534575628131000,7.927131103515625,2.4964780807495117,-9.083978652954102,-2.69980788230896
1772534575638040800,7.937040771484375,2.3669540882110596,-9.187018394470215,-2.4568710327148438
1772534575647950800,7.946950927734375,2.251339912414551,-9.280611991882324,-2.200392007827759
1772534575657860600,7.956860595703125,2.163532018661499,-9.360848426818848,-1.9322700500488281
1772534575667770400,7.966770263671875,2.114945888519287,-9.421740531921387,-1.6726700067520142
1772534575677680000,7.97668017578125,2.100722074508667,-9.462969779968262,-1.4419440031051636
1772534575687590000,7.98658984375,2.0775949954986572,-9.494147300720215,-1.2588859796524048
1772534575697499600,7.996499755859375,2.0144670009613037,-9.523467063903809,-1.1338030099868774
1772534575707409400,8.006409423828124,1.9492520093917847,-9.544123649597168,-1.0724420547485352
1772534575717319200,8.016319091796875,1.9014250040054321,-9.554800033569336,-1.0631970167160034
1772534575727229000,8.02622900390625,1.8711390495300293,-9.556242942810059,-1.1032129526138306
1772534575737138700,8.036138671875,1.8438750505447388,-9.551501274108887,-1.1869980096817017
1772534575747048700,8.046048583984375,1.8191560506820679,-9.54281234741211,-1.2905210256576538
1772534575756958200,8.055958251953125,1.805042028427124,-9.532573699951172,-1.3826969861984253
1772534575766868000,8.065867919921875,1.8130110502243042,-9.521743774414062,-1.4454749822616577
1772534575776778000,8.075778076171876,1.7862770557403564,-9.525330543518066,-1.455098032951355
1772534575786687700,8.085687744140625,1.759572982788086,-9.52772045135498,-1.47188401222229
1772534575796597200,8.09559716796875,1.7359989881515503,-9.528173446655273,-1.4967520236968994
1772534575806507300,8.10550732421875,1.7229759693145752,-9.526420593261719,-1.522724986076355
1772534575816417000,8.1154169921875,1.7226589918136597,-9.521976470947266,-1.5506190061569214
1772534575826326800,8.125326904296875,1.7247240543365479,-9.51604175567627,-1.5843950510025024
1772534575836236500,8.135236572265624,1.7119159698486328,-9.512782096862793,-1.6175199747085571
1772534575846146300,8.145146240234375,1.6793570518493652,-9.514369010925293,-1.6421129703521729
1772534575856056000,8.15505615234375,1.6230889558792114,-9.521689414978027,-1.6562050580978394
1772534575865965800,8.1649658203125,1.5759689807891846,-9.528068542480469,-1.6650069952011108
1772534575875875600,8.17487548828125,1.5569310188293457,-9.52962875366211,-1.6739699840545654
1772534575885785300,8.184785400390625,1.5158770084381104,-9.534026145935059,-1.6865639686584473
1772534575895695000,8.194695068359374,1.552597999572754,-9.530106544494629,-1.6752680540084839
1772534575905604900,8.20460498046875,1.647631049156189,-9.51408863067627,-1.675544023513794
1772534575915514600,8.2145146484375,1.7548660039901733,-9.496134757995605,-1.6684939861297607
1772534575925424600,8.224424560546876,1.8529490232467651,-9.4702730178833,-1.7089569568634033
1772534575935334100,8.234334228515625,1.922821044921875,-9.435943603515625,-1.818166971206665
1772534575945244000,8.244243896484376,1.9887770414352417,-9.400321006774902,-1.9284069538116455
1772534575955154000,8.25415380859375,2.0685911178588867,-9.363166809082031,-2.0228800773620605
1772534575965063700,8.264063720703126,2.0496010780334473,-9.357312202453613,-2.0687758922576904
1772534575974973400,8.273973388671875,1.9977190494537354,-9.373796463012695,-2.0447640419006348
1772534575984883000,8.283883056640626,1.9385099411010742,-9.404163360595703,-1.9605859518051147
1772534575994793000,8.29379296875,1.8628289699554443,-9.445060729980469,-1.8332220315933228
1772534576004702700,8.30370263671875,1.774772047996521,-9.486410140991211,-1.7024140357971191
1772534576014612500,8.313612548828125,1.668936014175415,-9.521757125854492,-1.6095860004425049
1772534576024522200,8.323522216796874,1.568179965019226,-9.549169540405273,-1.5473209619522095
1772534576034432000,8.333431884765625,1.4820810556411743,-9.573530197143555,-1.4801950454711914
1772534576044341500,8.343341552734374,1.4078179597854614,-9.595256805419922,-1.41034996509552
1772534576054251500,8.35325146484375,1.3474650382995605,-9.61072826385498,-1.3631819486618042
1772534576064161300,8.363161376953125,1.295719027519226,-9.620894432067871,-1.3414690494537354
1772534576074071000,8.373071044921875,1.2460449934005737,-9.628339767456055,-1.3350809812545776
1772534576083980800,8.382980712890625,1.204576015472412,-9.633424758911133,-1.3364709615707397
1772534576093890600,8.392890625,1.1782200336456299,-9.635356903076172,-1.3459949493408203
1772534576103800300,8.40280029296875,1.1611920595169067,-9.63614559173584,-1.3551119565963745
1772534576113710300,8.41271044921875,1.1446000337600708,-9.638310432434082,-1.3538440465927124
1772534576123620000,8.4226201171875,1.1311450004577637,-9.639472961425781,-1.3568689823150635
1772534576133529600,8.432529541015626,1.1270229816436768,-9.640331268310547,-1.3542070388793945
1772534576143439400,8.442439453125,1.1303019523620605,-9.640793800354004,-1.3481500148773193
1772534576153349400,8.452349365234374,1.1264489889144897,-9.643787384033203,-1.3298540115356445
1772534576163259100,8.462259033203125,1.1250720024108887,-9.64776611328125,-1.3018540143966675
1772534576173168600,8.472168701171874,1.1367429494857788,-9.650761604309082,-1.2691049575805664
1772534576183078400,8.482078369140625,1.1630710363388062,-9.652000427246094,-1.2353789806365967
1772534576192988400,8.491988525390624,1.1883280277252197,-9.65295696258545,-1.2034579515457153
1772534576202898200,8.501898193359375,1.2350720167160034,-9.649206161499023,-1.18635094165802
1772534576212808000,8.511807861328125,1.2976349592208862,-9.642121315002441,-1.1771479845046997
1772534576222717700,8.5217177734375,1.3561110496520996,-9.636693000793457,-1.1554789543151855
1772534576232627500,8.53162744140625,1.3877240419387817,-9.636569023132324,-1.1183799505233765
1772534576242537200,8.541537109375,1.4106069803237915,-9.637420654296875,-1.0818099975585938
1772534576252447000,8.551447021484375,1.441159963607788,-9.634754180908203,-1.0651730298995972
1772534576262356700,8.561356689453126,1.4807629585266113,-9.628883361816406,-1.0639289617538452
1772534576272266500,8.5712666015625,1.5139299631118774,-9.621100425720215,-1.087401032447815
1772534576282176300,8.58117626953125,1.5433969497680664,-9.611527442932129,-1.1298160552978516
1772534576292086000,8.5910859375,1.5574400424957275,-9.603410720825195,-1.1785049438476562
1772534576301996000,8.60099609375,1.5698540210723877,-9.584911346435547,-1.3057730197906494
1772534576311905500,8.610905517578125,1.6354349851608276,-9.561201095581055,-1.3959840536117554
1772534576321815300,8.620815185546874,1.6831250190734863,-9.536725044250488,-1.502661943435669
1772534576331725000,8.63072509765625,1.7173160314559937,-9.51552677154541,-1.5954840183258057
1772534576341635000,8.640635009765624,1.769516944885254,-9.494264602661133,-1.6636589765548706
1772534576351544800,8.650544921875,1.8279720544815063,-9.475622177124023,-1.7062020301818848
1772534576361454300,8.660454345703124,1.8840659856796265,-9.461479187011719,-1.7235770225524902
1772534576371364000,8.670364013671875,1.9425569772720337,-9.449956893920898,-1.721858024597168
1772534576381274000,8.680274169921875,2.0083980560302734,-9.437365531921387,-1.7153559923171997
1772534576391183600,8.69018359375,2.095896005630493,-9.419185638427734,-1.7106009721755981
1772534576401093600,8.70009375,2.209001064300537,-9.393478393554688,-1.7096519470214844
1772534576411003400,8.71000341796875,2.33418607711792,-9.3620023727417,-1.7159520387649536
1772534576420913000,8.719912841796875,2.464611053466797,-9.32486629486084,-1.7356749773025513
1772534576430822700,8.72982275390625,2.5886600017547607,-9.284648895263672,-1.7703460454940796
1772534576440732700,8.739732666015625,2.7026140689849854,-9.240212440490723,-1.8314889669418335
1772534576450642400,8.749642333984376,2.833894968032837,-9.183122634887695,-1.9181549549102783
1772534576460552200,8.75955224609375,2.983922004699707,-9.112725257873535,-2.0234720706939697
1772534576470462000,8.7694619140625,3.149599075317383,-9.029776573181152,-2.14083194732666
1772534576480371700,8.779371826171875,3.3202009201049805,-8.93586254119873,-2.2730178833007812
1772534576490281500,8.789281494140624,3.4804461002349854,-8.832793235778809,-2.4306910037994385
1772534576500191500,8.79919140625,3.6251819133758545,-8.722637176513672,-2.610300064086914
1772534576510101000,8.80910107421875,3.757112979888916,-8.605862617492676,-2.8041470050811768
1772534576520010800,8.8190107421875,3.8710670471191406,-8.484919548034668,-3.0101449489593506
1772534576529920500,8.82892041015625,3.960339069366455,-8.365453720092773,-3.2210071086883545
1772534576539830500,8.83883056640625,4.020785808563232,-8.254836082458496,-3.4250481128692627
1772534576549740300,8.848740234375,4.044829845428467,-8.1575288772583,-3.624098062515259
1772534576559649800,8.85864990234375,4.031980037689209,-8.067239761352539,-3.8344199657440186
1772534576569559600,8.8685595703125,3.9870920181274414,-7.975292205810547,-4.06666898727417
1772534576579469600,8.878469482421876,3.9315690994262695,-7.8750457763671875,-4.30887508392334
1772534576589379300,8.88837939453125,3.892641067504883,-7.768156051635742,-4.5324530601501465
1772534576599289000,8.8982890625,3.882941961288452,-7.665616035461426,-4.711802959442139
1772534576609198800,8.90819873046875,3.8963499069213867,-7.576919078826904,-4.84239387512207
1772534576619108600,8.918108642578124,3.895991086959839,-7.529888153076172,-4.915489196777344
1772534576629018400,8.928018310546875,3.8788208961486816,-7.513010025024414,-4.954736232757568
1772534576638928100,8.93792822265625,3.86511492729187,-7.520358085632324,-4.954300880432129
1772534576648838000,8.947837890625,3.8618578910827637,-7.543933868408203,-4.920886993408203
1772534576658747600,8.95774755859375,3.854865074157715,-7.584567070007324,-4.863574981689453
1772534576668657400,8.967657470703125,3.8429830074310303,-7.641425132751465,-4.783314228057861
1772534576678567200,8.977567138671875,3.8324050903320312,-7.714410781860352,-4.6733880043029785
1772534576688477000,8.987476806640625,3.818103075027466,-7.798579216003418,-4.543592929840088
1772534576698386700,8.99738671875,3.7889199256896973,-7.8928608894348145,-4.40304708480835
1772534576708296400,9.00729638671875,3.734355926513672,-7.996747016906738,-4.259887218475342
1772534576718206200,9.017206298828125,3.655237913131714,-8.10552978515625,-4.120633125305176
1772534576728116000,9.027115966796876,3.5571959018707275,-8.218700408935547,-3.9798660278320312
1772534576738025700,9.037025634765625,3.4433939456939697,-8.33387279510498,-3.8379158973693848
1772534576747935700,9.046935791015626,3.3318629264831543,-8.409646034240723,-3.7704849243164062
1772534576757845200,9.05684521484375,3.210932970046997,-8.48952865600586,-3.695651054382324
1772534576767755000,9.066755126953124,3.082129955291748,-8.571730613708496,-3.6146790981292725
1772534576777665000,9.0766650390625,2.94631290435791,-8.656425476074219,-3.524988889694214
1772534576787574800,9.08657470703125,2.8045339584350586,-8.74366569519043,-3.4238760471343994
1772534576797484500,9.096484619140625,2.6579151153564453,-8.83383846282959,-3.307387113571167
1772534576807394000,9.10639404296875,2.507493019104004,-8.926773071289062,-3.172571897506714
1772534576817304000,9.116303955078125,2.3530890941619873,-9.021736145019531,-3.0184860229492188
1772534576827213800,9.1262138671875,2.1925549507141113,-9.1182222366333,-2.8444199562072754
1772534576837123600,9.13612353515625,2.027095079421997,-9.215106010437012,-2.648153066635132
1772534576847033300,9.146033447265625,1.8624650239944458,-9.310504913330078,-2.426048994064331
1772534576856943000,9.155943115234376,1.711717963218689,-9.399189949035645,-2.1829519271850586
1772534576866852900,9.165852783203125,1.588325023651123,-9.47799015045166,-1.9196269512176514
1772534576876762400,9.175762451171876,1.5004639625549316,-9.544178009033203,-1.6423399448394775
1772534576886672400,9.18567236328125,1.44725501537323,-9.59221363067627,-1.3910059928894043
1772534576896582100,9.19558203125,1.382388949394226,-9.624458312988281,-1.2242540121078491
1772534576906492000,9.205491943359375,1.3188849687576294,-9.636412620544434,-1.2000340223312378
1772534576916401700,9.215401611328126,1.2049570083618164,-9.654131889343262,-1.1772129535675049
1772534576926311400,9.2253115234375,1.0940029621124268,-9.665552139282227,-1.191743016242981
1772534576936221200,9.23522119140625,0.9878020286560059,-9.673075675964355,-1.2230550050735474
1772534576946131000,9.245130859375,0.890815019607544,-9.678694725036621,-1.2527199983596802
1772534576956040700,9.255040771484374,0.8097959756851196,-9.683667182922363,-1.2691800594329834
1772534576965950500,9.264950439453125,0.7498279809951782,-9.687962532043457,-1.2732479572296143
1772534576975860500,9.274860595703124,0.7290269732475281,-9.67969799041748,-1.3460910320281982
1772534576985770200,9.284770263671875,0.7178919911384583,-9.673412322998047,-1.396332025527954
1772534576995680000,9.294679931640625,0.7449610233306885,-9.669197082519531,-1.411262035369873
1772534577005589800,9.30458984375,0.8319290280342102,-9.668851852416992,-1.3642549514770508
1772534577015499500,9.31449951171875,0.8997049927711487,-9.673172950744629,-1.288506031036377
1772534577025409300,9.3244091796875,0.863893985748291,-9.684074401855469,-1.229796051979065
1772534577035319000,9.334319091796875,0.8064699769020081,-9.69525146484375,-1.1797150373458862
1772534577045228800,9.344228759765626,0.7455750107765198,-9.703035354614258,-1.155521035194397
1772534577055138600,9.354138671875,0.7117210030555725,-9.70362377166748,-1.17181396484375
1772534577065048300,9.36404833984375,0.7266640067100525,-9.6943998336792,-1.237157940864563
1772534577074958000,9.3739580078125,0.8223009705543518,-9.67410659790039,-1.3324819803237915
1772534577084867800,9.383867919921874,0.8804370164871216,-9.655356407165527,-1.4279149770736694
1772534577094777900,9.39377783203125,0.9105349779129028,-9.639902114868164,-1.5110360383987427
1772534577104687400,9.403687255859374,1.0229909420013428,-9.616244316101074,-1.5878839492797852
1772534577114597000,9.41359716796875,1.1455249786376953,-9.588631629943848,-1.6691149473190308
1772534577124507000,9.4235068359375,1.294335961341858,-9.559782028198242,-1.724905014038086
1772534577134416600,9.433416748046875,1.4451839923858643,-9.535954475402832,-1.736961007118225
1772534577144326400,9.443326416015625,1.578976035118103,-9.522225379943848,-1.695315957069397
1772534577154236400,9.453236328125,1.6855469942092896,-9.519500732421875,-1.6056360006332397
1772534577164146000,9.46314599609375,1.7693489789962769,-9.522141456604004,-1.496080994606018
1772534577174055700,9.4730556640625,1.818356990814209,-9.526530265808105,-1.4066909551620483
1772534577183965400,9.48296533203125,1.70197594165802,-9.562638282775879,-1.3035500049591064
1772534577193875500,9.49287548828125,1.550434947013855,-9.601062774658203,-1.2065520286560059
1772534577203785000,9.502784912109375,1.4578160047531128,-9.61810302734375,-1.1861250400543213
1772534577213695000,9.512695068359376,1.3558269739151,-9.633901596069336,-1.178853988647461
1772534577223604700,9.522604736328125,1.258612036705017,-9.6465482711792,-1.1832170486450195
1772534577233514500,9.532514404296874,1.177433967590332,-9.65491771697998,-1.1984269618988037
1772534577243424000,9.542424072265625,1.1152479648590088,-9.660277366638184,-1.2146120071411133
1772534577253334000,9.552333984375,1.0632940530776978,-9.666259765625,-1.2136149406433105
1772534577263243800,9.562243896484375,1.0117789506912231,-9.674276351928711,-1.1936089992523193
1772534577273153500,9.572153564453124,0.9994609951972961,-9.67442512512207,-1.2027519941329956
1772534577283063000,9.58206298828125,0.9770429730415344,-9.678380012512207,-1.1892650127410889
1772534577292973000,9.59197314453125,0.9436309933662415,-9.685373306274414,-1.1589330434799194
1772534577302882800,9.6018828125,0.8955079913139343,-9.693702697753906,-1.12704598903656
1772534577312792600,9.61179248046875,0.8264549970626831,-9.70362377166748,-1.0939300060272217
1772534577322702300,9.621702392578126,0.747759997844696,-9.714753150939941,-1.050920009613037
1772534577332612000,9.631612060546875,0.6749899983406067,-9.725849151611328,-0.996133029460907
1772534577342521900,9.64152197265625,0.6277710199356079,-9.733993530273438,-0.9461860060691833
1772534577352431400,9.651431396484375,0.5788620114326477,-9.74000358581543,-0.915008008480072
1772534577362341400,9.66134130859375,0.5344719886779785,-9.745211601257324,-0.8861179947853088
1772534577372251100,9.671251220703125,0.49483200907707214,-9.749896049499512,-0.8571329712867737
1772534577382161000,9.681160888671876,0.45993199944496155,-9.754053115844727,-0.8288149833679199
1772534577392070700,9.691070556640625,0.4565579891204834,-9.752737045288086,-0.8459920287132263
1772534577401980700,9.700980712890624,0.4417620003223419,-9.751949310302734,-0.8627570271492004
1772534577411890200,9.71089013671875,0.4372510015964508,-9.751267433166504,-0.8727099895477295
1772534577421800000,9.720800048828124,0.45100200176239014,-9.750004768371582,-0.879787027835846
1772534577431709700,9.730709716796875,0.4788450002670288,-9.747644424438477,-0.8911579847335815
1772534577441619500,9.740619384765624,0.5202640295028687,-9.746272087097168,-0.8829079866409302
1772534577451529200,9.750529296875,0.5780270099639893,-9.745211601257324,-0.8583409786224365
1772534577461439200,9.760439208984375,0.6629279851913452,-9.742988586425781,-0.8214100003242493
1772534577471349000,9.770348876953125,0.7603530287742615,-9.740501403808594,-0.7645390033721924
1772534577481258500,9.780258544921875,0.8516389727592468,-9.737746238708496,-0.7007290124893188
1772534577491168300,9.790168212890626,0.9465389847755432,-9.733181953430176,-0.6397449970245361
1772534577501078000,9.800078125,1.0592529773712158,-9.72424602508545,-0.5975250005722046
1772534577510988000,9.809988037109376,1.1351139545440674,-9.718793869018555,-0.5446040034294128
1772534577520897500,9.8198974609375,1.22843599319458,-9.709300994873047,-0.5103229880332947
1772534577530807300,9.829807373046876,1.3375509977340698,-9.695067405700684,-0.50661301612854
1772534577540717300,9.83971728515625,1.464298963546753,-9.675081253051758,-0.5372560024261475
1772534577550626800,9.849626708984376,1.6034810543060303,-9.6495361328125,-0.5960879921913147
1772534577560536600,9.85953662109375,1.7417689561843872,-9.618964195251465,-0.6941080093383789
1772534577570446600,9.869446533203124,1.8880469799041748,-9.580432891845703,-0.8310049772262573
1772534577580356400,9.8793564453125,2.058767080307007,-9.530638694763184,-0.9840750098228455
1772534577590266000,9.88926611328125,2.244621992111206,-9.469120025634766,-1.1564710140228271
1772534577600175900,9.89917578125,2.4357779026031494,-9.396942138671875,-1.3433070182800293
1772534577610085600,9.909085693359375,2.623102903366089,-9.318628311157227,-1.523980975151062
1772534577619995400,9.918995361328125,2.7949700355529785,-9.241132736206055,-1.6821449995040894
1772534577629905200,9.9289052734375,2.942333936691284,-9.171778678894043,-1.8058669567108154
1772534577639815000,9.93881494140625,3.057507038116455,-9.117790222167969,-1.8861429691314697
1772534577649724700,9.948724609375,3.1347599029541016,-9.081474304199219,-1.9339419603347778
1772534577659634400,9.958634521484376,3.1774110794067383,-9.054930686950684,-1.988042950630188
1772534577669544200,9.968544189453125,3.192125082015991,-9.02633285522461,-2.0918118953704834
1772534577679454000,9.978453857421876,3.1860458850860596,-8.984963417053223,-2.2714691162109375
1772534577689363700,9.98836376953125,3.16196608543396,-8.930973052978516,-2.5059289932250977
1772534577699273500,9.9982734375,3.1155951023101807,-8.878774642944336,-2.738687038421631
1772534577709183200,10.008183349609375,3.046125888824463,-8.832971572875977,-2.956307888031006
1772534577719093200,10.01809326171875,2.9760870933532715,-8.787247657775879,-3.1570849418640137
1772534577729002800,10.028002685546875,2.939194917678833,-8.729513168334961,-3.34614896774292
1772534577738912500,10.03791259765625,2.943228006362915,-8.659785270690918,-3.5193099975585938
1772534577748822300,10.047822265625,2.979016065597534,-8.587815284729004,-3.662637948989868
1772534577758732000,10.05773193359375,3.0329179763793945,-8.526187896728516,-3.761054039001465
1772534577768641800,10.067641845703125,3.095902919769287,-8.511700630187988,-3.7425060272216797
1772534577778551600,10.077551513671875,3.1347060203552246,-8.529775619506836,-3.6683189868927
1772534577788461300,10.08746142578125,3.1429479122161865,-8.576770782470703,-3.5497701168060303
1772534577798371000,10.09737109375,3.0985488891601562,-8.71296501159668,-3.2439539432525635
1772534577808280800,10.10728076171875,3.0707430839538574,-8.845807075500488,-2.891753911972046
1772534577818190800,10.11719091796875,3.050321102142334,-8.920215606689453,-2.676806926727295
1772534577828100600,10.1271005859375,3.008004903793335,-8.999381065368652,-2.4501121044158936
1772534577838010000,10.137010009765625,2.943079948425293,-9.080150604248047,-2.220170021057129
1772534577847920000,10.146920166015626,2.8575119972229004,-9.157689094543457,-2.0028390884399414
1772534577857830000,10.156829833984375,2.7453980445861816,-9.234374046325684,-1.7969779968261719
1772534577867739600,10.16673974609375,2.6136839389801025,-9.308975219726562,-1.5973910093307495
1772534577877649400,10.1766494140625,2.484494924545288,-9.37369441986084,-1.414620041847229
1772534577887559200,10.18655908203125,2.373771905899048,-9.424028396606445,-1.262112021446228
1772534577897469000,10.196468994140625,2.2677500247955322,-9.462287902832031,-1.1672450304031372
1772534577907378700,10.206378662109374,2.1610798835754395,-9.498743057250977,-1.0694119930267334
1772534577917288400,10.216288330078125,2.0559260845184326,-9.533385276794434,-0.9631959795951843
1772534577927198200,10.2261982421875,1.9659379720687866,-9.563517570495605,-0.8451110124588013
1772534577937108000,10.23610791015625,1.9046889543533325,-9.586301803588867,-0.7176510095596313
1772534577947017500,10.246017578125,1.864806056022644,-9.602483749389648,-0.5956360101699829
1772534577956927500,10.255927490234376,1.8228559494018555,-9.61595630645752,-0.5005850195884705
1772534577966837200,10.265837158203125,1.7657419443130493,-9.629314422607422,-0.44552600383758545
1772534577976747000,10.2757470703125,1.681555986404419,-9.644624710083008,-0.439983993768692
1772534577986656800,10.28565673828125,1.5703710317611694,-9.661038398742676,-0.48814401030540466
1772534577996566500,10.29556640625,1.4553920030593872,-9.674452781677246,-0.5716720223426819
1772534578006476300,10.305476318359375,1.3682869672775269,-9.68034553527832,-0.6772540211677551
1772534578016386000,10.315385986328126,1.3276020288467407,-9.677576065063477,-0.7886670231819153
1772534578026295800,10.3252958984375,1.3407560586929321,-9.667695045471191,-0.8820880055427551
1772534578036205600,10.33520556640625,1.3983010053634644,-9.657456398010254,-0.9045900106430054
1772534578046115600,10.345115478515625,1.5129770040512085,-9.64952564239502,-0.7984820008277893
1772534578056025000,10.355025146484374,1.560163974761963,-9.650572776794434,-0.6872810125350952
1772534578065934800,10.364934814453125,1.5832040309906006,-9.637210845947266,-0.8109419941902161
1772534578075844600,10.3748447265625,1.6158299446105957,-9.617654800415039,-0.9642689824104309
1772534578085754400,10.38475439453125,1.6898210048675537,-9.590725898742676,-1.0965800285339355
1772534578095664400,10.394664306640625,1.8451149463653564,-9.55953311920166,-1.118425965309143
1772534578105574100,10.40457421875,1.9693050384521484,-9.543684959411621,-1.0392110347747803
1772534578115484000,10.41448388671875,1.8265479803085327,-9.592900276184082,-0.8246170282363892
1772534578125393700,10.4243935546875,1.7763570547103882,-9.616539001464844,-0.6377760171890259
1772534578135303400,10.434303466796875,1.740054965019226,-9.635104179382324,-0.4206889867782593
1772534578145213200,10.444213134765626,1.7547270059585571,-9.639543533325195,-0.20034700632095337
1772534578155123000,10.454123046875,1.8095959424972534,-9.631467819213867,-0.014798999764025211
1772534578165032700,10.46403271484375,1.8194869756698608,-9.62945556640625,0.05550999939441681
1772534578174942200,10.473942138671875,1.7652679681777954,-9.639620780944824,0.03929299861192703
1772534578184852000,10.48385205078125,1.6753679513931274,-9.655730247497559,-0.0065020001493394375
1772534578194762000,10.493761962890625,1.6257389783859253,-9.664146423339844,-0.03582699969410896
1772534578204671700,10.503671630859374,1.5723340511322021,-9.672823905944824,-0.06535299867391586
1772534578214581500,10.51358154296875,1.5283839702606201,-9.67947769165039,-0.10836400091648102
1772534578224491000,10.523490966796874,1.4974089860916138,-9.684321403503418,-0.10827299952507019
1772534578234401000,10.533401123046875,1.4496469497680664,-9.69163990020752,-0.10308100283145905
1772534578244310800,10.543310791015625,1.3813740015029907,-9.701502799987793,-0.11266200244426727
1772534578254220300,10.55322021484375,1.307737946510315,-9.711612701416016,-0.120107002556324
1772534578264130300,10.56313037109375,1.2353349924087524,-9.72115707397461,-0.114376001060009
1772534578274040000,10.5730400390625,1.173563003540039,-9.728954315185547,-0.10116200149059296
1772534578283949800,10.58294970703125,1.1279560327529907,-9.734525680541992,-0.08208800107240677
1772534578293859600,10.592859619140626,1.0968379974365234,-9.738263130187988,-0.05664199963212013
1772534578303769300,10.602769287109375,1.0711740255355835,-9.741246223449707,-0.027434999123215675
1772534578313679000,10.61267919921875,1.0530489683151245,-9.743252754211426,0.010514000430703163
1772534578323588900,10.6225888671875,1.042193055152893,-9.744309425354004,0.048034001141786575
1772534578333498600,10.63249853515625,1.032492995262146,-9.745055198669434,0.0886090025305748
1772534578343408400,10.642408447265625,1.0329409837722778,-9.744500160217285,0.13333000242710114
1772534578353318100,10.652318115234374,1.0454089641571045,-9.742464065551758,0.17745299637317657
1772534578363227600,10.6622275390625,1.0608240365982056,-9.7400541305542,0.2145179957151413
1772534578373137700,10.6721376953125,1.0769139528274536,-9.73759937286377,0.24380500614643097
1772534578383047400,10.68204736328125,1.0919090509414673,-9.735459327697754,0.26188400387763977
1772534578392957200,10.691957275390624,1.104828953742981,-9.733519554138184,0.2792620062828064
1772534578402867000,10.701866943359375,1.1242059469223022,-9.731111526489258,0.28576400876045227
1772534578412776700,10.711776611328125,1.152114987373352,-9.72813892364502,0.2756099998950958
1772534578422686500,10.7216865234375,1.1847330331802368,-9.72496223449707,0.24805299937725067
1772534578432596200,10.73159619140625,1.2350599765777588,-9.719999313354492,0.1904039978981018
1772534578442506200,10.74150634765625,1.2813199758529663,-9.715103149414062,0.122468002140522
1772534578452415700,10.751415771484375,1.3170820474624634,-9.71094799041748,0.05286300182342529
1772534578462325800,10.76132568359375,1.33577299118042,-9.70853042602539,-0.013152999803423882
1772534578472235500,10.771235595703125,1.3510969877243042,-9.70609188079834,-0.07941900193691254
1772534578482145000,10.78114501953125,1.3909759521484375,-9.699360847473145,-0.16618099808692932
1772534578492054800,10.7910546875,1.4576610326766968,-9.687149047851562,-0.2727380096912384
1772534578501964500,10.800964599609374,1.5278400182724,-9.672581672668457,-0.3832570016384125
1772534578511874600,10.81087451171875,1.5996390581130981,-9.657752990722656,-0.4571070075035095
1772534578521784000,10.8207841796875,1.7129260301589966,-9.635283470153809,-0.5169309973716736
1772534578531693800,10.83069384765625,1.8003519773483276,-9.615937232971191,-0.5766289830207825
1772534578541603600,10.840603515625,1.8542360067367554,-9.60188102722168,-0.6369420289993286
1772534578551513600,10.850513671875,1.8840500116348267,-9.590325355529785,-0.7183449864387512
1772534578561423000,10.860423095703124,1.9198089838027954,-9.575359344482422,-0.8165839910507202
1772534578571332900,10.870332763671875,1.949478030204773,-9.560955047607422,-0.9097809791564941
1772534578581242600,10.88024267578125,1.9824910163879395,-9.545690536499023,-0.9947400093078613
1772534578591152400,10.89015234375,2.0255870819091797,-9.526725769042969,-1.0855790376663208
1772534578601062100,10.900062255859375,2.0797619819641113,-9.501785278320312,-1.1961040496826172
1772534578610972000,10.909971923828126,2.166105031967163,-9.466211318969727,-1.3186509609222412
1772534578620882000,10.9198818359375,2.2981789112091064,-9.415471076965332,-1.451653003692627
1772534578630791400,10.92979150390625,2.4509730339050293,-9.3540620803833,-1.5919359922409058
1772534578640701400,10.939701416015625,2.5643041133880615,-9.308155059814453,-1.6800639629364014
1772534578650611200,10.949611083984376,2.695560932159424,-9.251474380493164,-1.784430980682373
1772534578660521000,10.95952099609375,2.8463869094848633,-9.18271255493164,-1.9015450477600098
1772534578670430700,10.9694306640625,3.0199949741363525,-9.100332260131836,-2.025731086730957
1772534578680340500,10.979340576171875,3.2103400230407715,-9.005840301513672,-2.1514151096343994
1772534578690250200,10.989250244140624,3.4008169174194336,-8.903521537780762,-2.280730962753296
1772534578700160000,10.999159912109375,3.578200101852417,-8.794479370117188,-2.427678108215332
1772534578710069500,11.009069580078124,3.7352681159973145,-8.680025100708008,-2.597100019454956
1772534578719979500,11.0189794921875,3.8618509769439697,-8.565747261047363,-2.7846179008483887
1772534578729889300,11.02888916015625,3.9478280544281006,-8.459397315979004,-2.9821579456329346
1772534578739799000,11.038799072265626,3.987149953842163,-8.364690780639648,-3.1897621154785156
1772534578749708500,11.04870849609375,3.977634906768799,-8.277762413024902,-3.4200971126556396
1772534578759618300,11.058618408203126,3.9301159381866455,-8.191312789916992,-3.6737709045410156
1772534578769528300,11.0685283203125,3.8621349334716797,-8.098952293395996,-3.9409260749816895
1772534578779438000,11.07843798828125,3.784480094909668,-8.007634162902832,-4.194704055786133
1772534578789347600,11.08834765625,3.711885929107666,-7.929178237915039,-4.403413772583008
1772534578799257300,11.09825732421875,3.6536049842834473,-7.87204122543335,-4.552157878875732
1772534578809167400,11.10816748046875,3.6097280979156494,-7.859018802642822,-4.609306812286377
1772534578819076900,11.118076904296874,3.5648388862609863,-7.8484039306640625,-4.662026882171631
1772534578828986600,11.127986572265625,3.514369010925293,-7.859045028686523,-4.682374954223633
1772534578838896600,11.137896728515624,3.4463140964508057,-7.901340961456299,-4.661733150482178
1772534578848806400,11.147806396484375,3.3651750087738037,-7.971793174743652,-4.600663185119629
1772534578858716000,11.1577158203125,3.285741090774536,-8.038203239440918,-4.542156219482422
1772534578868626000,11.1676259765625,3.199345111846924,-8.115100860595703,-4.466468811035156
1772534578878535700,11.17753564453125,3.1092569828033447,-8.199753761291504,-4.3745341300964355
1772534578888445400,11.187445556640625,3.0120890140533447,-8.290427207946777,-4.270380973815918
1772534578898355000,11.19735498046875,2.9005351066589355,-8.387142181396484,-4.157255172729492
1772534578908265000,11.207264892578126,2.7720279693603516,-8.490226745605469,-4.033848762512207
1772534578918174700,11.2171748046875,2.630664110183716,-8.598530769348145,-3.896780014038086
1772534578928084500,11.22708447265625,2.482261896133423,-8.710138320922852,-3.743242025375366
1772534578937994200,11.236994140625,2.3340909481048584,-8.821855545043945,-3.573077917098999
1772534578947904000,11.246904052734376,2.190812110900879,-8.931879043579102,-3.3855409622192383
1772534578957813800,11.256813720703125,2.0549750328063965,-9.03995132446289,-3.1774790287017822
1772534578967723300,11.26672314453125,1.9318710565567017,-9.145215034484863,-2.94498610496521
1772534578977633300,11.27663330078125,1.822648048400879,-9.244841575622559,-2.692742109298706
1772534578987543000,11.28654296875,1.7343770265579224,-9.335342407226562,-2.4255549907684326
1772534578997452800,11.296452880859375,1.6822619438171387,-9.409090995788574,-2.1631059646606445
1772534579007362600,11.306362548828124,1.6756139993667603,-9.461180686950684,-1.928313970565796
1772534579017272300,11.316272216796875,1.68641197681427,-9.496380805969238,-1.7363109588623047
1772534579027182000,11.32618212890625,1.6739890575408936,-9.524320602416992,-1.5890510082244873
1772534579037091800,11.336091796875,1.7110899686813354,-9.531628608703613,-1.5033999681472778
1772534579047001600,11.346001708984375,1.7568409442901611,-9.529459953308105,-1.463865041732788
1772534579056911400,11.355911376953125,1.829327940940857,-9.503101348876953,-1.5442359447479248
1772534579066821000,11.365821044921875,1.7691949605941772,-9.498431205749512,-1.6400519609451294
1772534579076731000,11.37573095703125,1.6547939777374268,-9.498270034790039,-1.7562880516052246
1772534579086640600,11.385640625,1.573364019393921,-9.494973182678223,-1.8466240167617798
1772534579096550400,11.39555029296875,1.596858024597168,-9.481180191040039,-1.896649956703186
1772534579106460200,11.405460205078125,1.60732102394104,-9.472482681274414,-1.9309580326080322
1772534579116370200,11.4153701171875,1.6452490091323853,-9.454058647155762,-1.9884569644927979
1772534579126279700,11.42527978515625,1.6951199769973755,-9.427441596984863,-2.07121205329895
1772534579136189400,11.435189453125,1.703044056892395,-9.411347389221191,-2.136868953704834
1772534579146099200,11.44509912109375,1.60378098487854,-9.445574760437012,-2.0613110065460205
1772534579156009000,11.455009033203124,1.4898619651794434,-9.48240852355957,-1.9759140014648438
1772534579165918700,11.464918701171875,1.4605120420455933,-9.49452018737793,-1.9393320083618164
1772534579175828500,11.474828369140624,1.5386179685592651,-9.46024227142334,-2.0436410903930664
1772534579185738200,11.48473828125,1.6445029973983765,-9.40534782409668,-2.207956075668335
1772534579195648000,11.49464794921875,1.749703049659729,-9.347336769104004,-2.3676600456237793
1772534579205558000,11.50455810546875,1.8310209512710571,-9.309637069702148,-2.453162908554077
1772534579215467500,11.514467529296875,1.977607011795044,-9.283303260803223,-2.4391260147094727
1772534579225377300,11.524377197265625,2.0918819904327393,-9.26717758178711,-2.404881000518799
1772534579235287000,11.534287109375,2.177227020263672,-9.264185905456543,-2.339776039123535
1772534579245196800,11.54419677734375,2.2494029998779297,-9.265007972717285,-2.267116069793701
1772534579255106800,11.55410693359375,2.2280728816986084,-9.297871589660645,-2.150650978088379
1772534579265016300,11.564016357421876,2.150465965270996,-9.336738586425781,-2.0593299865722656
1772534579274926000,11.573926025390625,2.036449909210205,-9.377288818359375,-1.989812970161438
1772534579284835800,11.5838359375,1.90146005153656,-9.418391227722168,-1.9283050298690796
1772534579294745900,11.593745849609375,1.7788749933242798,-9.455314636230469,-1.8634979724884033
1772534579304655400,11.6036552734375,1.697571039199829,-9.482975006103516,-1.79761803150177
1772534579314565400,11.6135654296875,1.6561379432678223,-9.500446319580078,-1.7431939840316772
1772534579324475100,11.62347509765625,1.6381900310516357,-9.512150764465332,-1.6956770420074463
1772534579334384600,11.633384521484375,1.6432689428329468,-9.519644737243652,-1.6480350494384766
1772534579344294400,11.64329443359375,1.6689749956130981,-9.522492408752441,-1.6052069664001465
1772534579354204400,11.653204345703125,1.7089589834213257,-9.520792961120605,-1.5728839635849
1772534579364114200,11.6631142578125,1.7526689767837524,-9.516996383666992,-1.5475590229034424
1772534579374023700,11.673023681640625,1.8166240453720093,-9.50902271270752,-1.5226249694824219
1772534579383933700,11.68293359375,1.8614319562911987,-9.506087303161621,-1.4863920211791992
1772534579393843500,11.692843505859376,1.9409480094909668,-9.501067161560059,-1.4150760173797607
1772534579403753200,11.702753173828125,1.9762890338897705,-9.503491401672363,-1.34830904006958
1772534579413662700,11.712662841796876,1.9763150215148926,-9.513097763061523,-1.27873694896698
1772534579423572700,11.72257275390625,1.9883400201797485,-9.516996383666992,-1.230165958404541
1772534579433482500,11.732482421875,1.9838930368423462,-9.52100944519043,-1.2060610055923462
1772534579443392000,11.74239208984375,1.9447180032730103,-9.530197143554688,-1.1972600221633911
1772534579453302000,11.752302001953124,1.9310460090637207,-9.529158592224121,-1.2272859811782837
1772534579463211800,11.762211669921875,1.9614839553833008,-9.514019966125488,-1.2946029901504517
1772534579473121500,11.77212158203125,2.0068559646606445,-9.492403984069824,-1.3808790445327759
1772534579483031300,11.78203125,2.0476579666137695,-9.469462394714355,-1.475262999534607
1772534579492941000,11.791941162109374,2.0962870121002197,-9.442410469055176,-1.576859951019287
1772534579502850800,11.801850830078125,2.1429390907287598,-9.416117668151855,-1.6686899662017822
1772534579512760600,11.811760498046874,2.171757936477661,-9.39255428314209,-1.7616469860076904
1772534579522670300,11.82167041015625,2.2251620292663574,-9.36128044128418,-1.8587900400161743
1772534579532580000,11.831580078125,2.260045051574707,-9.339548110961914,-1.924854040145874
1772534579542489900,11.84148974609375,2.3609859943389893,-9.28864574432373,-2.0461690425872803
1772534579552399600,11.851399658203125,2.43497896194458,-9.250495910644531,-2.1305460929870605
1772534579562309400,11.861309326171876,2.53757905960083,-9.199090003967285,-2.231020927429199
1772534579572219100,11.87121923828125,2.6733930110931396,-9.13081169128418,-2.349735975265503
1772534579582129000,11.88112890625,2.845212936401367,-9.043039321899414,-2.4835920333862305
1772534579592038700,11.89103857421875,3.0408759117126465,-8.938146591186523,-2.6272881031036377
1772534579601948400,11.900948486328126,3.2404799461364746,-8.818973541259766,-2.786573886871338
1772534579611858200,11.910858154296875,3.415930986404419,-8.691584587097168,-2.9711570739746094
1772534579621767700,11.920767578125,3.5357260704040527,-8.568365097045898,-3.18147611618042
1772534579631677700,11.930677734375,3.5977530479431152,-8.45439338684082,-3.408729076385498
1772534579641587500,11.94058740234375,3.6192519664764404,-8.348737716674805,-3.638622999191284
1772534579651497200,11.950497314453125,3.6202828884124756,-8.247217178344727,-3.8622488975524902
1772534579661406700,11.96040673828125,3.62492299079895,-8.138792037963867,-4.081666946411133
1772534579671316700,11.970316650390625,3.6468470096588135,-8.023394584655762,-4.28551721572876
1772534579681226500,11.9802265625,3.681731939315796,-7.910627841949463,-4.461705207824707
1772534579691136300,11.99013623046875,3.710752010345459,-7.8143839836120605,-4.604966163635254
1772534579701045800,12.000045654296875,3.7178449630737305,-7.749238967895508,-4.708178997039795
1772534579710955800,12.009955810546876,3.690263032913208,-7.8063740730285645,-4.634920120239258
1772534579730775300,12.029775390625,3.523283004760742,-7.9266839027404785,-4.560062885284424
1772534579740685000,12.03968505859375,3.3810129165649414,-8.003233909606934,-4.53398323059082
1772534579750594800,12.0495947265625,3.234241008758545,-8.098933219909668,-4.470678806304932
1772534579760504600,12.059504638671875,3.114567995071411,-8.178299903869629,-4.410770893096924
1772534579770414300,12.069414306640626,2.9884419441223145,-8.264936447143555,-4.335903167724609
1772534579780324000,12.079323974609375,2.861301898956299,-8.35619831085205,-4.245811939239502
1772534579790233900,12.08923388671875,2.7327229976654053,-8.451444625854492,-4.140693187713623
1772534579800143600,12.0991435546875,2.600861072540283,-8.548977851867676,-4.023746013641357
1772534579810053400,12.109053466796874,2.463970899581909,-8.647944450378418,-3.896394968032837
1772534579819963100,12.118963134765625,2.3219850063323975,-8.751455307006836,-3.749725103378296
1772534579829873000,12.128872802734374,2.178765058517456,-8.860374450683594,-3.5758590698242188
1772534579839782700,12.13878271484375,2.0350730419158936,-8.973482131958008,-3.372704029083252
1772534579849692400,12.1486923828125,1.888476014137268,-9.088839530944824,-3.14111590385437
1772534579859602200,12.158602294921875,1.7528369426727295,-9.202498435974121,-2.8777780532836914
1772534579869512000,12.168511962890625,1.6496779918670654,-9.306879997253418,-2.5885400772094727
1772534579879421700,12.178421630859376,1.6153850555419922,-9.390137672424316,-2.29256010055542
1772534579889331500,12.18833154296875,1.6555650234222412,-9.443848609924316,-2.0280160903930664
1772534579899241200,12.1982412109375,1.719635009765625,-9.474323272705078,-1.8220969438552856
1772534579909151000,12.20815087890625,1.748528003692627,-9.495141983032227,-1.6807550191879272
1772534579919061000,12.21806103515625,1.7229889631271362,-9.512006759643555,-1.610298991203308
1772534579928970500,12.227970458984375,1.6811319589614868,-9.508646965026855,-1.6731499433517456
1772534579938880300,12.23788037109375,1.5814189910888672,-9.504465103149414,-1.7900420427322388
1772534579948790000,12.2477900390625,1.4333000183105469,-9.50618839263916,-1.9021170139312744
1772534579958699800,12.25769970703125,1.2838280200958252,-9.513655662536621,-1.9703149795532227
1772534579968609500,12.267609619140625,1.27975594997406,-9.515981674194336,-1.9617140293121338
1772534579978519300,12.277519287109374,1.3864649534225464,-9.508015632629395,-1.9275230169296265
1772534579988429000,12.287428955078125,1.4429149627685547,-9.493704795837402,-1.956415057182312
1772534579998338800,12.2973388671875,1.5335019826889038,-9.470520973205566,-1.9994009733200073
1772534580008248600,12.30724853515625,1.541375994682312,-9.48037338256836,-1.9459500312805176
1772534580018158300,12.317158447265625,1.482118010520935,-9.503664016723633,-1.877148985862732
1772534580028068000,12.327068115234376,1.4564130306243896,-9.511764526367188,-1.8561209440231323
1772534580037977900,12.336977783203125,1.4505449533462524,-9.513367652893066,-1.8525029420852661
1772534580047887600,12.3468876953125,1.5228979587554932,-9.491612434387207,-1.9052820205688477
1772534580057797600,12.356797607421875,1.5608659982681274,-9.473043441772461,-1.965999960899353
1772534580067707100,12.36670703125,1.5665160417556763,-9.458373069763184,-2.03106689453125
1772534580077617000,12.376616943359375,1.5784889459609985,-9.439504623413086,-2.1081080436706543
1772534580087527000,12.38652685546875,1.634992003440857,-9.416036605834961,-2.169110059738159
1772534580097436400,12.3964365234375,1.6286859512329102,-9.420098304748535,-2.156183958053589
1772534580107346200,12.40634619140625,1.648108959197998,-9.425037384033203,-2.1195359230041504
1772534580117256000,12.416255859375,1.6635220050811768,-9.435651779174805,-2.0594139099121094
1772534580127166000,12.426166015625,1.6088030338287354,-9.479745864868164,-1.893723964691162
1772534580137075500,12.436075439453125,1.563331961631775,-9.521550178527832,-1.713507056236267
1772534580146985500,12.4459853515625,1.5071489810943604,-9.559886932373047,-1.5417759418487549
1772534580156895200,12.455895263671875,1.430649995803833,-9.594971656799316,-1.3891630172729492
1772534580166805000,12.465804931640625,1.3558820486068726,-9.624055862426758,-1.2566440105438232
1772534580176714500,12.475714599609375,1.2735899686813354,-9.649727821350098,-1.1404999494552612
1772534580186624300,12.485624267578125,1.184478998184204,-9.673589706420898,-1.0289239883422852
1772534580196534300,12.4955341796875,1.1055819988250732,-9.692709922790527,-0.9322440028190613
1772534580206444000,12.505444091796875,1.0489280223846436,-9.705109596252441,-0.8663840293884277
1772534580216353500,12.515353515625,1.0081119537353516,-9.712566375732422,-0.8305209875106812
1772534580226263600,12.525263671875,0.9906669855117798,-9.715620994567871,-0.8156729936599731
1772534580236173300,12.53517333984375,0.9920169711112976,-9.715453147888184,-0.816025972366333
1772534580246082800,12.545082763671875,1.016191005706787,-9.711292266845703,-0.8355579972267151
1772534580255992600,12.55499267578125,0.9983950257301331,-9.715208053588867,-0.8111460208892822
1772534580265902300,12.56490234375,1.0547879934310913,-9.703417778015137,-0.8781369924545288
1772534580275812400,12.574812255859374,1.1314239501953125,-9.686053276062012,-0.9696729779243469
1772534580285721900,12.584721923828125,1.2197599411010742,-9.665169715881348,-1.0661660432815552
1772534580295631600,12.594631591796874,1.3164349794387817,-9.64558219909668,-1.1268310546875
1772534580305541400,12.604541259765625,1.401576042175293,-9.630529403686523,-1.1526180505752563
1772534580315451400,12.614451416015624,1.489825963973999,-9.615718841552734,-1.165503978729248
1772534580325361000,12.62436083984375,1.5691360235214233,-9.602635383605957,-1.169273018836975
1772534580335271000,12.63427099609375,1.607617974281311,-9.597208976745605,-1.1615409851074219
1772534580345180700,12.6441806640625,1.6524189710617065,-9.589083671569824,-1.1657569408416748
1772534580355090400,12.65409033203125,1.7324680089950562,-9.569913864135742,-1.206365942955017
1772534580365000000,12.664,1.8367840051651,-9.542784690856934,-1.2654989957809448
1772534580374909700,12.67390966796875,1.9156049489974976,-9.518041610717773,-1.3331749439239502
1772534580384819700,12.68381982421875,2.0085530281066895,-9.48827838897705,-1.4065289497375488
1772534580394729200,12.693729248046875,2.1226089000701904,-9.449050903320312,-1.4999990463256836
1772534580404639000,12.703638916015626,2.254370927810669,-9.398348808288574,-1.6213810443878174
1772534580414549000,12.713549072265625,2.3970460891723633,-9.336467742919922,-1.7676399946212769
1772534580424458500,12.72345849609375,2.544384002685547,-9.264989852905273,-1.9303040504455566
1772534580434368300,12.7333681640625,2.6905019283294678,-9.183979988098145,-2.110856056213379
1772534580444278000,12.743278076171874,2.837846040725708,-9.091900825500488,-2.3073740005493164
1772534580454188000,12.75318798828125,2.9871339797973633,-8.987688064575195,-2.5176360607147217
1772534580464097800,12.763097900390624,3.1252410411834717,-8.874403953552246,-2.7418599128723145
1772534580474007300,12.77300732421875,3.2424681186676025,-8.756463050842285,-2.975019931793213
1772534580483917000,12.7829169921875,3.3360888957977295,-8.637944221496582,-3.208807945251465
1772534580493826800,12.792826904296875,3.4041380882263184,-8.528676986694336,-3.4225029945373535
1772534580503736600,12.802736572265625,3.4534358978271484,-8.430283546447754,-3.6116600036621094
1772534580513646300,12.812646240234375,3.4859728813171387,-8.344416618347168,-3.776067018508911
1772534580523556400,12.822556396484375,3.4819839000701904,-8.270798683166504,-3.938231945037842
1772534580533466000,12.832466064453126,3.418299913406372,-8.208938598632812,-4.119287014007568
1772534580543375600,12.842375732421875,3.3075709342956543,-8.15796947479248,-4.3066840171813965
1772534580553285600,12.85228564453125,3.199428081512451,-8.11978816986084,-4.457880973815918
1772534580563195400,12.8621953125,3.127448081970215,-8.153414726257324,-4.44757080078125
1772534580573105000,12.87210498046875,3.064361095428467,-8.187707901000977,-4.428444862365723
