time,seconds_elapsed,z,y,x
1772534567952994800,0.251994873046875,0.37097498774528503,0.01979999989271164,0.15468749403953552
1772534567967858000,0.26685791015625,0.3848625123500824,0.3231250047683716,0.0035749999806284904
1772534567977767700,0.276767578125,0.3880249857902527,0.3965499997138977,-0.0635249987244606
1772534567987677400,0.286677490234375,0.3817000091075897,0.41456249356269836,-0.1050499975681305
1772534567997587200,0.296587158203125,0.37523749470710754,0.40507498383522034,-0.13805000483989716
1772534568007497200,0.306497314453125,0.3624500036239624,0.3900874853134155,-0.18383750319480896
1772534568017407000,0.316406982421875,0.35186249017715454,0.37950000166893005,-0.2391124963760376
1772534568027316700,0.326316650390625,0.36465001106262207,0.34966251254081726,-0.26785001158714294
1772534568037226500,0.3362265625,0.38376250863075256,0.3049750030040741,-0.2624875009059906
1772534568047136500,0.346136474609375,0.40287500619888306,0.27197501063346863,-0.2391124963760376
1772534568057046300,0.35604638671875,0.4273499846458435,0.22302499413490295,-0.18273749947547913
1772534568066956000,0.3659560546875,0.45512500405311584,0.14217500388622284,-0.08799999952316284
1772534568076865800,0.37586572265625,0.47850000858306885,0.1060125008225441,0.01209999993443489
1772534568086775800,0.38577587890625,0.5115000009536743,0.21559999883174896,0.09611249715089798
1772534568096685600,0.395685546875,0.56045001745224,0.5018749833106995,0.09611249715089798
1772534568106595300,0.40559521484375,0.6114624738693237,0.6997374892234802,-0.07741250097751617
1772534568116505000,0.415505126953125,0.6381375193595886,0.5741999745368958,-0.35186249017715454
1772534568126414800,0.425414794921875,0.6221874952316284,0.38266250491142273,-0.4881249964237213
1772534568136324600,0.43532470703125,0.5530250072479248,0.3018124997615814,-0.4881249964237213
1772534568146234400,0.445234375,0.47533750534057617,0.19222499430179596,-0.4573250114917755
1772534568156144400,0.455144287109375,0.4156624972820282,0.01979999989271164,-0.40191251039505005
1772534568166054100,0.46505419921875,0.3806000053882599,-0.16005000472068787,-0.29548749327659607
1772534568175964000,0.4749638671875,0.3667125105857849,-0.3367374837398529,-0.15716250240802765
1772534568185874000,0.4848740234375,0.38376250863075256,-0.4496249854564667,-0.04221250116825104
1772534568195783700,0.49478369140625,0.44343748688697815,-0.4399999976158142,0.06421250104904175
1772534568205693400,0.504693359375,0.491287499666214,-0.43463748693466187,0.17916250228881836
1772534568215603500,0.514603515625,0.4955500066280365,-0.5549499988555908,0.2461249977350235
1772534568225513200,0.52451318359375,0.47423750162124634,-0.7114250063896179,0.2461249977350235
1772534568235423000,0.534423095703125,0.468874990940094,-0.784850001335144,0.22495000064373016
1772534568245333000,0.5443330078125,0.4423374831676483,-0.6432250142097473,0.13227500021457672
1772534568255242800,0.55424267578125,0.44343748688697815,-0.27390000224113464,0.01209999993443489
1772534568265152500,0.564152587890625,0.48276248574256897,0.04743750020861626,-0.10821250081062317
1772534568275062500,0.5740625,0.5242875218391418,0.34759998321533203,-0.21353749930858612
1772534568284972300,0.58397216796875,0.5465624928474426,0.6965749859809875,-0.2817375063896179
1772534568294882000,0.593882080078125,0.5615500211715698,1.02753746509552,-0.3264249861240387
1772534568304792000,0.6037919921875,0.5615500211715698,1.2755874395370483,-0.34443750977516174
1772534568314701800,0.613701904296875,0.5263500213623047,1.5628249645233154,-0.27953749895095825
1772534568324611600,0.623611572265625,0.5050374865531921,1.595824956893921,-0.23375000059604645
1772534568334521600,0.633521484375,0.5135625004768372,1.35423743724823,-0.2433750033378601
1772534568344431000,0.64343115234375,0.5040749907493591,1.0829499959945679,-0.3040125072002411
1772534568354340900,0.6533408203125,0.4731374979019165,0.9094250202178955,-0.40411248803138733
1772534568364251100,0.663251220703125,0.43697500228881836,0.9190499782562256,-0.48276248574256897
1772534568374160600,0.67316064453125,0.3997125029563904,0.9828500151634216,-0.5359749794006348
1772534568384070400,0.6830703125,0.36781248450279236,0.933899998664856,-0.5902875065803528
1772534568393980400,0.69298046875,0.3316499888896942,0.8754624724388123,-0.6147624850273132
1772534568403890200,0.70289013671875,0.31349998712539673,0.7242124676704407,-0.522225022315979
1772534568413800000,0.712800048828125,0.37950000166893005,0.1825999915599823,-0.1699499934911728
1772534568423710000,0.7227099609375,0.44343748688697815,-0.46021249890327454,0.1163249984383583
1772534568433619700,0.73261962890625,0.4468750059604645,-1.01048743724823,0.19827499985694885
1772534568443529500,0.742529541015625,0.38830000162124634,-1.1584374904632568,0.0695749968290329
1772534568453439500,0.752439453125,0.31171250343322754,-0.943387508392334,-0.19442500174045563
1772534568463349200,0.762349365234375,0.2563000023365021,-0.561412513256073,-0.4423374831676483
1772534568473259000,0.772259033203125,0.23182499408721924,-0.2686749994754791,-0.6093999743461609
1772534568483169000,0.7821689453125,0.2340250015258789,-0.15482500195503235,-0.6967124938964844
1772534568493078800,0.792078857421875,0.22659999132156372,-0.1377750039100647,-0.7180249691009521
1772534568502988500,0.801988525390625,0.23718750476837158,-0.1676124930381775,-0.690387487411499
1772534568512898600,0.811898681640625,0.28187498450279236,-0.25066250562667847,-0.6403374671936035
1772534568522808300,0.821808349609375,0.33508750796318054,-0.2708750069141388,-0.6210874915122986
1772534568532718000,0.831718017578125,0.3702875077724457,-0.1303499937057495,-0.6201249957084656
1772534568542628000,0.841628173828125,0.391462504863739,0.0728750005364418,-0.6318125128746033
1772534568552537600,0.85153759765625,0.4244624972343445,0.2527250051498413,-0.6605499982833862
1772534568562447400,0.861447265625,0.4776749908924103,0.36134999990463257,-0.6733375191688538
1772534568572357400,0.871357421875,0.6033499836921692,0.3634124994277954,-0.699874997138977
1772534568582267100,0.88126708984375,0.6990500092506409,0.29315000772476196,-0.7402999997138977
1772534568592177000,0.891177001953125,0.7767375111579895,0.202674999833107,-0.8148249983787537
1772534568602087000,0.9010869140625,0.8054749965667725,0.12828749418258667,-0.932937502861023
1772534568611996700,0.91099658203125,0.8034124970436096,0.18576249480247498,-1.143725037574768
1772534568621906400,0.920906494140625,0.81826251745224,0.10807500034570694,-1.4033249616622925
1772534568631816200,0.930816162109375,0.6256250143051147,0.1303499937057495,-1.7088500261306763
1772534568641726200,0.940726318359375,0.4127750098705292,0.47946250438690186,-2.0185000896453857
1772534568651636000,0.950635986328125,0.2073500007390976,0.8497499823570251,-2.3036749362945557
1772534568661545700,0.960545654296875,0.010587500408291817,1.4052499532699585,-2.3878250122070312
1772534568671455700,0.970455810546875,-0.259737491607666,1.8309500217437744,-2.3355751037597656
1772534568681365200,0.980365234375,-0.5769500136375427,2.1704375743865967,-2.2940499782562256
1772534568691275000,0.99027490234375,-0.8600624799728394,2.4961750507354736,-2.2664124965667725
1772534568701185000,1.00018505859375,-1.003749966621399,2.769662380218506,-2.2302498817443848
1772534568711094800,1.0100947265625,-1.0163999795913696,2.963399887084961,-2.1685125827789307
1772534568721004500,1.020004638671875,-0.929224967956543,3.0952625274658203,-2.12176251411438
1772534568730914600,1.02991455078125,-0.7536374926567078,3.137887477874756,-2.093987464904785
1772534568740824300,1.03982421875,-0.6173750162124634,3.23152494430542,-2.1058125495910645
1772534568750734000,1.049734130859375,-0.5333625078201294,3.384700059890747,-2.1482999324798584
1772534568760644000,1.05964404296875,-0.5046250224113464,3.4337875843048096,-2.243037462234497
1772534568770553900,1.069553955078125,-0.5886374711990356,3.2773125171661377,-2.416562557220459
1772534568780463600,1.079463623046875,-0.7578999996185303,2.8547749519348145,-2.615525007247925
1772534568790373400,1.089373291015625,-0.9622250199317932,2.386587381362915,-2.7720000743865967
1772534568800283400,1.099283447265625,-1.1005499362945557,2.0491623878479004,-2.7655375003814697
1772534568810193200,1.109193115234375,-1.0909249782562256,1.88319993019104,-2.6027374267578125
1772534568830012700,1.1290126953125,-0.8749125003814697,2.1087000370025635,-2.3739373683929443
1772534568839922400,1.13892236328125,-0.769587516784668,2.3300750255584717,-2.427150011062622
1772534568849832400,1.14883251953125,-0.6928625106811523,2.5525500774383545,-2.5814249515533447
1772534568859742200,1.1587421875,-0.6429499983787537,2.7196125984191895,-2.6963748931884766
1772534568869652000,1.16865185546875,-0.6173750162124634,2.6493499279022217,-2.6835875511169434
1772534568879562000,1.17856201171875,-0.6450124979019165,2.281125068664551,-2.600674867630005
1772534568889471700,1.1884716796875,-0.7738500237464905,1.7565624713897705,-2.4282500743865967
1772534568899381500,1.198381591796875,-0.9589250087738037,1.370187520980835,-2.2345125675201416
1772534568909291300,1.208291259765625,-1.0855624675750732,1.2563375234603882,-2.093024969100952
1772534568919201000,1.218200927734375,-1.0951875448226929,1.428762435913086,-2.0429749488830566
1772534568929111000,1.228111083984375,-0.9833999872207642,1.7076125144958496,-2.0845000743865967
1772534568939020800,1.238020751953125,-0.6793875098228455,1.8299875259399414,-2.164249897003174
1772534568948930600,1.2479306640625,-0.1845249980688095,1.8097749948501587,-2.181299924850464
1772534568958840300,1.25784033203125,0.41676250100135803,1.6288249492645264,-2.1482999324798584
1772534568968750000,1.26775,1.0478874444961548,1.435225009918213,-1.9791749715805054
1772534568978660000,1.27766015625,1.5789124965667725,1.377750039100647,-1.6938624382019043
1772534568988569900,1.28756982421875,1.854599952697754,1.3330625295639038,-1.5065875053405762
1772534568998479600,1.297479736328125,1.8950250148773193,1.260599970817566,-1.4778499603271484
1772534569008389600,1.3073896484375,1.8290250301361084,1.1712249517440796,-1.5608999729156494
1772534569018299400,1.31729931640625,1.7619249820709229,1.1211750507354736,-1.5779500007629395
1772534569028209200,1.327209228515625,1.714074969291687,1.1254374980926514,-1.3001999855041504
1772534569038119000,1.337118896484375,1.705549955368042,1.2340625524520874,-0.9425625205039978
1772534569048029000,1.34702880859375,1.5906000137329102,1.7022500038146973,-0.3955875039100647
1772534569057938400,1.3569384765625,1.1308000087738037,2.640962600708008,0.5281375050544739
1772534569067848400,1.366848388671875,0.6796625256538391,3.415637493133545,1.3561625480651855
1772534569077758200,1.37675830078125,0.7870500087738037,3.4849374294281006,1.7872250080108643
1772534569087668000,1.38666796875,1.3479125499725342,2.450387477874756,1.6264874935150146
1772534569097578000,1.396577880859375,1.5607625246047974,1.511812448501587,1.4370124340057373
1772534569107487700,1.40648779296875,1.6629250049591064,1.2489124536514282,1.5636500120162964
1772534569117397500,1.4163974609375,1.6619625091552734,1.2361249923706055,1.640375018119812
1772534569127307300,1.426307373046875,1.806612491607666,1.0063624382019043,1.3880624771118164
1772534569137217300,1.43621728515625,2.1482999324798584,0.54339998960495,0.6995999813079834
1772534569147126800,1.446126708984375,2.1238250732421875,0.4017750024795532,0.06847500056028366
1772534569157036800,1.456036865234375,2.130150079727173,0.17613749206066132,-0.27953749895095825
1772534569166946800,1.46594677734375,2.090825080871582,-0.3984749913215637,-0.11453749984502792
1772534569176856300,1.475856201171875,1.7278250455856323,-0.5484874844551086,0.10243749618530273
1772534569186766000,1.48576611328125,1.2075250148773193,-0.2866874933242798,-0.040150001645088196
1772534569196676000,1.495676025390625,0.7605124711990356,-0.28036248683929443,-0.22852499783039093
1772534569206585900,1.5055859375,0.4241875112056732,-0.5666375160217285,-0.35516250133514404
1772534569216495600,1.51549560546875,0.2560249865055084,-0.6847500205039978,-0.4008125066757202
1772534569226405600,1.525405517578125,0.11769999563694,-0.6304374933242798,-0.3583250045776367
1772534569236315400,1.5353154296875,0.08579999953508377,-0.49857500195503235,-0.1050499975681305
1772534569246225000,1.545224853515625,0.09638749808073044,-0.4314749836921692,-0.025162499397993088
1772534569256135000,1.555135009765625,-0.018562499433755875,-0.2675749957561493,-0.08057499676942825
1772534569266044700,1.565044677734375,-0.3324750065803528,-0.10051249712705612,-0.06668750196695328
1772534569275954700,1.57495458984375,-0.6708624958992004,0.03355000168085098,0.002474999986588955
1772534569285864400,1.584864501953125,-0.9103875160217285,0.42102500796318054,0.15248750150203705
1772534569295774200,1.594774169921875,-1.0242375135421753,0.6880499720573425,0.3451249897480011
1772534569305684000,1.60468408203125,-1.2348874807357788,0.9956374764442444,0.6527125239372253
1772534569315594000,1.614593994140625,-1.5509999990463257,0.8934749960899353,0.8197749853134155
1772534569325503700,1.624503662109375,-1.5083750486373901,0.7030375003814697,0.7037249803543091
1772534569335413500,1.63441357421875,-1.314774990081787,0.8647375106811523,0.5611374974250793
1772534569345323300,1.6443232421875,-1.3359500169754028,0.9552124738693237,0.5431249737739563
1772534569355233300,1.6542333984375,-1.5276249647140503,0.8701000213623047,0.517549991607666
1772534569365143000,1.66414306640625,-1.8020750284194946,0.5178250074386597,0.526075005531311
1772534569375052800,1.674052734375,-2.218287467956543,0.17297500371932983,0.49939998984336853
1772534569384962600,1.683962646484375,-2.749312400817871,0.013337500393390656,0.5112249851226807
1772534569394872300,1.693872314453125,-3.2834999561309814,-0.23457500338554382,0.4419249892234802
1772534569404782300,1.7037822265625,-3.478337526321411,-0.4496249854564667,0.340862512588501
1772534569414692000,1.713692138671875,-2.999424934387207,-0.5783249735832214,0.28338751196861267
1772534569424601900,1.723601806640625,-2.176762580871582,-0.6261749863624573,0.05142499879002571
1772534569434512000,1.733511962890625,-1.374037504196167,-0.8562124967575073,-0.4295499920845032
1772534569444421400,1.74342138671875,-1.0621875524520874,-0.2367749959230423,-0.25616249442100525
1772534569454331100,1.7533310546875,-1.0866625308990479,-0.05156249925494194,-0.22206249833106995
1772534569464241200,1.7632412109375,-1.189924955368042,0.045237500220537186,-0.4402749836444855
1772534569474151000,1.77315087890625,-1.366612434387207,0.12828749418258667,-0.7754999995231628
1772534569484060700,1.783060791015625,-1.3102375268936157,0.15908749401569366,-1.1340999603271484
1772534569493970400,1.792970458984375,-1.3686749935150146,-0.21876250207424164,-1.3330625295639038
1772534569503880400,1.80288037109375,-1.633637547492981,-0.598675012588501,-1.5566375255584717
1772534569513790200,1.812790283203125,-1.9923750162124634,-0.9541124701499939,-1.7683874368667603
1772534569523700000,1.822699951171875,-2.391400098800659,-1.4020874500274658,-2.000349998474121
1772534569533609700,1.832609619140625,-2.870312452316284,-2.2056374549865723,-2.3324124813079834
1772534569543519500,1.84251953125,-3.43969988822937,-2.8760874271392822,-2.7060000896453857
1772534569553429200,1.85242919921875,-4.018575191497803,-2.6015000343322754,-2.910325050354004
1772534569563339300,1.86233935546875,-4.531587600708008,-1.1732875108718872,-2.746424913406372
1772534569573249000,1.8722490234375,-5.034975051879883,0.06435000151395798,-2.4974124431610107
1772534569583158800,1.88215869140625,-5.423412322998047,0.46873748302459717,-2.44846248626709
1772534569593068800,1.89206884765625,-5.564899921417236,0.8178499937057495,-2.395250082015991
1772534569602978600,1.901978515625,-5.454212665557861,1.4180375337600708,-2.195187568664551
1772534569612888000,1.91188818359375,-5.177562236785889,2.1492624282836914,-1.8523999452590942
1772534569622798000,1.921798095703125,-4.839174747467041,2.7344624996185303,-1.4118499755859375
1772534569632707800,1.931707763671875,-4.3762125968933105,2.949512481689453,-0.8989750146865845
1772534569642617600,1.94161767578125,-3.4556500911712646,2.5664374828338623,-0.15399999916553497
1772534569652527400,1.95152734375,-1.7593125104904175,1.370187520980835,0.8826124668121338
1772534569662437000,1.96143701171875,0.0147124994546175,-0.20913749933242798,2.089449882507324
1772534569672347100,1.97134716796875,0.22866250574588776,0.3091000020503998,2.8737499713897705
1772534569682256600,1.981256591796875,0.09239999949932098,1.3351249694824219,3.03448748588562
1772534569692166400,1.99116650390625,0.07644999772310257,1.7714124917984009,2.749312400817871
1772534569702076400,2.001076416015625,0.0541750006377697,1.7341499328613281,2.2841498851776123
1772534569711986200,2.010986083984375,-0.45883750915527344,0.9136874675750732,1.6680124998092651
1772534569721896000,2.02089599609375,-1.1686124801635742,0.07933750003576279,1.1177375316619873
1772534569731806000,2.030805908203125,-1.5666749477386475,0.5421624779701233,0.9741874933242798
1772534569741715700,2.0407158203125,-1.616724967956543,1.3818750381469727,0.9497125148773193
1772534569751625200,2.050625244140625,-1.4090999364852905,1.8097749948501587,0.7708249688148499
1772534569761535200,2.06053515625,-1.0430749654769897,1.8501999378204346,0.46543750166893005
1772534569771445000,2.070445068359375,-0.6683874726295471,1.991687536239624,0.2153249979019165
1772534569781354800,2.080354736328125,-0.22357499599456787,2.5940749645233154,0.2079000025987625
1772534569791264800,2.0902646484375,0.41497498750686646,3.172950029373169,0.38458749651908875
1772534569801174500,2.100174560546875,1.2471250295639038,3.245412588119507,0.6017000079154968
1772534569811084500,2.11008447265625,2.0484750270843506,2.4897124767303467,0.7665625214576721
1772534569820994300,2.119994384765625,2.3082125186920166,0.8412249684333801,0.7198125123977661
1772534569830904000,2.129904052734375,2.119837522506714,-0.22192500531673431,0.7634000182151794
1772534569840813600,2.1398134765625,1.9218374490737915,0.04729999974370003,0.9336249828338623
1772534569850723600,2.1497236328125,1.8271000385284424,1.0019625425338745,1.0326249599456787
1772534569860633300,2.15963330078125,1.8760499954223633,2.0619499683380127,1.2688499689102173
1772534569870543400,2.16954345703125,1.9240374565124512,2.374762535095215,1.5914249420166016
1772534569880453000,2.179453125,1.9377875328063965,1.9618500471115112,1.9542875289916992
1772534569890363000,2.18936279296875,2.004887580871582,1.4777125120162964,2.31288743019104
1772534569900272600,2.199272705078125,2.15806245803833,0.979687511920929,2.448050022125244
1772534569910182700,2.2091826171875,2.267787456512451,0.5539875030517578,2.4140875339508057
1772534569920092200,2.219092041015625,2.2347874641418457,0.19002500176429749,2.271362543106079
1772534569930002000,2.229001953125,2.1528375148773193,0.02502499893307686,1.9351749420166016
1772534569939912000,2.238911865234375,2.102787494659424,0.15702499449253082,1.5519624948501587
1772534569949821700,2.24882177734375,2.008049964904785,0.34966251254081726,1.2274625301361084
1772534569959731500,2.2587314453125,1.7760875225067139,0.2974124848842621,1.0539374351501465
1772534569969641200,2.26864111328125,1.4301375150680542,0.0835999995470047,0.9773499965667725
1772534569979551200,2.27855126953125,1.134374976158142,-0.08030000329017639,0.935824990272522
1772534569989460700,2.288460693359375,1.0630124807357788,0.12498749792575836,0.7995625138282776
1772534569999370500,2.29837060546875,1.2450624704360962,0.3867875039577484,0.39627498388290405
1772534570009280300,2.3082802734375,1.479087471961975,0.2134000062942505,-0.09858749806880951
1772534570019190300,2.318190185546875,1.4983375072479248,-0.10381250083446503,-0.36355000734329224
1772534570029100000,2.32810009765625,1.265275001525879,-0.12828749418258667,-0.48179998993873596
1772534570039009800,2.338009765625,0.8831624984741211,-0.018562499433755875,-0.505174994468689
1772534570048919600,2.34791943359375,0.4468750059604645,0.04413750022649765,-0.48592498898506165
1772534570058829600,2.35782958984375,0.013749999925494194,-0.0835999995470047,-0.47423750162124634
1772534570068739000,2.367739013671875,-0.39393749833106995,-0.34966251254081726,-0.54339998960495
1772534570078649000,2.377649169921875,-0.6961625218391418,-0.5975750088691711,-0.782925009727478
1772534570088558800,2.387558837890625,-0.8504375219345093,-0.6901124715805054,-1.0894124507904053
1772534570098468600,2.397468505859375,-1.0334500074386597,-0.7338374853134155,-1.3426874876022339
1772534570108378400,2.40737841796875,-1.2494624853134155,-0.7347999811172485,-1.5299625396728516
1772534570118288400,2.417288330078125,-1.4537874460220337,-0.5890499949455261,-1.6768125295639038
1772534570128198100,2.4271982421875,-1.6592124700546265,-0.4081000089645386,-1.8173375129699707
1772534570138107600,2.437107666015625,-1.884850025177002,-0.1835625022649765,-1.9461749792099
1772534570148017700,2.447017578125,-2.1360623836517334,0.07713750004768372,-2.093987464904785
1772534570157927400,2.456927490234375,-2.3893375396728516,0.31130000948905945,-2.2291500568389893
1772534570167837200,2.466837158203125,-2.5532374382019043,0.5092999935150146,-2.256925106048584
1772534570177747000,2.476746826171875,-2.472249984741211,0.598675012588501,-2.1781375408172607
1772534570187657000,2.486656982421875,-2.071162462234497,0.45704999566078186,-2.0088748931884766
1772534570197566700,2.496566650390625,-1.3347125053405762,-0.27197501063346863,-1.5789124965667725
1772534570207476500,2.5064765625,-0.5013250112533569,-1.0051250457763672,-0.9479249715805054
1772534570217386200,2.51638623046875,-0.1480875015258789,-0.6752625107765198,-0.6019750237464905
1772534570227296000,2.5262958984375,-0.08415000140666962,-0.13255000114440918,-0.5020124912261963
1772534570237206000,2.5362060546875,-0.17256249487400055,0.04413750022649765,-0.5402374863624573
1772534570247115800,2.54611572265625,-0.3205125033855438,0.013337500393390656,-0.737137496471405
1772534570257025500,2.556025634765625,-0.4386250078678131,-0.20803749561309814,-0.903237521648407
1772534570266935300,2.565935302734375,-0.40246251225471497,-0.40383750200271606,-0.8967750072479248
1772534570276845000,2.575844970703125,-0.2480500042438507,-0.25382500886917114,-0.8381999731063843
1772534570286754800,2.5857548828125,-0.25657498836517334,0.3900874853134155,-0.42528748512268066
1772534570296664600,2.59566455078125,-0.5960624814033508,1.882099986076355,0.8516749739646912
1772534570306574600,2.60557470703125,-0.825962483882904,2.669562578201294,1.8106000423431396
1772534570316484400,2.615484375,-0.27898749709129333,1.6425750255584717,0.6430875062942505
1772534570326394000,2.62539404296875,0.5436750054359436,0.2751374840736389,-1.2181124687194824
1772534570336303900,2.635303955078125,1.0822625160217285,-0.552887499332428,-1.639549970626831
1772534570346214000,2.6452138671875,1.378024935722351,0.8061624765396118,-0.3455374836921692
1772534570356123400,2.655123291015625,1.266374945640564,1.8639500141143799,1.0240999460220337
1772534570366033400,2.665033447265625,0.8799999952316284,1.647937536239624,1.2923624515533447
1772534570375943200,2.674943115234375,0.7799000144004822,2.4344375133514404,1.4168000221252441
1772534570385853000,2.68485302734375,0.6788374781608582,1.3021249771118164,0.8314625024795532
1772534570395762700,2.6947626953125,0.36602500081062317,-1.3840750455856323,0.08662500232458115
1772534570405672400,2.70467236328125,0.0541750006377697,-2.272599935531616,0.048262499272823334
1772534570415582500,2.71458251953125,-0.17998750507831573,-2.2162249088287354,0.1120624989271164
1772534570425492200,2.7244921875,-0.3236750066280365,-1.7404749393463135,0.21216249465942383
1772534570435402000,2.734402099609375,-0.29727500677108765,-0.9678624868392944,0.271699994802475
1772534570445311700,2.744311767578125,-0.24736249446868896,-0.3856875002384186,0.06531249731779099
1772534570455221500,2.754221435546875,-0.22714999318122864,-0.14630000293254852,-0.3359124958515167
1772534570465131500,2.764131591796875,-0.1993750035762787,0.0719124972820282,-0.5956500172615051
1772534570475041300,2.774041259765625,-0.21642500162124634,0.14327499270439148,-0.7148625254631042
1772534570484950800,2.78395068359375,-0.2685374915599823,0.13048750162124634,-0.7180249691009521
1772534570494860800,2.79386083984375,-0.3398999869823456,0.164450004696846,-0.5796999931335449
1772534570504770800,2.803770751953125,-0.3909125030040741,0.1601874977350235,-0.3689124882221222
1772534570514680300,2.813680419921875,-0.40053749084472656,0.01759999990463257,-0.19868749380111694
1772534570524590000,2.823590087890625,-0.37070000171661377,-0.03341250121593475,-0.07204999774694443
1772534570534500000,2.8335,-0.30483749508857727,0.10807500034570694,0.06421250104904175
1772534570544409900,2.843409912109375,-0.24832500517368317,0.147537499666214,0.20143750309944153
1772534570554319400,2.8533193359375,-0.25052499771118164,0.07507500052452087,0.31322500109672546
1772534570564229400,2.8632294921875,-0.25905001163482666,0.1368124932050705,0.45801249146461487
1772534570574139100,2.87313916015625,-0.24199999868869781,0.36877501010894775,0.609125018119812
1772534570584049000,2.883048828125,-0.20899999141693115,0.5391374826431274,0.6899750232696533
1772534570593958700,2.892958740234375,-0.16431249678134918,0.5944125056266785,0.7005624771118164
1772534570603868700,2.90286865234375,-0.0929500013589859,0.6413000226020813,0.6697624921798706
1772534570613778400,2.9127783203125,-0.021724998950958252,0.7816874980926514,0.6527125239372253
1772534570623688200,2.922688232421875,0.04001250118017197,0.9083250164985657,0.6665999889373779
1772534570633598000,2.932597900390625,0.09116250276565552,1.043487548828125,0.6452875137329102
1772534570643507700,2.9425078125,0.19002500176429749,1.2436875104904175,0.6367624998092651
1772534570653417700,2.952417724609375,0.34759998321533203,1.4128124713897705,0.7282000184059143
1772534570663327500,2.962327392578125,0.5402374863624573,1.3990625143051147,0.9230374693870544
1772534570673237200,2.9722373046875,0.782925009727478,1.2639000415802002,1.205049991607666
1772534570683147000,2.98214697265625,1.084049940109253,1.0883125066757202,1.4796375036239624
1772534570693056800,2.992056884765625,1.395900011062622,0.7572125196456909,1.574375033378601
1772534570702966500,3.001966552734375,1.6831375360488892,0.47093749046325684,1.583862543106079
1772534570712876300,3.011876220703125,1.882237434387207,0.3433375060558319,1.5636500120162964
1772534570722786300,3.021786376953125,1.9397125244140625,0.4507249891757965,1.5019124746322632
1772534570732696000,3.031696044921875,1.9439749717712402,0.5741999745368958,1.355062484741211
1772534570742605600,3.04160546875,1.9886624813079834,0.49114999175071716,1.1985875368118286
1772534570752515300,3.051515380859375,2.0481998920440674,0.10917499661445618,1.1741124391555786
1772534570762425300,3.06142529296875,2.0609874725341797,-0.38362500071525574,1.2667875289916992
1772534570772335000,3.071335205078125,1.965149998664856,-0.8784874677658081,1.2858999967575073
1772534570782244900,3.081244873046875,1.7278250455856323,-1.1327250003814697,1.111412525177002
1772534570792155000,3.09115478515625,1.453374981880188,-0.8507124781608582,0.7442874908447266
1772534570802064600,3.101064697265625,1.2522125244140625,-0.20377500355243683,0.3026374876499176
1772534570811974400,3.110974365234375,1.0701625347137451,0.3283500075340271,-0.12416250258684158
1772534570821884000,3.1208837890625,0.8381999731063843,0.6529874801635742,-0.5274500250816345
1772534570831794000,3.1307939453125,0.5880874991416931,0.7093625068664551,-0.8148249983787537
1772534570841703700,3.14070361328125,0.3359124958515167,0.5699374675750732,-0.9596124887466431
1772534570851613400,3.150613525390625,0.10491249710321426,0.4039750099182129,-1.0053999423980713
1772534570861523200,3.160523193359375,-0.1344749927520752,0.2708750069141388,-0.9957749843597412
1772534570871433000,3.170432861328125,-0.3484250009059906,0.13571250438690186,-1.0053999423980713
1772534570881343000,3.180343017578125,-0.47189998626708984,0.013337500393390656,-1.0756624937057495
1772534570891252700,3.190252685546875,-0.5740625262260437,-0.04413750022649765,-1.1778249740600586
1772534570901162500,3.20016259765625,-0.7624375224113464,-0.02708750031888485,-1.3044625520706177
1772534570911072300,3.210072265625,-1.055037498474121,0.0835999995470047,-1.4491125345230103
1772534570920982000,3.21998193359375,-1.3956249952316284,0.20913749933242798,-1.5991250276565552
1772534570930892000,3.22989208984375,-1.7564250230789185,0.24860000610351562,-1.721637487411499
1772534570940801500,3.239801513671875,-2.0902750492095947,0.23897500336170197,-1.7598625421524048
1772534570950711300,3.249711181640625,-2.3456125259399414,0.12402500212192535,-1.6832749843597412
1772534570960621300,3.259621337890625,-2.4978249073028564,-0.0952875018119812,-1.547012448310852
1772534570970531000,3.269531005859375,-2.5244998931884766,-0.3975124955177307,-1.3725249767303467
1772534570980440800,3.27944091796875,-2.4073500633239746,-0.8412249684333801,-1.127774953842163
1772534570990350600,3.2893505859375,-2.027437448501587,-1.5617250204086304,-0.6594499945640564
1772534571000260600,3.299260498046875,-1.474137544631958,-1.9523625373840332,-0.3114374876022339
1772534571010170400,3.30917041015625,-1.0983500480651855,-1.4031875133514404,-0.42102500796318054
1772534571020080000,3.319080078125,-0.8780750036239624,-0.9860125184059143,-0.5359749794006348
1772534571029990000,3.328989990234375,-0.7908999919891357,-0.7603750228881836,-0.5444999933242798
1772534571039899600,3.338899658203125,-0.7578999996185303,-0.5688375234603882,-0.5413374900817871
1772534571049809400,3.348809326171875,-0.611050009727478,-0.3964124917984009,-0.5988125205039978
1772534571059719400,3.358719482421875,-0.3854124844074249,-0.30387499928474426,-0.6987749934196472
1772534571069629200,3.368629150390625,-0.22357499599456787,-0.2899875044822693,-0.7732999920845032
1772534571079538700,3.37853857421875,-0.18205000460147858,-0.09844999760389328,-0.7308124899864197
1772534571089448700,3.38844873046875,-0.19277499616146088,0.4251500070095062,-0.5700749754905701
1772534571099358500,3.3983583984375,-0.23746250569820404,1.5606249570846558,-0.1816374957561493
1772534571109268200,3.408268310546875,-0.3811500072479248,3.415637493133545,0.8410875201225281
1772534571119178000,3.418177978515625,-0.4002625048160553,3.769012451171875,1.3338874578475952
1772534571129088000,3.428087890625,-0.1288374960422516,1.184975028038025,-0.08057499676942825
1772534571138997500,3.43799755859375,-0.040562499314546585,-0.8870124816894531,-1.1702624559402466
1772534571148907500,3.447907470703125,-0.00013749999925494194,-1.463824987411499,-0.9638749957084656
1772534571158817300,3.4578173828125,0.3297249972820282,-0.41552498936653137,-0.18053749203681946
1772534571168727000,3.46772705078125,0.4021874964237213,1.1786500215530396,0.5420249700546265
1772534571178636800,3.47763671875,0.16596250236034393,1.4425125122070312,0.6335999965667725
1772534571188546800,3.487546875,0.015812499448657036,0.7913125157356262,0.2653749883174896
1772534571198456600,3.49745654296875,0.0966624990105629,0.8274750113487244,0.2952125072479248
1772534571208366000,3.507365966796875,0.07328750193119049,0.7816874980926514,0.4345000088214874
1772534571218276000,3.517276123046875,-0.033137500286102295,-0.2964499890804291,0.12911249697208405
1772534571228185900,3.527185791015625,0.16266250610351562,-0.28792500495910645,0.2079000025987625
1772534571238095600,3.537095703125,0.28613749146461487,-0.11329999566078186,0.2866874933242798
1772534571248005400,3.54700537109375,0.1424500048160553,-0.2484624981880188,0.219587504863739
1772534571257915400,3.556915283203125,-0.1438249945640564,-0.22714999318122864,0.27912500500679016
1772534571267825000,3.566824951171875,-0.5460125207901001,-0.4305124878883362,0.27486249804496765
1772534571277735000,3.57673486328125,-0.9546625018119812,-0.7933750152587891,0.16747500002384186
1772534571287644700,3.586644775390625,-1.1760375499725342,-0.7167875170707703,0.17806249856948853
1772534571297554400,3.596554443359375,-1.048437476158142,-0.2134000062942505,0.2611125111579895
1772534571307464200,3.606464111328125,-0.6620625257492065,0.23361249268054962,0.11316250264644623
1772534571317374200,3.616374267578125,-0.5046250224113464,0.47946250438690186,-0.16032500565052032
1772534571327284000,3.626283935546875,-0.5343250036239624,0.6561499834060669,-0.34127500653266907
1772534571337193500,3.636193359375,-0.4907374978065491,0.8764249682426453,-0.4657124876976013
1772534571347103500,3.646103515625,-0.3737249970436096,1.1350624561309814,-0.4923875033855438
1772534571357013200,3.65601318359375,-0.2927374839782715,1.229662537574768,-0.4987125098705292
1772534571366923000,3.665923095703125,-0.259737491607666,1.1977624893188477,-0.597712516784668
1772534571376832800,3.675832763671875,-0.2320999950170517,1.3063875436782837,-0.5956500172615051
1772534571386742800,3.68574267578125,-0.23003749549388885,1.4436124563217163,-0.48592498898506165
1772534571396652300,3.69565234375,-0.22893749177455902,1.4191374778747559,-0.38279998302459717
1772534571406562300,3.705562255859375,-0.15867500007152557,1.3191750049591064,-0.2667500078678131
1772534571416472000,3.71547216796875,-0.03739999979734421,1.3116124868392944,-0.15289999544620514
1772534571426381800,3.7253818359375,0.09569999575614929,1.437287449836731,-0.04221250116825104
1772534571436291600,3.73529150390625,0.21381250023841858,1.4712499380111694,0.0004124999977648258
1772534571446201300,3.745201416015625,0.16802500188350677,1.4191374778747559,0.007837500423192978
1772534571456111400,3.755111328125,0.11701250076293945,1.279712438583374,0.10147500038146973
1772534571466020900,3.765020751953125,0.17861250042915344,1.110587477684021,0.2685374915599823
1772534571475930600,3.7749306640625,0.2829749882221222,0.9849125146865845,0.4355999827384949
1772534571485840400,3.78484033203125,0.3755125105381012,0.9253749847412109,0.5676000118255615
1772534571495750400,3.79475048828125,0.5128750205039978,0.888112485408783,0.7506124973297119
1772534571505660200,3.80466015625,0.6841999888420105,0.8146874904632568,0.9719874858856201
1772534571515570000,3.81456982421875,0.8885250091552734,0.8072624802589417,1.2263624668121338
1772534571525480000,3.82447998046875,1.1758999824523926,0.7603750228881836,1.4850000143051147
1772534571535389400,3.834389404296875,1.4759249687194824,0.5858874917030334,1.6680124998092651
1772534571545299500,3.844299560546875,1.7143499851226807,0.15592500567436218,1.7308499813079834
1772534571555209200,3.854209228515625,1.8941999673843384,-0.2825624942779541,1.6967500448226929
1772534571565119000,3.864118896484375,1.988937497138977,-0.17503750324249268,1.6350125074386597
1772534571575028700,3.87402880859375,2.0017249584198,0.3315125107765198,1.4200999736785889
1772534571584938500,3.8839384765625,1.9474124908447266,0.7347999811172485,1.1347874402999878
1772534571594848300,3.89384814453125,1.8750874996185303,0.8977375030517578,1.0305625200271606
1772534571604758300,3.90375830078125,1.7973999977111816,0.7699999809265137,1.1103124618530273
1772534571614668000,3.91366796875,1.7175124883651733,0.34540000557899475,1.2007875442504883
1772534571624577800,3.923577880859375,1.6249749660491943,-0.17393749952316284,1.206149935722351
1772534571634487600,3.933487548828125,1.5131875276565552,-0.38472500443458557,1.095462441444397
1772534571644397600,3.9433974609375,1.3216500282287598,-0.2069374918937683,0.9293624758720398
1772534571654307000,3.95330712890625,1.049262523651123,0.17820000648498535,0.7059249877929688
1772534571664216800,3.963216796875,0.7203624844551086,0.5007749795913696,0.4515500068664551
1772534571674126800,3.973126953125,0.43408748507499695,0.7253124713897705,0.1578499972820282
1772534571684036600,3.98303662109375,0.24255000054836273,0.9094250202178955,-0.17847499251365662
1772534571693946400,3.9929462890625,0.07644999772310257,0.9498500227928162,-0.47850000858306885
1772534571703856000,4.002856201171875,-0.12787500023841858,0.9593374729156494,-0.7425000071525574
1772534571713766000,4.012765869140625,-0.3236750066280365,0.9871125221252441,-0.9904124736785889
1772534571723675600,4.022675537109375,-0.49816250801086426,0.9391250014305115,-1.1798875331878662
1772534571733585700,4.032585693359375,-0.669487476348877,0.7657374739646912,-1.2798500061035156
1772534571743495400,4.042495361328125,-0.8940249681472778,0.5326749682426453,-1.320412516593933
1772534571753405200,4.0524052734375,-1.198449969291687,0.34113749861717224,-1.3458499908447266
1772534571763315000,4.06231494140625,-1.5518250465393066,0.2516250014305115,-1.3820124864578247
1772534571773224700,4.072224609375,-1.9263750314712524,0.19208750128746033,-1.4480124711990356
1772534571783134500,4.082134521484375,-2.287174940109253,0.04839999973773956,-1.5151125192642212
1772534571793044200,4.092044189453125,-2.575512409210205,-0.22398750483989716,-1.5395874977111816
1772534571802954000,4.1019541015625,-2.7585248947143555,-0.5666375160217285,-1.4852750301361084
1772534571812864000,4.111864013671875,-2.8586249351501465,-0.8901749849319458,-1.2692625522613525
1772534571822773800,4.121773681640625,-2.78629994392395,-1.2552374601364136,-0.951087474822998
1772534571832683500,4.13168359375,-2.187074899673462,-1.7523000240325928,-0.6434999704360962
1772534571842593300,4.14159326171875,-1.1995500326156616,-2.2045373916625977,-0.48179998993873596
1772534571852503000,4.1515029296875,-0.4460499882698059,-1.9278874397277832,-0.5498625040054321
1772534571862412800,4.161412841796875,-0.19277499616146088,-1.0839124917984009,-0.6562874913215637
1772534571872322800,4.17132275390625,-0.2204124927520752,-0.13571250438690186,-0.7425000071525574
1772534571882232600,4.181232666015625,-0.2022625058889389,0.5634750127792358,-0.8819249868392944
1772534571892142300,4.191142333984375,-0.09157499670982361,0.8710625171661377,-1.0191500186920166
1772534571902052000,4.201052001953125,-0.09157499670982361,0.8434249758720398,-1.060675024986267
1772534571911961900,4.2109619140625,-0.19910000264644623,0.6029375195503235,-1.043624997138977
1772534571921871600,4.22087158203125,-0.46626248955726624,0.6294749975204468,-0.6329125165939331
1772534571931781600,4.23078173828125,-0.8419125080108643,1.1317625045776367,0.20363749563694
1772534571941691100,4.240691162109375,-0.7419499754905701,1.2084875106811523,0.3260124921798706
1772534571951601200,4.25060107421875,-0.21931250393390656,0.6646749973297119,-0.34443750977516174
1772534571961511000,4.260510986328125,0.16802500188350677,0.06751249730587006,-0.7510250210762024
1772534571971420700,4.270420654296875,0.18191249668598175,0.11866249889135361,-0.24227499961853027
1772534571981330400,4.280330322265625,0.16169999539852142,1.0210750102996826,0.509024977684021
1772534571991240200,4.290240234375,0.049912501126527786,1.0998624563217163,0.7602375149726868
1772534572001150200,4.300150146484375,-0.020349999889731407,-0.05582499876618385,0.234437495470047
1772534572011059700,4.310059814453125,-0.12361250072717667,-0.7444249987602234,-0.24117499589920044
1772534572020969700,4.3199697265625,-0.19277499616146088,0.45278748869895935,0.03341250121593475
1772534572030879500,4.32987939453125,-0.07246249914169312,1.8107374906539917,0.29727500677108765
1772534572040789200,4.339789306640625,0.06476250290870667,1.779937505722046,-0.09968750178813934
1772534572050699000,4.349698974609375,0.14781250059604645,1.5340875387191772,-0.1443749964237213
1772534572060608500,4.3596083984375,0.19786250591278076,0.7455250024795532,-0.008112499490380287
1772534572070518500,4.3695185546875,0.24034999310970306,0.13887499272823334,0.09831249713897705
1772534572080428300,4.37942822265625,0.12017499655485153,-0.05582499876618385,0.2536875009536743
1772534572090338000,4.389338134765625,-0.22577500343322754,-0.36451250314712524,0.317487508058548
1772534572100247800,4.399247802734375,-0.6247999668121338,-0.6912124752998352,0.2770625054836273
1772534572110157600,4.409157470703125,-0.9025499820709229,-0.6114624738693237,0.234437495470047
1772534572120067300,4.4190673828125,-0.9909625053405762,-0.1835625022649765,0.16747500002384186
1772534572129977300,4.428977294921875,-0.901449978351593,0.23251250386238098,-0.02736249938607216
1772534572139887000,4.43888720703125,-0.780174970626831,0.6476249694824219,-0.2806375026702881
1772534572149796900,4.448796875,-0.8025875091552734,1.1147124767303467,-0.3998500108718872
1772534572159706600,4.45870654296875,-0.8738124966621399,1.5170375108718872,-0.39022499322891235
1772534572169616600,4.46861669921875,-0.807812511920929,1.72246253490448,-0.40411248803138733
1772534572179526100,4.478526123046875,-0.73232501745224,1.7692124843597412,-0.4690124988555908
1772534572189436000,4.488435791015625,-0.657800018787384,1.7947875261306763,-0.5253875255584717
1772534572199346000,4.498345947265625,-0.5493124723434448,1.733049988746643,-0.5424374938011169
1772534572209255700,4.508255615234375,-0.43326249718666077,1.6724125146865845,-0.476437509059906
1772534572219165400,4.51816552734375,-0.3746874928474426,1.6681499481201172,-0.37537500262260437
1772534572229075200,4.5280751953125,-0.3609375059604645,1.6011874675750732,-0.3008500039577484
1772534572238985000,4.53798486328125,-0.357637494802475,1.480875015258789,-0.22316250205039978
1772534572248895000,4.54789501953125,-0.328900009393692,1.3670250177383423,-0.1284250020980835
1772534572258804700,4.5578046875,-0.3077250123023987,1.1732875108718872,-0.08153750002384186
1772534572268714500,4.567714599609375,-0.28751251101493835,0.9965999722480774,-0.03162499889731407
1772534572278624300,4.577624267578125,-0.27252501249313354,0.9987999796867371,0.07699999958276749
1772534572288534000,4.587533935546875,-0.282150000333786,1.0987625122070312,0.1621125042438507
1772534572298443800,4.59744384765625,-0.33219999074935913,1.1499124765396118,0.15468749403953552
1772534572308353500,4.607353515625,-0.35337498784065247,1.2094500064849854,0.19304999709129333
1772534572318263300,4.61726318359375,-0.2639999985694885,1.3670250177383423,0.36959999799728394
1772534572328173300,4.62717333984375,-0.2055625021457672,1.3499749898910522,0.534600019454956
1772534572338083000,4.6370830078125,-0.10862500220537186,1.1647624969482422,0.7016624808311462
1772534572347992800,4.646992919921875,0.08923749625682831,1.1615999937057495,0.9986624717712402
1772534572357902800,4.65690283203125,0.41593748331069946,1.2265000343322754,1.3359500169754028
1772534572367812400,4.666812255859375,0.7863624691963196,1.1350624561309814,1.5966500043869019
1772534572377722400,4.676722412109375,1.1566499471664429,0.8604750037193298,1.6956499814987183
1772534572387631900,4.6866318359375,1.6218124628067017,0.4283125102519989,1.6563249826431274
1772534572397542000,4.6965419921875,1.9739500284194946,0.17503750324249268,1.6552250385284424
1772534572407451600,4.70645166015625,2.0230374336242676,0.03244999796152115,1.7414374351501465
1772534572417361400,4.716361328125,1.914412498474121,0.10807500034570694,1.919087529182434
1772534572427271200,4.726271240234375,1.8389250040054321,0.3007124960422516,2.0191874504089355
1772534572437181000,4.736180908203125,1.702662467956543,0.37619999051094055,1.9351749420166016
1772534572447090700,4.746090576171875,1.4536499977111816,0.4240500032901764,1.7457000017166138
1772534572457000700,4.756000732421875,1.1844249963760376,0.7774249911308289,1.4987499713897705
1772534572466910200,4.76591015625,0.9821624755859375,1.221137523651123,1.1433124542236328
1772534572476820000,4.775820068359375,0.9300500154495239,1.564887523651123,0.6506500244140625
1772534572486730000,4.78572998046875,1.098212480545044,1.9778000116348267,0.14726249873638153
1772534572496639700,4.7956396484375,1.4227124452590942,2.498237371444702,-0.2550624907016754
1772534572506549500,4.805549560546875,1.720674991607666,2.8175125122070312,-0.522225022315979
1772534572516459300,4.815459228515625,1.8633999824523926,2.800462484359741,-0.6360750198364258
1772534572526369000,4.825369140625,1.8271000385284424,2.4481875896453857,-0.681862473487854
1772534572536278800,4.83527880859375,1.6548124551773071,1.90767502784729,-0.6881874799728394
1772534572546188800,4.845188720703125,1.3993375301361084,1.2904374599456787,-0.6477624773979187
1772534572556098600,4.8550986328125,1.1045374870300293,0.6912124752998352,-0.5806624889373779
1772534572566008300,4.86500830078125,0.7756375074386597,0.27403751015663147,-0.513700008392334
1772534572575918000,4.87491796875,0.4351874887943268,-0.1494625061750412,-0.4263874888420105
1772534572585827800,4.884827880859375,0.07644999772310257,-0.4655750095844269,-0.34759998321533203
1772534572595737600,4.894737548828125,-0.2938374876976013,-0.561412513256073,-0.3572250008583069
1772534572605647400,4.9046474609375,-0.6535375118255615,-0.591112494468689,-0.47533750534057617
1772534572615557000,4.91455712890625,-0.9898625016212463,-0.591112494468689,-0.6616500020027161
1772534572625467100,4.924467041015625,-1.281499981880188,-0.5517874956130981,-0.8967750072479248
1772534572635376600,4.934376708984375,-1.4953124523162842,-0.4390375018119812,-1.1235125064849854
1772534572645286400,4.944286376953125,-1.6634750366210938,-0.19318750500679016,-1.2820500135421753
1772534572655196700,4.95419677734375,-1.866837501525879,0.15592500567436218,-1.3256374597549438
1772534572665106200,4.964106201171875,-2.0561749935150146,0.3198249936103821,-1.0947749614715576
1772534572675016000,4.974015869140625,-2.0604374408721924,-0.03135000169277191,-0.5424374938011169
1772534572684925400,4.983925537109375,-1.868899941444397,-0.4974749982357025,0.03863750025629997
1772534572694835500,4.99383544921875,-1.5091999769210815,-0.5432624816894531,0.4090625047683716
1772534572704745200,5.0037451171875,-0.9270250201225281,-0.08030000329017639,0.4281750023365021
1772534572714655000,5.013655029296875,-0.1438249945640564,0.8210124969482422,-0.014574999921023846
1772534572724564700,5.023564697265625,0.4021874964237213,1.7841999530792236,-0.6041749715805054
1772534572734474800,5.033474853515625,0.6458374857902527,2.082162380218506,-0.9776250123977661
1772534572744384500,5.043384521484375,0.6554625034332275,1.8629875183105469,-1.042525053024292
1772534572754294300,5.053294189453125,0.427762508392334,1.8129374980926514,-0.8691374659538269
1772534572764204000,5.0632041015625,-0.09487500041723251,2.2236499786376953,0.0705375000834465
1772534572774113800,5.07311376953125,-0.8419125080108643,2.0076375007629395,1.8191249370574951
1772534572784023600,5.0830234375,-0.8270624876022339,0.5539875030517578,2.251149892807007
1772534572793933600,5.09293359375,0.5288249850273132,1.054075002670288,1.2199000120162964
1772534572803843000,5.102843017578125,1.2940125465393066,2.6046624183654785,-0.05609999969601631
1772534572813753000,5.112753173828125,0.7767375111579895,2.4472250938415527,-0.5402374863624573
1772534572823662800,5.122662841796875,0.1467124968767166,3.127162456512451,0.6367624998092651
1772534572833572600,5.132572509765625,-0.2204124927520752,1.7287875413894653,1.1540374755859375
1772534572843482400,5.142482421875,-0.5704874992370605,-0.29315000772476196,0.7303999662399292
1772534572853392400,5.152392333984375,-0.9685499668121338,-0.9264749884605408,0.6399250030517578
1772534572863302000,5.162302001953125,-1.1919875144958496,-0.5847874879837036,0.9283999800682068
1772534572873212000,5.1722119140625,-0.9355499744415283,-0.6411625146865845,0.8123499751091003
1772534572883121700,5.18212158203125,-0.6589000225067139,-0.6443250179290771,0.5303375124931335
1772534572893031400,5.192031494140625,-0.46406251192092896,-0.6730625033378601,0.30469998717308044
1772534572902941200,5.201941162109375,-0.3438875079154968,-0.5091624855995178,0.042899999767541885
1772534572912851000,5.211850830078125,-0.3151499927043915,0.09955000132322311,-0.11563749611377716
1772534572922760700,5.2217607421875,-0.32999998331069946,0.5784624814987183,-0.17737500369548798
1772534572932670500,5.23167041015625,-0.42473748326301575,0.3081375062465668,-0.27953749895095825
1772534572942580200,5.241580322265625,-0.5237374901771545,-0.1942874938249588,-0.3614875078201294
1772534572952490200,5.251490234375,-0.5619624853134155,-0.3825249969959259,-0.3433375060558319
1772534572962400000,5.26139990234375,-0.593999981880188,-0.3389374911785126,-0.3390749990940094
1772534572972309800,5.271309814453125,-0.6450124979019165,-0.1303499937057495,-0.3891249895095825
1772534572982219500,5.281219482421875,-0.6301624774932861,0.2475000023841858,-0.4295499920845032
1772534572992129300,5.29112939453125,-0.5578374862670898,0.6773250102996826,-0.44343748688697815
1772534573002039000,5.3010390625,-0.5257999897003174,1.0403250455856323,-0.42432498931884766
1772534573011948800,5.31094873046875,-0.5077875256538391,1.2424499988555908,-0.3848625123500824
1772534573021858600,5.320858642578125,-0.49816250801086426,1.2509750127792358,-0.37207499146461487
1772534573031768300,5.330768310546875,-0.509850025177002,1.137125015258789,-0.3806000053882599
1772534573041678300,5.34067822265625,-0.5215374827384949,1.0573749542236328,-0.35186249017715454
1772534573051588000,5.350588134765625,-0.4992625117301941,1.045549988746643,-0.3008500039577484
1772534573061497900,5.360497802734375,-0.45883750915527344,1.0700249671936035,-0.26358750462532043
1772534573071407400,5.370407470703125,-0.43642500042915344,1.0998624563217163,-0.24117499589920044
1772534573081317000,5.380317138671875,-0.3917374908924103,1.128600001335144,-0.2124374955892563
1772534573091227100,5.39022705078125,-0.31831249594688416,1.2073874473571777,-0.17311249673366547
1772534573101137000,5.400136962890625,-0.25341248512268066,1.304187536239624,-0.15496249496936798
1772534573111046700,5.410046630859375,-0.24598750472068787,1.362762451171875,-0.16458749771118164
1772534573120956400,5.419956298828125,-0.22673749923706055,1.2839750051498413,-0.18796250224113464
1772534573130866200,5.4298662109375,-0.1714625060558319,1.2020249366760254,-0.1751749962568283
1772534573140776000,5.43977587890625,-0.11082500219345093,1.2020249366760254,-0.10078749805688858
1772534573150685700,5.449685791015625,-0.0798875018954277,1.2509750127792358,0.025849999859929085
1772534573160595700,5.459595703125,-0.027775000780820847,1.222237467765808,0.18548749387264252
1772534573170505500,5.46950537109375,0.03396249935030937,1.0966999530792236,0.340862512588501
1772534573180415200,5.479415283203125,0.08401250094175339,0.9668999910354614,0.44206249713897705
1772534573190325000,5.489324951171875,0.1073874980211258,0.8721625208854675,0.47712498903274536
1772534573200234800,5.49923486328125,0.07328750193119049,0.8901749849319458,0.554812490940094
1772534573210144500,5.50914453125,0.008387500420212746,0.9828500151634216,0.6527125239372253
1772534573220054500,5.519054443359375,-0.023512499406933784,1.1317625045776367,0.7155500054359436
1772534573229964000,5.528964111328125,-0.018149999901652336,1.1957000494003296,0.7187125086784363
1772534573239873800,5.538873779296875,-0.01924999989569187,1.2850749492645264,0.6857125163078308
1772534573249783600,5.548783447265625,0.008387500420212746,1.4244999885559082,0.6665999889373779
1772534573259693600,5.558693603515625,0.07644999772310257,1.4521374702453613,0.6899750232696533
1772534573269603300,5.568603271484375,0.15523749589920044,1.3776124715805054,0.7847124934196472
1772534573279513000,5.57851318359375,0.24681249260902405,1.3318250179290771,0.9145125150680542
1772534573289422800,5.5884228515625,0.33508750796318054,1.2009249925613403,1.019837498664856
1772534573299332600,5.59833251953125,0.4745124876499176,1.0913374423980713,1.1646250486373901
1772534573309242400,5.608242431640625,0.6628875136375427,1.1966625452041626,1.4051125049591064
1772534573319152000,5.618152099609375,0.8342124819755554,1.1988625526428223,1.6296499967575073
1772534573329062000,5.628061767578125,0.9810624718666077,1.1265374422073364,1.8222874402999878
1772534573338971600,5.6379716796875,1.2237499952316284,1.118012547492981,1.9765625
1772534573348881400,5.64788134765625,1.5217125415802002,1.1530749797821045,2.096874952316284
1772534573358791200,5.657791259765625,1.7931374311447144,1.1903375387191772,2.090549945831299
1772534573368701200,5.667701171875,2.0239999294281006,1.1328624486923218,1.8414000272750854
1772534573378611000,5.67761083984375,2.1421124935150146,1.1732875108718872,1.429587483406067
1772534573388520400,5.6875205078125,2.157099962234497,1.3499749898910522,0.9560375213623047
1772534573398430500,5.697430419921875,2.2262625694274902,1.4510375261306763,0.6250749826431274
1772534573408340200,5.70734033203125,2.4124374389648438,1.3520375490188599,0.5527499914169312
1772534573418250000,5.71725,2.615799903869629,1.1829124689102173,0.5931749939918518
1772534573428160000,5.727159912109375,2.8477625846862793,0.6815875172615051,0.5665000081062317
1772534573438069500,5.737069580078125,3.0456249713897705,0.24956250190734863,0.3643749952316284
1772534573447979500,5.7469794921875,2.87966251373291,0.454987496137619,0.06737499684095383
1772534573457889300,5.75688916015625,2.3773748874664307,0.8784874677658081,-0.1625249981880188
1772534573467799000,5.766799072265625,1.8101874589920044,0.9103875160217285,-0.2741749882698059
1772534573477708800,5.776708740234375,1.2567499876022339,0.5751624703407288,-0.3316499888896942
1772534573487618600,5.78661865234375,0.7735750079154968,0.31130000948905945,-0.42006251215934753
1772534573497528300,5.7965283203125,0.46172499656677246,0.12498749792575836,-0.5561875104904175
1772534573507438000,5.80643798828125,0.41071251034736633,-0.179299995303154,-0.6551874876022339
1772534573517348000,5.81634814453125,0.3669874966144562,-0.48372501134872437,-0.6924499869346619
1772534573527257900,5.8262578125,0.1765500009059906,-0.6837875247001648,-0.6733375191688538
1772534573537167600,5.836167724609375,-0.13420000672340393,-0.8167499899864197,-0.6147624850273132
1772534573547077400,5.846077392578125,-0.4927999973297119,-0.914650022983551,-0.5444999933242798
1772534573556987100,5.855987060546875,-0.807812511920929,-0.9359624981880188,-0.5009124875068665
1772534573566897000,5.86589697265625,-1.0781375169754028,-0.8454874753952026,-0.5189250111579895
1772534573576807000,5.875806884765625,-1.3208249807357788,-0.6550499796867371,-0.6126999855041504
1772534573586716400,5.88571630859375,-1.525149941444397,-0.42198750376701355,-0.7701374888420105
1772534573596626200,5.895626220703125,-1.6933125257492065,-0.15908749401569366,-0.9553499817848206
1772534573606536200,5.9055361328125,-1.8253124952316284,0.10587500035762787,-1.0883125066757202
1772534573616446000,5.915446044921875,-1.9423249959945679,0.30483749508857727,-1.126675009727478
1772534573626355700,5.925355712890625,-2.09660005569458,0.34113749861717224,-1.091475009918213
1772534573636265200,5.93526513671875,-2.3031249046325684,0.2623499929904938,-0.9935749769210815
1772534573646175200,5.94517529296875,-2.5499374866485596,0.09624999761581421,-0.9084625244140625
1772534573656085000,5.9550849609375,-2.808574914932251,-0.07397499680519104,-0.8786249756813049
1772534573665994800,5.964994873046875,-2.995850086212158,-0.13887499272823334,-0.8786249756813049
1772534573675904500,5.974904541015625,-3.08632493019104,-0.13255000114440918,-0.8882499933242798
1772534573685814300,5.984814208984375,-3.083162546157837,-0.15482500195503235,-0.865975022315979
1772534573695724000,5.99472412109375,-2.9587249755859375,-0.2677125036716461,-0.7584499716758728
1772534573705633800,6.0046337890625,-2.626662492752075,-0.5720000267028809,-0.5157625079154968
1772534573715543800,6.014543701171875,-1.979587435722351,-1.2595000267028809,-0.1742125004529953
1772534573725453600,6.02445361328125,-1.2260874509811401,-1.7076125144958496,-0.09748750180006027
1772534573735363000,6.034363037109375,-0.7226999998092651,-1.4862375259399414,-0.36038750410079956
1772534573745272800,6.04427294921875,-0.45237499475479126,-1.0286375284194946,-0.6551874876022339
1772534573755182800,6.054182861328125,-0.3077250123023987,-0.7902125120162964,-0.8914124965667725
1772534573765092600,6.064092529296875,-0.2129874974489212,-0.8124874830245972,-1.0670000314712524
1772534573775002400,6.07400244140625,-0.1896124929189682,-0.9103875160217285,-1.127774953842163
1772534573784912400,6.083912353515625,-0.24172499775886536,-0.7592750191688538,-1.0617749691009521
1772534573794822000,6.09382177734375,-0.267300009727478,0.043037500232458115,-0.791450023651123
1772534573804731600,6.103731689453125,-0.2639999985694885,1.7117375135421753,0.015262499451637268
1772534573814641700,6.1136416015625,-0.27156248688697815,2.8175125122070312,0.8601999878883362
1772534573824551400,6.123551513671875,-0.15441249310970306,2.0076375007629395,0.7548750042915344
1772534573834461200,6.133461181640625,0.02433750033378601,0.142037495970726,-0.17627499997615814
1772534573844370700,6.14337060546875,-0.00013749999925494194,-0.9487500190734863,-0.6551874876022339
1772534573854280700,6.15328076171875,-0.012924999929964542,-1.6351499557495117,-0.6509249806404114
1772534573864190500,6.1631904296875,0.16596250236034393,-2.1247875690460205,-0.5157625079154968
1772534573874100200,6.173100341796875,0.3478749990463257,-0.7709624767303467,-0.03684999793767929
1772534573884010000,6.183010009765625,0.4978874921798706,2.59517502784729,1.0155750513076782
1772534573893919700,6.192919677734375,0.5319874882698059,5.389725208282471,2.209625005722046
1772534573903829500,6.20282958984375,0.6182000041007996,4.022287368774414,2.2724626064300537
1772534573913739500,6.212739501953125,0.8777999877929688,0.906125009059906,1.6073750257492065
1772534573923649300,6.222649169921875,1.0097999572753906,0.043037500232458115,1.4178999662399292
1772534573933558800,6.232558837890625,0.6085749864578247,-0.4805625081062317,1.028362512588501
1772534573943468500,6.242468505859375,0.21381250023841858,-1.5170375108718872,0.5282750129699707
1772534573953378600,6.252378662109375,-0.18108749389648438,-2.2290124893188477,0.2461249977350235
1772534573963288300,6.262288330078125,-0.5801125168800354,-2.0619499683380127,0.2546499967575073
1772534573973198000,6.272197998046875,-0.7631250023841858,-1.396862506866455,0.1270499974489212
1772534573983107600,6.282107666015625,-0.6683874726295471,-0.6241124868392944,-0.27211248874664307
1772534573993017600,6.292017578125,-0.5450500249862671,0.29218751192092896,-0.5721374750137329
1772534574002927400,6.30192724609375,-0.44288748502731323,0.9871125221252441,-0.720087468624115
1772534574012837000,6.311837158203125,-0.4151124954223633,1.277649998664856,-0.7148625254631042
1772534574022747000,6.321746826171875,-0.48221248388290405,1.0742875337600708,-0.6201249957084656
1772534574032657000,6.331656982421875,-0.55673748254776,0.43683749437332153,-0.49665001034736633
1772534574042566400,6.34156640625,-0.5917999744415283,-0.2644124925136566,-0.34017500281333923
1772534574052476400,6.351476318359375,-0.5917999744415283,-0.6891499757766724,-0.1859000027179718
1772534574062386200,6.36138623046875,-0.5619624853134155,-0.6869499683380127,-0.05389999970793724
1772534574072296000,6.3712958984375,-0.5322625041007996,-0.5656750202178955,0.040837500244379044
1772534574082205700,6.381205810546875,-0.5035250186920166,-0.552887499332428,0.08332499861717224
1772534574092115500,6.391115478515625,-0.4492124915122986,-0.4655750095844269,0.12058749794960022
1772534574102025200,6.401025146484375,-0.35983750224113464,-0.32725000381469727,0.15674999356269836
1772534574111935000,6.41093505859375,-0.2639999985694885,-0.38046249747276306,0.1280124932527542
1772534574121845000,6.420844970703125,-0.1970375031232834,-0.49431249499320984,0.10353749990463257
1772534574131754500,6.43075439453125,-0.17572499811649323,-0.35804998874664307,0.22591249644756317
1772534574141664300,6.440664306640625,-0.2363625019788742,-0.07713750004768372,0.3078624904155731
1772534574151574300,6.45057421875,-0.3097875118255615,0.09955000132322311,0.227012500166893
1772534574161484000,6.460484130859375,-0.3470500111579895,0.13461250066757202,0.12058749794960022
1772534574171393500,6.4703935546875,-0.34595000743865967,0.24323749542236328,0.1504250019788742
1772534574181303600,6.480303466796875,-0.3012624979019165,0.49857500195503235,0.3493874967098236
1772534574191213300,6.49021337890625,-0.23100000619888306,0.6848874688148499,0.5197499990463257
1772534574201123000,6.500123046875,-0.12787500023841858,0.7017999887466431,0.5931749939918518
1772534574211032800,6.51003271484375,-0.02241249941289425,0.7742624878883362,0.6133875250816345
1772534574220942800,6.51994287109375,-0.023512499406933784,0.8551124930381775,0.5803874731063843
1772534574230852400,6.529852294921875,0.026537500321865082,0.9029625058174133,0.5654000043869019
1772534574240762000,6.53976220703125,0.13928750157356262,0.9646999835968018,0.600600004196167
1772534574250672000,6.549672119140625,0.23718750476837158,1.0987625122070312,0.6686624884605408
1772534574260582000,6.559581787109375,0.3788124918937683,1.1999624967575073,0.7548750042915344
1772534574270491600,6.56949169921875,0.5501375198364258,1.110587477684021,0.8410875201225281
1772534574280401400,6.5794013671875,0.7203624844551086,0.9509499669075012,0.9922000169754028
1772534574290311200,6.589311279296875,0.8820624947547913,0.6975374817848206,1.1241999864578247
1772534574300221000,6.599220947265625,1.0789624452590942,0.454987496137619,1.239150047302246
1772534574310130700,6.609130615234375,1.3481874465942383,0.49004998803138733,1.557325005531311
1772534574320040400,6.61904052734375,1.6036624908447266,0.3623124957084656,1.9170249700546265
1772534574329950200,6.6289501953125,1.821874976158142,0.0494999997317791,2.1202499866485596
1772534574339860000,6.63885986328125,2.0729498863220215,-0.03987500071525574,2.121350049972534
1772534574349769700,6.648769775390625,2.2294249534606934,0.2825624942779541,1.8786624670028687
1772534574359679700,6.6586796875,2.19958758354187,0.8338000178337097,1.4317874908447266
1772534574369589200,6.66858935546875,2.140049934387207,1.2541375160217285,0.982574999332428
1772534574379499000,6.6784990234375,2.2197999954223633,1.2659624814987183,0.740024983882904
1772534574389408800,6.68840869140625,2.525325059890747,0.8189499974250793,0.7198125123977661
1772534574399318800,6.69831884765625,2.893549919128418,0.2964499890804291,0.81454998254776
1772534574409228500,6.708228515625,3.109562397003174,0.1260875016450882,0.8197749853134155
1772534574419138300,6.71813818359375,2.9818248748779297,0.40287500619888306,0.638824999332428
1772534574429048000,6.728048095703125,2.5381124019622803,0.9168499708175659,0.3601124882698059
1772534574438957800,6.737957763671875,1.9750499725341797,1.1424875259399414,0.1695374995470047
1772534574448867600,6.74786767578125,1.4557124376296997,0.9987999796867371,0.07809999585151672
1772534574458777600,6.757777587890625,0.9736375212669373,0.6507874727249146,0.03753750026226044
1772534574468687000,6.76768701171875,0.5660874843597412,0.3698749840259552,-0.007149999961256981
1772534574478596900,6.777596923828125,0.25107499957084656,0.1451999992132187,-0.11247500032186508
1772534574488506600,6.787506591796875,0.07644999772310257,-0.04097500070929527,-0.30291250348091125
1772534574498416600,6.797416748046875,0.038224998861551285,-0.2134000062942505,-0.5179625153541565
1772534574508326100,6.807326171875,-0.03629999980330467,-0.3623124957084656,-0.7106000185012817
1772534574518236000,6.81723583984375,-0.18205000460147858,-0.469837486743927,-0.858412504196167
1772534574528146000,6.82714599609375,-0.39393749833106995,-0.47946250438690186,-0.9542499780654907
1772534574538055700,6.8370556640625,-0.6631624698638916,-0.41552498936653137,-1.009524941444397
1772534574547965400,6.84696533203125,-0.9770749807357788,-0.28146249055862427,-1.0627374649047852
1772534574557875200,6.856875244140625,-1.282462477684021,-0.10161250084638596,-1.1574749946594238
1772534574567785000,6.866784912109375,-1.5475624799728394,0.07507500052452087,-1.3011624813079834
1772534574577694700,6.87669482421875,-1.7912124395370483,0.2677125036716461,-1.4693249464035034
1772534574587604500,6.8866044921875,-2.029637575149536,0.44852501153945923,-1.6343250274658203
1772534574597514500,6.896514404296875,-2.2690250873565674,0.5475249886512756,-1.778975009918213
1772534574607424000,6.906424072265625,-2.5000250339508057,0.5539875030517578,-1.8875999450683594
1772534574617333800,6.916333740234375,-2.692662477493286,0.5486249923706055,-1.9684499502182007
1772534574627243500,6.926243408203125,-2.79372501373291,0.39531248807907104,-1.999387502670288
1772534574637153500,6.936153564453125,-2.7128748893737793,-0.015399999916553497,-1.8970874547958374
1772534574647063300,6.946063232421875,-2.4286625385284424,-0.5539875030517578,-1.6491750478744507
1772534574656972800,6.955972900390625,-1.8348000049591064,-1.4308249950408936,-1.0755250453948975
1772534574666882800,6.9658828125,-1.181399941444397,-2.0810625553131104,-0.5285499691963196
1772534574676792600,6.97579248046875,-0.91753751039505,-1.8118374347686768,-0.5094375014305115
1772534574686702300,6.985702392578125,-0.8472750186920166,-1.295662522315979,-0.6329125165939331
1772534574696612000,6.995612060546875,-0.6472125053405762,-0.8029999732971191,-0.6392375230789185
1772534574706521900,7.00552197265625,-0.31404998898506165,-0.23471249639987946,-0.6051374673843384
1772534574716431600,7.015431640625,-0.0012374999932944775,0.44110000133514404,-0.6562874913215637
1772534574726341400,7.02534130859375,0.2116124927997589,1.0870749950408936,-0.7627124786376953
1772534574736251400,7.03525146484375,0.28503748774528503,1.4510375261306763,-0.8137249946594238
1772534574746161000,7.045160888671875,0.284074991941452,1.565987467765808,-0.7095000147819519
1772534574756070700,7.055070556640625,0.28503748774528503,1.7256250381469727,-0.4328500032424927
1772534574765980700,7.064980712890625,0.2765125036239624,2.185425043106079,0.08332499861717224
1772534574775890400,7.074890380859375,0.11371249705553055,2.7440874576568604,0.7495124936103821
1772534574785800000,7.084800048828125,-0.3396250009536743,1.9778000116348267,0.7964000105857849
1772534574795710000,7.0947099609375,-0.7812749743461609,0.10807500034570694,-0.10395000129938126
1772534574805619700,7.10461962890625,-0.5897374749183655,-1.2711875438690186,-0.6754000186920166
1772534574815529500,7.114529541015625,-0.05335000157356262,-1.6468374729156494,-0.4647499918937683
1772534574825439200,7.124439208984375,0.4883999824523926,-2.2801625728607178,-0.24447499215602875
1772534574835349000,7.134348876953125,0.5809375047683716,-2.9133498668670654,-0.009212499484419823
1772534574845259000,7.144259033203125,0.24034999310970306,-1.0796500444412231,1.0645250082015991
1772534574855168800,7.154168701171875,0.08071249723434448,0.850849986076355,1.4935250282287598
1772534574865078500,7.16407861328125,0.12759999930858612,1.7447375059127808,1.0709874629974365
1772534574874988300,7.17398828125,0.3723500072956085,2.359912395477295,0.8102874755859375
1772534574884897800,7.183897705078125,0.47987499833106995,1.0775874853134155,0.5974375009536743
1772534574894807800,7.193807861328125,0.43092501163482666,-0.4581499993801117,0.6324999928474426
1772534574904717600,7.203717529296875,0.34251248836517334,-0.8497499823570251,0.5409250259399414
1772534574914627300,7.21362744140625,0.05101250112056732,-0.8784874677658081,0.24406249821186066
1772534574924537000,7.223537109375,-0.27156248688697815,-0.7965375185012817,0.12168750166893005
1772534574934446800,7.23344677734375,-0.548212468624115,-0.7614749670028687,0.10999999940395355
1772534574944356600,7.243356689453125,-0.7567999958992004,-0.8189499974250793,0.050324998795986176
1772534574954266400,7.253266357421875,-0.8398500084877014,-0.7338374853134155,-0.09652499854564667
1772534574964176100,7.263176025390625,-0.7983250021934509,-0.43683749437332153,-0.2806375026702881
1772534574974086000,7.2730859375,-0.657800018787384,-0.016499999910593033,-0.4295499920845032
1772534574983995600,7.28299560546875,-0.527999997138977,0.28036248683929443,-0.5754374861717224
1772534574993905400,7.292905517578125,-0.6173750162124634,0.40287500619888306,-0.6935499906539917
1772534575003815400,7.3028154296875,-0.7184374928474426,0.4433000087738037,-0.720087468624115
1772534575013725000,7.312724853515625,-0.7078499794006348,0.46777498722076416,-0.6296125054359436
1772534575023634700,7.322634765625,-0.6663249731063843,0.4538874924182892,-0.46997499465942383
1772534575033544700,7.332544677734375,-0.6142125129699707,0.25066250562667847,-0.3870624899864197
1772534575043454500,7.342454345703125,-0.5673249959945679,0.0952875018119812,-0.3264249861240387
1772534575053364000,7.352364013671875,-0.4961000084877014,0.09844999760389328,-0.2157374918460846
1772534575063274000,7.36227392578125,-0.38967499136924744,0.1942874938249588,-0.07204999774694443
1772534575073183700,7.372183837890625,-0.27898749709129333,0.2751374840736389,0.045099999755620956
1772534575083093500,7.382093505859375,-0.16830000281333923,0.32725000381469727,0.13763749599456787
1772534575093003300,7.392003173828125,-0.12787500023841858,0.11123749613761902,0.1993750035762787
1772534575102913000,7.4019130859375,-0.0789249986410141,-0.17723749577999115,0.2824249863624573
1772534575112822800,7.41182275390625,-0.057612501084804535,-0.25382500886917114,0.3718000054359436
1772534575122732500,7.421732666015625,-0.07672499865293503,-0.09418749809265137,0.4302375018596649
1772534575132642300,7.431642333984375,-0.08415000140666962,0.11866249889135361,0.49101248383522034
1772534575142552000,7.441552001953125,-0.06187500059604645,0.24529999494552612,0.5750250220298767
1772534575152461800,7.4514619140625,-0.025712499395012856,0.11013749986886978,0.5824499726295471
1772534575162371600,7.46137158203125,0.020075000822544098,-0.0387750007212162,0.5473874807357788
1772534575172281600,7.471281494140625,0.0424874983727932,0.0919874981045723,0.5644375085830688
1772534575182191000,7.481191162109375,0.05843750014901161,0.2410375028848648,0.5154874920845032
1772534575192101000,7.49110107421875,0.07122500240802765,0.3059374988079071,0.39201250672340393
1772534575202011000,7.501010986328125,0.11275000125169754,0.44852501153945923,0.33137500286102295
1772534575211920600,7.510920654296875,0.21271249651908875,0.7369999885559082,0.3792249858379364
1772534575221830100,7.520830078125,0.34581249952316284,0.8816499710083008,0.41538751125335693
1772534575231740400,7.530740478515625,0.4437125027179718,0.6710000038146973,0.3792249858379364
1772534575241650000,7.54064990234375,0.5075125098228455,0.3218874931335449,0.42611250281333923
1772534575251559700,7.5505595703125,0.5351499915122986,0.06861250102519989,0.5983999967575073
1772534575261469400,7.560469482421875,0.5330874919891357,-0.0005499999970197678,0.8368250131607056
1772534575271379200,7.570379150390625,0.5766749978065491,0.03244999796152115,1.1188374757766724
1772534575281289000,7.5802890625,0.7246249914169312,-0.023924998939037323,1.3795374631881714
1772534575291199000,7.590198974609375,0.9352750182151794,-0.058024998754262924,1.557325005531311
1772534575301108700,7.600108642578125,1.1939125061035156,-0.052662499248981476,1.697849988937378
1772534575311018500,7.6100185546875,1.4631375074386597,-0.06655000150203705,1.8456624746322632
1772534575320928000,7.619927978515625,1.6909749507904053,0.015399999916553497,1.8988749980926514
1772534575330838000,7.629838134765625,1.852674961090088,0.22288750112056732,1.8414000272750854
1772534575340747800,7.639747802734375,1.9857749938964844,0.3591499924659729,1.732912540435791
1772534575350657500,7.649657470703125,2.101687431335449,0.3815625011920929,1.5669499635696411
1772534575360567000,7.659567138671875,2.223099946975708,0.4347749948501587,1.3083125352859497
1772534575370477000,7.66947705078125,2.292262554168701,0.6155874729156494,1.0092500448226929
1772534575380386800,7.67938671875,2.3230624198913574,0.682687520980835,0.6580749750137329
1772534575390296600,7.689296630859375,2.38700008392334,0.7455250024795532,0.2876499891281128
1772534575400206300,7.699206298828125,2.508275032043457,1.053112506866455,0.0471624992787838
1772534575410116000,7.7091162109375,2.6274874210357666,1.3818750381469727,-0.13901250064373016
1772534575420025900,7.71902587890625,2.542375087738037,1.2626625299453735,-0.2157374918460846
1772534575429935600,7.728935546875,2.1432125568389893,0.7358999848365784,-0.1742125004529953
1772534575439845600,7.738845703125,1.5652999877929688,0.13997499644756317,-0.09748750180006027
1772534575449755400,7.74875537109375,1.014062523841858,-0.27719998359680176,-0.11027500033378601
1772534575459665000,7.758664794921875,0.5915250182151794,-0.5486249923706055,-0.2209624946117401
1772534575469574700,7.76857470703125,0.23608750104904175,-0.7347999811172485,-0.4380750060081482
1772534575479484700,7.778484619140625,-0.02667500078678131,-0.8189499974250793,-0.7041375041007996
1772534575489394400,7.78839453125,-0.12993749976158142,-0.7752249836921692,-0.9351375102996826
1772534575499304000,7.798303955078125,-0.22893749177455902,-0.7071624994277954,-1.099037528038025
1772534575509214000,7.8082138671875,-0.3502124845981598,-0.7039999961853027,-1.1617374420166016
1772534575519123700,7.818123779296875,-0.45567500591278076,-0.7614749670028687,-1.1127874851226807
1772534575529033500,7.828033447265625,-0.5311625003814697,-0.8486499786376953,-1.0011374950408936
1772534575538943200,7.837943115234375,-0.612012505531311,-0.8465874791145325,-0.9180874824523926
1772534575548853000,7.84785302734375,-0.7206375002861023,-0.7497875094413757,-0.9234499931335449
1772534575558762800,7.8577626953125,-0.8780750036239624,-0.6241124868392944,-1.017087459564209
1772534575568672500,7.867672607421875,-1.0920250415802002,-0.4357374906539917,-1.152250051498413
1772534575578582000,7.87758203125,-1.3186249732971191,-0.195250004529953,-1.2661000490188599
1772534575588492000,7.887491943359375,-1.5399999618530273,-0.03987500071525574,-1.3213750123977661
1772534575598401800,7.89740185546875,-1.7826875448226929,-0.0494999997317791,-1.3363624811172485
1772534575608311600,7.9073115234375,-2.0285375118255615,-0.18576249480247498,-1.3458499908447266
1772534575618221300,7.91722119140625,-2.2721874713897705,-0.28366249799728394,-1.4118499755859375
1772534575628131000,7.927131103515625,-2.4670250415802,-0.3474625051021576,-1.5290000438690186
1772534575638040800,7.937040771484375,-2.5499374866485596,-0.5167250037193298,-1.5757499933242798
1772534575647950800,7.946950927734375,-2.6010875701904297,-0.8189499974250793,-1.470425009727478
1772534575657860600,7.956860595703125,-2.6107125282287598,-1.2509750127792358,-1.228837490081787
1772534575667770400,7.966770263671875,-2.380812406539917,-1.816100001335144,-0.8722999691963196
1772534575677680000,7.97668017578125,-1.9476875066757202,-2.3439624309539795,-0.5413374900817871
1772534575687590000,7.98658984375,-1.4878875017166138,-2.119425058364868,-0.550962507724762
1772534575697499600,7.996499755859375,-1.0823999643325806,-1.1743874549865723,-0.8265125155448914
1772534575707409400,8.006409423828124,-0.7451124787330627,-0.08882500231266022,-1.043624997138977
1772534575717319200,8.016319091796875,-0.44385001063346863,0.6539499759674072,-0.9915124773979187
1772534575727229000,8.02622900390625,-0.1671999990940094,0.9689624905586243,-0.7840250134468079
1772534575737138700,8.036138671875,0.0775500014424324,0.9743250012397766,-0.5774999856948853
1772534575747048700,8.046048583984375,0.22123749554157257,0.896637499332428,-0.41359999775886536
1772534575756958200,8.055958251953125,0.1722874939441681,0.942425012588501,-0.2858625054359436
1772534575766868000,8.065867919921875,-0.04688749834895134,1.1871750354766846,-0.1625249981880188
1772534575776778000,8.075778076171876,-0.21188749372959137,1.5234999656677246,-0.0826374962925911
1772534575786687700,8.085687744140625,-0.1714625060558319,1.788462519645691,-0.04963750019669533
1772534575796597200,8.09559716796875,-0.09487500041723251,1.9353125095367432,0.0004124999977648258
1772534575806507300,8.10550732421875,-0.07136250287294388,1.9128999710083008,0.10999999940395355
1772534575816417000,8.1154169921875,-0.056512501090765,1.9034124612808228,0.256850004196167
1772534575826326800,8.125326904296875,-0.01924999989569187,1.991687536239624,0.32807499170303345
1772534575836236500,8.135236572265624,0.006324999965727329,1.8320499658584595,0.17489999532699585
1772534575846146300,8.145146240234375,-0.011824999935925007,1.4936624765396118,-0.09006249904632568
1772534575856056000,8.15505615234375,-0.004399999976158142,0.9604374766349792,-0.31790000200271606
1772534575865965800,8.1649658203125,0.07218749821186066,0.03355000168085098,-0.3423750102519989
1772534575875875600,8.17487548828125,0.16802500188350677,-0.5337749719619751,-0.14547500014305115
1772534575885785300,8.184785400390625,0.2765125036239624,-0.9103875160217285,-0.060362499207258224
1772534575895695000,8.194695068359374,0.2063875049352646,-1.463824987411499,0.21752500534057617
1772534575905604900,8.20460498046875,0.22550000250339508,-1.3190374374389648,0.7739874720573425
1772534575915514600,8.2145146484375,0.35530000925064087,-0.7262749671936035,1.0326249599456787
1772534575925424600,8.224424560546876,0.5905625224113464,0.693274974822998,1.1561000347137451
1772534575935334100,8.234334228515625,0.8086374998092651,1.8374124765396118,1.095462441444397
1772534575945244000,8.244243896484376,0.7926874756813049,1.8554250001907349,1.0709874629974365
1772534575955154000,8.25415380859375,0.688462495803833,1.4595625400543213,1.1677875518798828
1772534575965063700,8.264063720703126,0.4936249852180481,0.35804998874664307,0.7825124859809875
1772534575974973400,8.273973388671875,0.3063499927520752,-0.4188250005245209,0.27390000224113464
1772534575984883200,8.28388330078125,0.049912501126527786,-0.6124249696731567,0.01952499896287918
1772534575994793000,8.29379296875,-0.3385249972343445,-0.5475249886512756,-0.1625249981880188
1772534576004702700,8.30370263671875,-0.6194375157356262,-0.23045000433921814,-0.3156999945640564
1772534576014612500,8.313612548828125,-0.6364874839782715,0.22824999690055847,-0.45938751101493835
1772534576024522200,8.323522216796874,-0.5291000008583069,0.599637508392334,-0.5636125206947327
1772534576034432000,8.333431884765625,-0.527999997138977,0.8241750001907349,-0.5754374861717224
1772534576044341500,8.343341552734374,-0.6971250176429749,0.9029625058174133,-0.5636125206947327
1772534576054251500,8.35325146484375,-0.7908999919891357,0.943387508392334,-0.5455999970436096
1772534576064161300,8.363161376953125,-0.7642250061035156,0.8998000025749207,-0.5040749907493591
1772534576074071000,8.373071044921875,-0.6928625106811523,0.6997374892234802,-0.4604874849319458
1772534576083980800,8.382980712890625,-0.6290624737739563,0.47946250438690186,-0.4147000014781952
1772534576093890600,8.392890625,-0.5758500099182129,0.3326124846935272,-0.34759998321533203
1772534576103800300,8.40280029296875,-0.5578374862670898,0.23361249268054962,-0.29548749327659607
1772534576113710300,8.41271044921875,-0.5673249959945679,0.10477499663829803,-0.28696250915527344
1772534576123620000,8.4226201171875,-0.5322625041007996,-0.09624999761581421,-0.31679999828338623
1772534576133529600,8.432529541015626,-0.45141249895095825,-0.3123999834060669,-0.3231250047683716
1772534576143439400,8.442439453125,-0.3768875002861023,-0.48262500762939453,-0.30607500672340393
1772534576153349400,8.452349365234374,-0.35983750224113464,-0.6241124868392944,-0.3008500039577484
1772534576163259100,8.462259033203125,-0.38005000352859497,-0.7262749671936035,-0.31033748388290405
1772534576173168600,8.472168701171874,-0.40562498569488525,-0.7327374815940857,-0.27953749895095825
1772534576183078400,8.482078369140625,-0.40246251225471497,-0.6103624701499939,-0.19442500174045563
1772534576192988400,8.491988525390624,-0.3778499960899353,-0.44110000133514404,-0.11563749611377716
1772534576202898200,8.501898193359375,-0.3385249972343445,-0.3741374909877777,-0.06558749824762344
1772534576212808000,8.511807861328125,-0.27994999289512634,-0.2964499890804291,0.010999999940395355
1772534576222717700,8.5217177734375,-0.23746250569820404,-0.10587500035762787,0.1280124932527542
1772534576232627500,8.53162744140625,-0.2437874972820282,0.0835999995470047,0.21642500162124634
1772534576242537200,8.541537109375,-0.24914999306201935,0.2634499967098236,0.2824249863624573
1772534576252447000,8.551447021484375,-0.22247499227523804,0.42941248416900635,0.3451249897480011
1772534576262356700,8.561356689453126,-0.1863124966621399,0.6039000153541565,0.41222500801086426
1772534576272266500,8.5712666015625,-0.15234999358654022,0.6687999963760376,0.44206249713897705
1772534576282176300,8.58117626953125,-0.09487500041723251,0.591112494468689,0.45374998450279236
1772534576292086000,8.5910859375,-0.040562499314546585,0.3591499924659729,0.43779999017715454
1772534576301996000,8.60099609375,0.03396249935030937,0.1451999992132187,0.4100250005722046
1772534576311905500,8.610905517578125,0.1498750001192093,0.23251250386238098,0.48138749599456787
1772534576321815300,8.620815185546874,0.2574000060558319,0.24213749170303345,0.5314375162124634
1772534576331725000,8.63072509765625,0.31171250343322754,-0.04633750021457672,0.46117499470710754
1772534576341635000,8.640635009765624,0.29782500863075256,-0.23471249639987946,0.45058751106262207
1772534576351544800,8.650544921875,0.2755500078201294,-0.33783748745918274,0.4867500066757202
1772534576361454300,8.660454345703124,0.24791249632835388,-0.5039374828338623,0.5079249739646912
1772534576371364000,8.670364013671875,0.20418749749660492,-0.6124249696731567,0.5240125060081482
1772534576381274000,8.680274169921875,0.1574375033378601,-0.5944125056266785,0.5696625113487244
1772534576391183600,8.69018359375,0.14464999735355377,-0.5050374865531921,0.6484500169754028
1772534576401093600,8.70009375,0.1691250056028366,-0.33041250705718994,0.777287483215332
1772534576411003400,8.71000341796875,0.22439999878406525,-0.24323749542236328,0.9017249941825867
1772534576420913000,8.719912841796875,0.31171250343322754,-0.09308750182390213,1.027400016784668
1772534576430822700,8.72982275390625,0.40328750014305115,0.15702499449253082,1.1369874477386475
1772534576440732700,8.739732666015625,0.5202999711036682,0.4889499843120575,1.313675045967102
1772534576450642400,8.749642333984376,0.7075750231742859,0.7720624804496765,1.5690125226974487
1772534576460552200,8.75955224609375,0.9065374732017517,0.7816874980926514,1.7957500219345093
1772534576470462000,8.7694619140625,1.090649962425232,0.6294749975204468,1.967074990272522
1772534576480371700,8.779371826171875,1.2971750497817993,0.5295125246047974,2.0373375415802
1772534576490281500,8.789281494140624,1.5111249685287476,0.7529500126838684,2.02028751373291
1772534576500191500,8.79919140625,1.6579749584197998,1.0338624715805054,1.968174934387207
1772534576510101000,8.80910107421875,1.7505124807357788,1.2168749570846558,1.9287124872207642
1772534576520010800,8.8190107421875,1.8281999826431274,1.380774974822998,1.8361749649047852
1772534576529920500,8.82892041015625,1.870824933052063,1.4393500089645386,1.6296499967575073
1772534576539830500,8.83883056640625,1.8271000385284424,1.3957624435424805,1.3274250030517578
1772534576549740300,8.848740234375,1.7729250192642212,1.4052499532699585,0.9400874972343445
1772534576559649800,8.85864990234375,1.852674961090088,1.548937439918518,0.5941374897956848
1772534576569559800,8.868559814453125,2.038987398147583,1.7767750024795532,0.3493874967098236
1772534576579469600,8.878469482421876,2.1900999546051025,1.8012499809265137,0.27486249804496765
1772534576589379300,8.88837939453125,2.2071499824523926,1.3755500316619873,0.29301249980926514
1772534576599289000,8.8982890625,1.9846749305725098,0.7347999811172485,0.32491248846054077
1772534576609198800,8.90819873046875,1.6409250497817993,0.18039999902248383,0.30469998717308044
1772534576619108600,8.918108642578124,1.2502875328063965,-0.10161250084638596,0.20047499239444733
1772534576629018400,8.928018310546875,0.8597875237464905,-0.2686749994754791,-0.0038499999791383743
1772534576638928100,8.93792822265625,0.4883999824523926,-0.45608749985694885,-0.19442500174045563
1772534576648838000,8.947837890625,0.2616625130176544,-0.6274124979972839,-0.2934249937534332
1772534576658747600,8.95774755859375,0.12223749607801437,-0.6891499757766724,-0.36355000734329224
1772534576668657400,8.967657470703125,0.015812499448657036,-0.6571124792098999,-0.444537490606308
1772534576678567200,8.977567138671875,-0.08841250091791153,-0.6198499798774719,-0.5264874696731567
1772534576688477000,8.987476806640625,-0.18535000085830688,-0.5890499949455261,-0.6179249882698059
1772534576698386700,8.99738671875,-0.267300009727478,-0.5517874956130981,-0.7328749895095825
1772534576708296400,9.00729638671875,-0.35983750224113464,-0.469837486743927,-0.8680375218391418
1772534576718206200,9.017206298828125,-0.4577375054359436,-0.35062500834465027,-1.0106250047683716
1772534576728116000,9.027115966796876,-0.5630624890327454,-0.21119999885559082,-1.1415250301361084
1772534576738025700,9.037025634765625,-0.6769124865531921,-0.06971249729394913,-1.2490500211715698
1772534576747935700,9.046935791015626,-0.7812749743461609,0.022824998944997787,-1.3224749565124512
1772534576757845200,9.05684521484375,-0.9047499895095825,0.14313749969005585,-1.3736250400543213
1772534576767755000,9.066755126953124,-1.019700050354004,0.2857249975204468,-1.3990625143051147
1772534576777665000,9.0766650390625,-1.1346499919891357,0.3676750063896179,-1.4342625141143799
1772534576787574800,9.08657470703125,-1.2505625486373901,0.36134999990463257,-1.4938000440597534
1772534576797484500,9.096484619140625,-1.3677124977111816,0.23787499964237213,-1.5853749513626099
1772534576807394000,9.10639404296875,-1.5038374662399292,0.08139999955892563,-1.6790125370025635
1772534576817304000,9.116303955078125,-1.6645749807357788,-0.016499999910593033,-1.7428125143051147
1772534576827213800,9.1262138671875,-1.8614749908447266,-0.01759999990463257,-1.7928625345230103
1772534576837123600,9.13612353515625,-2.0976998805999756,0.0494999997317791,-1.815274953842163
1772534576847033300,9.146033447265625,-2.3722875118255615,0.11013749986886978,-1.7832374572753906
1772534576856943000,9.155943115234376,-2.6149749755859375,-0.03135000169277191,-1.637487530708313
1772534576866852900,9.165852783203125,-2.7479374408721924,-0.3858250081539154,-1.4075875282287598
1772534576876762400,9.175762451171876,-2.8171000480651855,-0.7805874943733215,-1.08308744430542
1772534576886672400,9.18567236328125,-2.4904000759124756,-1.159537434577942,-0.7605124711990356
1772534576896582100,9.19558203125,-1.6528874635696411,-0.8753250241279602,-0.8170250058174133
1772534576906492000,9.205491943359375,-0.91753751039505,0.1069749966263771,-1.0766249895095825
1772534576916401700,9.215401611328126,-0.41304999589920044,1.03496253490448,-1.0957374572753906
1772534576926311400,9.2253115234375,-0.09267500042915344,1.6681499481201172,-0.9809250235557556
1772534576936221200,9.23522119140625,0.06476250290870667,1.949062466621399,-0.8839874863624573
1772534576946131000,9.245130859375,0.06902500241994858,1.9256874322891235,-0.782925009727478
1772534576956040700,9.255040771484374,-0.033137500286102295,1.7617875337600708,-0.634975016117096
1772534576965950500,9.264950439453125,-0.12787500023841858,1.547974944114685,-0.444537490606308
1772534576975860500,9.274860595703124,-0.11288750171661377,1.3690874576568604,-0.2699125111103058
1772534576985770200,9.284770263671875,-0.08415000140666962,1.2904374599456787,-0.10395000129938126
1772534576995680000,9.294679931640625,-0.1023000031709671,1.1232374906539917,0.018424998968839645
1772534577005589800,9.30458984375,-0.1714625060558319,0.8232125043869019,-0.017737500369548798
1772534577015499500,9.31449951171875,-0.38321250677108765,0.48262500762939453,-0.20295000076293945
1772534577025409300,9.3244091796875,-0.5205749869346619,-0.22824999690055847,-0.4104374945163727
1772534577035319000,9.334319091796875,-0.4353249967098236,-1.313812494277954,-0.719124972820282
1772534577045228800,9.344228759765626,-0.12993749976158142,-2.1566874980926514,-0.8520874977111816
1772534577055138600,9.354138671875,0.28503748774528503,-2.275899887084961,-0.6051374673843384
1772534577065048300,9.36404833984375,0.7459374666213989,-1.3914999961853027,-0.029424998909235
1772534577074958000,9.3739580078125,0.9608500003814697,0.7423624992370605,0.6675624847412109
1772534577084867800,9.383867919921874,0.7917249798774719,2.4726624488830566,0.9421499967575073
1772534577094777900,9.39377783203125,0.6990500092506409,1.9140000343322754,0.5931749939918518
1772534577104687400,9.403687255859374,0.771512508392334,0.32298749685287476,0.6591749787330627
1772534577114597000,9.41359716796875,0.8885250091552734,-0.36877501010894775,1.1976250410079956
1772534577124507000,9.4235068359375,0.7501999735832214,-1.0551749467849731,1.390262484550476
1772534577134416600,9.433416748046875,0.4021874964237213,-1.5170375108718872,1.3604249954223633
1772534577144326400,9.443326416015625,-0.027775000780820847,-2.2258501052856445,1.0698875188827515
1772534577154236400,9.453236328125,-0.41731250286102295,-2.762237548828125,0.6984999775886536
1772534577164146000,9.46314599609375,-0.6599999666213989,-2.4450249671936035,0.5121874809265137
1772534577174055700,9.4730556640625,-0.6481750011444092,-1.4191374778747559,0.3441624939441681
1772534577183965400,9.48296533203125,-0.4375250041484833,-0.5847874879837036,-0.10711249709129333
1772534577193875500,9.49287548828125,-0.3236750066280365,0.25066250562667847,-0.5669124722480774
1772534577203785000,9.502784912109375,-0.3683624863624573,1.2084875106811523,-0.7988749742507935
1772534577213695000,9.512695068359376,-0.3704249858856201,2.0767998695373535,-0.7988749742507935
1772534577223604700,9.522604736328125,-0.30346250534057617,2.5323374271392822,-0.6956124901771545
1772534577233514500,9.532514404296874,-0.1979999989271164,2.723875045776367,-0.513700008392334
1772534577243424000,9.542424072265625,-0.17256249487400055,2.800462484359741,-0.30717501044273376
1772534577253334000,9.552333984375,-0.3129499852657318,2.6046624183654785,-0.22632500529289246
1772534577263243800,9.562243896484375,-0.44714999198913574,2.040637493133545,-0.30607500672340393
1772534577273153500,9.572153564453124,-0.5311625003814697,1.1552749872207642,-0.46254998445510864
1772534577283063000,9.58206298828125,-0.6077499985694885,0.1260875016450882,-0.5381749868392944
1772534577292973000,9.59197314453125,-0.6429499983787537,-0.5506874918937683,-0.49445000290870667
1772534577302882800,9.6018828125,-0.5875374674797058,-0.6337375044822693,-0.43601250648498535
1772534577312792600,9.61179248046875,-0.48647499084472656,-0.37193748354911804,-0.42006251215934753
1772534577322702300,9.621702392578126,-0.4141499996185303,0.01759999990463257,-0.4465999901294708
1772534577332612000,9.631612060546875,-0.41084998846054077,0.5081999897956848,-0.467912495136261
1772534577342521900,9.64152197265625,-0.42899999022483826,1.045549988746643,-0.4487999975681305
1772534577352431400,9.651431396484375,-0.42157500982284546,1.53725004196167,-0.3817000091075897
1772534577362341400,9.66134130859375,-0.41084998846054077,1.8022124767303467,-0.3221625089645386
1772534577372251100,9.671251220703125,-0.4076874852180481,1.733049988746643,-0.2891624867916107
1772534577382161000,9.681160888671876,-0.3854124844074249,1.4584624767303467,-0.26468750834465027
1772534577392070700,9.691070556640625,-0.34595000743865967,1.1605000495910645,-0.24447499215602875
1772534577401980700,9.700980712890624,-0.3086875081062317,0.8732625246047974,-0.19126249849796295
1772534577411890200,9.71089013671875,-0.3119874894618988,0.5699374675750732,-0.07301250100135803
1772534577421800000,9.720800048828124,-0.35241249203681946,0.3623124957084656,0.08442500233650208
1772534577431709700,9.730709716796875,-0.3694624900817871,0.3326124846935272,0.1769624948501587
1772534577441619500,9.740619384765624,-0.4226749837398529,0.4581499993801117,0.2153249979019165
1772534577451529200,9.750529296875,-0.548212468624115,0.46351251006126404,0.21752500534057617
1772534577461439200,9.760439208984375,-0.5524749755859375,0.4390375018119812,0.2685374915599823
1772534577471349000,9.770348876953125,-0.5535749793052673,0.5039374828338623,0.37290000915527344
1772534577481258500,9.780258544921875,-0.6045874953269958,0.5475249886512756,0.43876248598098755
1772534577491168300,9.790168212890626,-0.6748499870300293,0.6092625260353088,0.5058624744415283
1772534577501078000,9.800078125,-0.7195374965667725,0.7805874943733215,0.6335999965667725
1772534577510988000,9.809988037109376,-0.6887375116348267,1.02753746509552,0.8069875240325928
1772534577520897500,9.8198974609375,-0.5385875105857849,1.1977624893188477,0.9964625239372253
1772534577530807300,9.829807373046876,-0.23100000619888306,1.0775874853134155,1.1646250486373901
1772534577540717300,9.83971728515625,0.14781250059604645,0.8359999656677246,1.3391125202178955
1772534577550626800,9.849626708984376,0.45649999380111694,0.7125250101089478,1.4764750003814697
1772534577560536600,9.85953662109375,0.8916875123977661,0.5167250037193298,1.4764750003814697
1772534577570446600,9.869446533203124,1.3450249433517456,0.31556248664855957,1.5509999990463257
1772534577580356400,9.8793564453125,1.5493500232696533,0.24323749542236328,1.8127999305725098
1772534577590266000,9.88926611328125,1.777187466621399,0.20061250030994415,1.9915499687194824
1772534577600175900,9.89917578125,1.9687249660491943,0.14630000293254852,2.0649750232696533
1772534577610085600,9.909085693359375,1.9442499876022339,0.08882500231266022,2.042562484741211
1772534577619995400,9.918995361328125,1.7089874744415283,0.13887499272823334,1.9064375162124634
1772534577629905200,9.9289052734375,1.266374945640564,0.4123624861240387,1.707337498664856
1772534577639815000,9.93881494140625,0.6671500205993652,0.8072624802589417,1.4520000219345093
1772534577649724700,9.948724609375,0.12443749606609344,1.3243999481201172,1.1583000421524048
1772534577659634400,9.958634521484376,-0.040562499314546585,1.9364124536514282,0.9209749698638916
1772534577669544200,9.968544189453125,0.21381250023841858,2.737762451171875,0.806024968624115
1772534577679454000,9.978453857421876,0.6958875060081482,3.700812578201294,0.8294000029563904
1772534577689363700,9.98836376953125,1.1631125211715698,4.152087688446045,0.8379250168800354
1772534577699273500,9.9982734375,1.2949750423431396,3.787024974822998,0.5931749939918518
1772534577709183200,10.008183349609375,1.3609750270843506,3.190000057220459,0.2377374917268753
1772534577719093200,10.01809326171875,1.4269750118255615,2.484487533569336,0.06627500057220459
1772534577729002800,10.028002685546875,1.6515125036239624,1.4660249948501587,0.12168750166893005
1772534577738912500,10.03791259765625,1.8250374794006348,0.46777498722076416,0.234437495470047
1772534577748822300,10.047822265625,1.7536749839782715,-0.23361249268054962,0.32711249589920044
1772534577758732000,10.05773193359375,1.393975019454956,-0.6092625260353088,0.3770250082015991
1772534577768641800,10.067641845703125,0.9363750219345093,-0.7742624878883362,0.42391249537467957
1772534577778551800,10.0775517578125,0.5064125061035156,-0.6815875172615051,0.39943748712539673
1772534577788461300,10.08746142578125,0.15950000286102295,-0.4123624861240387,0.2844874858856201
1772534577798371000,10.09737109375,-0.13529999554157257,-0.18466250598430634,0.1163249984383583
1772534577808280800,10.10728076171875,-0.3737249970436096,-0.1368124932050705,-0.06132499873638153
1772534577818190800,10.11719091796875,-0.5428500175476074,-0.16128750145435333,-0.2167000025510788
1772534577828100600,10.1271005859375,-0.6418499946594238,-0.17820000648498535,-0.36684998869895935
1772534577838010000,10.137010009765625,-0.6897000074386597,-0.1335124969482422,-0.5242875218391418
1772534577847920000,10.146920166015626,-0.6769124865531921,-0.015399999916553497,-0.6573874950408936
1772534577857830000,10.156829833984375,-0.6567000150680542,0.06435000151395798,-0.782925009727478
1772534577867739600,10.16673974609375,-0.7386500239372253,0.10381250083446503,-0.9255124926567078
1772534577877649400,10.1766494140625,-0.8685874938964844,0.1143999993801117,-1.042525053024292
1772534577887559200,10.18655908203125,-0.975974977016449,0.12402500212192535,-1.1042624711990356
1772534577897469000,10.196468994140625,-1.0377124547958374,0.13255000114440918,-1.128737449645996
1772534577907378700,10.206378662109374,-1.0823999643325806,0.21119999885559082,-1.1309374570846558
1772534577917288400,10.216288330078125,-1.2101374864578247,0.4805625081062317,-1.0894124507904053
1772534577927198200,10.2261982421875,-1.3942500352859497,0.7635374665260315,-0.9138249754905701
1772534577937108000,10.23610791015625,-1.476199984550476,0.6518874764442444,-0.6296125054359436
1772534577947017500,10.246017578125,-1.391087532043457,0.48688748478889465,-0.41786250472068787
1772534577956927500,10.255927490234376,-1.188825011253357,0.8732625246047974,-0.41786250472068787
1772534577966837200,10.265837158203125,-0.8525000214576721,1.2637624740600586,-0.5572875142097473
1772534577976747000,10.2757470703125,-0.4417875111103058,1.833150029182434,-0.8051999807357788
1772534577986656800,10.28565673828125,-0.005499999970197678,2.6291375160217285,-1.0308375358581543
1772534577996566500,10.29556640625,0.3339875042438507,3.376312494277954,-1.0202499628067017
1772534578006476300,10.305476318359375,0.5299249887466431,3.8509624004364014,-0.6648125052452087
1772534578016386000,10.315385986328126,0.6096749901771545,3.897712469100952,-0.13378749787807465
1772534578026295800,10.3252958984375,0.5097125172615051,3.314574956893921,0.4175874888896942
1772534578036205600,10.33520556640625,-0.04592499881982803,1.9299499988555908,0.7368624806404114
1772534578046115600,10.345115478515625,-0.8313249945640564,-0.822112500667572,0.48881250619888306
1772534578056025000,10.355025146484374,-0.7833374738693237,-2.5386624336242676,0.28558748960494995
1772534578065934800,10.364934814453125,0.3180375099182129,-0.9541124701499939,0.4409624934196472
1772534578075844600,10.3748447265625,1.3695000410079956,1.120074987411499,0.4675000011920929
1772534578085754400,10.38475439453125,1.1864874362945557,1.397825002670288,0.8507124781608582
1772534578095664400,10.394664306640625,0.2223374992609024,0.4049375057220459,1.6116374731063843
1772534578105574100,10.40457421875,-0.6802124977111816,-0.37193748354911804,1.3114750385284424
1772534578115484000,10.41448388671875,-1.2346124649047852,-0.7093625068664551,0.1313125044107437
1772534578125393700,10.4243935546875,-1.683687448501587,-1.2913999557495117,-0.5678749680519104
1772534578135303400,10.434303466796875,-1.9274749755859375,-1.7511999607086182,-0.46681249141693115
1772534578145213200,10.444213134765626,-1.9816499948501587,-1.706512451171875,0.09184999763965607
1772534578155123000,10.454123046875,-1.734837532043457,-1.1402875185012817,0.5654000043869019
1772534578165032700,10.46403271484375,-1.132449984550476,-0.2484624981880188,0.684612512588501
1772534578174942200,10.473942138671875,-0.41084998846054077,0.5252500176429749,0.3515875041484833
1772534578184852000,10.48385205078125,-0.07782500237226486,1.0987625122070312,-0.17943750321865082
1772534578194762000,10.493761962890625,-0.008662499487400055,1.6863000392913818,-0.5094375014305115
1772534578204671700,10.503671630859374,0.025437500327825546,1.51277494430542,-0.5561875104904175
1772534578214581500,10.51358154296875,-0.033137500286102295,0.38788750767707825,-0.46254998445510864
1772534578224491000,10.523490966796874,-0.2480500042438507,-0.6146249771118164,-0.346637487411499
1772534578234401000,10.533401123046875,-0.403425008058548,-0.8998000025749207,-0.3114374876022339
1772534578244310800,10.543310791015625,-0.3854124844074249,-0.7614749670028687,-0.3891249895095825
1772534578254220300,10.55322021484375,-0.30346250534057617,-0.4390375018119812,-0.4465999901294708
1772534578264130300,10.56313037109375,-0.25657498836517334,-0.05912499874830246,-0.467912495136261
1772534578274040000,10.5730400390625,-0.22893749177455902,0.28366249799728394,-0.4796000123023987
1772534578283949800,10.58294970703125,-0.19910000264644623,0.5167250037193298,-0.47533750534057617
1772534578293859600,10.592859619140626,-0.18314999341964722,0.6485875248908997,-0.4636499881744385
1772534578303769300,10.602769287109375,-0.1970375031232834,0.6624749898910522,-0.4487999975681305
1772534578313679000,10.61267919921875,-0.23746250569820404,0.5933125019073486,-0.4221250116825104
1772534578323588900,10.6225888671875,-0.29067498445510864,0.5720000267028809,-0.3657499849796295
1772534578333498600,10.63249853515625,-0.33742499351501465,0.5454624891281128,-0.31459999084472656
1772534578343408400,10.642408447265625,-0.38967499136924744,0.5869874954223633,-0.25616249442100525
1772534578353318100,10.652318115234374,-0.4395875036716461,0.7039999961853027,-0.18369999527931213
1772534578363227600,10.6622275390625,-0.46626248955726624,0.8454874753952026,-0.13474999368190765
1772534578373137700,10.6721376953125,-0.45883750915527344,0.9721249938011169,-0.09748750180006027
1772534578383047400,10.68204736328125,-0.42157500982284546,1.0733250379562378,-0.052799999713897705
1772534578392957200,10.691957275390624,-0.41084998846054077,1.094499945640564,-0.0028874999843537807
1772534578402867000,10.701866943359375,-0.4045250117778778,1.1339625120162964,0.05458749830722809
1772534578412776700,10.711776611328125,-0.38967499136924744,1.1966625452041626,0.1120624989271164
1772534578422686500,10.7216865234375,-0.3619000017642975,1.2179750204086304,0.17063750326633453
1772534578432596200,10.73159619140625,-0.273624986410141,1.213712453842163,0.234437495470047
1772534578442506200,10.74150634765625,-0.20019999146461487,1.2626625299453735,0.2770625054836273
1772534578452415700,10.751415771484375,-0.17256249487400055,1.2478125095367432,0.2983750104904175
1772534578462325800,10.76132568359375,-0.18424999713897705,1.1265374422073364,0.303600013256073
1772534578472235500,10.771235595703125,-0.21615000069141388,1.0381250381469727,0.31542500853538513
1772534578482145000,10.78114501953125,-0.18314999341964722,1.0796500444412231,0.38981249928474426
1772534578492054800,10.7910546875,-0.06297499686479568,1.2350250482559204,0.5282750129699707
1772534578501964500,10.800964599609374,0.04028749838471413,1.3158749341964722,0.6356624960899353
1772534578511874600,10.81087451171875,-0.030937500298023224,1.0828125476837158,0.6654999852180481
1772534578521784000,10.8207841796875,-0.10339999943971634,0.9274374842643738,0.7889750003814697
1772534578531693800,10.83069384765625,-0.06710000336170197,0.8445249795913696,0.890037477016449
1772534578541603600,10.840603515625,-0.028875000774860382,0.7444249987602234,0.8496124744415283
1772534578551513600,10.850513671875,0.002062499988824129,0.7891125082969666,0.7420874834060669
1772534578561423000,10.860423095703124,0.06696250289678574,0.9657999873161316,0.6538124680519104
1772534578571332900,10.870332763671875,0.09776250272989273,1.0605374574661255,0.600600004196167
1772534578581242600,10.88024267578125,0.0775500014424324,0.9327999949455261,0.5707625150680542
1772534578591152400,10.89015234375,0.07438749819993973,0.7093625068664551,0.583549976348877
1772534578601062100,10.900062255859375,0.16692499816417694,0.515625,0.6239749789237976
1772534578610972000,10.909971923828126,0.3106124997138977,0.48262500762939453,0.7272375226020813
1772534578620882000,10.9198818359375,0.4606249928474426,0.6391000151634216,0.927299976348877
1772534578630791400,10.92979150390625,0.6150375008583069,0.6443250179290771,1.1401499509811401
1772534578640701400,10.939701416015625,0.7917249798774719,0.4581499993801117,1.2721500396728516
1772534578650611200,10.949611083984376,0.9800999760627747,0.4464625120162964,1.4722124338150024
1772534578660521000,10.95952099609375,1.1386375427246094,0.4208875000476837,1.7041749954223633
1772534578670430700,10.9694306640625,1.2450624704360962,0.3750999867916107,1.965975046157837
1772534578680340500,10.979340576171875,1.3279750347137451,0.22288750112056732,2.1554501056671143
1772534578690250200,10.989250244140624,1.452549934387207,0.03135000169277191,2.153249979019165
1772534578700160000,10.999159912109375,1.6813499927520752,0.002612499985843897,2.0362374782562256
1772534578710069500,11.009069580078124,1.897362470626831,0.16651250422000885,1.884024977684021
1772534578719979500,11.0189794921875,2.019737482070923,0.4251500070095062,1.6455999612808228
1772534578729889300,11.02888916015625,2.0239999294281006,0.7284749746322632,1.3029500246047974
1772534578739799000,11.038799072265626,1.9750499725341797,1.1274999380111694,0.9219374656677246
1772534578749708800,11.048708740234375,2.038987398147583,1.5969250202178955,0.5570124983787537
1772534578759618300,11.058618408203126,2.2644875049591064,1.7649500370025635,0.21752500534057617
1772534578769528300,11.0685283203125,2.5146000385284424,1.639412522315979,-0.06668750196695328
1772534578779438000,11.07843798828125,2.5711123943328857,1.3158749341964722,-0.27211248874664307
1772534578789347600,11.08834765625,2.2433125972747803,0.9179499745368958,-0.3922874927520752
1772534578799257300,11.09825732421875,1.6739250421524048,0.552887499332428,-0.41359999775886536
1772534578809167400,11.10816748046875,1.099174976348877,0.2293500006198883,-0.3731749951839447
1772534578819076900,11.118076904296874,0.6395124793052673,0.0016499999910593033,-0.430649995803833
1772534578828986600,11.127986572265625,0.2681249976158142,-0.28792500495910645,-0.6232874989509583
1772534578838896600,11.137896728515624,-0.05967500060796738,-0.5230500102043152,-0.9201499819755554
1772534578848806400,11.147806396484375,-0.259737491607666,-0.6220499873161316,-1.211787462234497
1772534578858716000,11.1577158203125,-0.4343625009059906,-0.6687999963760376,-1.3756874799728394
1772534578868626000,11.1676259765625,-0.6429499983787537,-0.6422625184059143,-1.4374250173568726
1772534578878535700,11.17753564453125,-0.8525000214576721,-0.5827249884605408,-1.4385249614715576
1772534578888445400,11.187445556640625,-1.0356500148773193,-0.45608749985694885,-1.4374250173568726
1772534578898355000,11.19735498046875,-1.2005125284194946,-0.2527250051498413,-1.4832124710083008
1772534578908265000,11.207264892578126,-1.3772000074386597,-0.04633750021457672,-1.564062476158142
1772534578918174700,11.2171748046875,-1.5666749477386475,0.09308750182390213,-1.6352875232696533
1772534578928084500,11.22708447265625,-1.7635749578475952,0.1676124930381775,-1.6715874671936035
1772534578937994200,11.236994140625,-1.9349000453948975,0.15166249871253967,-1.6619625091552734
1772534578947904000,11.246904052734376,-2.08174991607666,0.01223750039935112,-1.6417499780654907
1772534578957813800,11.256813720703125,-2.2445499897003174,-0.202674999833107,-1.6161749362945557
1772534578967723300,11.26672314453125,-2.4382874965667725,-0.46351251006126404,-1.538487434387207
1772534578977633300,11.27663330078125,-2.621299982070923,-0.7253124713897705,-1.4214749336242676
1772534578987543000,11.28654296875,-2.705312490463257,-1.04458749294281,-1.2479499578475952
1772534578997452800,11.296452880859375,-2.547874927520752,-1.5522375106811523,-0.9436625242233276
1772534579007362600,11.306362548828124,-2.1434874534606934,-2.0960500240325928,-0.5296499729156494
1772534579017272300,11.316272216796875,-1.7050000429153442,-2.0141000747680664,-0.3082749843597412
1772534579027182000,11.32618212890625,-1.3367749452590942,-1.362762451171875,-0.40617498755455017
1772534579037091800,11.336091796875,-1.0015499591827393,-0.6848874688148499,-0.5274500250816345
1772534579047001600,11.346001708984375,-0.6599999666213989,-0.25808748602867126,-0.46254998445510864
1772534579056911400,11.355911376953125,-0.27252501249313354,0.04729999974370003,-0.3763374984264374
1772534579066821000,11.365821044921875,0.16060000658035278,0.35378751158714294,-0.4870249927043915
1772534579076731000,11.37573095703125,0.4244624972343445,0.5273125171661377,-0.6668750047683716
1772534579086640600,11.385640625,0.4235000014305115,0.5560500025749207,-0.6243875026702881
1772534579096550400,11.39555029296875,0.25203749537467957,0.7561125159263611,-0.24117499589920044
1772534579106460200,11.405460205078125,0.10092499852180481,1.546875,0.3792249858379364
1772534579116370200,11.4153701171875,0.14464999735355377,2.772825002670288,0.9432500004768372
1772534579126279700,11.42527978515625,0.19676250219345093,3.8860249519348145,1.363587498664856
1772534579136189400,11.435189453125,0.12443749606609344,3.21447491645813,0.8006625175476074
1772534579146099200,11.44509912109375,-0.0798875018954277,0.7071624994277954,-0.5242875218391418
1772534579156009000,11.455009033203124,-0.29493749141693115,-1.1072875261306763,-0.8392999768257141
1772534579165918700,11.464918701171875,-0.113987497985363,-1.892687439918518,-0.6605499982833862
1772534579175828500,11.474828369140624,0.5670499801635742,-0.3772999942302704,0.219587504863739
1772534579185738200,11.48473828125,1.1045374870300293,3.8487625122070312,1.9958125352859497
1772534579195648000,11.49464794921875,0.8948500156402588,4.535162448883057,2.2383625507354736
1772534579205558000,11.50455810546875,0.5926250219345093,1.6915249824523926,1.3018499612808228
1772534579215467500,11.514467529296875,0.28613749146461487,-0.776324987411499,1.0433499813079834
1772534579225377300,11.524377197265625,0.03712499886751175,-1.8257249593734741,0.8368250131607056
1772534579235287000,11.534287109375,-0.07562500238418579,-2.6855125427246094,0.31542500853538513
1772534579245196800,11.54419677734375,-0.2747249901294708,-2.031012535095215,0.3143250048160553
1772534579255106800,11.55410693359375,-0.4811125099658966,-0.9189124703407288,0.4324375092983246
1772534579265016300,11.564016357421876,-0.5502749681472778,-0.4017750024795532,0.16101250052452087
1772534579274926000,11.573926025390625,-0.5046250224113464,-0.06655000150203705,-0.2539624869823456
1772534579284835800,11.5838359375,-0.4725874960422516,0.3059374988079071,-0.6051374673843384
1772534579294745900,11.593745849609375,-0.4970625042915344,0.5421624779701233,-0.7882875204086304
1772534579304655400,11.6036552734375,-0.5619624853134155,0.645425021648407,-0.7680749893188477
1772534579314565400,11.6135654296875,-0.5875374674797058,0.6114624738693237,-0.6115999817848206
1772534579324475100,11.62347509765625,-0.594962477684021,0.3825249969959259,-0.4562250077724457
1772534579334384600,11.633384521484375,-0.6184750199317932,0.03464999794960022,-0.3550249934196472
1772534579344294400,11.64329443359375,-0.6216375231742859,-0.2293500006198883,-0.2465374916791916
1772534579354204400,11.653204345703125,-0.5609999895095825,-0.29961249232292175,-0.11783749610185623
1772534579364114200,11.6631142578125,-0.46626248955726624,-0.21876250207424164,0.0013749999925494194
1772534579374023700,11.673023681640625,-0.40658751130104065,-0.0952875018119812,0.0812624990940094
1772534579383933700,11.68293359375,-0.3811500072479248,-0.009074999950826168,0.10573749989271164
1772534579393843500,11.692843505859376,-0.3651999831199646,0.18039999902248383,0.18342499434947968
1772534579403753200,11.702753173828125,-0.3917374908924103,0.4624125063419342,0.28022500872612
1772534579413662700,11.712662841796876,-0.4141499996185303,0.49857500195503235,0.27390000224113464
1772534579423572700,11.72257275390625,-0.38005000352859497,0.46777498722076416,0.26963749527931213
1772534579433482500,11.732482421875,-0.334262490272522,0.5730999708175659,0.31638750433921814
1772534579443392000,11.74239208984375,-0.3492499887943268,0.5816249847412109,0.29727500677108765
1772534579453302000,11.752302001953124,-0.334262490272522,0.5741999745368958,0.2993375062942505
1772534579463211800,11.762211669921875,-0.23746250569820404,0.729574978351593,0.4016374945640564
1772534579473121500,11.77212158203125,-0.12787500023841858,0.8986999988555908,0.5101249814033508
1772534579483031300,11.78203125,-0.05115000158548355,0.9828500151634216,0.526075005531311
1772534579492941000,11.791941162109374,0.008387500420212746,0.9849125146865845,0.4782249927520752
1772534579502850800,11.801850830078125,0.0541750006377697,1.0892750024795532,0.4515500068664551
1772534579512760600,11.811760498046874,0.14354999363422394,1.1818125247955322,0.4250124990940094
1772534579522670300,11.82167041015625,0.27018749713897705,1.2541375160217285,0.4600749909877777
1772534579532580000,11.831580078125,0.3755125105381012,1.2904374599456787,0.609125018119812
1772534579542489900,11.84148974609375,0.49156248569488525,1.1317625045776367,0.7655999660491943
1772534579552399600,11.851399658203125,0.6489999890327454,0.9040625095367432,0.9762499928474426
1772534579562309400,11.861309326171876,0.8629499673843384,0.7347999811172485,1.2645875215530396
1772534579572219100,11.87121923828125,1.0939500331878662,0.645425021648407,1.622225046157837
1772534579582129000,11.88112890625,1.3195874691009521,0.4965125024318695,2.01066255569458
1772534579592038700,11.89103857421875,1.5100250244140625,0.2942500114440918,2.2661375999450684
1772534579601948400,11.900948486328126,1.7154500484466553,0.2644124925136566,2.3480875492095947
1772534579611858200,11.910858154296875,1.9474124908447266,0.4815250039100647,2.1958749294281006
1772534579621767700,11.920767578125,2.110212564468384,0.8849499821662903,1.7467999458312988
1772534579631677700,11.930677734375,2.17511248588562,1.2574374675750732,1.2561999559402466
1772534579641587500,11.94058740234375,2.185837507247925,1.3573999404907227,0.8644624948501587
1772534579651497200,11.950497314453125,2.2368500232696533,1.1147124767303467,0.5505499839782715
1772534579661406700,11.96040673828125,2.432650089263916,0.6209499835968018,0.3866499960422516
1772534579671316700,11.970316650390625,2.5614874362945557,0.0037124999798834324,0.3078624904155731
1772534579681226500,11.9802265625,2.4550623893737793,-0.40287500619888306,0.2546499967575073
1772534579691136300,11.99013623046875,2.087937593460083,-0.40287500619888306,0.17379999160766602
1772534579701045800,12.000045654296875,1.5015000104904175,-0.179299995303154,0.010999999940395355
1772534579710955800,12.009955810546876,0.8853625059127808,0.10271249711513519,-0.19648750126361847
1772534579730775300,12.029775390625,0.038224998861551285,0.3858250081539154,-0.7669749855995178
1772534579740685000,12.03968505859375,-0.21504999697208405,0.22192500531673431,-1.0851500034332275
1772534579750594800,12.0495947265625,-0.45663750171661377,-0.03244999796152115,-1.351212501525879
1772534579760504600,12.059504638671875,-0.6567000150680542,-0.17077499628067017,-1.5512750148773193
1772534579770414300,12.069414306640626,-0.7790749669075012,-0.26977500319480896,-1.6801124811172485
1772534579780324000,12.079323974609375,-0.9025499820709229,-0.3741374909877777,-1.7407499551773071
1772534579790233900,12.08923388671875,-1.049399971961975,-0.4305124878883362,-1.7726500034332275
1772534579800143600,12.0991435546875,-1.180299997329712,-0.44536250829696655,-1.806749939918518
1772534579810053400,12.109053466796874,-1.3102375268936157,-0.4273499846458435,-1.8429124355316162
1772534579819963100,12.118963134765625,-1.5390374660491943,-0.4166249930858612,-1.880174994468689
1772534579829873000,12.128872802734374,-1.8358999490737915,-0.4846875071525574,-1.8939249515533447
1772534579839782700,12.13878271484375,-2.1360623836517334,-0.5730999708175659,-1.890762448310852
1772534579849692400,12.1486923828125,-2.446812391281128,-0.6539499759674072,-1.8748124837875366
1772534579859602200,12.158602294921875,-2.724562406539917,-0.9179499745368958,-1.8002874851226807
1772534579869512000,12.168511962890625,-2.887362480163574,-1.4660249948501587,-1.5608999729156494
1772534579879421700,12.178421630859376,-2.76705002784729,-2.478024959564209,-1.0202499628067017
1772534579889331500,12.18833154296875,-2.187074899673462,-3.7636499404907227,-0.43601250648498535
1772534579899241200,12.1982412109375,-1.4357750415802002,-4.297837257385254,-0.19552500545978546
1772534579909151000,12.20815087890625,-0.8908625245094299,-3.377274990081787,-0.3221625089645386
1772534579919061000,12.21806103515625,-0.4885374903678894,-1.4957250356674194,-0.5647125244140625
1772534579928970500,12.227970458984375,0.036024998873472214,0.04839999973773956,-0.794612467288971
1772534579938880300,12.23788037109375,0.5245624780654907,0.6763625144958496,-0.988349974155426
1772534579948790000,12.2477900390625,0.725724995136261,0.6763625144958496,-1.1022000312805176
1772534579958699800,12.25769970703125,0.6395124793052673,0.3102000057697296,-1.0032000541687012
1772534579968609500,12.267609619140625,0.33192500472068787,0.16335000097751617,-0.5444999933242798
1772534579978519300,12.277519287109374,0.032862499356269836,1.1126500368118286,0.2503874897956848
1772534579988429000,12.287428955078125,-0.06297499686479568,2.711087465286255,1.095462441444397
1772534579998338800,12.2973388671875,-0.04262499883770943,3.1953625679016113,1.624424934387207
1772534580008248600,12.30724853515625,0.2063875049352646,0.5944125056266785,0.39627498388290405
1772534580018158300,12.317158447265625,0.2106499969959259,-1.0679625272750854,-0.5285499691963196
1772534580028068000,12.327068115234376,0.08181250095367432,-1.9449374675750732,-0.6084374785423279
1772534580037977900,12.336977783203125,0.23086249828338623,-1.7958874702453613,-0.408237487077713
1772534580047887600,12.3468876953125,0.38940000534057617,1.1477124691009521,0.7357624769210815
1772534580057797600,12.356797607421875,0.29782500863075256,2.1459624767303467,0.8815125226974487
1772534580067707100,12.36670703125,0.29356250166893005,2.342862606048584,0.5570124983787537
1772534580077617000,12.376616943359375,0.4298250079154968,2.249224901199341,0.5941374897956848
1772534580087526700,12.386526611328126,0.3148750066757202,0.6646749973297119,0.36959999799728394
1772534580097436400,12.3964365234375,0.09886249899864197,-1.18607497215271,-0.010312499478459358
1772534580107346200,12.40634619140625,-0.057612501084804535,-1.8342499732971191,-0.1751749962568283
1772534580117256000,12.416255859375,-0.3097875118255615,-1.7171000242233276,-0.17737500369548798
1772534580127166000,12.426166015625,-0.6375874876976013,-1.370187520980835,-0.1592250019311905
1772534580137075500,12.436075439453125,-0.8845375180244446,-0.822112500667572,-0.09748750180006027
1772534580146985500,12.4459853515625,-0.9887624979019165,-0.3198249936103821,-0.08373750001192093
1772534580156895200,12.455895263671875,-0.9622250199317932,-0.03464999794960022,-0.1933249980211258
1772534580166805000,12.465804931640625,-0.8685874938964844,0.15798750519752502,-0.3433375060558319
1772534580176714500,12.475714599609375,-0.7673875093460083,0.28888750076293945,-0.46997499465942383
1772534580186624300,12.485624267578125,-0.7334250211715698,0.27197501063346863,-0.56045001745224
1772534580196534300,12.4955341796875,-0.7929624915122986,0.19318750500679016,-0.589187502861023
1772534580206444000,12.505444091796875,-0.8196374773979187,0.19318750500679016,-0.5350124835968018
1772534580216353500,12.515353515625,-0.7823749780654907,0.2634499967098236,-0.453062504529953
1772534580226263600,12.525263671875,-0.6993250250816345,0.3825249969959259,-0.37427499890327454
1772534580236173300,12.53517333984375,-0.6067875027656555,0.6891499757766724,-0.2997500002384186
1772534580246082800,12.545082763671875,-0.5268999934196472,1.1786500215530396,-0.21463750302791595
1772534580255992600,12.55499267578125,-0.44288748502731323,1.462725043296814,-0.09748750180006027
1772534580265902300,12.56490234375,-0.3151499927043915,1.184975028038025,0.06104999780654907
1772534580275812400,12.574812255859374,-0.12457499653100967,0.6496874690055847,0.2876499891281128
1772534580285721900,12.584721923828125,0.04675000160932541,0.2484624981880188,0.5164499878883362
1772534580295631600,12.594631591796874,0.08923749625682831,0.18246249854564667,0.6984999775886536
1772534580305541400,12.604541259765625,0.05953750014305115,0.26124998927116394,0.7559750080108643
1772534580315451400,12.614451416015624,0.12113749980926514,0.3772999942302704,0.6888750195503235
1772534580325361000,12.62436083984375,0.23512500524520874,0.5486249923706055,0.6228749752044678
1772534580335271000,12.63427099609375,0.3063499927520752,0.5688375234603882,0.5590749979019165
1772534580345180700,12.6441806640625,0.3339875042438507,0.5081999897956848,0.5335000157356262
