time,seconds_elapsed,z,y,x
1772729655886609000,0.07560888671875,0,0,0
1772729655896609000,0.085609130859375,-0.17255592346191406,0.17569702863693237,0.03267502784729004
1772729655906609000,0.09560888671875,0.014540672302246094,0.20774060487747192,0.09699821472167969
1772729655916609000,0.105609130859375,0.4492483139038086,0.13335305452346802,0.08077526092529297
1772729655926609000,0.11560888671875,0.7939491271972656,-0.11397868394851685,-0.008638143539428711
1772729655936609000,0.125609130859375,0.9584751129150391,-0.21612489223480225,0.04667854309082031
1772729655946609000,0.13560888671875,0.7498369216918945,-0.16145020723342896,0.017435073852539062
1772729655956609000,0.145609130859375,0.45330333709716797,-0.05723303556442261,-0.11563754081726074
1772729655966609000,0.15560888671875,0.12810230255126953,-0.03437197208404541,-0.04701066017150879
1772729655976609000,0.165609130859375,0.031640052795410156,-0.002870917320251465,0.07742071151733398
1772729655986609000,0.17560888671875,-0.13238811492919922,0.03464847803115845,-0.10692477226257324
1772729655996609000,0.185609130859375,-0.38632869720458984,0.08476284146308899,-0.18123435974121094
1772729656006609000,0.19560888671875,-0.3347177505493164,0.0566047728061676,-0.01921391487121582
1772729656016609000,0.205609130859375,-0.09039592742919922,-0.03981730341911316,-0.04095816612243652
1772729656026609000,0.21560888671875,0.2795677185058594,-0.3494510054588318,-0.012809514999389648
1772729656036609000,0.225609130859375,0.4556884765625,-0.5892155170440674,-0.053137779235839844
1772729656046609000,0.23560888671875,0.43595027923583984,-0.6728159189224243,-0.08661961555480957
1772729656056609000,0.245609130859375,0.3681297302246094,-0.5732626914978027,-0.1551952362060547
1772729656066609000,0.25560888671875,0.3656740188598633,-0.44680720567703247,-0.15805721282958984
1772729656076609000,0.265609130859375,0.2725248336791992,-0.28859204053878784,-0.044649600982666016
1772729656086609000,0.27560888671875,0.1488971710205078,0.0394439697265625,-0.02626633644104004
1772729656096609000,0.285609130859375,0.004263877868652344,0.3316119909286499,0.04228377342224121
1772729656106609000,0.29560888671875,0.06039905548095703,0.25224828720092773,0.0930933952331543
1772729656116609000,0.305609130859375,-0.24991321563720703,0.4637264907360077,-0.04365968704223633
1772729656126609000,0.31560888671875,-0.13320350646972656,1.4581680297851562,0.1906261444091797
1772729656136609000,0.325609130859375,0.4258747100830078,1.7310211658477783,0.2494950294494629
1772729656146609000,0.33560888671875,0.4174222946166992,2.288869619369507,-0.24385809898376465
1772729656156609000,0.345609130859375,-0.06508350372314453,2.4196114540100098,-0.3711700439453125
1772729656166609000,0.35560888671875,-0.4634075164794922,1.6544241905212402,-0.0990135669708252
1772729656176609000,0.365609130859375,-0.5943174362182617,0.8087736964225769,-0.18863558769226074
1772729656186609000,0.37560888671875,-0.5695524215698242,0.2680618166923523,-0.16769742965698242
1772729656196609000,0.385609130859375,-0.38367366790771484,0.09204182028770447,-0.006403446197509766
1772729656206609000,0.39560888671875,-0.2746753692626953,0.058891505002975464,-0.14885640144348145
1772729656216609000,0.405609130859375,-0.20790958404541016,-0.09976717829704285,-0.3889894485473633
1772729656226609000,0.41560888671875,-0.11364078521728516,-0.426513135433197,-0.4775228500366211
1772729656236609000,0.425609130859375,0.19133567810058594,-0.6979920864105225,-0.47403597831726074
1772729656246609000,0.43560888671875,0.6133022308349609,-0.9280586242675781,-0.31629014015197754
1772729656256609000,0.445609130859375,0.5941829681396484,-0.9388266801834106,-0.4167168140411377
1772729656266609000,0.45560888671875,0.3519172668457031,-0.6717360019683838,-0.4507100582122803
1772729656276609000,0.465609130859375,0.24155330657958984,-0.35711613297462463,-0.2588942050933838
1772729656286609000,0.47560888671875,0.3577709197998047,-0.5364277362823486,0.40845537185668945
1772729656296609000,0.485609130859375,0.1545705795288086,-0.28223320841789246,0.45017576217651367
1772729656306609000,0.49560888671875,-0.16192150115966797,0.289363294839859,0.14909696578979492
1772729656316609000,0.505609130859375,-0.22461700439453125,0.614719569683075,0.05054950714111328
1772729656326609000,0.51560888671875,-0.16693115234375,0.38749486207962036,0.08315539360046387
1772729656336609000,0.525609130859375,-0.2644233703613281,-0.012424830347299576,0.10282182693481445
1772729656346609000,0.53560888671875,-0.37869739532470703,-0.2562190294265747,0.20014119148254395
1772729656356609000,0.545609130859375,-0.33832263946533203,-0.38950684666633606,0.2664303779602051
1772729656366609000,0.55560888671875,-0.2489147186279297,-0.6008887887001038,0.466045618057251
1772729656376609000,0.565609130859375,-0.18620967864990234,-0.8110263347625732,0.7341113090515137
1772729656386609000,0.57560888671875,-0.2051677703857422,-0.9858509302139282,0.9009120464324951
1772729656396609000,0.585609130859375,-0.2574777603149414,-0.99442058801651,0.7989380359649658
1772729656406609000,0.59560888671875,-0.4648551940917969,-0.87026047706604,0.6451756954193115
1772729656416609000,0.605609130859375,-0.6691350936889648,-0.8200119733810425,0.18700814247131348
1772729656426609000,0.61560888671875,-1.1904115676879883,-0.95409095287323,-0.7824521064758301
1772729656436609000,0.625609130859375,-1.8471946716308594,-0.656457781791687,-1.6085145473480225
1772729656446609000,0.63560888671875,-1.8430290222167969,-0.38316571712493896,-1.599686622619629
1772729656456609000,0.645609130859375,-1.6364188194274902,-0.7235082387924194,0.16148090362548828
1772729656466609000,0.65560888671875,0.7906532287597656,-0.9001109600067139,1.8035922050476074
1772729656476609000,0.665609130859375,2.0378122329711914,-0.7962393760681152,1.3593356609344482
1772729656486609000,0.67560888671875,1.7600889205932617,-0.7576501369476318,0.15615487098693848
1772729656496609000,0.685609130859375,0.9396200180053711,-0.0364953875541687,-0.5271844863891602
1772729656506609000,0.69560888671875,0.836578369140625,0.6557388305664062,-0.2765469551086426
1772729656516609000,0.705609130859375,0.6588115692138672,1.0840203762054443,-0.37508487701416016
1772729656526609000,0.71560888671875,0.39034080505371094,1.2728461027145386,-0.5867710113525391
1772729656536609000,0.725609130859375,0.41541004180908203,1.2057411670684814,-0.6931252479553223
1772729656546609000,0.73560888671875,0.9060029983520508,1.1047496795654297,-0.6510882377624512
1772729656556609000,0.745609130859375,1.4740047454833984,0.8682649731636047,-0.16008472442626953
1772729656566609000,0.75560888671875,1.2957649230957031,0.315238356590271,-0.14108037948608398
1772729656576609000,0.765609130859375,0.48773860931396484,0.24480512738227844,-0.23712539672851562
1772729656586609000,0.77560888671875,-0.08295154571533203,0.6459324955940247,-0.10135746002197266
1772729656596609000,0.785609130859375,-0.00731658935546875,0.628150224685669,0.24536418914794922
1772729656606609000,0.79560888671875,-0.18754959106445312,0.5660890936851501,0.27201366424560547
1772729656616609000,0.805609130859375,-0.1699380874633789,0.5950532555580139,0.06704378128051758
1772729656626609000,0.81560888671875,0.08832263946533203,0.5115199089050293,-0.24338340759277344
1772729656636609000,0.825609130859375,0.5556983947753906,0.17859718203544617,-0.506157398223877
1772729656646609000,0.83560888671875,0.8025131225585938,-0.08654537796974182,-0.37311553955078125
1772729656656609000,0.845609130859375,0.8339672088623047,-0.2681673765182495,-0.08103609085083008
1772729656666609000,0.85560888671875,0.6156253814697266,-0.23398184776306152,-0.006572723388671875
1772729656676609000,0.865609130859375,0.3140707015991211,-0.059009432792663574,0.005939006805419922
1772729656686609000,0.87560888671875,0.1600341796875,0.01933532953262329,0.1805858612060547
1772729656696609000,0.885609130859375,-0.15587139129638672,-0.064421147108078,0.15578365325927734
1772729656706609000,0.89560888671875,-0.243621826171875,-0.29077455401420593,0.05312061309814453
1772729656716609000,0.905609130859375,-0.18072032928466797,-0.5487176179885864,0.22040653228759766
1772729656726609000,0.91560888671875,-0.07391071319580078,-0.7326095104217529,0.2802252769470215
1772729656736609000,0.925609130859375,0.1583251953125,-0.9401037693023682,0.26285886764526367
1772729656746609000,0.93560888671875,0.13242721557617188,-1.0500190258026123,0.1788806915283203
1772729656756609000,0.945609130859375,0.08222103118896484,-1.4008979797363281,0.17626476287841797
1772729656766609000,0.95560888671875,-0.3597221374511719,-2.0202248096466064,0.5999343395233154
1772729656776609000,0.965609130859375,-1.4079303741455078,-2.8563179969787598,1.3024084568023682
1772729656786609000,0.97560888671875,-1.570775032043457,-3.5065701007843018,1.8677740097045898
1772729656796609000,0.985609130859375,-1.9759235382080078,-4.2968525886535645,2.3915886878967285
1772729656806609000,0.99560888671875,-3.0301012992858887,-5.068419456481934,2.8741440773010254
1772729656816609000,1.005609130859375,-3.7351274490356445,-5.761710166931152,2.903750419616699
1772729656826609000,1.01560888671875,-3.002756118774414,-7.271143436431885,3.091667890548706
1772729656836609000,1.025609130859375,-4.28375244140625,-7.91448450088501,4.248063087463379
1772729656846609000,1.03560888671875,-5.743197441101074,-8.010720252990723,5.681325912475586
1772729656856609000,1.045609130859375,-6.381486415863037,-7.806766033172607,5.9829182624816895
1772729656866609000,1.05560888671875,-5.408100128173828,-7.413200378417969,5.465351581573486
1772729656876609000,1.065609130859375,-4.250718116760254,-7.195904731750488,4.847877502441406
1772729656886609000,1.07560888671875,-3.4993886947631836,-6.826834678649902,4.150111198425293
1772729656896609000,1.085609130859375,-2.90116024017334,-6.3724493980407715,3.6030707359313965
1772729656906609000,1.09560888671875,-2.488457202911377,-6.370131492614746,3.316856861114502
1772729656916609000,1.105609130859375,-2.827934741973877,-6.274691581726074,2.9964752197265625
1772729656926609000,1.11560888671875,-3.401761531829834,-5.8332390785217285,2.8025269508361816
1772729656936609000,1.125609130859375,-3.9422459602355957,-5.807218551635742,2.493488311767578
1772729656946609000,1.13560888671875,-4.468365669250488,-6.111507415771484,1.9754457473754883
1772729656956609000,1.145609130859375,-4.702775955200195,-6.424774169921875,1.2341322898864746
1772729656966609000,1.15560888671875,-5.119921684265137,-7.281128883361816,0.21961116790771484
1772729656976609000,1.165609130859375,-3.5016937255859375,-7.778993606567383,-1.5762443542480469
1772729656986609000,1.17560888671875,-2.878919839859009,-6.368049621582031,-3.8290977478027344
1772729656996609000,1.185609130859375,-2.356144905090332,-6.015863418579102,-5.581173896789551
1772729657006609000,1.19560888671875,-2.048539161682129,-5.686455726623535,-6.83228874206543
1772729657016609000,1.205609130859375,-2.3185536861419678,-5.2429938316345215,-7.758813858032227
1772729657026609000,1.21560888671875,-2.8559980392456055,-5.067588806152344,-8.56008529663086
1772729657036609000,1.225609130859375,-3.153214454650879,-5.135065078735352,-9.344162940979004
1772729657046609000,1.23560888671875,-4.089463233947754,-5.072624206542969,-10.291023254394531
1772729657056609000,1.245609130859375,-4.987544059753418,-4.713581085205078,-11.22752571105957
1772729657066609000,1.25560888671875,-5.619471549987793,-4.599408149719238,-12.04387092590332
1772729657076609000,1.265609130859375,-5.427984237670898,-4.841691970825195,-12.247784614562988
1772729657086609000,1.27560888671875,-5.20094633102417,-4.9787092208862305,-11.75563907623291
1772729657096609000,1.285609130859375,-5.600951671600342,-4.867905616760254,-11.639806747436523
1772729657106609000,1.29560888671875,-6.113583087921143,-4.770740509033203,-11.639541625976562
1772729657116609000,1.305609130859375,-6.057374954223633,-4.592855453491211,-11.672277450561523
1772729657126609000,1.31560888671875,-5.616570472717285,-4.29024600982666,-11.879829406738281
1772729657136609000,1.325609130859375,-5.106266975402832,-3.9602746963500977,-11.762075424194336
1772729657146609000,1.33560888671875,-4.346286773681641,-3.60538387298584,-11.328803062438965
1772729657156609000,1.345609130859375,-3.8586068153381348,-3.5491418838500977,-10.767963409423828
1772729657166609000,1.35560888671875,-3.226541519165039,-3.399136543273926,-10.318883895874023
1772729657176609000,1.365609130859375,-2.351182460784912,-3.193439483642578,-9.943784713745117
1772729657186609000,1.37560888671875,-1.67133367061615,-2.452061653137207,-9.494986534118652
1772729657196609000,1.385609130859375,-0.9867053031921387,-2.055185317993164,-9.051366806030273
1772729657206609000,1.39560888671875,-0.5089786052703857,-1.972808837890625,-8.730130195617676
1772729657216609000,1.405609130859375,-0.3009343147277832,-1.5675344467163086,-8.579166412353516
1772729657226609000,1.41560888671875,-0.1682889461517334,-1.1251134872436523,-8.578339576721191
1772729657236609000,1.425609130859375,-0.03268742561340332,-0.9570302963256836,-8.509122848510742
1772729657246609000,1.43560888671875,-0.07841181755065918,-0.43521881103515625,-8.466949462890625
1772729657256609000,1.445609130859375,0.08476042747497559,0.30423927307128906,-8.147622108459473
1772729657266609000,1.45560888671875,0.3737616539001465,0.9564323425292969,-7.760392189025879
1772729657276609000,1.465609130859375,0.9648532867431641,1.2093896865844727,-7.241302490234375
1772729657286609000,1.47560888671875,1.6393344402313232,1.510695457458496,-6.635130405426025
1772729657296609000,1.485609130859375,2.317988872528076,1.9005107879638672,-6.113519668579102
1772729657306609000,1.49560888671875,2.9271488189697266,1.6654129028320312,-5.369002342224121
1772729657316609000,1.505609130859375,3.5972423553466797,1.418912410736084,-4.591383934020996
1772729657326609000,1.51560888671875,4.185052871704102,2.0970425605773926,-4.07693338394165
1772729657336609000,1.525609130859375,4.927365779876709,3.139220714569092,-4.070775508880615
1772729657346609000,1.53560888671875,5.6711297035217285,3.9696779251098633,-4.233626365661621
1772729657356609000,1.545609130859375,6.319407939910889,4.3817949295043945,-4.356236457824707
1772729657366609000,1.55560888671875,6.8506927490234375,4.65413761138916,-4.545225143432617
1772729657376609000,1.565609130859375,6.93585729598999,4.964422225952148,-4.608089447021484
1772729657386609000,1.57560888671875,6.556266784667969,4.47911262512207,-3.988816261291504
1772729657396609000,1.585609130859375,5.948240756988525,3.0656614303588867,-2.7358498573303223
1772729657406609000,1.59560888671875,4.917786598205566,2.0272703170776367,-1.4876377582550049
1772729657416609000,1.605609130859375,4.035400867462158,1.44441556930542,-0.6271710395812988
1772729657426609000,1.61560888671875,2.8767592906951904,1.0862255096435547,-0.274735689163208
1772729657436609000,1.625609130859375,2.5354087352752686,0.32599973678588867,0.07508563995361328
1772729657446609000,1.63560888671875,2.186995267868042,-0.7637991905212402,1.2156825065612793
1772729657456609000,1.645609130859375,1.977043867111206,-2.0874814987182617,2.2417469024658203
1772729657466609000,1.65560888671875,1.7530498504638672,-2.6944098472595215,2.3833656311035156
1772729657476609000,1.665609130859375,0.8369011878967285,-2.683462142944336,2.3688697814941406
1772729657486609000,1.67560888671875,0.14879608154296875,-2.8823108673095703,2.7545368671417236
1772729657496609000,1.685609130859375,-0.048625946044921875,-2.488349437713623,3.1735830307006836
1772729657506609000,1.69560888671875,-0.054726600646972656,-1.133713722229004,2.985421895980835
1772729657516609000,1.705609130859375,0.7394089698791504,0.3831300735473633,2.0504961013793945
1772729657526609000,1.71560888671875,1.8920066356658936,1.3775320053100586,1.2018589973449707
1772729657536609000,1.725609130859375,3.0798637866973877,1.3237667083740234,0.8025577068328857
1772729657546609000,1.73560888671875,3.0833940505981445,0.9667105674743652,0.8649101257324219
1772729657556609000,1.745609130859375,2.0401437282562256,0.6704435348510742,0.9507899284362793
1772729657566609000,1.75560888671875,0.6863546371459961,0.09319782257080078,0.7188844680786133
1772729657576609000,1.765609130859375,-0.00991058349609375,-0.5273995399475098,0.1670687198638916
1772729657586609000,1.77560888671875,-1.3101906776428223,-0.22563457489013672,-0.7976188659667969
1772729657596609000,1.785609130859375,-1.8572711944580078,0.24809551239013672,-1.8859726190567017
1772729657606609000,1.79560888671875,-2.2992911338806152,0.9395155906677246,-2.255612373352051
1772729657616609000,1.805609130859375,-2.73648738861084,1.9187994003295898,-2.118004560470581
1772729657626609000,1.81560888671875,-2.6361284255981445,2.838028907775879,-1.443981647491455
1772729657636609000,1.825609130859375,-1.7517476081848145,3.758702278137207,-0.3729279041290283
1772729657646609000,1.83560888671875,-0.3886146545410156,4.667897701263428,0.5357897281646729
1772729657656609000,1.845609130859375,1.4122390747070312,5.084949493408203,1.189758062362671
1772729657666609000,1.85560888671875,3.3833117485046387,5.41434383392334,1.6261885166168213
1772729657676609000,1.865609130859375,4.616779327392578,5.912936210632324,1.5053901672363281
1772729657686609000,1.87560888671875,5.164148807525635,4.579494476318359,1.240736484527588
1772729657696609000,1.885609130859375,2.846695899963379,2.2878313064575195,0.2751474380493164
1772729657706609000,1.89560888671875,-21.16598892211914,-22.372474670410156,12.446800231933594
1772729657716609000,1.905609130859375,-6.733929634094238,1.8275628089904785,-3.3624179363250732
1772729657726609000,1.91560888671875,1.8782687187194824,-5.097864151000977,-5.364806175231934
1772729657736609000,1.925609130859375,-0.1410045623779297,-1.4115753173828125,-4.781221389770508
1772729657746609000,1.93560888671875,0.03868556022644043,-1.6719694137573242,-4.007797718048096
1772729657756609000,1.945609130859375,2.045084238052368,-2.5381979942321777,-4.55988883972168
1772729657766609000,1.95560888671875,2.3338375091552734,-2.50831937789917,-4.569865703582764
1772729657776609000,1.965609130859375,1.768631935119629,-1.7941961288452148,-5.156905174255371
1772729657786609000,1.97560888671875,1.2032370567321777,-1.7303752899169922,-6.694572448730469
1772729657796609000,1.985609130859375,0.7900476455688477,1.534769058227539,-11.593894004821777
1772729657806609000,1.99560888671875,7.33682918548584,-0.15859127044677734,-7.731352806091309
1772729657816609000,2.005609130859375,6.810302734375,-7.230687141418457,1.1521763801574707
1772729657826609000,2.01560888671875,0.24260807037353516,-6.993682861328125,1.858076810836792
1772729657836609000,2.025609130859375,8.003044128417969,-2.4200658798217773,-3.6785755157470703
1772729657846609000,2.03560888671875,5.5894975662231445,-3.4912309646606445,0.9586589336395264
1772729657856609000,2.045609130859375,1.4047518968582153,-0.4162635803222656,-3.0388364791870117
1772729657866609000,2.05560888671875,-1.9520784616470337,1.6052932739257812,-5.0639543533325195
1772729657876609000,2.065609130859375,-2.6952624320983887,1.819021224975586,-2.942699432373047
1772729657886609000,2.07560888671875,-2.88244366645813,0.5859050750732422,2.8628058433532715
1772729657896609000,2.085609130859375,-7.2121381759643555,-0.19902324676513672,7.946462154388428
1772729657906609000,2.09560888671875,-8.65580940246582,-2.9212045669555664,25.079612731933594
1772729657916609000,2.105609130859375,-7.000974178314209,-3.6880407333374023,21.77873420715332
1772729657926609000,2.11560888671875,-3.8524484634399414,3.9055891036987305,3.615853786468506
1772729657936609000,2.125609130859375,0.1263413429260254,7.53447151184082,1.4239556789398193
1772729657946609000,2.13560888671875,1.6116869449615479,8.930257797241211,2.5153653621673584
1772729657956609000,2.145609130859375,3.413649082183838,9.206182479858398,2.4887542724609375
1772729657966609000,2.15560888671875,4.585700035095215,7.788579940795898,1.2714221477508545
1772729657976609000,2.165609130859375,3.9903345108032227,5.934755802154541,0.3044583797454834
1772729657986609000,2.17560888671875,2.711376190185547,3.8851318359375,-2.481923818588257
1772729657996609000,2.185609130859375,0.7159011363983154,4.540526866912842,-6.509381294250488
1772729658006609000,2.19560888671875,1.0009243488311768,4.521916389465332,-1.5808231830596924
1772729658016609000,2.205609130859375,1.1892364025115967,3.651639938354492,-2.861520767211914
1772729658026609000,2.21560888671875,-1.9993085861206055,-0.7592153549194336,-5.104442596435547
1772729658036609000,2.225609130859375,-2.4337410926818848,-1.9020776748657227,-3.469290256500244
1772729658046609000,2.23560888671875,-0.3664201498031616,-4.430329322814941,-4.274747848510742
1772729658056609000,2.245609130859375,0.9180494546890259,-6.085936546325684,-4.2092156410217285
1772729658066609000,2.25560888671875,0.8307644128799438,-7.068404197692871,-1.1625323295593262
1772729658076609000,2.265609130859375,-0.3224576711654663,-6.086191177368164,1.0112385749816895
1772729658086609000,2.27560888671875,0.4144666790962219,-6.216170310974121,2.9856631755828857
1772729658096609000,2.285609130859375,0.5740168690681458,-6.230968475341797,3.2254953384399414
1772729658106609000,2.29560888671875,-0.5402102470397949,-5.170278549194336,1.9308805465698242
1772729658116609000,2.305609130859375,-0.9877771139144897,-3.766672134399414,1.2792460918426514
1772729658126609000,2.31560888671875,-1.4923372268676758,-4.321979522705078,1.7130000591278076
1772729658136609000,2.325609130859375,-2.0559728145599365,-4.846189498901367,2.3482930660247803
1772729658146609000,2.33560888671875,-0.18175184726715088,-3.268674850463867,1.154307246208191
1772729658156609000,2.345609130859375,-0.4798452854156494,-0.8807487487792969,0.7259938716888428
1772729658166609000,2.35560888671875,0.03657090663909912,-0.39926624298095703,0.4146685004234314
1772729658176609000,2.365609130859375,0.18565905094146729,0.7806720733642578,0.6542748212814331
1772729658186609000,2.37560888671875,-0.2623631954193115,0.7678050994873047,0.5220710039138794
1772729658196609000,2.385609130859375,-0.5208706855773926,0.7070322036743164,0.10954496264457703
1772729658206609000,2.39560888671875,-0.5708431005477905,1.0805835723876953,0.39781513810157776
1772729658216609000,2.405609130859375,-0.6158444881439209,0.9501924514770508,0.5426052808761597
1772729658226609000,2.41560888671875,-0.5620997548103333,1.3798456192016602,1.179064393043518
1772729658236609000,2.425609130859375,-0.2184571623802185,2.983267307281494,2.2183473110198975
1772729658246609000,2.43560888671875,1.1137197017669678,3.4627084732055664,1.9183610677719116
1772729658256609000,2.445609130859375,4.736370086669922,5.68613338470459,-0.8588559627532959
1772729658266609000,2.45560888671875,2.51815128326416,4.0703911781311035,-2.556077480316162
1772729658276609000,2.465609130859375,-4.387803554534912,-7.086764335632324,1.464055061340332
1772729658286609000,2.47560888671875,-2.1333353519439697,-6.298178672790527,2.3512074947357178
1772729658296609000,2.485609130859375,0.5919733047485352,-2.259420394897461,-0.0778484046459198
1772729658306609000,2.49560888671875,1.087386965751648,-2.100311279296875,-1.3807775974273682
1772729658316609000,2.505609130859375,-0.08922433853149414,-1.885502815246582,-0.7011706829071045
1772729658326609000,2.51560888671875,-0.9659807682037354,-2.815542221069336,0.799472451210022
1772729658336609000,2.525609130859375,-0.37906473875045776,-2.9080543518066406,-0.2835884094238281
1772729658346609000,2.53560888671875,0.22737514972686768,-1.8860912322998047,-0.5444577932357788
1772729658356609000,2.545609130859375,0.2663378119468689,-0.937952995300293,-0.12849098443984985
1772729658366609000,2.55560888671875,1.099567174911499,-0.4462890625,-0.6435396671295166
1772729658376609000,2.565609130859375,0.1429576277732849,-0.4791584014892578,-0.7928045988082886
1772729658386609000,2.57560888671875,-0.16451120376586914,-0.24795246124267578,-0.2196669578552246
1772729658396609000,2.585609130859375,-0.2724018692970276,0.9264211654663086,-0.3788037896156311
1772729658406609000,2.59560888671875,0.4517389237880707,1.0263853073120117,-0.6304614543914795
1772729658416609000,2.605609130859375,-0.46661609411239624,-0.36287879943847656,-0.4427669048309326
1772729658426609000,2.61560888671875,0.7054633498191833,-1.6395130157470703,0.40692299604415894
1772729658436609000,2.625609130859375,-0.5165791511535645,-1.030165672302246,0.3682290315628052
1772729658446609000,2.63560888671875,0.5390498638153076,0.6251974105834961,-0.35119885206222534
1772729658456609000,2.645609130859375,-1.1850773096084595,3.236053943634033,-4.0283732414245605
1772729658466609000,2.65560888671875,-1.9188446998596191,1.3474617004394531,-4.114717960357666
1772729658476609000,2.665609130859375,-1.522191047668457,-3.9940662384033203,-3.0695550441741943
1772729658486609000,2.67560888671875,0.6939448118209839,-2.230081558227539,0.8327532410621643
1772729658496609000,2.685609130859375,-0.12439489364624023,-0.8322572708129883,1.983661413192749
1772729658506609000,2.69560888671875,-0.07784730195999146,-2.1425914764404297,1.3655822277069092
1772729658516609000,2.705609130859375,0.3098258376121521,-2.1344261169433594,1.041027545928955
1772729658526609000,2.71560888671875,-0.25082927942276,-1.690220832824707,1.1334675550460815
1772729658536609000,2.725609130859375,1.0813629627227783,-2.2299089431762695,1.3660715818405151
1772729658546609000,2.73560888671875,1.8574657440185547,-0.8503637313842773,0.32816874980926514
1772729658556609000,2.745609130859375,0.2948180139064789,0.6007966995239258,-0.6345748901367188
1772729658566609000,2.75560888671875,-0.5785525441169739,1.5287675857543945,-0.4480822682380676
1772729658576609000,2.765609130859375,-0.7767529487609863,3.0096187591552734,-0.01865464448928833
1772729658586609000,2.77560888671875,-0.18693071603775024,4.09843635559082,0.6136307716369629
1772729658596609000,2.785609130859375,0.4796963930130005,4.342644691467285,1.228085994720459
1772729658606609000,2.79560888671875,0.538409948348999,2.7899160385131836,1.2884840965270996
1772729658616609000,2.805609130859375,0.21466434001922607,0.8945493698120117,1.1000268459320068
1772729658626609000,2.81560888671875,-0.13628625869750977,0.1528177261352539,1.0503907203674316
1772729658636609000,2.825609130859375,-0.2316908836364746,-0.008738517761230469,0.8820671439170837
1772729658646609000,2.83560888671875,-0.38198304176330566,0.0803232192993164,0.46703702211380005
1772729658656609000,2.845609130859375,-0.44671541452407837,-0.1618824005126953,-0.12731769680976868
1772729658666609000,2.85560888671875,-0.2767605781555176,-0.4256477355957031,-0.4323883056640625
1772729658676609000,2.865609130859375,-0.20432478189468384,-0.635528564453125,-0.7714492082595825
1772729658686609000,2.87560888671875,-0.09402060508728027,-0.8816509246826172,-1.0434396266937256
1772729658696609000,2.885609130859375,0.12465763092041016,-1.0081281661987305,-0.9541198015213013
1772729658706609000,2.89560888671875,0.2469329833984375,-0.6852560043334961,-0.5556633472442627
1772729658716609000,2.905609130859375,0.17297974228858948,-0.25345516204833984,-0.1128939688205719
1772729658726609000,2.91560888671875,0.23409944772720337,-0.07119274139404297,0.1778683364391327
1772729658736609000,2.925609130859375,0.2780647277832031,-0.05832195281982422,0.437749445438385
1772729658746609000,2.93560888671875,0.20274293422698975,-0.42906761169433594,0.48447614908218384
1772729658756609000,2.945609130859375,0.03082275390625,-0.49628353118896484,0.8764561414718628
1772729658766609000,2.95560888671875,-0.08778387308120728,0.0335693359375,1.1645481586456299
1772729658776609000,2.965609130859375,-0.3088263273239136,0.5771846771240234,1.0506665706634521
1772729658786609000,2.97560888671875,-0.3325207233428955,0.7278165817260742,0.8434783220291138
1772729658796609000,2.985609130859375,-0.2577129006385803,0.4600067138671875,0.8605878353118896
1772729658806609000,2.99560888671875,0.03695017099380493,0.08189964294433594,0.956717848777771
1772729658816609000,3.005609130859375,0.34327423572540283,0.051776885986328125,1.0341135263442993
1772729658826609000,3.01560888671875,0.3812407851219177,0.006720542907714844,1.161203145980835
1772729658836609000,3.025609130859375,0.3820689916610718,-0.14693927764892578,1.2263511419296265
1772729658846609000,3.03560888671875,0.4556676745414734,-0.32855987548828125,1.0302201509475708
1772729658856609000,3.045609130859375,0.5058271884918213,-0.44757747650146484,0.7817026376724243
1772729658866609000,3.05560888671875,0.40574169158935547,-0.6378107070922852,0.6606619954109192
1772729658876609000,3.065609130859375,0.20848220586776733,-0.6476774215698242,0.6266560554504395
1772729658886609000,3.07560888671875,0.06056874990463257,-0.49904918670654297,0.5819050073623657
1772729658896609000,3.085609130859375,0.06266981363296509,-0.19782352447509766,0.5133944749832153
1772729658906609000,3.09560888671875,0.19663631916046143,0.17961788177490234,0.3343410789966583
1772729658916609000,3.105609130859375,0.3348836898803711,0.5434169769287109,0.04414376616477966
1772729658926609000,3.11560888671875,0.2058100402355194,0.5578231811523438,-0.18690581619739532
1772729658936609000,3.125609130859375,-0.05759310722351074,0.38936519622802734,-0.19966250658035278
1772729658946609000,3.13560888671875,-0.3263666331768036,0.3673591613769531,0.1395769715309143
1772729658956609000,3.145609130859375,-0.42453283071517944,0.3020343780517578,0.5028551816940308
1772729658966609000,3.15560888671875,0.0678718090057373,0.87359619140625,0.4079304337501526
1772729658976609000,3.165609130859375,0.22347691655158997,0.3169670104980469,-0.12236682325601578
1772729658986609000,3.17560888671875,-0.43146494030952454,-0.3210334777832031,0.4293656349182129
1772729658996609000,3.185609130859375,-0.4951023757457733,-0.4904594421386719,0.7280499935150146
1772729659006609000,3.19560888671875,-0.34491363167762756,0.24904441833496094,1.0913957357406616
1772729659016609000,3.205609130859375,0.11499196290969849,0.015492439270019531,0.775177001953125
1772729659026609000,3.21560888671875,0.1398814618587494,-0.35697078704833984,0.9010595679283142
1772729659036609000,3.225609130859375,-0.013383477926254272,-0.5257720947265625,1.1347622871398926
1772729659046609000,3.23560888671875,-0.12532171607017517,-0.22580242156982422,1.109591007232666
1772729659056609000,3.245609130859375,0.0017708539962768555,0.18268299102783203,0.8813649415969849
1772729659066609000,3.25560888671875,0.19247972965240479,0.2815876007080078,0.5586154460906982
1772729659076609000,3.265609130859375,0.19038954377174377,0.27240467071533203,0.37537944316864014
1772729659086609000,3.27560888671875,0.2145031988620758,0.21327972412109375,0.2056313306093216
1772729659096609000,3.285609130859375,0.33129796385765076,0.12328815460205078,0.0586957186460495
1772729659106609000,3.29560888671875,0.3947610557079315,0.033408164978027344,-0.028289884328842163
1772729659116609000,3.305609130859375,0.3427388668060303,-0.08980941772460938,-0.12276412546634674
1772729659126609000,3.31560888671875,0.26553115248680115,-0.20700645446777344,-0.3077395260334015
1772729659136609000,3.325609130859375,0.1768587827682495,-0.25997447967529297,-0.47374969720840454
1772729659146609000,3.33560888671875,0.07501080632209778,-0.23227500915527344,-0.4910804033279419
1772729659156609000,3.345609130859375,-0.018240243196487427,-0.1868877410888672,-0.3760119676589966
1772729659166609000,3.35560888671875,-0.02540212869644165,-0.19091510772705078,-0.2792910933494568
1772729659176609000,3.365609130859375,-0.12965404987335205,-0.15946292877197266,-0.16813582181930542
1772729659186609000,3.37560888671875,-0.33526134490966797,-0.06473731994628906,-0.027538061141967773
1772729659196609000,3.385609130859375,-0.4978438913822174,0.060611724853515625,0.038937002420425415
1772729659206609000,3.39560888671875,-0.5676555633544922,0.22069168090820312,0.03278733044862747
1772729659216609000,3.405609130859375,-0.6213592290878296,0.31208324432373047,0.05010978505015373
1772729659226609000,3.41560888671875,-0.6650317907333374,0.3050355911254883,0.12895989418029785
1772729659236609000,3.425609130859375,-0.648613452911377,0.23577404022216797,0.2537347674369812
1772729659246609000,3.43560888671875,-0.5411114692687988,0.21396350860595703,0.30337807536125183
1772729659256609000,3.445609130859375,-0.40093523263931274,0.1913776397705078,0.23201878368854523
1772729659266609000,3.45560888671875,-0.2226770520210266,0.1333761215209961,0.1489408314228058
1772729659276609000,3.465609130859375,-0.07338418066501617,-0.005045890808105469,0.14163565635681152
1772729659286609000,3.47560888671875,-0.051821231842041016,-0.1663227081298828,0.253263384103775
1772729659296609000,3.485609130859375,-0.25218310952186584,-0.334747314453125,0.44522279500961304
1772729659306609000,3.49560888671875,-0.6270341873168945,-0.4568157196044922,0.5627447366714478
1772729659316609000,3.505609130859375,-0.9076361656188965,-0.4042978286743164,0.5234141945838928
1772729659326609000,3.51560888671875,-1.0298322439193726,-0.23390769958496094,0.4049336314201355
1772729659336609000,3.525609130859375,-1.0854281187057495,-0.12192821502685547,0.44989708065986633
1772729659346609000,3.53560888671875,-1.1151123046875,-0.09696388244628906,0.7509661912918091
1772729659356609000,3.545609130859375,-1.1199826002120972,-0.1251850128173828,1.1784422397613525
1772729659366609000,3.55560888671875,-1.1588444709777832,-0.16765975952148438,1.5468107461929321
1772729659376609000,3.565609130859375,-1.339784860610962,-0.231658935546875,1.7010955810546875
1772729659386609000,3.57560888671875,-1.5915237665176392,-0.3146800994873047,1.6379400491714478
1772729659396609000,3.585609130859375,-1.8514745235443115,-0.37583065032958984,1.5076733827590942
1772729659406609000,3.59560888671875,-1.927994966506958,-0.39758777618408203,1.3542520999908447
1772729659416609000,3.605609130859375,-1.9106367826461792,-0.4241781234741211,1.1706997156143188
1772729659426609000,3.61560888671875,-1.8533258438110352,-0.37387752532958984,0.966100811958313
1772729659436609000,3.625609130859375,-1.7349907159805298,-0.2211599349975586,0.7802532315254211
1772729659446609000,3.63560888671875,-1.6408588886260986,0.0638895034790039,0.5929499864578247
1772729659456609000,3.645609130859375,-1.5290919542312622,0.34637451171875,0.413673460483551
1772729659466609000,3.65560888671875,-1.392964482307434,0.5880107879638672,0.27054333686828613
1772729659476609000,3.665609130859375,-1.2671689987182617,0.7697582244873047,0.08276011049747467
1772729659486609000,3.67560888671875,-1.1766705513000488,0.8706493377685547,-0.15683504939079285
1772729659496609000,3.685609130859375,-1.1350897550582886,0.8653554916381836,-0.33626750111579895
1772729659506609000,3.69560888671875,-1.1881144046783447,0.7673301696777344,-0.457516074180603
1772729659516609000,3.705609130859375,-1.1687827110290527,0.5895891189575195,-0.5425602197647095
1772729659526609000,3.71560888671875,-1.3375613689422607,0.3249473571777344,-0.4866819381713867
1772729659536609000,3.725609130859375,-1.5027503967285156,-0.002193450927734375,-0.2904808223247528
1772729659546609000,3.73560888671875,-1.6278048753738403,-0.24242115020751953,-0.02830609679222107
1772729659556609000,3.745609130859375,-1.731256365776062,-0.38023853302001953,0.15963271260261536
1772729659566609000,3.75560888671875,-1.741754174232483,-0.3748188018798828,0.08844593167304993
1772729659576609000,3.765609130859375,-1.7818533182144165,-0.29923534393310547,-0.18256285786628723
1772729659586609000,3.77560888671875,-1.7925764322280884,-0.17047691345214844,-0.6479488015174866
1772729659596609000,3.785609130859375,-1.758588194847107,0.021165847778320312,-1.2122578620910645
1772729659606609000,3.79560888671875,-1.6510491371154785,0.24116992950439453,-1.471670389175415
1772729659616609000,3.805609130859375,-1.5658023357391357,0.3550605773925781,-1.2305779457092285
1772729659626609000,3.81560888671875,-1.4960013628005981,0.46793556213378906,-0.9036731123924255
1772729659636609000,3.825609130859375,-1.6604937314987183,0.7085561752319336,-0.793936014175415
1772729659646609000,3.83560888671875,-1.7505383491516113,0.8194503784179688,-0.9156543016433716
1772729659656609000,3.845609130859375,-1.7884674072265625,0.7756404876708984,-1.1855430603027344
1772729659666609000,3.85560888671875,-1.6935203075408936,0.5779886245727539,-1.5246973037719727
1772729659676609000,3.865609130859375,-1.8777804374694824,0.2734832763671875,-1.4466392993927002
1772729659686609000,3.87560888671875,-2.0873680114746094,0.12279033660888672,-1.0358881950378418
1772729659696609000,3.885609130859375,-2.3046998977661133,0.3607444763183594,-0.3846192955970764
1772729659706609000,3.89560888671875,-2.6130895614624023,0.8583278656005859,0.3233557939529419
1772729659716609000,3.905609130859375,-3.1314480304718018,1.308121681213379,1.0151562690734863
1772729659726609000,3.91560888671875,-3.629469633102417,1.7644596099853516,1.4929242134094238
1772729659736609000,3.925609130859375,-3.8900601863861084,2.0920791625976562,1.646911859512329
1772729659746609000,3.93560888671875,-3.6135871410369873,2.2334394454956055,1.4421188831329346
1772729659756609000,3.945609130859375,-3.207749128341675,2.0276784896850586,1.184258222579956
1772729659766609000,3.95560888671875,-2.9361839294433594,1.4863109588623047,1.031583309173584
1772729659776609000,3.965609130859375,-3.0446982383728027,0.7476654052734375,1.1109734773635864
1772729659786609000,3.97560888671875,-3.307368516921997,0.16440296173095703,1.018523097038269
1772729659796609000,3.985609130859375,-3.29988956451416,-0.19511795043945312,0.5446162223815918
1772729659806609000,3.99560888671875,-3.461122989654541,-0.14521312713623047,0.039514899253845215
1772729659816609000,4.005609130859375,-3.4571986198425293,-0.18090057373046875,-0.44522467255592346
1772729659826609000,4.01560888671875,-3.645387649536133,-0.3916959762573242,-0.9575211405754089
1772729659836609000,4.025609130859375,-3.788867712020874,-0.9917306900024414,-1.583733081817627
1772729659846609000,4.03560888671875,-4.330784320831299,-1.8109121322631836,-2.1110363006591797
1772729659856609000,4.045609130859375,-4.326335906982422,-2.731996536254883,-2.7020812034606934
1772729659866609000,4.05560888671875,-4.156948089599609,-3.6109657287597656,-2.9837329387664795
1772729659876609000,4.065609130859375,-2.2025578022003174,-3.879755973815918,-3.480790615081787
1772729659886609000,4.07560888671875,1.4581571817398071,-4.133462905883789,-5.293771266937256
1772729659896609000,4.085609130859375,2.128263235092163,-5.881043434143066,-8.037606239318848
1772729659906609000,4.09560888671875,-0.9267889857292175,-7.860526084899902,-9.403234481811523
1772729659916609000,4.105609130859375,-4.172704219818115,-7.684576034545898,-9.397313117980957
1772729659926609000,4.11560888671875,-5.836109161376953,-3.7012338638305664,-6.112665176391602
1772729659936609000,4.125609130859375,-6.719993591308594,1.013331413269043,-1.3235746622085571
1772729659946609000,4.13560888671875,-6.364806175231934,3.3674449920654297,1.9474549293518066
1772729659956609000,4.145609130859375,-4.564505577087402,4.666224479675293,3.4213290214538574
1772729659966609000,4.15560888671875,-2.005573034286499,5.591984748840332,3.708488702774048
1772729659976609000,4.165609130859375,-0.7013669013977051,6.105979919433594,4.319213390350342
1772729659986609000,4.17560888671875,-0.12470638751983643,5.744170188903809,5.340258598327637
1772729659996609000,4.185609130859375,1.7027575969696045,4.418272495269775,5.642414093017578
1772729660006609000,4.19560888671875,3.277836799621582,2.8673596382141113,5.129539489746094
1772729660016609000,4.205609130859375,3.8526532649993896,0.5269298553466797,4.837378978729248
1772729660026609000,4.21560888671875,2.9561100006103516,-3.266709327697754,5.893637180328369
1772729660036609000,4.225609130859375,2.205613374710083,-7.431509017944336,6.6812825202941895
1772729660046609000,4.23560888671875,1.2912858724594116,-10.580499649047852,6.691145896911621
1772729660056609000,4.245609130859375,1.0558547973632812,-12.435850143432617,4.689262390136719
1772729660066609000,4.25560888671875,0.8438936471939087,-13.058085441589355,3.1148836612701416
1772729660076609000,4.265609130859375,2.239276170730591,-9.920769691467285,2.542635440826416
1772729660086609000,4.27560888671875,3.5535314083099365,-3.40488338470459,1.8736178874969482
1772729660096609000,4.285609130859375,3.8619399070739746,0.8484735488891602,1.636102557182312
1772729660106609000,4.29560888671875,4.621286392211914,3.114229202270508,1.694705843925476
1772729660116609000,4.305609130859375,4.73741340637207,3.986880302429199,2.2595620155334473
1772729660126609000,4.31560888671875,5.0577392578125,4.06899356842041,3.507676839828491
1772729660136609000,4.325609130859375,5.503628730773926,4.112011909484863,4.602540493011475
1772729660146609000,4.33560888671875,5.9452667236328125,4.169895648956299,5.57689905166626
1772729660156609000,4.345609130859375,6.016730785369873,4.29547119140625,6.084751605987549
1772729660166609000,4.35560888671875,5.769256114959717,4.267210483551025,6.136571884155273
1772729660176609000,4.365609130859375,5.3328447341918945,4.294006824493408,5.870528221130371
1772729660186609000,4.37560888671875,4.487937927246094,4.150513648986816,5.465044021606445
1772729660196609000,4.385609130859375,3.131115198135376,3.3649659156799316,4.82261848449707
1772729660206609000,4.39560888671875,1.2948648929595947,2.122244358062744,3.896928548812866
1772729660216609000,4.405609130859375,-0.67244553565979,0.9441442489624023,2.625126838684082
1772729660226609000,4.41560888671875,-3.0130343437194824,0.6736941337585449,0.7858939170837402
1772729660236609000,4.425609130859375,-6.801968574523926,2.3689751625061035,-2.341200828552246
1772729660246609000,4.43560888671875,-6.561967849731445,4.214337348937988,-5.843991279602051
1772729660256609000,4.445609130859375,-5.053239345550537,5.811025142669678,-11.424724578857422
1772729660266609000,4.45560888671875,-1.2653236389160156,0.2908639907836914,-9.194955825805664
1772729660276609000,4.465609130859375,-0.6430926322937012,-4.499444961547852,-6.749780654907227
1772729660286609000,4.47560888671875,-0.44327831268310547,-4.973866939544678,-8.86812973022461
1772729660296609000,4.485609130859375,1.0170977115631104,-3.5285885334014893,-11.377644538879395
1772729660306609000,4.49560888671875,1.466845989227295,-3.8535006046295166,-11.56765365600586
1772729660316609000,4.505609130859375,0.831101655960083,-5.1259565353393555,-10.514074325561523
1772729660326609000,4.51560888671875,0.600804328918457,-5.441277980804443,-8.377779960632324
1772729660336609000,4.525609130859375,0.07424259185791016,-5.65507173538208,-5.357526779174805
1772729660346609000,4.53560888671875,-2.7091283798217773,-6.275498867034912,-1.807114601135254
1772729660356609000,4.545609130859375,-2.8552417755126953,-6.235169410705566,2.4838485717773438
1772729660366609000,4.55560888671875,-1.7249598503112793,-4.7551727294921875,5.542248725891113
1772729660376609000,4.565609130859375,-0.25801801681518555,-2.3991811275482178,8.530695915222168
1772729660386609000,4.57560888671875,1.3973159790039062,0.015428721904754639,10.987062454223633
1772729660396609000,4.585609130859375,1.6280500888824463,1.7813581228256226,11.285173416137695
1772729660406609000,4.59560888671875,-0.24363279342651367,2.274655342102051,9.189969062805176
1772729660416609000,4.605609130859375,-1.3247723579406738,2.2713327407836914,6.272746562957764
1772729660426609000,4.61560888671875,-1.0987749099731445,1.387407898902893,3.990250587463379
1772729660436609000,4.625609130859375,-0.6515493392944336,0.6393043994903564,2.979678153991699
1772729660446609000,4.63560888671875,-0.19078445434570312,0.2074095457792282,2.961085796356201
1772729660456609000,4.645609130859375,0.14282608032226562,-0.7354991436004639,3.520660400390625
1772729660466609000,4.65560888671875,0.024709224700927734,-2.924837589263916,3.7216405868530273
1772729660476609000,4.665609130859375,0.2560429573059082,-5.171684265136719,3.4051971435546875
1772729660486609000,4.67560888671875,0.802863597869873,-6.188192844390869,3.5654397010803223
1772729660496609000,4.685609130859375,1.218282699584961,-6.258668422698975,4.067070960998535
1772729660506609000,4.69560888671875,1.2815566062927246,-6.10975456237793,4.25665283203125
1772729660516609000,4.705609130859375,0.5235180854797363,-5.819221496582031,3.7838010787963867
1772729660526609000,4.71560888671875,-0.2262265682220459,-5.141852378845215,2.987884521484375
1772729660536609000,4.725609130859375,-0.6634731292724609,-4.445724964141846,2.2398719787597656
1772729660546609000,4.73560888671875,-0.7592368125915527,-3.6280109882354736,1.4419441223144531
1772729660556609000,4.745609130859375,-0.9435160160064697,-2.984511375427246,0.7406473159790039
1772729660566609000,4.75560888671875,-1.4584972858428955,-2.3461551666259766,0.34570884704589844
1772729660576609000,4.765609130859375,-1.9512732028961182,-1.616548776626587,0.3057403564453125
1772729660586609000,4.77560888671875,-2.0887532234191895,-0.9709775447845459,0.17310237884521484
1772729660596609000,4.785609130859375,-1.6939942836761475,-0.16897249221801758,-0.30050182342529297
1772729660606609000,4.79560888671875,-1.020799160003662,0.8786892890930176,-1.2832374572753906
1772729660616609000,4.805609130859375,-0.47373509407043457,1.9492454528808594,-3.1040992736816406
1772729660626609000,4.81560888671875,-0.31288576126098633,2.902581214904785,-5.6591644287109375
1772729660636609000,4.825609130859375,-0.592543363571167,3.593188762664795,-8.546404838562012
1772729660646609000,4.83560888671875,-1.0733819007873535,4.325236797332764,-11.150217056274414
1772729660656609000,4.845609130859375,-1.770392656326294,4.986907482147217,-12.180649757385254
1772729660666609000,4.85560888671875,-2.6952805519104004,5.85822868347168,-10.90374755859375
1772729660676609000,4.865609130859375,-3.6082444190979004,7.52051305770874,-7.982861518859863
1772729660686609000,4.87560888671875,-4.559136867523193,9.414758682250977,-4.500316619873047
1772729660696609000,4.885609130859375,-5.144111156463623,10.389037132263184,-0.550969123840332
1772729660706609000,4.89560888671875,-5.392665863037109,9.850241661071777,2.7575583457946777
1772729660716609000,4.905609130859375,-5.374105453491211,8.858694076538086,5.224440097808838
1772729660726609000,4.91560888671875,-5.189641952514648,7.8114190101623535,6.968692302703857
1772729660736609000,4.925609130859375,-4.518349647521973,6.40578031539917,7.761142730712891
1772729660746609000,4.93560888671875,-3.433187961578369,5.033792495727539,7.3704023361206055
1772729660756609000,4.945609130859375,-2.550825834274292,3.50091814994812,6.2258100509643555
1772729660766609000,4.95560888671875,-1.5472031831741333,1.8349261283874512,4.858911037445068
1772729660776609000,4.965609130859375,-0.5259637832641602,0.47353315353393555,3.0757062435150146
1772729660786609000,4.97560888671875,-0.3199547231197357,-0.7132768630981445,1.0700178146362305
1772729660796609000,4.985609130859375,-0.5540937185287476,-1.9608392715454102,-1.0454301834106445
1772729660806609000,4.99560888671875,-0.6847679018974304,-3.3759307861328125,-3.1747021675109863
1772729660816609000,5.005609130859375,-0.7503311038017273,-4.261895179748535,-5.262923717498779
1772729660826609000,5.01560888671875,-0.3773580491542816,-3.051041603088379,-7.115246772766113
1772729660836609000,5.025609130859375,-0.32981249690055847,0.48276233673095703,-7.153431415557861
1772729660846609000,5.03560888671875,-1.4710323810577393,3.7394866943359375,-5.444259166717529
1772729660856609000,5.045609130859375,-3.308455228805542,5.700775623321533,-3.0309510231018066
1772729660866609000,5.05560888671875,-4.658386707305908,6.703241348266602,-1.222860336303711
1772729660876609000,5.065609130859375,-4.954266548156738,7.210057258605957,-0.5004134178161621
1772729660886609000,5.07560888671875,-4.331460952758789,7.253242492675781,-0.7822616100311279
1772729660896609000,5.085609130859375,-3.349794626235962,6.4082207679748535,-1.1454064846038818
1772729660906609000,5.09560888671875,-2.219167470932007,4.989186763763428,-1.2936832904815674
1772729660916609000,5.105609130859375,-0.572909951210022,3.220428466796875,-1.1201863288879395
1772729660926609000,5.11560888671875,0.7979368567466736,1.0044784545898438,-0.96742844581604
1772729660936609000,5.125609130859375,1.3088257312774658,-1.3036460876464844,-0.9878582954406738
1772729660946609000,5.13560888671875,0.6991663575172424,-4.108530044555664,-1.1701571941375732
1772729660956609000,5.145609130859375,0.015187680721282959,-7.786959648132324,-0.0814826488494873
1772729660966609000,5.15560888671875,0.5423315763473511,-10.88077449798584,1.3782991170883179
1772729660976609000,5.165609130859375,1.6122403144836426,-10.826637268066406,1.6782938241958618
1772729660986609000,5.17560888671875,1.9294332265853882,-8.674040794372559,1.6244083642959595
1772729660996609000,5.185609130859375,1.4717035293579102,-6.247403144836426,1.8465181589126587
1772729661006609000,5.19560888671875,0.9625491499900818,-4.651468276977539,1.8161063194274902
1772729661016609000,5.205609130859375,0.8128887414932251,-3.5752182006835938,0.9708212614059448
1772729661026609000,5.21560888671875,0.7040233016014099,-2.488401412963867,-0.7608978748321533
1772729661036609000,5.225609130859375,0.23331278562545776,-1.8101577758789062,-2.5391628742218018
1772729661046609000,5.23560888671875,-0.4464067220687866,-1.538071632385254,-3.1684718132019043
1772729661056609000,5.245609130859375,-1.326094627380371,-0.9502668380737305,-2.094255208969116
1772729661066609000,5.25560888671875,-3.763413429260254,0.32568931579589844,-0.003936171531677246
1772729661076609000,5.265609130859375,-6.9739861488342285,2.203579902648926,1.6846790313720703
1772729661086609000,5.27560888671875,-8.760375022888184,4.569789886474609,1.9343080520629883
1772729661096609000,5.285609130859375,-8.903412818908691,6.644959926605225,0.7409653663635254
1772729661106609000,5.29560888671875,-8.436577796936035,7.255738735198975,-0.7774484157562256
1772729661116609000,5.305609130859375,-6.954937934875488,6.3654656410217285,-2.0694191455841064
1772729661126609000,5.31560888671875,-4.70521354675293,4.895552635192871,-3.642014980316162
1772729661136609000,5.325609130859375,-2.4346048831939697,2.4529032707214355,-5.099492073059082
1772729661146609000,5.33560888671875,-1.1809173822402954,-0.5420904159545898,-5.687692165374756
1772729661156609000,5.345609130859375,-1.4554920196533203,-2.829435348510742,-5.632468223571777
1772729661166609000,5.35560888671875,-2.6369996070861816,-3.2136478424072266,-5.131477355957031
1772729661176609000,5.365609130859375,-3.9944846630096436,-1.3079214096069336,-4.009085178375244
1772729661186609000,5.37560888671875,-5.8030195236206055,0.6006479263305664,-2.664560079574585
1772729661196609000,5.385609130859375,-6.955643653869629,1.609074592590332,-1.9083937406539917
1772729661206609000,5.39560888671875,-7.433156967163086,1.9988651275634766,-1.4860950708389282
1772729661216609000,5.405609130859375,-7.575899124145508,2.0051088333129883,-1.0138938426971436
1772729661226609000,5.41560888671875,-7.166037559509277,1.6725740432739258,-0.49528825283050537
1772729661236609000,5.425609130859375,-6.497465133666992,0.8282861709594727,0.25548505783081055
1772729661246609000,5.43560888671875,-6.199489593505859,-0.22385120391845703,0.8932535648345947
1772729661256609000,5.445609130859375,-6.14157772064209,-1.1840858459472656,1.3700133562088013
1772729661266609000,5.45560888671875,-5.877893924713135,-1.6525115966796875,1.7797852754592896
1772729661276609000,5.465609130859375,-5.541731834411621,-1.5456275939941406,2.054157257080078
1772729661286609000,5.47560888671875,-5.304999828338623,-1.173365592956543,1.7977099418640137
1772729661296609000,5.485609130859375,-5.410778045654297,-0.8695001602172852,1.153224229812622
1772729661306609000,5.49560888671875,-5.58228874206543,-0.6145048141479492,0.515519380569458
1772729661316609000,5.505609130859375,-5.608053207397461,-0.5073299407958984,0.12415409088134766
1772729661326609000,5.51560888671875,-5.6915998458862305,-0.6487636566162109,0.22698652744293213
1772729661336609000,5.525609130859375,-5.755216598510742,-1.1118583679199219,0.9475395679473877
1772729661346609000,5.53560888671875,-5.577966690063477,-1.8327360153198242,2.0242772102355957
1772729661356609000,5.545609130859375,-5.224250316619873,-2.4564008712768555,3.308473825454712
1772729661366609000,5.55560888671875,-4.847254276275635,-2.8646669387817383,4.75624418258667
1772729661376609000,5.565609130859375,-4.485108375549316,-2.927577018737793,6.007808685302734
1772729661386609000,5.57560888671875,-4.349124908447266,-2.8385162353515625,6.980602264404297
1772729661396609000,5.585609130859375,-4.179798126220703,-2.203042984008789,7.468874454498291
1772729661406609000,5.59560888671875,-3.879871368408203,-1.6031904220581055,7.730968475341797
1772729661416609000,5.605609130859375,-3.7788777351379395,-0.9301996231079102,7.537262439727783
1772729661426609000,5.61560888671875,-3.6348910331726074,-0.16815757751464844,6.758678436279297
1772729661436609000,5.625609130859375,-3.6904077529907227,0.30735015869140625,5.667651653289795
1772729661446609000,5.63560888671875,-3.262505531311035,0.5741786956787109,4.204179763793945
1772729661456609000,5.645609130859375,-2.3953335285186768,0.7265310287475586,2.504192352294922
1772729661466609000,5.65560888671875,-1.3467261791229248,0.7274541854858398,0.7168470621109009
1772729661476609000,5.665609130859375,-1.0007128715515137,0.5192489624023438,-0.8392419815063477
1772729661486609000,5.67560888671875,-1.209996223449707,0.1049652099609375,-1.8046448230743408
1772729661496609000,5.685609130859375,-1.9551582336425781,-0.16766643524169922,-2.2193734645843506
1772729661506609000,5.69560888671875,-3.3455915451049805,-0.1510448455810547,-2.2834901809692383
1772729661516609000,5.705609130859375,-4.787609577178955,0.3795585632324219,-2.150745153427124
1772729661526609000,5.71560888671875,-6.159292697906494,1.3096389770507812,-0.8034324645996094
1772729661536609000,5.725609130859375,-6.986394882202148,2.2629899978637695,1.1704730987548828
1772729661546609000,5.73560888671875,-8.363554000854492,2.962932586669922,2.95798397064209
1772729661556609000,5.745609130859375,-9.539566993713379,3.160747528076172,3.7924647331237793
1772729661566609000,5.75560888671875,-8.083422660827637,2.633688449859619,2.7065188884735107
1772729661576609000,5.765609130859375,-5.180675506591797,1.9012155532836914,-0.7996633052825928
1772729661586609000,5.77560888671875,-3.506417751312256,0.2106027603149414,-6.332616806030273
1772729661596609000,5.785609130859375,-4.736720085144043,-2.8837671279907227,-10.856313705444336
1772729661606609000,5.79560888671875,-8.2363862991333,-6.451838493347168,-8.768619537353516
1772729661616609000,5.805609130859375,-10.059832572937012,-8.595877647399902,-0.9893596172332764
1772729661626609000,5.81560888671875,-6.880276679992676,-6.265275955200195,7.095902442932129
1772729661636609000,5.825609130859375,-4.529245853424072,-1.588057518005371,11.411632537841797
1772729661646609000,5.83560888671875,-3.5697669982910156,3.0422658920288086,11.391488075256348
1772729661656609000,5.845609130859375,-3.0549445152282715,6.242395401000977,10.875880241394043
1772729661666609000,5.85560888671875,-0.1377970278263092,7.529155731201172,9.962839126586914
1772729661676609000,5.865609130859375,3.59382700920105,6.680172920227051,8.176231384277344
1772729661686609000,5.87560888671875,5.412726879119873,3.5339388847351074,3.7596821784973145
1772729661696609000,5.885609130859375,6.435096263885498,0.011050224304199219,0.4346582889556885
1772729661706609000,5.89560888671875,3.992497205734253,-4.0763397216796875,-0.47493624687194824
1772729661716609000,5.905609130859375,3.2957239151000977,-7.4495086669921875,-0.07848453521728516
1772729661726609000,5.91560888671875,2.090938091278076,-10.0984525680542,1.2409801483154297
1772729661736609000,5.925609130859375,1.2675158977508545,-11.222360610961914,3.368835926055908
1772729661746609000,5.93560888671875,1.9858388900756836,-10.906962394714355,5.271692752838135
1772729661756609000,5.945609130859375,2.6560935974121094,-8.297484397888184,6.160344123840332
1772729661766609000,5.95560888671875,3.688093423843384,-3.63576602935791,5.269180774688721
1772729661776609000,5.965609130859375,4.696707248687744,-0.27021121978759766,3.857689619064331
1772729661786609000,5.97560888671875,5.5910797119140625,1.6316642761230469,3.020411491394043
1772729661796609000,5.985609130859375,6.29452657699585,2.4379310607910156,3.121469497680664
1772729661806609000,5.99560888671875,6.540925025939941,2.5791125297546387,3.8955063819885254
1772729661816609000,6.005609130859375,6.587488174438477,2.4198999404907227,4.608516693115234
1772729661826609000,6.01560888671875,6.099812984466553,2.582490921020508,4.475105285644531
1772729661836609000,6.025609130859375,4.980378150939941,2.8557546138763428,3.6680285930633545
1772729661846609000,6.03560888671875,3.5460948944091797,2.654999256134033,2.7254819869995117
1772729661856609000,6.045609130859375,2.177511692047119,2.2140917778015137,2.0495858192443848
1772729661866609000,6.05560888671875,1.0155725479125977,1.920912742614746,1.389279842376709
1772729661876609000,6.065609130859375,0.16497063636779785,1.9549293518066406,0.24746942520141602
1772729661886609000,6.07560888671875,-0.15026354789733887,3.054499626159668,-2.120116710662842
1772729661896609000,6.085609130859375,0.15156102180480957,4.917546272277832,-4.997187614440918
1772729661906609000,6.09560888671875,-1.9468741416931152,9.053461074829102,-11.197606086730957
1772729661916609000,6.105609130859375,-2.119727373123169,10.490396499633789,-14.093048095703125
1772729661926609000,6.11560888671875,-1.9862356185913086,5.175342559814453,-9.795592308044434
1772729661936609000,6.125609130859375,-3.6282572746276855,2.104966878890991,-8.378867149353027
1772729661946609000,6.13560888671875,-4.438136100769043,2.690260887145996,-10.081932067871094
1772729661956609000,6.145609130859375,-3.639927387237549,4.258115768432617,-10.44737434387207
1772729661966609000,6.15560888671875,-3.877784252166748,4.022029876708984,-8.652417182922363
1772729661976609000,6.165609130859375,-5.0163373947143555,0.2128405123949051,-6.184880256652832
1772729661986609000,6.17560888671875,-5.928852081298828,-2.276951789855957,-3.5584402084350586
1772729661996609000,6.185609130859375,-5.904644012451172,-3.60770320892334,-0.3797893524169922
1772729662006609000,6.19560888671875,-5.831615924835205,-4.654445648193359,2.295093536376953
1772729662016609000,6.205609130859375,-5.4344000816345215,-5.514470100402832,3.8883962631225586
1772729662026609000,6.21560888671875,-4.5328593254089355,-5.785238742828369,5.240190029144287
1772729662036609000,6.225609130859375,-3.79573917388916,-5.149845123291016,6.310760021209717
1772729662046609000,6.23560888671875,-3.415902614593506,-3.4822850227355957,6.858247756958008
1772729662056609000,6.245609130859375,-3.0624237060546875,-0.985756516456604,6.681434631347656
1772729662066609000,6.25560888671875,-2.514756679534912,1.4379838705062866,6.043189525604248
1772729662076609000,6.265609130859375,-1.2791824340820312,2.7849836349487305,5.417290210723877
1772729662086609000,6.27560888671875,-0.5618197917938232,3.219876766204834,5.1790771484375
1772729662096609000,6.285609130859375,-0.37729334831237793,3.205110549926758,5.30165433883667
1772729662106609000,6.29560888671875,-0.7800552845001221,3.0419561862945557,5.543547630310059
1772729662116609000,6.305609130859375,-1.5244324207305908,2.687638759613037,5.7264299392700195
1772729662126609000,6.31560888671875,-1.8755824565887451,2.006483793258667,5.8895769119262695
1772729662136609000,6.325609130859375,-1.7553012371063232,0.7935096621513367,5.830190181732178
1772729662146609000,6.33560888671875,-2.7044081687927246,-0.6570644974708557,5.797722339630127
1772729662156609000,6.345609130859375,-2.6253840923309326,-1.8670562505722046,5.668136119842529
1772729662166609000,6.35560888671875,-2.432868480682373,-2.2796809673309326,5.39462947845459
1772729662176609000,6.365609130859375,-2.6810669898986816,-2.2319064140319824,4.53503942489624
1772729662186609000,6.37560888671875,-2.9603354930877686,-1.93873131275177,3.068892002105713
1772729662196609000,6.385609130859375,-3.5341782569885254,-1.2703475952148438,2.012948989868164
1772729662206609000,6.39560888671875,-3.648167133331299,-0.29486703872680664,1.438075065612793
1772729662216609000,6.405609130859375,-3.856651782989502,0.7387052774429321,1.4963297843933105
1772729662226609000,6.41560888671875,-3.969294548034668,1.6753923892974854,1.8261938095092773
1772729662236609000,6.425609130859375,-4.05840539932251,2.344762086868286,2.1521859169006348
1772729662246609000,6.43560888671875,-3.8411922454833984,2.5566179752349854,2.2894554138183594
1772729662256609000,6.445609130859375,-4.040887355804443,2.61368989944458,2.0398502349853516
1772729662266609000,6.45560888671875,-4.294956684112549,2.606034994125366,1.5112838745117188
1772729662276609000,6.465609130859375,-3.9124717712402344,2.5774598121643066,0.6006054878234863
1772729662286609000,6.47560888671875,-3.371223211288452,2.384052038192749,-0.5511369705200195
1772729662296609000,6.485609130859375,-3.2735824584960938,2.256802558898926,-1.9896783828735352
1772729662306609000,6.49560888671875,-3.447835922241211,2.2500314712524414,-3.091472625732422
1772729662316609000,6.505609130859375,-3.690673351287842,2.1348469257354736,-3.562385082244873
1772729662326609000,6.51560888671875,-3.9963414669036865,2.0134410858154297,-3.2387442588806152
1772729662336609000,6.525609130859375,-4.0828986167907715,1.878943920135498,-2.4167442321777344
1772729662346609000,6.53560888671875,-3.8934943675994873,1.8509106636047363,-1.2729473114013672
1772729662356609000,6.545609130859375,-3.6473677158355713,2.5988330841064453,0.12016868591308594
1772729662366609000,6.55560888671875,-3.48158597946167,3.3822245597839355,1.3290667533874512
1772729662376609000,6.565609130859375,-3.6865079402923584,3.6974658966064453,1.7390456199645996
1772729662386609000,6.57560888671875,-3.518706798553467,3.3311257362365723,0.8273458480834961
1772729662396609000,6.585609130859375,-2.6115686893463135,1.8814477920532227,-0.8464055061340332
1772729662406609000,6.59560888671875,-2.3306832313537598,0.1295337677001953,-2.538447856903076
1772729662416609000,6.605609130859375,-2.556396484375,-1.7871036529541016,-3.6703391075134277
1772729662426609000,6.61560888671875,-2.738194465637207,-3.4333324432373047,-4.442080974578857
1772729662436609000,6.625609130859375,-2.347877025604248,-4.437716484069824,-5.173916816711426
1772729662446609000,6.63560888671875,-1.372385025024414,-4.267403602600098,-5.055300712585449
1772729662456609000,6.645609130859375,0.22245049476623535,-2.4713125228881836,-3.758363962173462
1772729662466609000,6.65560888671875,1.7391258478164673,-0.13373661041259766,-2.2241709232330322
1772729662476609000,6.665609130859375,2.0617313385009766,1.7110834121704102,-1.1136484146118164
1772729662486609000,6.67560888671875,1.8070931434631348,2.0611319541931152,0.05227804183959961
1772729662496609000,6.685609130859375,0.8859468698501587,0.8224191665649414,1.8482507467269897
1772729662506609000,6.69560888671875,0.4628913402557373,-1.7891836166381836,4.594986915588379
1772729662516609000,6.705609130859375,0.4725762605667114,-4.111614227294922,6.434805870056152
1772729662526609000,6.71560888671875,0.3632768392562866,-5.464853286743164,6.732514381408691
1772729662536609000,6.725609130859375,0.8440995216369629,-5.467156410217285,6.362551212310791
1772729662546609000,6.73560888671875,2.1023404598236084,-3.860091209411621,5.206307411193848
1772729662556609000,6.745609130859375,2.1918399333953857,-2.3313446044921875,3.2698726654052734
1772729662566609000,6.75560888671875,1.0960406064987183,-1.530862808227539,1.0836238861083984
1772729662576609000,6.765609130859375,0.39724624156951904,-1.0149669647216797,-1.2867693901062012
1772729662586609000,6.77560888671875,-0.29702484607696533,-0.709381103515625,-3.2125730514526367
1772729662596609000,6.785609130859375,-0.5414513349533081,-0.3454418182373047,-4.062839508056641
1772729662606609000,6.79560888671875,-0.5519288182258606,0.5446100234985352,-3.9643616676330566
1772729662616609000,6.805609130859375,-0.9834861755371094,1.9213862419128418,-3.202118396759033
1772729662626609000,6.81560888671875,-2.1101152896881104,3.300884246826172,-1.8537347316741943
1772729662636609000,6.825609130859375,-4.113269329071045,3.8504114151000977,-0.35800325870513916
1772729662646609000,6.83560888671875,-6.249258995056152,3.2371463775634766,0.9061312675476074
1772729662656609000,6.845609130859375,-6.997555255889893,2.093294143676758,1.4472426176071167
1772729662666609000,6.85560888671875,-7.015477180480957,1.208852767944336,0.7114436030387878
1772729662676609000,6.865609130859375,-6.960878372192383,0.4565000534057617,-0.08365881443023682
1772729662686609000,6.87560888671875,-5.629403114318848,-0.4333934783935547,-0.5782917737960815
1772729662696609000,6.885609130859375,-3.6511216163635254,-1.5469083786010742,-1.4767429828643799
1772729662706609000,6.89560888671875,-2.522219657897949,-2.2713241577148438,-2.6273386478424072
1772729662716609000,6.905609130859375,-2.157658100128174,-2.2407350540161133,-3.3994140625
1772729662726609000,6.91560888671875,-1.741613745689392,-1.5637292861938477,-3.329785108566284
1772729662736609000,6.925609130859375,-1.743786096572876,-0.40570735931396484,-2.2894160747528076
1772729662746609000,6.93560888671875,-2.4197938442230225,0.7889251708984375,-0.8438194990158081
1772729662756609000,6.945609130859375,-3.649129629135132,1.7136383056640625,0.07441580295562744
1772729662766609000,6.95560888671875,-4.97130012512207,2.3880701065063477,0.40369105339050293
1772729662776609000,6.965609130859375,-5.9398369789123535,2.8458828926086426,0.49007296562194824
1772729662786609000,6.97560888671875,-6.298985958099365,3.029343605041504,0.5981271862983704
1772729662796609000,6.985609130859375,-6.098570346832275,3.077451705932617,0.4281578063964844
1772729662806609000,6.99560888671875,-5.72325325012207,2.733574867248535,0.08007514476776123
1772729662816609000,7.005609130859375,-5.179122447967529,1.8534278869628906,-0.24902284145355225
1772729662826609000,7.01560888671875,-4.7298784255981445,0.5620527267456055,-0.3680086135864258
1772729662836609000,7.025609130859375,-4.585971832275391,-0.7478876113891602,-0.45855093002319336
1772729662846609000,7.03560888671875,-4.378098487854004,-1.7973566055297852,-0.43981611728668213
1772729662856609000,7.045609130859375,-4.214240550994873,-2.2210845947265625,-0.12288343906402588
1772729662866609000,7.05560888671875,-3.975125312805176,-1.9055061340332031,0.5580348372459412
1772729662876609000,7.065609130859375,-3.754230260848999,-1.2959423065185547,1.2808111906051636
1772729662886609000,7.07560888671875,-3.732459783554077,-0.6604948043823242,1.973998785018921
1772729662896609000,7.085609130859375,-3.5163462162017822,-0.019553184509277344,2.6631851196289062
1772729662906609000,7.09560888671875,-3.4664530754089355,0.5374336242675781,3.271446704864502
1772729662916609000,7.105609130859375,-3.5301272869110107,0.9148426055908203,3.8055624961853027
1772729662926609000,7.11560888671875,-3.3892462253570557,1.0669832229614258,4.258383274078369
1772729662936609000,7.125609130859375,-2.984546184539795,1.010599136352539,4.54798698425293
1772729662946609000,7.13560888671875,-2.6246390342712402,0.7633628845214844,4.665291786193848
1772729662956609000,7.145609130859375,-2.3257100582122803,0.2826881408691406,4.809248924255371
1772729662966609000,7.15560888671875,-1.9469525814056396,-0.3043231964111328,4.966780662536621
1772729662976609000,7.165609130859375,-1.5046426057815552,-0.9776182174682617,5.169970512390137
1772729662986609000,7.17560888671875,-1.12740159034729,-1.62713623046875,5.310526371002197
1772729662996609000,7.185609130859375,-0.9164218306541443,-2.221343994140625,5.38890266418457
1772729663006609000,7.19560888671875,-0.6706498861312866,-2.5924243927001953,5.421972274780273
1772729663016609000,7.205609130859375,-0.29797792434692383,-2.5727052688598633,5.309061527252197
1772729663026609000,7.21560888671875,0.05039340257644653,-2.376980781555176,4.899123668670654
1772729663036609000,7.225609130859375,0.26045769453048706,-2.3227434158325195,4.287717342376709
1772729663046609000,7.23560888671875,0.4421764612197876,-2.255019187927246,3.7344770431518555
1772729663056609000,7.245609130859375,0.924150824546814,-2.040715217590332,3.3915603160858154
1772729663066609000,7.25560888671875,1.1309996843338013,-1.7714214324951172,3.0326671600341797
1772729663076609000,7.265609130859375,1.0959117412567139,-1.5036239624023438,2.647986888885498
1772729663086609000,7.27560888671875,0.7503043413162231,-1.134995460510254,2.3104772567749023
1772729663096609000,7.285609130859375,-0.3422051668167114,-0.6627254486083984,2.116605281829834
1772729663106609000,7.29560888671875,-1.2494362592697144,-0.11973094940185547,1.98240327835083
1772729663116609000,7.305609130859375,-2.5439252853393555,0.4312896728515625,2.080075263977051
1772729663126609000,7.31560888671875,-4.053420543670654,0.9166059494018555,2.442209243774414
1772729663136609000,7.325609130859375,-5.065074920654297,1.355027198791504,2.8233165740966797
1772729663146609000,7.33560888671875,-5.48211669921875,1.83143949508667,2.6969871520996094
1772729663156609000,7.345609130859375,-5.435507774353027,2.259244918823242,1.8785145282745361
1772729663166609000,7.35560888671875,-5.144806385040283,2.292759895324707,1.1091973781585693
1772729663176609000,7.365609130859375,-5.065724849700928,2.102611541748047,0.3665577173233032
1772729663186609000,7.37560888671875,-5.0144734382629395,1.8998055458068848,-0.5289429426193237
1772729663196609000,7.385609130859375,-4.981150150299072,1.8302078247070312,-1.444502830505371
1772729663206609000,7.39560888671875,-5.070638179779053,1.7976617813110352,-2.275192975997925
1772729663216609000,7.405609130859375,-4.891190528869629,1.949568271636963,-3.075093984603882
1772729663226609000,7.41560888671875,-4.161532402038574,2.4891815185546875,-4.001289367675781
1772729663236609000,7.425609130859375,-4.131219863891602,3.0372467041015625,-4.989994525909424
1772729663246609000,7.43560888671875,-3.2888267040252686,2.8783645629882812,-6.566888809204102
1772729663256609000,7.445609130859375,-1.2446825504302979,1.8682003021240234,-9.095817565917969
1772729663266609000,7.45560888671875,-1.6751927137374878,0.8178071975708008,-9.709991455078125
1772729663276609000,7.465609130859375,-3.4273910522460938,0.5082435607910156,-7.520438194274902
1772729663286609000,7.47560888671875,-5.053305625915527,0.6920948028564453,-3.434462070465088
1772729663296609000,7.485609130859375,-5.819476127624512,-0.011474609375,0.4264540672302246
1772729663306609000,7.49560888671875,-4.497406482696533,-2.006331443786621,2.3150007724761963
1772729663316609000,7.505609130859375,-2.6179921627044678,-4.4515180587768555,2.649778127670288
1772729663326609000,7.51560888671875,0.22551631927490234,-6.539580345153809,3.606473922729492
1772729663336609000,7.525609130859375,3.731595039367676,-9.397079467773438,5.787830352783203
1772729663346609000,7.53560888671875,4.118509769439697,-12.308709144592285,6.543558597564697
1772729663356609000,7.545609130859375,0.545055091381073,-14.501001358032227,6.011456489562988
1772729663366609000,7.55560888671875,-1.8582946062088013,-11.102729797363281,3.351693630218506
1772729663376609000,7.565609130859375,-1.3143978118896484,-5.628568649291992,2.8594746589660645
1772729663386609000,7.57560888671875,-0.47891128063201904,-0.8747787475585938,5.522421360015869
1772729663396609000,7.585609130859375,-0.17392992973327637,3.8057546615600586,6.15159797668457
1772729663406609000,7.59560888671875,-0.4992852210998535,7.671880722045898,5.113704681396484
1772729663416609000,7.605609130859375,0.13173246383666992,10.140345573425293,4.43074893951416
1772729663426609000,7.61560888671875,2.3044939041137695,10.784589767456055,3.8079423904418945
1772729663436609000,7.625609130859375,5.4420166015625,10.086377143859863,2.570070266723633
1772729663446609000,7.63560888671875,8.34453010559082,8.603167533874512,0.36560869216918945
1772729663456609000,7.645609130859375,9.630309104919434,7.042105674743652,-2.302903413772583
1772729663466609000,7.65560888671875,8.569448471069336,5.3713555335998535,-4.66452169418335
1772729663476609000,7.665609130859375,5.7933502197265625,3.2087278366088867,-6.830019950866699
1772729663486609000,7.67560888671875,1.8863027095794678,-0.0760955810546875,-8.88747787475586
1772729663496609000,7.685609130859375,-2.494507312774658,-3.2694091796875,-11.143239974975586
1772729663506609000,7.69560888671875,-5.530228137969971,-4.799678325653076,-12.253898620605469
1772729663516609000,7.705609130859375,-6.996718406677246,-4.60221004486084,-13.274225234985352
1772729663526609000,7.71560888671875,-3.489872455596924,-5.451077461242676,-9.188283920288086
1772729663536609000,7.725609130859375,0.2005314826965332,-5.589452743530273,-4.877799034118652
1772729663546609000,7.73560888671875,1.6869854927062988,-5.428191184997559,-2.545186996459961
1772729663556609000,7.745609130859375,-0.04524707794189453,-4.062075614929199,-0.6756720542907715
1772729663566609000,7.75560888671875,-1.8242526054382324,-2.8682708740234375,0.8814554214477539
1772729663576609000,7.765609130859375,-2.009697914123535,-1.9799933433532715,2.152157783508301
1772729663586609000,7.77560888671875,-1.4640212059020996,-1.2137305736541748,2.673023223876953
1772729663596609000,7.785609130859375,-1.0820283889770508,-0.32396626472473145,2.23225736618042
1772729663606609000,7.79560888671875,-0.6281733512878418,0.3520376682281494,1.4025354385375977
1772729663616609000,7.805609130859375,-0.8073606491088867,0.7442500591278076,0.9167537689208984
1772729663626609000,7.81560888671875,-1.638570785522461,0.9298614263534546,0.840630054473877
1772729663636609000,7.825609130859375,-2.2313084602355957,0.27360057830810547,1.451777458190918
1772729663646609000,7.83560888671875,-2.0288267135620117,-0.9222831130027771,2.036770820617676
1772729663656609000,7.845609130859375,-1.1829619407653809,-1.8781638145446777,2.241913318634033
1772729663666609000,7.85560888671875,-0.3969855308532715,-2.4452965259552,2.0388550758361816
1772729663676609000,7.865609130859375,-0.0566248893737793,-2.7705938816070557,1.4951868057250977
1772729663686609000,7.87560888671875,-0.2525038719177246,-2.880101203918457,0.8677740097045898
1772729663696609000,7.885609130859375,-1.1096439361572266,-2.954061269760132,0.15155982971191406
1772729663706609000,7.89560888671875,-2.4372036457061768,-2.98476243019104,-0.5540742874145508
1772729663716609000,7.905609130859375,-3.929100751876831,-2.9896175861358643,-0.9719667434692383
1772729663726609000,7.91560888671875,-4.26355504989624,-2.5368728637695312,-1.0985651016235352
1772729663736609000,7.925609130859375,-3.58782696723938,-1.8496251106262207,-0.2124643325805664
1772729663746609000,7.93560888671875,-2.1721391677856445,-0.4108191728591919,1.239130973815918
1772729663756609000,7.945609130859375,-1.6901683807373047,0.9171295762062073,2.934786796569824
1772729663766609000,7.95560888671875,-1.1480052471160889,2.7606077194213867,4.66650390625
1772729663776609000,7.965609130859375,-1.5208141803741455,5.100790023803711,6.907073020935059
1772729663786609000,7.97560888671875,-1.8653626441955566,8.008915901184082,9.332258224487305
1772729663796609000,7.985609130859375,-2.3540453910827637,10.595112800598145,11.261438369750977
1772729663806609000,7.99560888671875,-3.6663897037506104,11.919829368591309,12.444101333618164
1772729663816609000,8.005609130859375,-4.345198154449463,10.813697814941406,12.556771278381348
1772729663826609000,8.01560888671875,-5.221827983856201,6.3083271980285645,11.637626647949219
1772729663836609000,8.025609130859374,-4.1468610763549805,0.153797447681427,9.368690490722656
1772729663846609000,8.03560888671875,-2.9591493606567383,-4.154501438140869,6.53818416595459
1772729663856609000,8.045609130859376,-2.4212849140167236,-6.564640998840332,3.559251308441162
1772729663866609000,8.05560888671875,-2.544130563735962,-8.187856674194336,0.9065828323364258
1772729663876609000,8.065609130859375,-3.3082237243652344,-8.748453140258789,-1.0293045043945312
1772729663886609000,8.07560888671875,-3.4156997203826904,-7.425207138061523,-2.3012123107910156
1772729663896609000,8.085609130859375,-2.572153329849243,-5.315008163452148,-2.8210268020629883
1772729663906609000,8.09560888671875,-3.0842392444610596,-3.8083226680755615,-2.7747020721435547
1772729663916609000,8.105609130859374,-4.748197078704834,-2.124157667160034,-1.6343822479248047
1772729663926609000,8.11560888671875,-6.644676685333252,0.994941234588623,0.23081684112548828
1772729663936609000,8.125609130859376,-7.294293403625488,4.424943923950195,2.574944496154785
1772729663946609000,8.13560888671875,-6.202767848968506,7.4093732833862305,3.8759007453918457
1772729663956609000,8.145609130859375,-5.3309221267700195,9.64680004119873,3.4300007820129395
1772729663966609000,8.15560888671875,-4.690225601196289,10.091064453125,2.4148645401000977
1772729663976609000,8.165609130859375,-4.107207298278809,8.323676109313965,0.5453805923461914
1772729663986609000,8.17560888671875,-3.5895142555236816,3.9830236434936523,-2.306824207305908
1772729663996609000,8.185609130859374,-3.166374683380127,-1.4354677200317383,-5.008376121520996
1772729664006609000,8.19560888671875,-3.168130397796631,-5.8370232582092285,-6.424739360809326
1772729664016609000,8.205609130859376,-3.32647442817688,-8.211725234985352,-6.727945327758789
1772729664026609000,8.21560888671875,-3.5195369720458984,-7.544346332550049,-5.668608665466309
1772729664036609000,8.225609130859375,-1.8193761110305786,-4.742969989776611,-4.175970554351807
1772729664046609000,8.23560888671875,-0.40522634983062744,-1.6117753982543945,-1.8364591598510742
1772729664056609000,8.245609130859375,-1.2430646419525146,0.49662065505981445,1.7624931335449219
1772729664066609000,8.25560888671875,-2.5360302925109863,1.2308440208435059,5.157959938049316
1772729664076609000,8.265609130859374,-2.84080171585083,1.1207990646362305,7.702739715576172
1772729664086609000,8.27560888671875,-1.9521939754486084,0.1469717025756836,9.40164566040039
1772729664096609000,8.285609130859376,-1.0895326137542725,-1.2900590896606445,9.849148750305176
1772729664106609000,8.29560888671875,-0.8795181512832642,-2.437178611755371,9.105554580688477
1772729664116609000,8.305609130859375,-0.42811471223831177,-3.7509193420410156,7.303708076477051
1772729664126609000,8.31560888671875,-0.23433727025985718,-4.542609214782715,4.759181499481201
1772729664136609000,8.325609130859375,-0.360135018825531,-4.399042129516602,2.094691038131714
1772729664146609000,8.33560888671875,-0.5290437936782837,-4.129349708557129,0.13929080963134766
1772729664156609000,8.345609130859375,-0.7189980745315552,-3.172614097595215,-1.2722465991973877
1772729664166609000,8.35560888671875,-0.3731961250305176,-1.530935287475586,-2.194993257522583
1772729664176609000,8.365609130859376,0.13159185647964478,0.31893253326416016,-2.604037046432495
1772729664186609000,8.37560888671875,-0.6018239259719849,2.1904525756835938,-2.440539598464966
1772729664196609000,8.385609130859375,-0.17133164405822754,3.112901210784912,-2.321460723876953
1772729664206609000,8.39560888671875,0.8555840253829956,2.3065710067749023,-2.161909580230713
1772729664216609000,8.405609130859375,2.065938711166382,0.4442939758300781,-1.6489219665527344
1772729664226609000,8.41560888671875,3.2886528968811035,-1.8842639923095703,-1.1177480220794678
1772729664236609000,8.425609130859375,3.9380404949188232,-4.8871049880981445,-0.4059569835662842
1772729664246609000,8.43560888671875,3.7088449001312256,-8.14826774597168,0.5480959415435791
1772729664256609000,8.445609130859374,4.548885822296143,-10.535005569458008,1.3344464302062988
1772729664266609000,8.45560888671875,6.690751075744629,-9.887857437133789,1.0253386497497559
1772729664276609000,8.465609130859375,5.644436359405518,-6.60795783996582,0.7129671573638916
1772729664286609000,8.47560888671875,2.524137020111084,-3.1380157470703125,0.14016199111938477
1772729664296609000,8.485609130859375,-0.6637861728668213,-0.6885490417480469,-0.7683734893798828
1772729664306609000,8.49560888671875,-2.9375674724578857,1.3121652603149414,-1.3109588623046875
1772729664316609000,8.505609130859375,-3.619431257247925,3.059566020965576,-1.4145030975341797
1772729664326609000,8.51560888671875,-3.5716028213500977,4.087488651275635,-1.2358005046844482
1772729664336609000,8.525609130859374,-3.238896369934082,4.714894771575928,-0.5908787250518799
1772729664346609000,8.53560888671875,-2.2975621223449707,5.0672831535339355,0.3622262477874756
1772729664356609000,8.545609130859376,-1.0027546882629395,5.3097381591796875,1.9912168979644775
1772729664366609000,8.55560888671875,-0.5234413146972656,5.287029266357422,4.248902797698975
1772729664376609000,8.565609130859375,0.5580838918685913,3.5021657943725586,5.243285179138184
1772729664386609000,8.57560888671875,2.1944611072540283,1.5130577087402344,5.774405479431152
1772729664396609000,8.585609130859375,2.7424802780151367,-0.3212728500366211,5.9582929611206055
1772729664406609000,8.59560888671875,2.3412647247314453,-1.5804023742675781,5.924803733825684
1772729664416609000,8.605609130859374,1.4688904285430908,-2.0388641357421875,5.402511119842529
1772729664426609000,8.61560888671875,0.5242810249328613,-1.2329378128051758,4.090111255645752
1772729664436609000,8.625609130859376,-0.15387952327728271,0.5190582275390625,2.8540351390838623
1772729664446609000,8.63560888671875,-0.485434889793396,1.7911405563354492,1.79430091381073
1772729664456609000,8.645609130859375,-0.6880694627761841,1.9360976219177246,0.7750604152679443
1772729664466609000,8.65560888671875,-0.7787042856216431,1.330430030822754,-0.01962113380432129
1772729664476609000,8.665609130859375,-0.5514911413192749,0.18300533294677734,-0.23064231872558594
1772729664486609000,8.67560888671875,-0.1646571159362793,-0.9718856811523438,0.2670633792877197
1772729664496609000,8.685609130859374,0.10276639461517334,-1.6503400802612305,0.6950433254241943
1772729664506609000,8.69560888671875,0.034636616706848145,-1.681060791015625,0.5466375350952148
1772729664516609000,8.705609130859376,-0.3842790126800537,-1.291391372680664,0.3199934959411621
1772729664526609000,8.71560888671875,-0.7157662510871887,-0.7916107177734375,0.11180758476257324
1772729664536609000,8.725609130859375,-0.5736575126647949,-0.12444210052490234,-0.008902788162231445
1772729664546609000,8.73560888671875,-0.4444845914840698,0.1485586166381836,0.006517171859741211
1772729664556609000,8.745609130859375,-0.2771766185760498,0.5041084289550781,0.06426596641540527
1772729664566609000,8.75560888671875,-0.14011383056640625,0.7596607208251953,0.25691699981689453
1772729664576609000,8.765609130859374,-0.108062744140625,0.5772581100463867,0.3780500888824463
1772729664586609000,8.77560888671875,-0.20490038394927979,0.3814992904663086,0.21999812126159668
1772729664596609000,8.785609130859376,-0.2906133532524109,0.11577701568603516,0.006873130798339844
1772729664606609000,8.79560888671875,-0.295055091381073,-0.21715927124023438,0.2749216556549072
1772729664616609000,8.805609130859375,0.09731459617614746,-0.6180429458618164,0.3889477252960205
1772729664626609000,8.81560888671875,0.17062115669250488,-1.2931089401245117,0.2819478511810303
1772729664636609000,8.825609130859375,-0.1285853385925293,-1.3288450241088867,0.39107227325439453
1772729664646609000,8.83560888671875,-0.6384069323539734,-0.739044189453125,0.29575562477111816
1772729664656609000,8.845609130859375,-0.5025684833526611,-0.25197505950927734,0.12602949142456055
1772729664666609000,8.85560888671875,-0.008223354816436768,-0.7308006286621094,0.4893205165863037
1772729664676609000,8.865609130859376,0.3461727499961853,-1.3139257431030273,0.90077805519104
1772729664686609000,8.87560888671875,0.18929952383041382,-1.6583070755004883,1.1031639575958252
1772729664696609000,8.885609130859375,-0.04412198066711426,-2.3769760131835938,1.16367506980896
1772729664706609000,8.89560888671875,-0.3767738938331604,-3.581456184387207,0.9142553806304932
1772729664716609000,8.905609130859375,-0.283436119556427,-4.38081169128418,0.7417442798614502
1772729664726609000,8.91560888671875,0.023393690586090088,-5.225332260131836,0.6225614547729492
1772729664736609000,8.925609130859375,0.1913355588912964,-6.437233924865723,0.09707307815551758
1772729664746609000,8.93560888671875,0.8545787930488586,-6.935667037963867,-0.4974970817565918
1772729664756609000,8.945609130859374,1.6573430299758911,-6.285608291625977,-0.9378905296325684
1772729664766609000,8.95560888671875,1.2417511940002441,-4.5179548263549805,-1.3139986991882324
1772729664776609000,8.965609130859375,1.013427734375,-3.0704431533813477,-1.1575703620910645
1772729664786609000,8.97560888671875,0.7463299036026001,-2.7914438247680664,-0.8148272037506104
1772729664796609000,8.985609130859375,-0.45089149475097656,-1.7977781295776367,0.11964297294616699
1772729664806609000,8.99560888671875,-0.40185296535491943,-2.0523223876953125,0.7576858997344971
1772729664816609000,9.005609130859375,-0.7675244212150574,-2.760763168334961,1.1118321418762207
1772729664826609000,9.01560888671875,0.08000063896179199,-3.9257545471191406,1.0029761791229248
1772729664836609000,9.025609130859374,-0.6258578896522522,-3.538938522338867,1.4583909511566162
1772729664846609000,9.03560888671875,0.13460910320281982,-1.7298965454101562,2.39310359954834
1772729664856609000,9.045609130859376,0.5166747570037842,-0.9564676284790039,2.447221040725708
1772729664866609000,9.05560888671875,1.4028199911117554,0.25310325622558594,0.6831738948822021
1772729664876609000,9.065609130859375,3.462157964706421,1.082188606262207,-1.5690031051635742
1772729664886609000,9.07560888671875,4.595045566558838,0.5906686782836914,-2.905130386352539
1772729664896609000,9.085609130859375,4.43400239944458,-0.13398265838623047,-3.552170753479004
1772729664906609000,9.09560888671875,5.350276470184326,0.1955423355102539,-3.44252872467041
1772729664916609000,9.105609130859374,4.342534065246582,-0.6300935745239258,-3.305067539215088
1772729664926609000,9.11560888671875,5.981105327606201,0.38146018981933594,-3.616218090057373
1772729664936609000,9.125609130859376,9.877764701843262,0.15062618255615234,-3.3729240894317627
1772729664946609000,9.13560888671875,7.5610551834106445,2.1324377059936523,-4.198431015014648
1772729664956609000,9.145609130859375,1.364030361175537,4.986195087432861,-4.254009246826172
1772729664966609000,9.15560888671875,1.025284767150879,5.073657035827637,-4.716128349304199
1772729664976609000,9.165609130859375,2.0397491455078125,4.636555194854736,-5.075435161590576
1772729664986609000,9.17560888671875,0.9880006313323975,4.354650974273682,-6.394781589508057
1772729664996609000,9.185609130859374,1.4082598686218262,3.4600839614868164,-6.253024578094482
1772729665006609000,9.19560888671875,1.741051435470581,2.6236038208007812,-5.506572723388672
1772729665016609000,9.205609130859376,2.07570481300354,2.6951069831848145,-4.703919887542725
1772729665026609000,9.21560888671875,2.555997133255005,3.637695074081421,-4.320017337799072
1772729665036609000,9.225609130859375,2.6905300617218018,4.66856575012207,-4.651773929595947
1772729665046609000,9.23560888671875,2.684462547302246,5.542723655700684,-5.567712783813477
1772729665056609000,9.245609130859375,2.9767203330993652,6.4144978523254395,-6.5008721351623535
1772729665066609000,9.25560888671875,2.623771905899048,6.694411754608154,-7.330435752868652
1772729665076609000,9.265609130859374,1.9882928133010864,6.425633430480957,-7.267347812652588
1772729665086609000,9.27560888671875,1.572035789489746,5.243538856506348,-6.788867950439453
1772729665096609000,9.285609130859376,0.5968052744865417,3.8395466804504395,-5.989185333251953
1772729665106609000,9.29560888671875,-0.7924497127532959,3.59173583984375,-5.824567794799805
1772729665116609000,9.305609130859375,-2.037642002105713,2.6046459674835205,-5.444423675537109
1772729665126609000,9.31560888671875,-2.70743465423584,0.928584098815918,-4.309887886047363
1772729665136609000,9.325609130859375,-3.1393485069274902,-0.98616623878479,-3.2530698776245117
1772729665146609000,9.33560888671875,-3.8127644062042236,-2.3365886211395264,-2.5848140716552734
1772729665156609000,9.345609130859375,-3.809000015258789,-3.199157238006592,-2.048079490661621
1772729665166609000,9.35560888671875,-3.9304702281951904,-3.578745126724243,-1.883366584777832
1772729665176609000,9.365609130859376,-5.0588483810424805,-3.604977607727051,-2.7036142349243164
1772729665186609000,9.37560888671875,-5.639984130859375,-3.850879669189453,-3.6762561798095703
1772729665196609000,9.385609130859375,-4.820822715759277,-4.713805198669434,-4.11442756652832
1772729665206609000,9.39560888671875,-4.42066764831543,-6.498542785644531,-4.045183181762695
1772729665216609000,9.405609130859375,-4.398783206939697,-7.887363910675049,-3.6955556869506836
1772729665226609000,9.41560888671875,-3.874188184738159,-8.4458646774292,-2.525510787963867
1772729665236609000,9.425609130859375,-3.5368402004241943,-8.091897964477539,-1.2086219787597656
1772729665246609000,9.43560888671875,-3.6083319187164307,-7.1611528396606445,-0.2189316749572754
1772729665256609000,9.445609130859374,-3.277609348297119,-6.695863246917725,0.6516966819763184
1772729665266609000,9.45560888671875,-2.318607807159424,-6.642963409423828,1.2916464805603027
1772729665276609000,9.465609130859375,-1.2047038078308105,-6.1222100257873535,1.7575631141662598
1772729665286609000,9.47560888671875,-0.8649191856384277,-6.279411315917969,2.430121421813965
1772729665296609000,9.485609130859375,-1.0323576927185059,-7.069721698760986,2.313494920730591
1772729665306609000,9.49560888671875,-1.3162789344787598,-7.444843292236328,1.554032802581787
1772729665316609000,9.505609130859375,-0.9600176811218262,-6.586411476135254,1.3374595642089844
1772729665326609000,9.51560888671875,1.3423094749450684,-5.146399021148682,1.054060459136963
1772729665336609000,9.525609130859374,3.023388385772705,-3.763019323348999,0.9569835662841797
1772729665346609000,9.53560888671875,2.5856027603149414,-2.1708993911743164,0.8451838493347168
1772729665356609000,9.545609130859376,3.9784669876098633,-2.0450122356414795,1.0446128845214844
1772729665366609000,9.55560888671875,2.9959750175476074,-2.738846778869629,0.15817570686340332
1772729665376609000,9.565609130859375,1.6152644157409668,-4.114558219909668,-0.6735572814941406
1772729665386609000,9.57560888671875,-0.3508305549621582,-5.446603775024414,-0.9229030609130859
1772729665396609000,9.585609130859375,-0.7546820640563965,-5.593379497528076,-1.6937508583068848
1772729665406609000,9.59560888671875,-1.0529193878173828,-4.476632118225098,-2.143526554107666
1772729665416609000,9.605609130859374,-1.0630712509155273,-3.7260308265686035,-1.4621012210845947
1772729665426609000,9.61560888671875,-1.2842869758605957,-3.660325527191162,-0.7879798412322998
1772729665436609000,9.625609130859376,-1.8823022842407227,-3.7483034133911133,-0.0887066125869751
1772729665446609000,9.63560888671875,-2.676860809326172,-3.4045958518981934,0.5285317897796631
1772729665456609000,9.645609130859375,-3.0494656562805176,-2.9362072944641113,0.37680089473724365
1772729665466609000,9.65560888671875,-3.305950164794922,-2.357675075531006,-0.2061370611190796
1772729665476609000,9.665609130859375,-3.253831624984741,-1.6546063423156738,-0.6685193777084351
1772729665486609000,9.67560888671875,-2.3890891075134277,-1.0927648544311523,-0.10174500942230225
1772729665496609000,9.685609130859374,-0.7018380165100098,-0.46141767501831055,1.1744470596313477
1772729665506609000,9.69560888671875,1.426116943359375,0.23238325119018555,3.369011402130127
1772729665516609000,9.705609130859376,3.2942771911621094,0.6844973564147949,2.7383551597595215
1772729665526609000,9.71560888671875,4.548827171325684,0.4871668815612793,-0.820908784866333
1772729665536609000,9.725609130859375,4.605032920837402,-0.44548654556274414,-2.154827833175659
1772729665546609000,9.73560888671875,3.8818254470825195,-0.7410993576049805,-2.856041669845581
1772729665556609000,9.745609130859375,4.672174453735352,1.6827430725097656,0.6775733232498169
1772729665566609000,9.75560888671875,1.634200096130371,1.0326170921325684,0.3745969533920288
1772729665576609000,9.765609130859374,0.16009092330932617,-0.3937721252441406,0.5663516521453857
1772729665586609000,9.77560888671875,-0.4704456329345703,-0.684455394744873,1.0028059482574463
1772729665596609000,9.785609130859376,-0.4215579032897949,-1.069375991821289,0.23905491828918457
1772729665606609000,9.79560888671875,-0.28861188888549805,-1.0990848541259766,-0.27234363555908203
1772729665616609000,9.805609130859375,-0.2565793991088867,-0.16864252090454102,-0.37533509731292725
1772729665626609000,9.81560888671875,-0.1665053367614746,0.7331957817077637,-0.357097864151001
1772729665636609000,9.825609130859375,0.19550657272338867,1.0199341773986816,-0.36513638496398926
1772729665646609000,9.83560888671875,0.17913818359375,0.3705620765686035,-0.5098321437835693
1772729665656609000,9.845609130859375,0.27105045318603516,-0.30774831771850586,-0.6550630331039429
1772729665666609000,9.85560888671875,0.4634699821472168,-0.6931486129760742,-0.5224617123603821
1772729665676609000,9.865609130859376,1.0537214279174805,-0.9525671005249023,-0.05316191911697388
1772729665686609000,9.87560888671875,1.361588478088379,-1.3172612190246582,0.2827673852443695
1772729665696609000,9.885609130859375,0.8708200454711914,-1.2026348114013672,0.4722561836242676
1772729665706609000,9.89560888671875,0.012082099914550781,-0.5757241249084473,0.39296606183052063
1772729665716609000,9.905609130859375,-0.4921703338623047,-0.5228791236877441,0.3655884563922882
1772729665726609000,9.91560888671875,-0.6856231689453125,-0.6631059646606445,0.2720651626586914
1772729665736609000,9.925609130859375,-1.0474963188171387,-0.5399365425109863,0.4937325119972229
1772729665746609000,9.93560888671875,-1.053347110748291,0.047553062438964844,0.1822974979877472
1772729665756609000,9.945609130859374,-1.6008481979370117,0.22429275512695312,-0.21577417850494385
1772729665766609000,9.95560888671875,-1.5628337860107422,-0.18308019638061523,0.0770980715751648
1772729665776609000,9.965609130859375,-1.7426691055297852,0.22039270401000977,-0.7007045149803162
1772729665786609000,9.97560888671875,-1.3060712814331055,-0.31052732467651367,-0.25058913230895996
1772729665796609000,9.985609130859375,-1.7433104515075684,-1.1157035827636719,-0.230535626411438
1772729665806609000,9.99560888671875,-0.9774923324584961,-0.39957714080810547,-0.8998250961303711
1772729665816609000,10.005609130859375,-0.20624589920043945,-0.040671348571777344,-0.3873392939567566
1772729665826609000,10.01560888671875,-0.46776247024536133,-0.39772462844848633,-0.1374727040529251
1772729665836609000,10.025609130859374,1.0047578811645508,-0.7691106796264648,-0.8585096597671509
1772729665846609000,10.03560888671875,-0.7202138900756836,-0.19616174697875977,-0.17190423607826233
1772729665856609000,10.045609130859376,-1.2033424377441406,0.2550539970397949,0.3009412884712219
1772729665866609000,10.05560888671875,-0.9000940322875977,-0.28360843658447266,0.5992725491523743
1772729665876609000,10.065609130859375,-0.571044921875,-0.9309406280517578,0.5122472047805786
1772729665886609000,10.07560888671875,-1.2503290176391602,-0.15834474563598633,0.578350305557251
1772729665896609000,10.085609130859375,-0.6576628684997559,0.32351160049438477,0.5808243155479431
1772729665906609000,10.09560888671875,-0.584442138671875,0.460813045501709,0.14185672998428345
1772729665916609000,10.105609130859374,-0.07733726501464844,0.40372371673583984,0.0009293556213378906
1772729665926609000,10.11560888671875,0.32619190216064453,0.437197208404541,-0.09898620843887329
1772729665936609000,10.125609130859376,0.44572925567626953,0.39241790771484375,-0.05954831838607788
1772729665946609000,10.13560888671875,0.25650691986083984,0.29499292373657227,0.16726034879684448
1772729665956609000,10.145609130859375,-0.1982440948486328,0.2860250473022461,0.5405949950218201
1772729665966609000,10.15560888671875,0.4684638977050781,0.32710838317871094,-0.8018471598625183
1772729665976609000,10.165609130859375,0.7287235260009766,1.5069684982299805,-0.3733391761779785
1772729665986609000,10.17560888671875,-0.5877547264099121,1.6034865379333496,-0.33879709243774414
1772729665996609000,10.185609130859374,-0.018489837646484375,1.2241926193237305,-0.2437349557876587
1772729666006609000,10.19560888671875,0.5146751403808594,0.3778533935546875,0.07026797533035278
1772729666016609000,10.205609130859376,0.8067522048950195,-0.21119928359985352,0.3795044422149658
1772729666026609000,10.21560888671875,0.49126338958740234,-0.5697188377380371,0.8896905183792114
1772729666036609000,10.225609130859375,0.33574485778808594,-0.587066650390625,1.0942498445510864
1772729666046609000,10.23560888671875,0.06289196014404297,-0.6247906684875488,1.0334086418151855
1772729666056609000,10.245609130859375,0.08829784393310547,-0.5888490676879883,0.9559716582298279
1772729666066609000,10.25560888671875,0.219696044921875,-0.5437893867492676,0.8338311910629272
1772729666076609000,10.265609130859374,0.2909889221191406,-0.5669293403625488,0.626806378364563
1772729666086609000,10.27560888671875,0.31884288787841797,-0.5181703567504883,0.4403248429298401
1772729666096609000,10.285609130859376,0.245147705078125,-0.4295797348022461,0.4201570153236389
1772729666106609000,10.29560888671875,0.12202835083007812,-0.36226749420166016,0.467775821685791
1772729666116609000,10.305609130859375,0.0731801986694336,-0.2761821746826172,0.48899954557418823
1772729666126609000,10.31560888671875,0.036510467529296875,-0.11134815216064453,0.435954749584198
1772729666136609000,10.325609130859375,-0.1320362091064453,0.04721260070800781,0.3016950488090515
1772729666146609000,10.33560888671875,-0.3933682441711426,0.2104358673095703,0.19802477955818176
1772729666156609000,10.345609130859375,-0.6215314865112305,0.3798518180847168,0.08505278825759888
1772729666166609000,10.35560888671875,-0.632969856262207,0.4955277442932129,-0.07484108209609985
1772729666176609000,10.365609130859376,-0.5228748321533203,0.5401558876037598,-0.25548064708709717
1772729666186609000,10.37560888671875,-0.36484384536743164,0.479245662689209,-0.36790913343429565
1772729666196609000,10.385609130859375,-0.2659921646118164,0.35335731506347656,-0.30831843614578247
1772729666206609000,10.39560888671875,-0.306002140045166,0.22126531600952148,-0.13714370131492615
1772729666216609000,10.405609130859375,-0.300905704498291,0.08515071868896484,0.03485146164894104
1772729666226609000,10.41560888671875,-0.25675392150878906,-0.04282522201538086,0.08890384435653687
1772729666236609000,10.425609130859375,-0.2111048698425293,-0.13465309143066406,0.07036605477333069
1772729666246609000,10.43560888671875,-0.16074132919311523,-0.16251516342163086,0.07545924186706543
1772729666256609000,10.445609130859374,-0.05439424514770508,-0.09955835342407227,-0.03688204288482666
1772729666266609000,10.45560888671875,-0.02111530303955078,0.00658416748046875,-0.17133960127830505
1772729666276609000,10.465609130859375,-0.1506819725036621,0.09016799926757812,-0.1849987804889679
1772729666286609000,10.47560888671875,-0.2984910011291504,0.20870399475097656,-0.08872351050376892
1772729666296609000,10.485609130859375,-0.3410782814025879,0.27067089080810547,-0.009391099214553833
1772729666306609000,10.49560888671875,-0.3394184112548828,0.20518875122070312,0.01681971549987793
1772729666316609000,10.505609130859375,-0.29665565490722656,0.12083053588867188,0.04975837469100952
1772729666326609000,10.51560888671875,-0.2438058853149414,0.08902168273925781,0.09964221715927124
1772729666336609000,10.525609130859374,-0.17404413223266602,0.06983661651611328,0.07811152935028076
1772729666346609000,10.53560888671875,-0.03300762176513672,0.07439994812011719,0.020359337329864502
1772729666356609000,10.545609130859376,0.09998226165771484,0.10736513137817383,-0.057008951902389526
1772729666366609000,10.55560888671875,0.1665029525756836,0.108001708984375,-0.15611381828784943
1772729666376609000,10.565609130859375,0.17995834350585938,0.09662151336669922,-0.19409039616584778
1772729666386609000,10.57560888671875,0.21320533752441406,0.10075807571411133,-0.14594483375549316
1772729666396609000,10.585609130859375,0.2679252624511719,0.11971044540405273,-0.08862200379371643
1772729666406609000,10.59560888671875,0.20325422286987305,0.1322183609008789,-0.06023046374320984
1772729666416609000,10.605609130859374,0.09203481674194336,0.16252470016479492,-0.022153347730636597
1772729666426609000,10.61560888671875,0.015630722045898438,0.18709230422973633,0.05641093850135803
1772729666436609000,10.625609130859376,-0.06903648376464844,0.21662473678588867,0.136562317609787
1772729666446609000,10.63560888671875,-0.1456165313720703,0.2112727165222168,0.19205152988433838
1772729666456609000,10.645609130859375,-0.15361595153808594,0.17295217514038086,0.23380708694458008
1772729666466609000,10.65560888671875,-0.10384464263916016,0.14904069900512695,0.22190070152282715
1772729666476609000,10.665609130859375,-0.046352386474609375,0.19592666625976562,0.20091822743415833
1772729666486609000,10.67560888671875,-0.005020618438720703,0.2773094177246094,0.16831408441066742
1772729666496609000,10.685609130859374,0.013089656829833984,0.2963547706604004,0.12079772353172302
1772729666506609000,10.69560888671875,0.053568363189697266,0.26694822311401367,0.13309478759765625
1772729666516609000,10.705609130859376,0.1422877311706543,0.2496194839477539,0.11219042539596558
1772729666526609000,10.71560888671875,0.21553707122802734,0.2894015312194824,0.04379326105117798
1772729666536609000,10.725609130859375,0.25641441345214844,0.30307435989379883,-0.12138410657644272
1772729666546609000,10.73560888671875,0.3054027557373047,0.3098487854003906,-0.252946138381958
1772729666556609000,10.745609130859375,0.3079066276550293,0.2472057342529297,-0.308540403842926
1772729666566609000,10.75560888671875,0.24521207809448242,0.14841461181640625,-0.2722254991531372
1772729666576609000,10.765609130859374,0.07293558120727539,0.10871219635009766,-0.14517706632614136
1772729666586609000,10.77560888671875,-0.08334493637084961,0.10058164596557617,-0.016411341726779938
1772729666596609000,10.785609130859376,-0.28191041946411133,0.08551311492919922,-0.03258207440376282
1772729666606609000,10.79560888671875,-0.4257221221923828,0.06254816055297852,-0.0561654157936573
1772729666616609000,10.805609130859375,-0.5008335113525391,0.03334856033325195,-0.070733442902565
1772729666626609000,10.81560888671875,-0.5024862289428711,-0.008644580841064453,-0.056191641837358475
1772729666636609000,10.825609130859375,-0.5095152854919434,-0.07241010665893555,-0.010939113795757294
1772729666646609000,10.83560888671875,-0.47438526153564453,-0.12728261947631836,0.003272414207458496
1772729666656609000,10.845609130859375,-0.40110301971435547,-0.11337995529174805,-0.022187627851963043
1772729666666609000,10.85560888671875,-0.3174862861633301,-0.03183889389038086,-0.07403922080993652
1772729666676609000,10.865609130859376,-0.24553155899047852,0.10344696044921875,-0.16942311823368073
1772729666686609000,10.87560888671875,-0.23530054092407227,0.1343979835510254,-0.25652751326560974
1772729666696609000,10.885609130859375,-0.32581377029418945,0.13764333724975586,-0.29505282640457153
1772729666706609000,10.89560888671875,-0.4242429733276367,0.13899660110473633,-0.2600930333137512
1772729666716609000,10.905609130859375,-0.4964308738708496,0.12419414520263672,-0.23808346688747406
1772729666726609000,10.91560888671875,-0.4623689651489258,0.06678104400634766,-0.2322915941476822
1772729666736609000,10.925609130859375,-0.37391042709350586,0.012611865997314453,-0.22326229512691498
1772729666746609000,10.93560888671875,-0.22954177856445312,-0.00276947021484375,-0.20185913145542145
1772729666756609000,10.945609130859374,-0.12154960632324219,0.007750034332275391,-0.18614186346530914
1772729666766609000,10.95560888671875,-0.09845733642578125,0.040877342224121094,-0.1399735063314438
1772729666776609000,10.965609130859375,-0.08832406997680664,0.060826778411865234,-0.1441379338502884
1772729666786609000,10.97560888671875,-0.05592918395996094,0.053755760192871094,-0.1644364595413208
1772729666796609000,10.985609130859375,0.019371986389160156,0.0885000228881836,-0.22224761545658112
1772729666806609000,10.99560888671875,0.09532499313354492,0.1421957015991211,-0.3091220259666443
1772729666816609000,11.005609130859375,0.0866246223449707,0.152008056640625,-0.3708072304725647
1772729666826609000,11.01560888671875,0.018497943878173828,0.16935300827026367,-0.37121719121932983
1772729666836609000,11.025609130859374,-0.027885913848876953,0.2110004425048828,-0.34650394320487976
1772729666846609000,11.03560888671875,-0.0441279411315918,0.2669677734375,-0.3271283209323883
1772729666856609000,11.045609130859376,-0.04818153381347656,0.31617021560668945,-0.3284758925437927
1772729666866609000,11.05560888671875,-0.02527332305908203,0.3606996536254883,-0.3361724019050598
1772729666876609000,11.065609130859375,-0.008000373840332031,0.3245244026184082,-0.3462868928909302
1772729666886609000,11.07560888671875,-0.06255006790161133,0.3474440574645996,-0.3430769741535187
1772729666896609000,11.085609130859375,-0.0508580207824707,0.36075878143310547,-0.386380136013031
1772729666906609000,11.09560888671875,0.008173942565917969,0.33673620223999023,-0.4188784062862396
1772729666916609000,11.105609130859374,-0.04890155792236328,0.3762989044189453,-0.3510168194770813
1772729666926609000,11.11560888671875,-0.13497018814086914,0.3915281295776367,-0.2744566798210144
1772729666936609000,11.125609130859376,-0.24007701873779297,0.35698843002319336,-0.17588941752910614
1772729666946609000,11.13560888671875,0.04821300506591797,0.34926509857177734,-0.323459267616272
1772729666956609000,11.145609130859375,0.20232486724853516,0.17432832717895508,-0.5080560445785522
1772729666966609000,11.15560888671875,0.18288373947143555,0.19241094589233398,-0.5962215065956116
1772729666976609000,11.165609130859375,0.02065563201904297,-0.12762069702148438,-0.5281095504760742
1772729666986609000,11.17560888671875,0.2014474868774414,0.3327035903930664,-0.4623137414455414
1772729666996609000,11.185609130859374,0.44386720657348633,0.6946501731872559,-0.6832162141799927
