time,seconds_elapsed,z,y,x
1772698590576621000,0.04162109375,0,0,0
1772698590586621000,0.051620849609375,-0.09861230850219727,-0.11376428604125977,0.0105934739112854
1772698590596621000,0.06162109375,-0.10255241394042969,-0.0848393440246582,-0.047989487648010254
1772698590606621000,0.071620849609375,0.033313751220703125,0.10941648483276367,-0.16997647285461426
1772698590616621000,0.08162109375,-0.012684822082519531,0.31898021697998047,-0.31605064868927
1772698590626621000,0.091620849609375,-0.1793212890625,0.48107337951660156,-0.3789057731628418
1772698590636621000,0.10162109375,-0.4242544174194336,0.5755820274353027,-0.3079789876937866
1772698590646621000,0.111620849609375,-0.3496370315551758,0.6249294281005859,-0.16680073738098145
1772698590656621000,0.12162109375,-0.20978212356567383,0.5430283546447754,-0.025003433227539062
1772698590666621000,0.131620849609375,-0.5305352210998535,0.27570438385009766,-0.05505251884460449
1772698590676621000,0.14162109375,-0.5935359001159668,0.11316776275634766,-0.32691168785095215
1772698590686621000,0.151620849609375,-0.031230926513671875,0.2133173942565918,-0.49106693267822266
1772698590696621000,0.16162109375,0.18042755126953125,0.31989145278930664,-0.43021655082702637
1772698590716621000,0.18162109375,0.7158241271972656,0.485410213470459,-0.6043589115142822
1772698590726621000,0.191620849609375,1.180004596710205,0.6108493804931641,-0.5109701156616211
1772698590736621000,0.20162109375,0.7910456657409668,0.41869115829467773,-0.5598077774047852
1772698590746621000,0.211620849609375,0.2636852264404297,0.09103679656982422,-0.7124886512756348
1772698590756621000,0.22162109375,-0.14330196380615234,-0.23208951950073242,-0.5062789916992188
1772698590766621000,0.231620849609375,-0.5111660957336426,-0.39924001693725586,-0.8521566390991211
1772698590776621000,0.24162109375,-0.8315544128417969,-0.651763916015625,-0.7670929431915283
1772698590786621000,0.251620849609375,-0.9640302658081055,-0.29938793182373047,-0.5296421051025391
1772698590796621000,0.26162109375,-1.0259199142456055,0.14016294479370117,-0.38840174674987793
1772698590806621000,0.271620849609375,-1.11846923828125,0.27238988876342773,-0.333951473236084
1772698590816621000,0.28162109375,-1.084458827972412,0.13052845001220703,-0.30676865577697754
1772698590826621000,0.291620849609375,-0.813265323638916,-0.027286529541015625,-0.22387266159057617
1772698590836621000,0.30162109375,-0.2585773468017578,-0.043645381927490234,-0.11401128768920898
1772698590846621000,0.311620849609375,0.3340320587158203,-0.14869308471679688,-0.06085515022277832
1772698590856621000,0.32162109375,0.5273785591125488,-0.32785844802856445,-0.12971711158752441
1772698590866621000,0.331620849609375,0.37294816970825195,-0.28907346725463867,-0.28203439712524414
1772698590876621000,0.34162109375,0.1294841766357422,-0.15461015701293945,-0.4224202632904053
1772698590886621000,0.351620849609375,0.015898704528808594,-0.11061620712280273,-0.3500385284423828
1772698590896621000,0.36162109375,0.06690216064453125,-0.05658578872680664,-0.16979551315307617
1772698590906621000,0.371620849609375,0.23834514617919922,-0.07118749618530273,-0.059317588806152344
1772698590916621000,0.38162109375,0.6256899833679199,-0.17804718017578125,0.3441150188446045
1772698590926621000,0.391620849609375,1.0065054893493652,-0.1003255844116211,0.6582638025283813
1772698590936621000,0.40162109375,1.0953192710876465,-0.005598545074462891,0.7997390031814575
1772698590946621000,0.411620849609375,1.1404008865356445,0.10501575469970703,0.6992652416229248
1772698590956621000,0.42162109375,0.9751477241516113,0.008164405822753906,0.46965789794921875
1772698590966621000,0.431620849609375,0.7471475601196289,-0.04658079147338867,0.3670157194137573
1772698590976621000,0.44162109375,0.40239477157592773,0.03751516342163086,0.37425923347473145
1772698590986621000,0.451620849609375,0.04312944412231445,0.1565089225769043,0.3759171962738037
1772698590996621000,0.46162109375,-0.09682750701904297,0.16228723526000977,0.29004526138305664
1772698591006621000,0.471620849609375,-0.21461868286132812,0.028115272521972656,0.12154698371887207
1772698591016621000,0.48162109375,-0.4135866165161133,-0.14826631546020508,-0.16450977325439453
1772698591026621000,0.491620849609375,-0.5217528343200684,-0.18403863906860352,-0.5173108577728271
1772698591036621000,0.50162109375,-0.4975123405456543,-0.10644340515136719,-0.7661232948303223
1772698591046621000,0.511620849609375,-0.6596202850341797,-0.028618335723876953,-0.784102201461792
1772698591056621000,0.52162109375,-1.0586094856262207,0.01363992691040039,-0.6736636161804199
1772698591066621000,0.531620849609375,-1.1582064628601074,-0.0034303665161132812,-0.44256067276000977
1772698591076621000,0.54162109375,-0.061659812927246094,0.1318216323852539,-0.016143321990966797
1772698591086621000,0.551620849609375,0.895230770111084,0.22007465362548828,0.24524235725402832
1772698591096621000,0.56162109375,1.0452394485473633,0.2054295539855957,0.5164327621459961
1772698591106621000,0.571620849609375,1.1778326034545898,-0.11706161499023438,1.1464449167251587
1772698591116621000,0.58162109375,0.8750886917114258,-0.5598840713500977,1.441462516784668
1772698591126621000,0.591620849609375,-0.29879236221313477,-1.2867083549499512,1.3919516801834106
1772698591136621000,0.60162109375,-1.3529205322265625,-1.4460811614990234,1.2654826641082764
1772698591146621000,0.611620849609375,-1.7954869270324707,-1.1290841102600098,0.990466833114624
1772698591156621000,0.62162109375,-1.6510472297668457,-0.4179048538208008,0.3230113983154297
1772698591166621000,0.631620849609375,-1.332101821899414,0.5514793395996094,-0.5964386463165283
1772698591176621000,0.64162109375,0.177154541015625,1.2628793716430664,-1.529073715209961
1772698591186621000,0.651620849609375,1.8890719413757324,1.2000360488891602,-1.964730978012085
1772698591196621000,0.66162109375,2.2809267044067383,0.5667266845703125,-1.7368159294128418
1772698591206621000,0.671620849609375,2.1363134384155273,0.11948394775390625,-1.4195644855499268
1772698591216621000,0.68162109375,-0.2459578514099121,0.07066535949707031,-0.9507791996002197
1772698591226621000,0.691620849609375,-1.057690143585205,-0.15602684020996094,-0.4912607669830322
1772698591236621000,0.70162109375,-1.219499111175537,-0.2332625389099121,0.06474113464355469
1772698591246621000,0.711620849609375,-0.9127597808837891,0.03052806854248047,0.47383809089660645
1772698591256621000,0.72162109375,-0.782196044921875,0.1492762565612793,0.5928573608398438
1772698591266621000,0.731620849609375,-0.3089585304260254,0.06308984756469727,0.29816198348999023
1772698591276621000,0.74162109375,0.04288434982299805,-0.12508392333984375,-0.16831064224243164
1772698591286621000,0.751620849609375,0.2481241226196289,-0.26377344131469727,-0.5026733875274658
1772698591296621000,0.76162109375,0.08934354782104492,-0.4027538299560547,-0.42897844314575195
1772698591306621000,0.771620849609375,-0.004058361053466797,-0.654721736907959,-0.10060381889343262
1772698591316621000,0.78162109375,-0.25191831588745117,-0.7023782730102539,-0.009209871292114258
1772698591326621000,0.791620849609375,-0.8222193717956543,-0.4771699905395508,-0.0005970001220703125
1772698591336621000,0.80162109375,-1.5197010040283203,-0.36902284622192383,0.20257019996643066
1772698591346621000,0.811620849609375,-1.823160171508789,-0.3336329460144043,0.5852329730987549
1772698591356621000,0.82162109375,-1.916252613067627,-0.2221975326538086,0.923762321472168
1772698591366621000,0.831620849609375,-1.7599444389343262,-0.17503929138183594,0.9998822808265686
1772698591376621000,0.84162109375,-1.3502411842346191,-0.12887096405029297,1.018088698387146
1772698591386621000,0.851620849609375,-0.7015705108642578,-0.12657737731933594,0.7292379140853882
1772698591396621000,0.86162109375,0.4162125587463379,0.29910898208618164,-0.5279643535614014
1772698591406621000,0.871620849609375,1.2431764602661133,2.4996700286865234,-3.2089362144470215
1772698591416621000,0.88162109375,1.0845613479614258,2.7281365394592285,-3.025097370147705
1772698591426621000,0.891620849609375,0.6469311714172363,0.13779449462890625,-0.7105106115341187
1772698591436621000,0.90162109375,0.01634502410888672,-0.40297508239746094,0.5017750263214111
1772698591446621000,0.911620849609375,-0.3728499412536621,0.45351696014404297,0.5273497104644775
1772698591456621000,0.92162109375,-0.6305994987487793,0.35544681549072266,0.45631635189056396
1772698591466621000,0.931620849609375,-0.7646045684814453,0.22435617446899414,-0.17152166366577148
1772698591476621000,0.94162109375,-0.7527604103088379,0.4055953025817871,-0.9366276264190674
1772698591486621000,0.951620849609375,-0.8198361396789551,0.16227197647094727,-1.2692437171936035
1772698591496621000,0.96162109375,-1.0353355407714844,-0.10222434997558594,-1.5442756414413452
1772698591506621000,0.971620849609375,-1.3806266784667969,-0.9381604194641113,-1.93458092212677
1772698591516621000,0.98162109375,-1.1969008445739746,-0.8486132621765137,-1.68195378780365
1772698591526621000,0.991620849609375,-1.0463099479675293,-0.715482234954834,-0.5348718166351318
1772698591536621000,1.00162109375,-0.9350056648254395,-0.8674407005310059,0.14784902334213257
1772698591546621000,1.011620849609375,-1.30433988571167,-0.8660368919372559,0.01951378583908081
1772698591556621000,1.02162109375,-1.8878417015075684,-1.0164475440979004,-0.8203808665275574
1772698591566621000,1.031620849609375,-2.3054327964782715,-1.6257209777832031,-1.4104844331741333
1772698591576621000,1.04162109375,-2.9948034286499023,-2.26711368560791,-1.8953797817230225
1772698591586621000,1.051620849609375,-3.747044086456299,-3.1119093894958496,-2.036709785461426
1772698591596621000,1.06162109375,-4.242819786071777,-4.037669658660889,-1.8219348192214966
1772698591606621000,1.071620849609375,-4.535640239715576,-4.549105644226074,-1.5646281242370605
1772698591616621000,1.08162109375,-4.9529876708984375,-5.133056640625,-1.616358757019043
1772698591626621000,1.091620849609375,-4.836461544036865,-5.457619667053223,-1.6205540895462036
1772698591636621000,1.10162109375,-5.0221638679504395,-6.077402591705322,-1.7651888132095337
1772698591646621000,1.111620849609375,-5.041451454162598,-6.393856525421143,-1.5630754232406616
1772698591656621000,1.12162109375,-5.310997009277344,-6.678140163421631,-1.2551889419555664
1772698591666621000,1.131620849609375,-5.797992706298828,-7.102001190185547,-0.8915739059448242
1772698591676621000,1.14162109375,-6.222957134246826,-7.61690092086792,-0.7237200736999512
1772698591686621000,1.151620849609375,-7.4000725746154785,-7.893339157104492,-0.47949981689453125
1772698591696621000,1.16162109375,-7.08223819732666,-8.709993362426758,-0.12924504280090332
1772698591706621000,1.171620849609375,-6.392820358276367,-8.91321849822998,0.039742469787597656
1772698591716621000,1.18162109375,-5.291982650756836,-8.954289436340332,0.36119985580444336
1772698591726621000,1.191620849609375,-4.080806255340576,-9.274057388305664,0.4975004196166992
1772698591736621000,1.20162109375,-2.6215035915374756,-9.390764236450195,0.5022945404052734
1772698591746621000,1.211620849609375,-1.535048007965088,-9.42325496673584,0.7582707405090332
1772698591756621000,1.22162109375,-0.9135098457336426,-9.725398063659668,1.3015046119689941
1772698591766621000,1.231620849609375,-0.435305118560791,-9.732382774353027,1.5274596214294434
1772698591776621000,1.24162109375,-0.35779237747192383,-9.663866996765137,1.8952012062072754
1772698591786621000,1.251620849609375,-0.5170331001281738,-9.943805694580078,2.7257680892944336
1772698591796621000,1.26162109375,-0.2765517234802246,-9.897632598876953,3.5173892974853516
1772698591806621000,1.271620849609375,0.5826597213745117,-9.866666793823242,4.360949993133545
1772698591816621000,1.28162109375,2.2405405044555664,-10.068944931030273,5.662097930908203
1772698591826621000,1.291620849609375,4.076359748840332,-9.996755599975586,6.799014568328857
1772698591836621000,1.30162109375,5.687267303466797,-9.994497299194336,8.05526351928711
1772698591846621000,1.311620849609375,6.765674591064453,-9.421026229858398,8.806410789489746
1772698591856621000,1.32162109375,6.829979419708252,-8.420829772949219,9.04415225982666
1772698591866621000,1.331620849609375,6.433183670043945,-7.819499492645264,9.031893730163574
1772698591876621000,1.34162109375,6.404118061065674,-7.6527910232543945,9.316315650939941
1772698591886621000,1.351620849609375,7.486581802368164,-7.541003227233887,10.182583808898926
1772698591896621000,1.36162109375,9.447257041931152,-7.135478973388672,10.587915420532227
1772698591906621000,1.371620849609375,11.347947120666504,-6.65861177444458,9.995328903198242
1772698591916621000,1.38162109375,12.610843658447266,-6.079052925109863,9.162885665893555
1772698591926621000,1.391620849609375,12.992633819580078,-5.416563510894775,8.367576599121094
1772698591936621000,1.40162109375,12.3626070022583,-4.763466835021973,8.60612678527832
1772698591946621000,1.411620849609375,9.98293685913086,-3.9373531341552734,9.578141212463379
1772698591956621000,1.42162109375,7.790238380432129,-3.0716333389282227,9.177148818969727
1772698591966621000,1.431620849609375,6.384313583374023,-2.3356122970581055,8.152036666870117
1772698591976621000,1.44162109375,5.634063720703125,-1.7849721908569336,7.229654312133789
1772698591986621000,1.451620849609375,5.346738338470459,-1.128157615661621,7.181978225708008
1772698591996621000,1.46162109375,5.321483135223389,-0.735447883605957,7.5983076095581055
1772698592006621000,1.471620849609375,5.061328411102295,-0.2845001220703125,7.499963283538818
1772698592016621000,1.48162109375,4.702040195465088,0.13902568817138672,7.278458118438721
1772698592026621000,1.491620849609375,4.986321449279785,0.25838279724121094,7.159769058227539
1772698592036621000,1.50162109375,5.884233474731445,0.3092355728149414,6.582659721374512
1772698592046621000,1.511620849609375,6.716020107269287,0.4185657501220703,5.959715843200684
1772698592056621000,1.52162109375,7.083438873291016,0.6037130355834961,5.720517158508301
1772698592066621000,1.531620849609375,7.342691421508789,0.5573320388793945,5.729012489318848
1772698592076621000,1.54162109375,7.246371269226074,0.4861726760864258,5.9758195877075195
1772698592086621000,1.551620849609375,6.477156639099121,0.3201942443847656,6.612198829650879
1772698592096621000,1.56162109375,5.66663122177124,0.20787715911865234,7.579203128814697
1772698592106621000,1.571620849609375,4.937363147735596,0.0782175064086914,8.414876937866211
1772698592116621000,1.58162109375,4.1622538566589355,0.5546665191650391,8.488110542297363
1772698592126621000,1.591620849609375,2.5114288330078125,0.5547800064086914,8.556838035583496
1772698592136621000,1.60162109375,0.5597758293151855,1.0537185668945312,7.539858341217041
1772698592146621000,1.611620849609375,-1.3444972038269043,1.7290310859680176,5.962244987487793
1772698592156621000,1.62162109375,-2.5177903175354004,2.252096176147461,4.955240249633789
1772698592166621000,1.631620849609375,-2.682133197784424,2.6413345336914062,4.088624477386475
1772698592176621000,1.64162109375,-1.6580281257629395,2.9856629371643066,3.5054640769958496
1772698592186621000,1.651620849609375,-0.5764236450195312,3.207758903503418,3.325193405151367
1772698592196621000,1.66162109375,-0.10338544845581055,3.8279318809509277,3.1440012454986572
1772698592206621000,1.671620849609375,-0.8842973709106445,4.041558742523193,3.060832977294922
1772698592216621000,1.68162109375,-2.2578744888305664,4.160040855407715,2.269543170928955
1772698592226621000,1.691620849609375,-3.755784749984741,4.008409023284912,1.3897343873977661
1772698592236621000,1.70162109375,-7.7862629890441895,3.2207446098327637,1.1384707689285278
1772698592246621000,1.711620849609375,-12.536548614501953,2.672043800354004,2.1588573455810547
1772698592256621000,1.72162109375,-5.839020729064941,1.790358543395996,1.0017735958099365
1772698592266621000,1.731620849609375,-0.7078027725219727,0.6907939910888672,-0.30031752586364746
1772698592276621000,1.74162109375,-2.65234375,-0.03403186798095703,-0.1118018627166748
1772698592286621000,1.751620849609375,-6.374002456665039,0.5714969635009766,0.16376805305480957
1772698592296621000,1.76162109375,-6.859435081481934,0.20126914978027344,1.8402175903320312
1772698592306621000,1.771620849609375,-2.7325127124786377,-1.2938013076782227,0.6750489473342896
1772698592316621000,1.78162109375,-2.065337657928467,-2.6708803176879883,-0.26696157455444336
1772698592326621000,1.791620849609375,-2.605745792388916,-2.3387584686279297,0.34859371185302734
1772698592336621000,1.80162109375,-2.806973695755005,-1.881246566772461,1.0458059310913086
1772698592346621000,1.811620849609375,-2.6374406814575195,-1.8308820724487305,0.5088063478469849
1772698592356621000,1.82162109375,-1.9299886226654053,-1.5613584518432617,-0.35430920124053955
1772698592366621000,1.831620849609375,-0.9223067760467529,-1.1896495819091797,-0.6904066801071167
1772698592376621000,1.84162109375,-0.22114229202270508,-0.8087253570556641,-1.0214877128601074
1772698592386621000,1.851620849609375,-0.16363120079040527,-0.3177309036254883,-1.3579908609390259
1772698592396621000,1.86162109375,-0.29967617988586426,0.3196220397949219,-1.2772469520568848
1772698592406621000,1.871620849609375,-0.20534515380859375,0.7736091613769531,-0.5043731927871704
1772698592416621000,1.88162109375,-0.047075510025024414,1.233189582824707,0.1894991397857666
1772698592426621000,1.891620849609375,-0.11760759353637695,1.6305675506591797,0.5177676677703857
1772698592436621000,1.90162109375,-0.20313453674316406,1.8698844909667969,0.5191956758499146
1772698592446621000,1.911620849609375,-0.15153789520263672,2.1230173110961914,-0.41643762588500977
1772698592456621000,1.92162109375,0.13076472282409668,1.9176654815673828,-1.6283597946166992
1772698592466621000,1.931620849609375,0.21050119400024414,1.7464828491210938,-2.6882448196411133
1772698592476621000,1.94162109375,0.014917373657226562,1.5612893104553223,-3.02713680267334
1772698592486621000,1.951620849609375,0.09078073501586914,1.4625768661499023,-3.1584033966064453
1772698592496621000,1.96162109375,0.028193235397338867,1.3191866874694824,-2.7102975845336914
1772698592506621000,1.971620849609375,0.19237852096557617,1.4305977821350098,-1.8962123394012451
1772698592516621000,1.98162109375,0.2917652130126953,1.7713956832885742,-0.930191159248352
1772698592526621000,1.991620849609375,-0.015088558197021484,1.983109951019287,-0.25522148609161377
1772698592536621000,2.00162109375,-0.6825659275054932,2.235126495361328,0.07093930244445801
1772698592546621000,2.011620849609375,-1.4754014015197754,2.2337207794189453,0.01905953884124756
1772698592556621000,2.02162109375,-1.6392617225646973,1.6437597274780273,-0.14509963989257812
1772698592566621000,2.031620849609375,-1.292313814163208,1.152350902557373,-0.22916066646575928
1772698592576621000,2.04162109375,-0.8462123870849609,-0.2530984878540039,1.4585521221160889
1772698592586621000,2.051620849609375,-1.8589144945144653,0.9668979644775391,1.91977858543396
1772698592596621000,2.06162109375,-2.13911509513855,1.6510930061340332,-2.289369583129883
1772698592606621000,2.071620849609375,-0.9817090034484863,-0.43780994415283203,-5.237959861755371
1772698592616621000,2.08162109375,-0.7606799602508545,-0.7591581344604492,-6.180474758148193
1772698592626621000,2.091620849609375,-1.6069339513778687,-0.06472587585449219,-5.3476243019104
1772698592636621000,2.10162109375,-2.0913801193237305,0.5094728469848633,-2.6614537239074707
1772698592646621000,2.111620849609375,-0.9841804504394531,1.0334997177124023,-0.07565951347351074
1772698592656621000,2.12162109375,0.6362473964691162,0.5932941436767578,1.3604528903961182
1772698592666621000,2.131620849609375,2.173109769821167,-0.9240741729736328,2.6199817657470703
1772698592676621000,2.14162109375,4.034006118774414,-0.9953851699829102,4.507594108581543
1772698592686621000,2.151620849609375,4.239425182342529,-0.060436248779296875,7.2047953605651855
1772698592696621000,2.16162109375,3.2085208892822266,1.1654558181762695,10.499736785888672
1772698592706621000,2.171620849609375,3.279510736465454,1.9301519393920898,11.864875793457031
1772698592716621000,2.18162109375,3.764054536819458,1.6651363372802734,8.828529357910156
1772698592726621000,2.191620849609375,1.7305309772491455,0.8858737945556641,4.820541858673096
1772698592736621000,2.20162109375,1.902451515197754,2.2079286575317383,2.465573310852051
1772698592746621000,2.211620849609375,-1.8557813167572021,1.5330009460449219,-0.8960782289505005
1772698592756621000,2.22162109375,-3.9248850345611572,2.1512856483459473,-3.096519947052002
1772698592766621000,2.231620849609375,-4.095869541168213,2.8275699615478516,-1.0757231712341309
1772698592776621000,2.24162109375,-3.6985158920288086,3.3704657554626465,1.248100757598877
1772698592786621000,2.251620849609375,-4.702404975891113,2.4885711669921875,1.416557788848877
1772698592796621000,2.26162109375,-4.208383560180664,2.6196489334106445,1.396914005279541
1772698592806621000,2.271620849609375,-2.885084390640259,2.4371681213378906,3.090161085128784
1772698592816621000,2.28162109375,-3.6891727447509766,2.3478641510009766,3.4049062728881836
1772698592826621000,2.291620849609375,-1.4034440517425537,0.9324302673339844,2.7749252319335938
1772698592836621000,2.30162109375,1.7124786376953125,-0.9534025192260742,0.6596781015396118
1772698592846621000,2.311620849609375,4.7273030281066895,-4.307241439819336,-2.5690507888793945
1772698592856621000,2.32162109375,4.020002365112305,-8.197734832763672,-3.722322463989258
1772698592866621000,2.331620849609375,2.316927909851074,-8.963409423828125,-4.456599712371826
1772698592876621000,2.34162109375,1.3136342763900757,-7.901555061340332,-2.196678638458252
1772698592886621000,2.351620849609375,0.9203585386276245,-5.975261688232422,0.1875510811805725
1772698592896621000,2.36162109375,1.2407845258712769,-5.1864118576049805,0.08704262971878052
1772698592906621000,2.371620849609375,3.2652370929718018,-3.2281408309936523,-0.823917806148529
1772698592916621000,2.38162109375,-1.7549129724502563,-0.18556499481201172,0.414605975151062
1772698592926621000,2.391620849609375,-2.338486433029175,0.6009330749511719,2.225933074951172
1772698592936621000,2.40162109375,0.5288957357406616,0.24707508087158203,0.45179951190948486
1772698592946621000,2.411620849609375,3.3327653408050537,-0.25099754333496094,-0.780129611492157
1772698592956621000,2.42162109375,1.8575997352600098,-0.7872915267944336,1.4534186124801636
1772698592966621000,2.431620849609375,0.9685617089271545,-0.2820005416870117,0.5251196622848511
1772698592976621000,2.44162109375,-0.19417521357536316,-0.5750017166137695,-0.2650498151779175
1772698592986621000,2.451620849609375,-0.9719395637512207,-1.0973129272460938,-0.15624231100082397
1772698592996621000,2.46162109375,-0.6891471743583679,-2.2106666564941406,0.33841705322265625
1772698593006621000,2.471620849609375,1.5998547077178955,-2.11704158782959,0.3128631114959717
1772698593016621000,2.48162109375,2.3905680179595947,-0.3998527526855469,0.7616541981697083
1772698593026621000,2.491620849609375,2.270484209060669,0.5497589111328125,-0.5220032930374146
1772698593036621000,2.50162109375,1.8916746377944946,0.9265146255493164,-0.8660392165184021
1772698593046621000,2.511620849609375,0.6438835263252258,0.15094661712646484,-0.7990765571594238
1772698593056621000,2.52162109375,-0.3441309928894043,0.3152179718017578,1.8546404838562012
1772698593066621000,2.531620849609375,0.006776690483093262,2.0727128982543945,3.5138180255889893
1772698593076621000,2.54162109375,-0.8455803394317627,3.0560264587402344,-0.7133205533027649
1772698593086621000,2.551620849609375,-0.7558653950691223,2.002492904663086,-1.8112727403640747
1772698593096621000,2.56162109375,-1.6932721138000488,0.3516807556152344,-0.3864513635635376
1772698593106621000,2.571620849609375,-2.5228259563446045,-0.24732112884521484,-1.7455155849456787
1772698593116621000,2.58162109375,-1.9823840856552124,-0.3901557922363281,-3.1903300285339355
1772698593126621000,2.591620849609375,2.8832755088806152,-7.525057792663574,0.2303568720817566
1772698593136621000,2.60162109375,3.106208562850952,-13.510680198669434,2.206681728363037
1772698593146621000,2.611620849609375,-1.455656886100769,-9.56539535522461,2.1466784477233887
1772698593156621000,2.62162109375,-1.4552907943725586,-0.8204059600830078,2.2608840465545654
1772698593166621000,2.631620849609375,0.12375736236572266,5.14443826675415,1.7344002723693848
1772698593176621000,2.64162109375,0.8879376649856567,6.450760364532471,0.6015055179595947
1772698593186621000,2.651620849609375,1.192419409751892,3.4549198150634766,0.18317115306854248
1772698593196621000,2.66162109375,1.5666477680206299,2.9134645462036133,0.31820571422576904
1772698593206621000,2.671620849609375,1.3899104595184326,3.186136245727539,-0.6448349952697754
1772698593216621000,2.68162109375,1.7504446506500244,-0.9642314910888672,-0.5458813905715942
1772698593226621000,2.691620849609375,0.7845981121063232,1.2058734893798828,0.7592395544052124
1772698593236621000,2.70162109375,1.2095259428024292,0.038559913635253906,1.6440685987472534
1772698593246621000,2.711620849609375,1.5128703117370605,-0.35471534729003906,1.8271732330322266
1772698593256621000,2.72162109375,0.9194319248199463,0.00033473968505859375,1.5731483697891235
1772698593266621000,2.731620849609375,0.7794190645217896,0.5252256393432617,1.5015854835510254
1772698593276621000,2.74162109375,0.9883135557174683,1.1579933166503906,1.5501004457473755
1772698593286621000,2.751620849609375,1.0207253694534302,1.45538330078125,1.6127490997314453
1772698593296621000,2.76162109375,1.1854748725891113,1.948798656463623,1.3706727027893066
1772698593306621000,2.771620849609375,1.2401862144470215,2.375004768371582,0.9675425291061401
1772698593316621000,2.78162109375,1.293531060218811,2.5720291137695312,0.5420258045196533
1772698593326621000,2.791620849609375,1.4642856121063232,2.802420139312744,0.12109911441802979
1772698593336621000,2.80162109375,1.5811958312988281,2.9803614616394043,-0.20604538917541504
1772698593346621000,2.811620849609375,1.6100037097930908,2.9600915908813477,-0.349071204662323
1772698593356621000,2.82162109375,1.5053149461746216,2.6960582733154297,-0.28804075717926025
1772698593366621000,2.831620849609375,1.2312005758285522,2.3643484115600586,-0.11464107036590576
1772698593376621000,2.84162109375,1.0216695070266724,2.224370002746582,0.009843111038208008
1772698593386621000,2.851620849609375,0.7962630987167358,2.0867457389831543,0.12943947315216064
1772698593396621000,2.86162109375,0.6060361862182617,1.927825927734375,0.27175629138946533
1772698593406621000,2.871620849609375,0.5159492492675781,1.8124241828918457,0.4268817901611328
1772698593416621000,2.88162109375,0.4024479389190674,1.7841901779174805,0.4991178512573242
1772698593426621000,2.891620849609375,0.33587348461151123,1.8421306610107422,0.5391790866851807
1772698593436621000,2.90162109375,0.3614673614501953,1.8922090530395508,0.6410456895828247
1772698593446621000,2.911620849609375,0.5012729167938232,1.8902182579040527,0.8132424354553223
1772698593456621000,2.92162109375,0.7276079654693604,1.7905526161193848,1.0404925346374512
1772698593466621000,2.931620849609375,0.8379520177841187,1.6496024131774902,1.2180724143981934
1772698593476621000,2.94162109375,0.8721977472305298,1.600642204284668,1.2672885656356812
1772698593486621000,2.951620849609375,0.9509203433990479,1.6755423545837402,1.2130028009414673
1772698593496621000,2.96162109375,0.9885004758834839,1.7935237884521484,1.0682284832000732
1772698593506621000,2.971620849609375,0.9449431896209717,1.8247413635253906,0.9254770278930664
1772698593516621000,2.98162109375,0.805131196975708,1.7326722145080566,0.8518706560134888
1772698593526621000,2.991620849609375,0.7036559581756592,1.6059603691101074,1.0025300979614258
1772698593536621000,3.00162109375,0.2422962188720703,1.5434560775756836,1.2390093803405762
1772698593546621000,3.011620849609375,-0.31267833709716797,1.6067538261413574,1.5760610103607178
1772698593556621000,3.02162109375,-1.0204581022262573,1.7305951118469238,1.731203317642212
1772698593566621000,3.031620849609375,-1.4434242248535156,1.7873563766479492,1.6644855737686157
1772698593576621000,3.04162109375,-1.2385002374649048,1.8842506408691406,1.4704036712646484
1772698593586621000,3.051620849609375,-0.7683383226394653,1.6059608459472656,1.0384914875030518
1772698593596621000,3.06162109375,-0.07572007179260254,1.2473859786987305,0.6030916571617126
1772698593606621000,3.071620849609375,0.3570493459701538,0.7210016250610352,-0.15463590621948242
1772698593616621000,3.08162109375,0.6255258321762085,-0.0449981689453125,-0.4718979001045227
1772698593626621000,3.091620849609375,0.6979849338531494,-0.5518693923950195,-0.4647316336631775
1772698593636621000,3.10162109375,-1.15651535987854,-1.5359411239624023,-0.5646125078201294
1772698593646621000,3.111620849609375,-4.103322982788086,-4.512713432312012,-0.15218204259872437
1772698593656621000,3.12162109375,-4.489659309387207,-11.466044425964355,0.7102593183517456
1772698593666621000,3.131620849609375,-8.163134574890137,-17.75750732421875,-1.393103837966919
1772698593676621000,3.14162109375,-12.59099292755127,-16.71673011779785,-6.22594690322876
1772698593686621000,3.151620849609375,-7.204718589782715,-9.982312202453613,-7.7040114402771
1772698593696621000,3.16162109375,-0.39751875400543213,-4.914280891418457,-7.687611103057861
1772698593706621000,3.171620849609375,1.4595316648483276,0.2700471878051758,-4.725520133972168
1772698593716621000,3.18162109375,2.995288848876953,5.203402519226074,-0.9737075567245483
1772698593726621000,3.191620849609375,3.8776397705078125,6.367741584777832,1.473229169845581
1772698593736621000,3.20162109375,3.8358898162841797,0.08594512939453125,3.2039170265197754
1772698593746621000,3.211620849609375,3.244462490081787,-6.084790229797363,4.0504255294799805
1772698593756621000,3.22162109375,0.4012117385864258,-11.095439910888672,4.113753795623779
1772698593766621000,3.231620849609375,-2.221318006515503,-14.001912117004395,2.4709408283233643
1772698593776621000,3.24162109375,-3.4254353046417236,-14.383575439453125,-1.5128660202026367
1772698593786621000,3.251620849609375,-3.9676923751831055,-10.913666725158691,-6.922727108001709
1772698593796621000,3.26162109375,-3.2735066413879395,-6.089255332946777,-8.610873222351074
1772698593806621000,3.271620849609375,-1.3818130493164062,-2.9019861221313477,-6.634240627288818
1772698593816621000,3.28162109375,0.6430625915527344,-0.14960670471191406,-4.802591323852539
1772698593826621000,3.291620849609375,2.542189121246338,2.338846206665039,-3.410775661468506
1772698593836621000,3.30162109375,3.7367196083068848,4.027272701263428,-2.0603723526000977
1772698593846621000,3.311620849609375,3.556365966796875,4.734161376953125,-1.2972583770751953
1772698593856621000,3.32162109375,2.1809234619140625,4.5025787353515625,-1.4486547708511353
1772698593866621000,3.331620849609375,0.7190734148025513,3.4833641052246094,-1.7672412395477295
1772698593876621000,3.34162109375,-0.29116034507751465,2.130466938018799,-1.8004460334777832
1772698593886621000,3.351620849609375,-0.8632091283798218,0.7688331604003906,-1.3651660680770874
1772698593896621000,3.36162109375,-1.2020363807678223,-0.23466873168945312,-0.8321748971939087
1772698593906621000,3.371620849609375,-1.0212318897247314,-0.5840444564819336,-0.037813782691955566
1772698593916621000,3.38162109375,-0.7045333981513977,-0.34673023223876953,0.741828203201294
1772698593926621000,3.391620849609375,-0.6851701736450195,0.16510295867919922,1.1897069215774536
1772698593936621000,3.40162109375,-0.5197913646697998,0.7337245941162109,1.6757550239562988
1772698593946621000,3.411620849609375,-0.3815232515335083,1.5117111206054688,2.0355138778686523
1772698593956621000,3.42162109375,-0.37382495403289795,2.229499340057373,2.1539649963378906
1772698593966621000,3.431620849609375,-0.49154919385910034,2.985647678375244,1.9551986455917358
1772698593976621000,3.44162109375,-0.152848482131958,3.586977958679199,1.59688401222229
1772698593986621000,3.451620849609375,0.3796638250350952,4.014373779296875,1.1720689535140991
1772698593996621000,3.46162109375,0.685616135597229,3.979464530944824,0.9153620004653931
1772698594006621000,3.471620849609375,0.8535481691360474,3.5025715827941895,0.8393946886062622
1772698594016621000,3.48162109375,0.9420925378799438,2.9909934997558594,0.9105892181396484
1772698594026621000,3.491620849609375,0.8051806688308716,2.7072525024414062,0.9702326059341431
1772698594036621000,3.50162109375,0.5072181224822998,2.55410099029541,1.0026394128799438
1772698594046621000,3.511620849609375,0.30472517013549805,2.517782211303711,0.9981482028961182
1772698594056621000,3.52162109375,0.23705065250396729,2.5525336265563965,0.8857022523880005
1772698594066621000,3.531620849609375,0.1653435230255127,2.660738945007324,0.5220870971679688
1772698594076621000,3.54162109375,0.057000160217285156,2.8012962341308594,0.0519791841506958
1772698594086621000,3.551620849609375,0.13755440711975098,2.8765015602111816,-0.39598357677459717
1772698594096621000,3.56162109375,0.38233983516693115,2.8007454872131348,-0.919540286064148
1772698594106621000,3.571620849609375,0.47315406799316406,2.464583396911621,-1.242163062095642
1772698594116621000,3.58162109375,0.33834195137023926,1.9663853645324707,-1.414649248123169
1772698594126621000,3.591620849609375,0.23856234550476074,1.5452203750610352,-1.537498950958252
1772698594136621000,3.60162109375,0.15836107730865479,1.3023643493652344,-1.585787296295166
1772698594146621000,3.611620849609375,0.059165000915527344,1.3040103912353516,-1.47095787525177
1772698594156621000,3.62162109375,-0.2841038703918457,1.2815847396850586,-1.3175688982009888
1772698594166621000,3.631620849609375,-0.23902380466461182,1.2765464782714844,-1.013204574584961
1772698594176621000,3.64162109375,0.0833134651184082,1.224167823791504,-0.682843804359436
1772698594186621000,3.651620849609375,0.5653363466262817,1.3516855239868164,-0.3455531597137451
1772698594196621000,3.66162109375,0.8595831394195557,1.4761600494384766,-0.12109982967376709
1772698594206621000,3.671620849609375,1.2768974304199219,2.278998374938965,-0.011255741119384766
1772698594216621000,3.68162109375,1.0077139139175415,2.7481136322021484,-0.34757471084594727
1772698594226621000,3.691620849609375,0.8965725898742676,3.511631965637207,-0.8432877063751221
1772698594236621000,3.70162109375,0.8380190134048462,3.95017147064209,-1.429260015487671
1772698594246621000,3.711620849609375,0.9567114114761353,3.894637107849121,-1.8193306922912598
1772698594256621000,3.72162109375,1.1059311628341675,3.7068052291870117,-2.140913724899292
1772698594266621000,3.731620849609375,1.2596495151519775,2.852591037750244,-2.074920892715454
1772698594276621000,3.74162109375,1.1216464042663574,1.8965215682983398,-2.0993101596832275
1772698594286621000,3.751620849609375,0.45829010009765625,1.1772747039794922,-2.5349488258361816
1772698594296621000,3.76162109375,-0.10462498664855957,0.8673076629638672,-2.9572362899780273
1772698594306621000,3.771620849609375,-0.10568845272064209,0.5957784652709961,-3.254031181335449
1772698594316621000,3.78162109375,0.011700749397277832,-0.40796947479248047,-3.496884822845459
1772698594326621000,3.791620849609375,0.2247931957244873,-2.026473045349121,-3.594428539276123
1772698594336621000,3.80162109375,0.5128118991851807,-4.079967498779297,-2.6099488735198975
1772698594346621000,3.811620849609375,1.169646978378296,-6.050600051879883,-0.20676934719085693
1772698594356621000,3.82162109375,0.38152503967285156,-8.02444839477539,2.2568981647491455
1772698594366621000,3.831620849609375,-1.3782501220703125,-10.325427055358887,3.731537342071533
1772698594376621000,3.84162109375,-0.9301590919494629,-12.993534088134766,4.176393985748291
1772698594386621000,3.851620849609375,-0.5682415962219238,-15.726510047912598,5.8190507888793945
1772698594396621000,3.86162109375,-1.3981819152832031,-16.962759017944336,7.460003852844238
1772698594406621000,3.871620849609375,-1.6948928833007812,-14.953200340270996,7.642868995666504
1772698594416621000,3.88162109375,-1.1182615756988525,-10.622052192687988,6.629971027374268
1772698594426621000,3.891620849609375,-0.40540289878845215,-6.8834991455078125,4.5793256759643555
1772698594436621000,3.90162109375,0.7828097343444824,-4.137870788574219,2.944103717803955
1772698594446621000,3.911620849609375,1.616123914718628,-2.287083625793457,1.4802451133728027
1772698594456621000,3.92162109375,2.199760913848877,-1.5927791595458984,0.4645833969116211
1772698594466621000,3.931620849609375,1.695305585861206,-1.3518285751342773,0.4301905632019043
1772698594476621000,3.94162109375,0.40506625175476074,-0.8941936492919922,1.0541861057281494
1772698594486621000,3.951620849609375,-0.9922159910202026,-0.10862541198730469,1.5627217292785645
1772698594496621000,3.96162109375,-2.0230164527893066,0.8013267517089844,1.1541340351104736
1772698594506621000,3.971620849609375,-2.520479202270508,1.6715316772460938,0.506720781326294
1772698594516621000,3.98162109375,-2.4584615230560303,2.35129451751709,-0.1969287395477295
1772698594526621000,3.991620849609375,-1.9135921001434326,2.9604334831237793,-0.7559942007064819
1772698594536621000,4.00162109375,-1.0403952598571777,3.5731892585754395,-1.0886094570159912
1772698594546621000,4.011620849609375,-0.26045238971710205,4.157461166381836,-1.3358097076416016
1772698594556621000,4.02162109375,0.30090880393981934,4.54209041595459,-1.6682775020599365
1772698594566621000,4.031620849609375,0.7637505531311035,4.956974506378174,-2.173353910446167
1772698594576621000,4.04162109375,1.0622353553771973,5.057430267333984,-2.5973737239837646
1772698594586621000,4.051620849609375,1.1958283185958862,4.837730407714844,-2.8630146980285645
1772698594596621000,4.06162109375,1.208776593208313,4.3201751708984375,-2.952871084213257
1772698594606621000,4.071620849609375,1.0879572629928589,3.688108444213867,-2.846588611602783
1772698594616621000,4.08162109375,0.931625485420227,2.9194583892822266,-2.579965591430664
1772698594626621000,4.091620849609375,0.6652562618255615,2.15077543258667,-2.2362823486328125
1772698594636621000,4.10162109375,0.3257380723953247,1.4801340103149414,-1.8655297756195068
1772698594646621000,4.111620849609375,0.042874813079833984,1.0182161331176758,-1.5328528881072998
1772698594656621000,4.12162109375,-0.1438596248626709,0.8554315567016602,-1.2400178909301758
1772698594666621000,4.131620849609375,-0.23454368114471436,0.9629697799682617,-0.973167359828949
1772698594676621000,4.14162109375,-0.21435832977294922,1.2393217086791992,-0.859135627746582
1772698594686621000,4.151620849609375,-0.2109999656677246,1.6488218307495117,-0.7376703023910522
1772698594696621000,4.16162109375,-0.23899996280670166,2.118751049041748,-0.6134107112884521
1772698594706621000,4.171620849609375,-0.1673266887664795,2.5622611045837402,-0.5822181701660156
1772698594716621000,4.18162109375,-0.07297348976135254,2.8889331817626953,-0.5165788531303406
1772698594726621000,4.191620849609375,-0.04457402229309082,3.1966166496276855,-0.5589713454246521
1772698594736621000,4.20162109375,-0.12282383441925049,3.4839110374450684,-0.8173020482063293
1772698594746621000,4.211620849609375,-0.2126549482345581,3.7152318954467773,-1.2265409231185913
1772698594756621000,4.22162109375,-0.2637367248535156,3.8114399909973145,-1.7718877792358398
1772698594766621000,4.231620849609375,-0.12965631484985352,3.8078532218933105,-2.1972475051879883
1772698594776621000,4.24162109375,0.05102193355560303,3.6459813117980957,-2.529749870300293
1772698594786621000,4.251620849609375,0.3166623115539551,3.561119556427002,-2.38606858253479
1772698594796621000,4.26162109375,0.37893640995025635,3.308490753173828,-1.8914501667022705
1772698594806621000,4.271620849609375,0.24766075611114502,2.8482255935668945,-1.2806272506713867
1772698594816621000,4.28162109375,0.1928166151046753,2.503901481628418,-0.6802786588668823
1772698594826621000,4.291620849609375,0.21153032779693604,2.296278953552246,0.19657158851623535
1772698594836621000,4.30162109375,0.2384648323059082,2.286743640899658,1.3090558052062988
1772698594846621000,4.311620849609375,0.26937615871429443,2.360764503479004,2.278872489929199
1772698594856621000,4.32162109375,0.6036109924316406,2.3214316368103027,2.841578245162964
1772698594866621000,4.331620849609375,1.1681880950927734,1.908693790435791,3.1418888568878174
1772698594876621000,4.34162109375,1.6385889053344727,0.9787149429321289,3.730318546295166
1772698594886621000,4.351620849609375,1.6595135927200317,0.08766937255859375,4.466736316680908
1772698594896621000,4.36162109375,1.0829451084136963,-0.4313030242919922,4.816871166229248
1772698594906621000,4.371620849609375,0.4997069835662842,-0.3342857360839844,4.614049911499023
1772698594916621000,4.38162109375,0.3955286741256714,0.2754650115966797,3.974062919616699
1772698594926621000,4.391620849609375,0.4564402103424072,1.1723833084106445,3.062150239944458
1772698594936621000,4.40162109375,0.5148934125900269,2.019425392150879,2.1768016815185547
1772698594946621000,4.411620849609375,-0.036275625228881836,2.4123005867004395,1.5687156915664673
1772698594956621000,4.42162109375,-1.4945619106292725,1.6078157424926758,1.7245144844055176
1772698594966621000,4.431620849609375,-2.5811686515808105,-1.7198896408081055,2.136092185974121
1772698594976621000,4.44162109375,-0.921055793762207,-7.185840606689453,1.8656046390533447
1772698594986621000,4.451620849609375,-1.9935827255249023,-12.015633583068848,-0.8153243660926819
1772698594996621000,4.46162109375,-6.125515937805176,-12.525378227233887,-4.334263801574707
1772698595006621000,4.471620849609375,-5.880011081695557,-8.120489120483398,-5.241084575653076
1772698595016621000,4.48162109375,-4.0044474601745605,-7.299489974975586,-3.8993678092956543
1772698595026621000,4.491620849609375,0.24802327156066895,-11.056655883789062,-2.275214195251465
1772698595036621000,4.50162109375,3.367013931274414,-12.093530654907227,-2.49592661857605
1772698595046621000,4.511620849609375,1.984793782234192,-7.202295303344727,-3.0087294578552246
1772698595056621000,4.52162109375,1.39536714553833,-1.7020807266235352,-1.4464834928512573
1772698595066621000,4.531620849609375,2.5876548290252686,2.0598955154418945,-0.236014723777771
1772698595076621000,4.54162109375,4.787524700164795,3.049582004547119,0.4951283931732178
1772698595086621000,4.551620849609375,4.406296253204346,0.98590087890625,1.3034313917160034
1772698595096621000,4.56162109375,1.7015444040298462,-2.1053218841552734,0.9009191989898682
1772698595106621000,4.571620849609375,-1.3771332502365112,-4.555485725402832,-1.0487897396087646
1772698595116621000,4.58162109375,-2.3542957305908203,-6.412883758544922,-2.4922289848327637
1772698595126621000,4.591620849609375,-1.7177683115005493,-7.839815139770508,-2.50266170501709
1772698595136621000,4.60162109375,-0.06685280799865723,-7.728323936462402,-1.9198442697525024
1772698595146621000,4.611620849609375,-0.24459242820739746,-4.9676923751831055,-2.2141518592834473
1772698595156621000,4.62162109375,-0.3635880947113037,-2.4143686294555664,-1.6467698812484741
1772698595166621000,4.631620849609375,0.07607471942901611,-0.9641408920288086,-0.5807756781578064
1772698595176621000,4.64162109375,0.34166908264160156,0.02904033660888672,0.2476198673248291
1772698595186621000,4.651620849609375,0.1336456537246704,1.0091581344604492,0.5285003185272217
1772698595196621000,4.66162109375,-0.36257290840148926,2.0240020751953125,0.2635684013366699
1772698595206621000,4.671620849609375,-0.6561858654022217,2.806001663208008,-0.2708926200866699
1772698595216621000,4.68162109375,-0.42693769931793213,3.1296510696411133,-0.6931319236755371
1772698595226621000,4.691620849609375,0.037551283836364746,3.2651805877685547,-0.8313624858856201
1772698595236621000,4.70162109375,0.503972053527832,3.308746337890625,-0.5861971378326416
1772698595246621000,4.711620849609375,0.5814275741577148,2.775308609008789,-0.09016311168670654
1772698595256621000,4.72162109375,-0.038307905197143555,1.882491111755371,0.36692023277282715
1772698595266621000,4.731620849609375,-0.30164504051208496,1.2920513153076172,1.0948145389556885
1772698595276621000,4.74162109375,-0.23714089393615723,1.222097396850586,1.898789882659912
1772698595286621000,4.751620849609375,-0.09509551525115967,1.6514759063720703,2.4922916889190674
1772698595296621000,4.76162109375,0.029454588890075684,2.388244152069092,2.7616281509399414
1772698595306621000,4.771620849609375,0.29141414165496826,3.23581600189209,2.815884590148926
1772698595316621000,4.78162109375,0.7603708505630493,3.9652299880981445,2.77529239654541
1772698595326621000,4.791620849609375,1.2920262813568115,4.4665069580078125,2.6786623001098633
1772698595336621000,4.80162109375,1.7086005210876465,4.673739433288574,2.590291976928711
1772698595346621000,4.811620849609375,1.7642067670822144,4.681245803833008,2.4373676776885986
1772698595356621000,4.82162109375,1.3872989416122437,4.478662490844727,2.0582680702209473
1772698595366621000,4.831620849609375,1.0377259254455566,4.077260971069336,1.4874423742294312
1772698595376621000,4.84162109375,0.8910950422286987,3.611764430999756,0.72823166847229
1772698595386621000,4.851620849609375,1.0182089805603027,3.3078393936157227,-0.12862813472747803
1772698595396621000,4.86162109375,1.3727142810821533,3.279341697692871,-0.978484034538269
1772698595406621000,4.871620849609375,1.8439679145812988,3.4496049880981445,-1.7276642322540283
1772698595416621000,4.88162109375,2.156391143798828,3.643281936645508,-2.303351402282715
1772698595426621000,4.891620849609375,1.930463433265686,3.6957035064697266,-2.7316222190856934
1772698595436621000,4.90162109375,1.3164172172546387,3.435849666595459,-2.8720738887786865
1772698595446621000,4.911620849609375,0.7488805055618286,2.811878204345703,-2.65724515914917
1772698595456621000,4.92162109375,0.3778916001319885,2.1247291564941406,-2.038898468017578
1772698595466621000,4.931620849609375,0.28054237365722656,1.664668083190918,-1.1673718690872192
1772698595476621000,4.94162109375,0.30267786979675293,1.3185453414916992,-0.5484671592712402
1772698595486621000,4.951620849609375,0.35907161235809326,0.8947544097900391,-0.2620704174041748
1772698595496621000,4.96162109375,0.5845226049423218,0.32396793365478516,-0.40164196491241455
1772698595506621000,4.971620849609375,0.7846790552139282,-0.32421302795410156,-0.5748051404953003
1772698595516621000,4.98162109375,0.792933464050293,-0.7816247940063477,-0.8134976029396057
1772698595526621000,4.991620849609375,0.7050642967224121,-0.6759634017944336,-1.432889699935913
1772698595536621000,5.00162109375,0.41533005237579346,0.040042877197265625,-2.5354208946228027
1772698595546621000,5.011620849609375,-0.0002862215042114258,0.9107561111450195,-3.720635175704956
1772698595556621000,5.02162109375,-0.10966110229492188,1.2734928131103516,-4.818891525268555
1772698595566621000,5.031620849609375,-0.1810474395751953,0.700434684753418,-5.6503496170043945
1772698595576621000,5.04162109375,-0.1794135570526123,-0.7032938003540039,-5.977719306945801
1772698595586621000,5.051620849609375,0.11734962463378906,-1.7672853469848633,-5.094761371612549
1772698595596621000,5.06162109375,0.3954578638076782,-2.537586212158203,-2.9061758518218994
1772698595606621000,5.071620849609375,0.3849601745605469,-4.505958557128906,-0.3731645345687866
1772698595616621000,5.08162109375,0.22463130950927734,-7.431951522827148,1.616827130317688
1772698595626621000,5.091620849609375,0.05953192710876465,-10.96590805053711,3.711616039276123
1772698595636621000,5.10162109375,-1.057190179824829,-13.874115943908691,5.310056209564209
1772698595646621000,5.111620849609375,-2.5840306282043457,-14.821674346923828,5.803138256072998
1772698595656621000,5.12162109375,-3.086289882659912,-14.310626029968262,6.012568950653076
1772698595666621000,5.131620849609375,-2.6344234943389893,-12.436213493347168,6.321473121643066
1772698595676621000,5.14162109375,-2.340522289276123,-9.120149612426758,5.894327163696289
1772698595686621000,5.151620849609375,-1.7286040782928467,-6.160304069519043,4.748544692993164
1772698595696621000,5.16162109375,-0.536628246307373,-3.710733413696289,3.4594764709472656
1772698595706621000,5.171620849609375,0.653918981552124,-1.92633056640625,2.2291159629821777
1772698595716621000,5.18162109375,1.306666612625122,-0.6489944458007812,1.3607388734817505
1772698595726621000,5.191620849609375,1.9735877513885498,0.5117855072021484,0.7724728584289551
1772698595736621000,5.20162109375,1.804602861404419,1.1924018859863281,-0.09050202369689941
1772698595746621000,5.211620849609375,0.9463398456573486,1.3273706436157227,-1.0446100234985352
1772698595756621000,5.22162109375,0.27513909339904785,1.479710578918457,-1.3711459636688232
1772698595766621000,5.231620849609375,-0.5769025087356567,1.8006439208984375,-1.5772500038146973
1772698595776621000,5.24162109375,-1.4588779211044312,2.223597526550293,-1.5414550304412842
1772698595786621000,5.251620849609375,-2.0129776000976562,2.3891782760620117,-1.434239149093628
1772698595796621000,5.26162109375,-1.9164451360702515,2.5818681716918945,-1.0864982604980469
1772698595806621000,5.271620849609375,-1.4861037731170654,2.885051727294922,-0.597171425819397
1772698595816621000,5.28162109375,-1.2854506969451904,3.308201789855957,-0.41698622703552246
1772698595826621000,5.291620849609375,-1.514907717704773,3.7966480255126953,-0.5676323175430298
1772698595836621000,5.30162109375,-1.668564796447754,4.071425437927246,-0.7560068368911743
1772698595846621000,5.311620849609375,-1.6138925552368164,3.960451126098633,-1.0142335891723633
1772698595856621000,5.32162109375,-1.3815991878509521,3.655642509460449,-1.3898357152938843
1772698595866621000,5.331620849609375,-1.087968111038208,3.337378978729248,-1.8857972621917725
1772698595876621000,5.34162109375,-0.8672380447387695,3.038363456726074,-2.3037211894989014
1772698595886621000,5.351620849609375,-0.696800708770752,2.8057947158813477,-2.515857458114624
1772698595896621000,5.36162109375,-0.5762834548950195,2.633753776550293,-2.4783143997192383
1772698595906621000,5.371620849609375,-0.4797900915145874,2.3903045654296875,-2.117990016937256
1772698595916621000,5.38162109375,-0.3918355703353882,2.1871891021728516,-1.5989112854003906
1772698595926621000,5.391620849609375,-0.342382550239563,2.1362829208374023,-1.113723874092102
1772698595936621000,5.40162109375,-0.38359498977661133,2.254732131958008,-0.724878191947937
1772698595946621000,5.411620849609375,-0.5760669708251953,2.5701565742492676,-0.4136617183685303
1772698595956621000,5.42162109375,-0.7415939569473267,3.029684066772461,-0.19937491416931152
1772698595966621000,5.431620849609375,-0.6163713932037354,3.5133790969848633,0.1452021598815918
1772698595976621000,5.44162109375,-0.21372759342193604,3.9087815284729004,0.5932881832122803
1772698595986621000,5.451620849609375,0.21313905715942383,4.260672092437744,0.7287229299545288
1772698595996621000,5.46162109375,0.7328071594238281,4.296892166137695,0.9008455276489258
1772698596006621000,5.471620849609375,1.1834439039230347,4.033585548400879,1.2239561080932617
1772698596016621000,5.48162109375,1.553041696548462,3.5528359413146973,1.5455920696258545
1772698596026621000,5.491620849609375,1.6608589887619019,2.7310590744018555,1.5844786167144775
1772698596036621000,5.50162109375,2.0907697677612305,1.7082891464233398,1.7321350574493408
1772698596046621000,5.511620849609375,1.72269606590271,0.6587238311767578,2.0536184310913086
1772698596056621000,5.52162109375,0.646094799041748,0.14531707763671875,2.36916446685791
1772698596066621000,5.531620849609375,-0.41440141201019287,0.4792203903198242,2.3416624069213867
1772698596076621000,5.54162109375,-0.6024948358535767,1.189652442932129,2.0811538696289062
1772698596086621000,5.551620849609375,-0.005924582481384277,2.050588607788086,1.8233048915863037
1772698596096621000,5.56162109375,0.7755790948867798,2.951138496398926,1.7349584102630615
1772698596106621000,5.571620849609375,1.6881779432296753,3.6985464096069336,1.6227991580963135
1772698596116621000,5.58162109375,2.38938045501709,4.013059139251709,1.4229997396469116
1772698596126621000,5.591620849609375,2.628154754638672,3.753452777862549,1.3727600574493408
1772698596136621000,5.60162109375,2.6654844284057617,3.2448601722717285,1.8293036222457886
1772698596146621000,5.611620849609375,1.803070068359375,2.3985443115234375,2.785928249359131
1772698596156621000,5.62162109375,-0.2933330535888672,-0.3400592803955078,4.632264137268066
1772698596166621000,5.631620849609375,-2.888925790786743,-6.0858612060546875,6.405611515045166
1772698596176621000,5.64162109375,-3.621342658996582,-12.996033668518066,5.3839030265808105
1772698596186621000,5.651620849609375,-8.156553268432617,-19.103525161743164,0.8027973175048828
1772698596206621000,5.671620849609375,-4.8575334548950195,-10.8134183883667,-6.108163356781006
1772698596216621000,5.68162109375,-2.3137800693511963,-4.037763595581055,-5.7856035232543945
1772698596226621000,5.691620849609375,-0.7805677056312561,-0.6276998519897461,-4.669449806213379
1772698596236621000,5.70162109375,2.232916831970215,-0.2467212677001953,-3.438918113708496
1772698596246621000,5.711620849609375,6.3520002365112305,-1.6936321258544922,-2.998873233795166
1772698596256621000,5.72162109375,8.420065879821777,-1.6415653228759766,-2.436617612838745
1772698596266621000,5.731620849609375,7.177486896514893,-0.231719970703125,-0.6933481693267822
1772698596276621000,5.74162109375,3.625515937805176,0.8519954681396484,0.3968827724456787
1772698596286621000,5.751620849609375,0.6810734272003174,0.15944862365722656,0.28278636932373047
1772698596296621000,5.76162109375,-0.9111042022705078,-2.742964744567871,-0.40052640438079834
1772698596306621000,5.771620849609375,-2.5390625,-5.876704216003418,-1.252511978149414
1772698596316621000,5.78162109375,-3.6836798191070557,-8.38695240020752,-1.7155675888061523
1772698596326621000,5.791620849609375,-3.6208508014678955,-9.10200309753418,-1.8393957614898682
1772698596336621000,5.80162109375,-2.305190086364746,-7.644567489624023,-1.8540197610855103
1772698596346621000,5.811620849609375,-0.8322555422782898,-4.9078874588012695,-1.6715387105941772
1772698596356621000,5.82162109375,0.5265430212020874,-2.551729202270508,-1.0175917148590088
1772698596366621000,5.831620849609375,1.7547246217727661,-0.7444267272949219,-0.46339118480682373
1772698596376621000,5.84162109375,2.446291208267212,0.798527717590332,-0.2139831781387329
1772698596386621000,5.851620849609375,2.331477165222168,2.0976576805114746,-0.11142385005950928
1772698596396621000,5.86162109375,1.5466833114624023,3.0493521690368652,-0.08133149147033691
1772698596406621000,5.871620849609375,0.6897122859954834,3.7442941665649414,-0.1889268159866333
1772698596416621000,5.88162109375,0.1747044324874878,4.130103588104248,-0.24816977977752686
1772698596426621000,5.891620849609375,0.07328307628631592,4.033790588378906,-0.2049623727798462
1772698596436621000,5.90162109375,0.04314875602722168,3.483792304992676,0.051612019538879395
1772698596446621000,5.911620849609375,-0.0733410120010376,2.4906749725341797,0.48757874965667725
1772698596456621000,5.92162109375,-0.14672446250915527,1.5327939987182617,0.9610030651092529
1772698596466621000,5.931620849609375,-0.039074063301086426,0.7927379608154297,1.4427847862243652
1772698596476621000,5.94162109375,0.17045879364013672,0.4827251434326172,1.8608506917953491
1772698596486621000,5.951620849609375,0.40091800689697266,0.6740655899047852,2.206815719604492
1772698596496621000,5.96162109375,0.6268314123153687,1.3107805252075195,2.27461838722229
1772698596506621000,5.971620849609375,0.9247243404388428,2.3668575286865234,2.038484573364258
1772698596516621000,5.98162109375,1.2905689477920532,3.6531620025634766,1.603444218635559
1772698596526621000,5.991620849609375,1.5829137563705444,5.005044937133789,1.1010169982910156
1772698596536621000,6.00162109375,1.8243379592895508,6.151644706726074,0.6648461818695068
1772698596546621000,6.011620849609375,1.9405913352966309,6.938028335571289,0.3728896379470825
1772698596556621000,6.02162109375,1.9178924560546875,7.11845588684082,0.16901791095733643
1772698596566621000,6.031620849609375,1.5985336303710938,7.012594223022461,-0.2686194181442261
1772698596576621000,6.04162109375,1.3317846059799194,6.425540924072266,-0.7757309675216675
1772698596586621000,6.051620849609375,1.1798226833343506,5.686599254608154,-1.3413282632827759
1772698596596621000,6.06162109375,1.104540228843689,5.133840560913086,-1.931200623512268
1772698596606621000,6.071620849609375,1.055227518081665,4.600968360900879,-2.270554304122925
1772698596616621000,6.08162109375,1.105496883392334,3.9258995056152344,-2.2087531089782715
1772698596626621000,6.091620849609375,1.1896212100982666,3.1110734939575195,-1.8923109769821167
1772698596636621000,6.10162109375,0.9657105207443237,2.043560028076172,-1.3697419166564941
1772698596646621000,6.111620849609375,0.9914085865020752,0.7028160095214844,-0.4275176525115967
1772698596656621000,6.12162109375,1.046244502067566,-0.8133182525634766,0.6126928329467773
1772698596666621000,6.131620849609375,1.058205485343933,-2.1478633880615234,1.4006009101867676
1772698596676621000,6.14162109375,0.7274782657623291,-2.8353986740112305,1.441072702407837
1772698596686621000,6.151620849609375,0.15379905700683594,-2.353374481201172,0.2187049388885498
1772698596696621000,6.16162109375,-0.20998334884643555,-0.827977180480957,-1.5271265506744385
1772698596706621000,6.171620849609375,-0.3257828950881958,1.0663681030273438,-3.303983449935913
1772698596716621000,6.18162109375,0.24302124977111816,2.2800683975219727,-4.796759128570557
1772698596726621000,6.191620849609375,0.9745608568191528,2.065915107727051,-5.407436847686768
1772698596736621000,6.20162109375,1.284876823425293,0.3228425979614258,-4.451505661010742
1772698596746621000,6.211620849609375,0.8114042282104492,-2.036595344543457,-2.2648017406463623
1772698596756621000,6.22162109375,0.2970147132873535,-4.719300270080566,0.17297017574310303
1772698596766621000,6.231620849609375,-0.04928135871887207,-7.738356590270996,2.478256940841675
1772698596776621000,6.24162109375,-0.5186235904693604,-11.032944679260254,4.223529815673828
1772698596786621000,6.251620849609375,-1.694069266319275,-13.606815338134766,4.881969451904297
1772698596796621000,6.26162109375,-2.688308000564575,-14.866265296936035,4.387665271759033
1772698596806621000,6.271620849609375,-2.2672181129455566,-14.955212593078613,3.8082828521728516
1772698596816621000,6.28162109375,-1.5973519086837769,-13.05978012084961,4.188384056091309
1772698596826621000,6.291620849609375,-1.3949832916259766,-9.532660484313965,5.185035228729248
1772698596836621000,6.30162109375,-1.1270639896392822,-6.418231964111328,5.364893913269043
1772698596846621000,6.311620849609375,-0.23273038864135742,-3.8319530487060547,4.765752792358398
1772698596856621000,6.32162109375,0.6167209148406982,-2.1317129135131836,4.24136209487915
1772698596866621000,6.331620849609375,1.0116984844207764,-0.9555788040161133,3.7043075561523438
1772698596876621000,6.34162109375,0.8955371379852295,-0.3294506072998047,2.6615073680877686
1772698596886621000,6.351620849609375,0.8836910724639893,0.17299652099609375,1.2795177698135376
1772698596896621000,6.36162109375,0.5808377265930176,0.6395139694213867,-0.07372641563415527
1772698596906621000,6.371620849609375,-0.12152409553527832,0.9223499298095703,-0.9332864880561829
1772698596916621000,6.38162109375,-0.8783442974090576,1.1329536437988281,-1.3661301136016846
1772698596926621000,6.391620849609375,-1.6285910606384277,1.3928461074829102,-1.396489143371582
1772698596936621000,6.40162109375,-2.306752920150757,1.6729674339294434,-1.3030908107757568
1772698596946621000,6.411620849609375,-2.571516275405884,1.8910179138183594,-1.2961808443069458
1772698596956621000,6.42162109375,-2.342280864715576,2.2494287490844727,-1.3736567497253418
1772698596966621000,6.431620849609375,-1.9034969806671143,2.8304080963134766,-1.5091625452041626
1772698596976621000,6.44162109375,-1.3552052974700928,3.5110907554626465,-1.6194372177124023
1772698596986621000,6.451620849609375,-1.0553301572799683,4.009300231933594,-1.6640114784240723
1772698596996621000,6.46162109375,-1.1058061122894287,4.257506370544434,-1.7120550870895386
1772698597006621000,6.471620849609375,-0.9986053109169006,4.462301731109619,-1.7204275131225586
1772698597016621000,6.48162109375,-0.8881733417510986,4.673336029052734,-1.604453682899475
1772698597026621000,6.491620849609375,-0.7046785354614258,4.754301071166992,-1.4711334705352783
1772698597036621000,6.50162109375,-0.7060199975967407,4.929993152618408,-1.4738807678222656
1772698597046621000,6.511620849609375,-0.6358073949813843,4.9129791259765625,-1.2067946195602417
1772698597056621000,6.52162109375,-0.539821982383728,4.917972564697266,-0.943034827709198
1772698597066621000,6.531620849609375,-0.007241368293762207,5.4535017013549805,-0.4536222219467163
1772698597076621000,6.54162109375,-0.3417414426803589,5.4783782958984375,-0.5158039331436157
1772698597086621000,6.551620849609375,-0.29212260246276855,5.008036136627197,-0.30410993099212646
1772698597096621000,6.56162109375,0.2546135187149048,4.981022834777832,-0.008110225200653076
1772698597106621000,6.571620849609375,0.7294595241546631,5.158257484436035,-0.18149089813232422
1772698597116621000,6.58162109375,1.101240634918213,5.195559024810791,-0.4946853518486023
1772698597126621000,6.591620849609375,1.4525009393692017,4.826544761657715,-0.7553015351295471
1772698597136621000,6.60162109375,1.3113470077514648,4.043691635131836,-0.9727216958999634
1772698597146621000,6.611620849609375,0.6072089672088623,2.8161253929138184,-1.2734076976776123
1772698597156621000,6.62162109375,-0.1156771183013916,1.261911392211914,-1.475584864616394
1772698597166621000,6.631620849609375,-0.2671900987625122,-0.28946399688720703,-1.4995191097259521
1772698597176621000,6.64162109375,-0.12484908103942871,-1.2213830947875977,-1.306077241897583
1772698597186621000,6.651620849609375,-0.13484716415405273,-1.052774429321289,-0.7019168138504028
1772698597196621000,6.66162109375,0.19278311729431152,0.000049591064453125,0.04586613178253174
1772698597206621000,6.671620849609375,0.8863193988800049,1.2925071716308594,0.7714299559593201
1772698597216621000,6.68162109375,1.6315593719482422,2.517284393310547,1.5246169567108154
1772698597226621000,6.691620849609375,2.3111674785614014,3.4962315559387207,2.2681736946105957
1772698597236621000,6.70162109375,2.5397143363952637,3.9021387100219727,3.083744764328003
1772698597246621000,6.711620849609375,1.8190990686416626,3.55869197845459,4.083003997802734
1772698597256621000,6.72162109375,0.7794762849807739,1.758425235748291,5.540516376495361
1772698597266621000,6.731620849609375,-0.74086594581604,-2.402557373046875,6.6715192794799805
1772698597276621000,6.74162109375,-2.2191731929779053,-7.576211929321289,5.42848539352417
1772698597286621000,6.751620849609375,-5.369804859161377,-13.10002613067627,2.536360740661621
1772698597296621000,6.76162109375,-7.523745536804199,-16.654823303222656,-1.6957228183746338
1772698597306621000,6.771620849609375,-3.9536614418029785,-13.834100723266602,-4.800346374511719
1772698597316621000,6.78162109375,-1.8520851135253906,-7.157505035400391,-4.607318878173828
1772698597326621000,6.791620849609375,-1.4276669025421143,-2.4992809295654297,-3.118255615234375
1772698597336621000,6.80162109375,-0.6421381235122681,-0.28287220001220703,-1.5883736610412598
1772698597346621000,6.811620849609375,2.4333314895629883,-0.8240823745727539,-0.2651327848434448
1772698597356621000,6.82162109375,6.2906622886657715,-3.152853012084961,0.10837030410766602
1772698597366621000,6.831620849609375,7.358522891998291,-4.109424591064453,-0.3043597936630249
1772698597376621000,6.84162109375,5.234423637390137,-2.890766143798828,-0.613348126411438
1772698597386621000,6.851620849609375,2.110293388366699,-1.610280990600586,-1.1808470487594604
1772698597396621000,6.86162109375,0.05952739715576172,-1.0421724319458008,-2.3633813858032227
1772698597406621000,6.871620849609375,-0.9623804688453674,-1.8856782913208008,-3.1230125427246094
1772698597416621000,6.88162109375,-1.8874952793121338,-3.2196922302246094,-3.085367202758789
1772698597426621000,6.891620849609375,-2.3537750244140625,-4.164239883422852,-2.685166835784912
1772698597436621000,6.90162109375,-1.8838403224945068,-4.676721572875977,-2.2972331047058105
1772698597446621000,6.911620849609375,-0.6287263035774231,-4.943445205688477,-1.634705662727356
1772698597456621000,6.92162109375,0.7906291484832764,-4.765893936157227,-0.7562718391418457
1772698597466621000,6.931620849609375,1.5533277988433838,-3.9525651931762695,0.3081674575805664
1772698597476621000,6.94162109375,1.4565695524215698,-2.678434371948242,0.7301023006439209
1772698597486621000,6.951620849609375,1.118350625038147,-1.4251346588134766,1.116250991821289
1772698597496621000,6.96162109375,0.6400668621063232,-0.5685462951660156,1.5889610052108765
1772698597506621000,6.971620849609375,0.10778510570526123,-0.007603645324707031,1.9565246105194092
1772698597516621000,6.98162109375,-0.4564577341079712,0.35196590423583984,1.692996621131897
1772698597526621000,6.991620849609375,-0.4737652540206909,0.6408300399780273,1.3206932544708252
1772698597536621000,7.00162109375,0.17159950733184814,1.0855703353881836,0.8895609378814697
1772698597546621000,7.011620849609375,1.0473487377166748,1.7021350860595703,0.5007684230804443
1772698597556621000,7.02162109375,1.7498492002487183,2.1991348266601562,0.19977021217346191
1772698597566621000,7.031620849609375,2.162260055541992,2.4105968475341797,0.06214642524719238
1772698597576621000,7.04162109375,2.1838934421539307,2.234363555908203,0.22614920139312744
1772698597586621000,7.051620849609375,1.74025297164917,1.8048429489135742,0.55419921875
1772698597596621000,7.06162109375,1.1618142127990723,1.3933897018432617,0.9890714883804321
1772698597606621000,7.071620849609375,0.7834118604660034,1.3297834396362305,1.3472414016723633
1772698597616621000,7.08162109375,0.787243664264679,1.5599899291992188,1.5974175930023193
1772698597626621000,7.091620849609375,1.080265998840332,1.9067168235778809,1.6265090703964233
1772698597636621000,7.10162109375,1.5087189674377441,2.2612686157226562,1.491944670677185
1772698597646621000,7.111620849609375,2.0600533485412598,2.5248565673828125,1.3232088088989258
1772698597656621000,7.12162109375,2.5914974212646484,2.746501922607422,1.0846418142318726
1772698597666621000,7.131620849609375,2.74320125579834,2.941105842590332,0.622353196144104
1772698597676621000,7.14162109375,2.8949482440948486,3.192096710205078,0.1498202085494995
1772698597686621000,7.151620849609375,3.3492257595062256,3.5668630599975586,-0.2239004373550415
1772698597696621000,7.16162109375,3.141934394836426,3.8685731887817383,-0.6381946206092834
1772698597706621000,7.171620849609375,2.741032123565674,4.0102386474609375,-0.7745448350906372
1772698597716621000,7.18162109375,2.37066650390625,3.926241874694824,-0.6891129016876221
1772698597726621000,7.191620849609375,2.093698024749756,3.7561912536621094,-0.4499814510345459
1772698597736621000,7.20162109375,1.7922999858856201,3.54067325592041,-0.23743891716003418
1772698597746621000,7.211620849609375,1.590933084487915,3.2683844566345215,-0.10338687896728516
1772698597756621000,7.22162109375,1.7125883102416992,3.004973888397217,0.005144953727722168
1772698597766621000,7.231620849609375,1.8317668437957764,2.6976842880249023,0.09540712833404541
1772698597776621000,7.24162109375,2.131615161895752,2.233790397644043,0.15689408779144287
1772698597786621000,7.251620849609375,2.5207924842834473,1.6734991073608398,0.17784619331359863
1772698597796621000,7.26162109375,2.8393073081970215,1.103316307067871,0.10303807258605957
1772698597806621000,7.271620849609375,3.165364980697632,0.676356315612793,-0.10017156600952148
1772698597816621000,7.28162109375,4.200307846069336,0.6479806900024414,-0.14179587364196777
1772698597826621000,7.291620849609375,4.694811820983887,0.9367551803588867,-0.47939884662628174
1772698597836621000,7.30162109375,5.089573860168457,1.4562444686889648,-0.8369797468185425
1772698597846621000,7.311620849609375,5.517759323120117,1.9543142318725586,-1.0950379371643066
1772698597856621000,7.32162109375,5.779354095458984,2.2855119705200195,-1.1812766790390015
1772698597866621000,7.331620849609375,5.695353031158447,2.385129928588867,-1.0159987211227417
1772698597876621000,7.34162109375,4.766318321228027,2.2003278732299805,-0.597273588180542
1772698597886621000,7.351620849609375,2.6349833011627197,1.9852571487426758,0.05992841720581055
1772698597896621000,7.36162109375,0.158645361661911,1.4084501266479492,0.9347504377365112
1772698597906621000,7.371620849609375,-2.1347556114196777,0.06955814361572266,1.214020848274231
1772698597916621000,7.38162109375,-4.52016019821167,-2.211545944213867,0.8870536088943481
1772698597926621000,7.391620849609375,-6.410943984985352,-4.90533447265625,0.6331591606140137
1772698597936621000,7.40162109375,-5.384298324584961,-6.8017988204956055,0.5352731943130493
1772698597946621000,7.411620849609375,-4.513304710388184,-7.225866317749023,-0.1167682409286499
1772698597956621000,7.42162109375,-4.670647621154785,-6.757286071777344,-0.905579149723053
1772698597966621000,7.431620849609375,-4.206311225891113,-6.499261856079102,-1.0279877185821533
1772698597976621000,7.44162109375,-3.658294200897217,-6.915131568908691,-0.5753070712089539
1772698597986621000,7.451620849609375,-3.627838611602783,-7.530858993530273,-0.467587947845459
1772698597996621000,7.46162109375,-3.4588637351989746,-8.360038757324219,-0.24039176106452942
1772698598006621000,7.471620849609375,-2.9731433391571045,-8.604924201965332,0.5351418256759644
1772698598016621000,7.48162109375,-2.408775806427002,-7.43604850769043,1.6967480182647705
1772698598026621000,7.491620849609375,-2.3880558013916016,-5.97413444519043,3.1738948822021484
1772698598036621000,7.50162109375,-2.5123424530029297,-5.0592498779296875,4.4245500564575195
1772698598046621000,7.511620849609375,-2.658895969390869,-4.8072099685668945,4.727001667022705
1772698598056621000,7.52162109375,-2.423307418823242,-4.884617805480957,4.184518814086914
1772698598066621000,7.531620849609375,-2.0801024436950684,-4.565995216369629,3.255133628845215
1772698598076621000,7.54162109375,-1.736943006515503,-3.5420379638671875,2.4261558055877686
1772698598086621000,7.551620849609375,-1.4783719778060913,-2.015705108642578,1.9009513854980469
1772698598096621000,7.56162109375,-1.150075912475586,0.016370773315429688,1.6556721925735474
1772698598106621000,7.571620849609375,-0.8502140045166016,2.3345117568969727,1.3724660873413086
1772698598116621000,7.58162109375,-1.1699600219726562,3.7596840858459473,1.1611789464950562
1772698598126621000,7.591620849609375,-0.8536287546157837,4.355053424835205,0.8484418392181396
1772698598136621000,7.60162109375,-0.4444514513015747,4.715982437133789,0.17919456958770752
1772698598146621000,7.611620849609375,-0.009744644165039062,4.895903587341309,-0.49702775478363037
1772698598156621000,7.62162109375,0.16795086860656738,4.873310565948486,-1.3517365455627441
1772698598166621000,7.631620849609375,0.06354045867919922,4.423336029052734,-2.0104355812072754
1772698598176621000,7.64162109375,-0.09655320644378662,3.7958984375,-2.3807122707366943
1772698598186621000,7.651620849609375,-0.15518736839294434,3.35573673248291,-2.5700414180755615
1772698598196621000,7.66162109375,-0.11522471904754639,2.969578742980957,-2.685929298400879
1772698598206621000,7.671620849609375,0.09040427207946777,2.6400508880615234,-2.59570574760437
1772698598216621000,7.68162109375,0.08673989772796631,2.5264382362365723,-2.383572578430176
1772698598226621000,7.691620849609375,-0.1030510663986206,2.58573055267334,-2.1161317825317383
1772698598236621000,7.70162109375,-0.2203078269958496,2.643761157989502,-1.9188897609710693
1772698598246621000,7.711620849609375,-0.07827258110046387,2.5892186164855957,-1.7401227951049805
1772698598256621000,7.72162109375,0.20877134799957275,2.3912925720214844,-1.5262221097946167
1772698598266621000,7.731620849609375,0.5145682096481323,2.0880956649780273,-1.2789907455444336
1772698598276621000,7.74162109375,0.7175267934799194,1.723088264465332,-0.9647908210754395
1772698598286621000,7.751620849609375,0.725043773651123,1.3783512115478516,-0.5590051412582397
1772698598296621000,7.76162109375,0.7111557722091675,1.0528783798217773,-0.1065511703491211
1772698598306621000,7.771620849609375,0.7057455778121948,0.7328176498413086,0.33041608333587646
1772698598316621000,7.78162109375,0.7839409112930298,0.40494728088378906,0.7622686624526978
1772698598326621000,7.791620849609375,0.8748655319213867,0.1914520263671875,1.2324144840240479
1772698598336621000,7.80162109375,1.1085814237594604,0.20610332489013672,1.6163711547851562
1772698598346621000,7.811620849609375,1.0305571556091309,0.35358142852783203,1.8072696924209595
1772698598356621000,7.82162109375,0.8416794538497925,0.5980195999145508,1.8725615739822388
1772698598366621000,7.831620849609375,0.9142957925796509,0.8326959609985352,1.9245331287384033
1772698598376621000,7.84162109375,1.2870805263519287,0.8555507659912109,1.912559151649475
1772698598386621000,7.851620849609375,1.9091085195541382,0.7170286178588867,1.870332956314087
1772698598396621000,7.86162109375,2.5102291107177734,0.4548072814941406,1.7921513319015503
1772698598406621000,7.871620849609375,2.86629056930542,-0.18322277069091797,2.1307249069213867
1772698598416621000,7.88162109375,2.981081962585449,-0.9033908843994141,2.911756992340088
1772698598426621000,7.891620849609375,2.9680237770080566,-1.305617332458496,3.9470744132995605
1772698598436621000,7.90162109375,2.7256314754486084,-1.3395719528198242,4.692668437957764
1772698598446621000,7.911620849609375,1.6882708072662354,-1.2676048278808594,4.909073829650879
1772698598456621000,7.92162109375,0.8413586616516113,-1.999516487121582,4.496217250823975
1772698598466621000,7.931620849609375,0.12455332279205322,-5.02609920501709,2.9794442653656006
1772698598476621000,7.94162109375,-2.011112689971924,-7.858748435974121,1.1493330001831055
1772698598486621000,7.951620849609375,-4.466198921203613,-8.797104835510254,-0.027787446975708008
1772698598496621000,7.96162109375,-5.15292501449585,-9.659470558166504,-1.7528318166732788
1772698598506621000,7.971620849609375,-6.84184455871582,-10.953179359436035,-4.048892021179199
1772698598516621000,7.98162109375,-4.56057071685791,-11.402660369873047,-6.316015720367432
1772698598526621000,7.991620849609375,0.6240617036819458,-9.121737480163574,-7.305678367614746
1772698598536621000,8.00162109375,-0.13484406471252441,-2.047962188720703,-6.544650554656982
1772698598546621000,8.011620849609375,-2.8054628372192383,2.6022849082946777,-5.574395179748535
1772698598556621000,8.02162109375,-3.651738166809082,4.337224960327148,-4.8649492263793945
1772698598566621000,8.031620849609375,-3.8946282863616943,4.485342979431152,-3.828481674194336
1772698598576621000,8.04162109375,-3.726571798324585,3.722242832183838,-1.8492765426635742
1772698598586621000,8.051620849609375,-3.1305384635925293,2.159170150756836,0.24314260482788086
1772698598596621000,8.06162109375,-2.6414122581481934,-0.7124900817871094,1.1628313064575195
1772698598606621000,8.071620849609374,-2.368645191192627,-2.504401206970215,0.09030580520629883
1772698598616621000,8.08162109375,-1.8682137727737427,-2.9730873107910156,-1.8028889894485474
1772698598626621000,8.091620849609376,-1.8538551330566406,-3.487360954284668,-3.8250510692596436
1772698598636621000,8.10162109375,-1.407024621963501,-3.5625925064086914,-5.74800443649292
1772698598646621000,8.111620849609375,-0.15733712911605835,-2.9195194244384766,-6.53643798828125
1772698598656621000,8.12162109375,0.351320743560791,-1.501246452331543,-6.645814895629883
1772698598666621000,8.131620849609375,0.18634527921676636,0.4277667999267578,-6.513734817504883
1772698598676621000,8.14162109375,-0.18563556671142578,1.2690811157226562,-5.812935829162598
1772698598686621000,8.151620849609374,-0.5380017757415771,1.0097761154174805,-4.48370361328125
1772698598696621000,8.16162109375,-0.6764682531356812,0.4311685562133789,-3.2976863384246826
1772698598706621000,8.171620849609376,-0.7277891635894775,0.1695117950439453,-2.774789333343506
1772698598716621000,8.18162109375,-0.7906531691551208,0.33873462677001953,-2.423241138458252
1772698598726621000,8.191620849609375,-0.6284271478652954,0.5437459945678711,-1.8846708536148071
1772698598736621000,8.20162109375,-0.08608388900756836,0.6973094940185547,-1.2330248355865479
1772698598746621000,8.211620849609375,0.4729820489883423,0.9346256256103516,-0.5891245603561401
1772698598756621000,8.22162109375,0.8670904040336609,1.345876693725586,-0.10056567192077637
1772698598766621000,8.231620849609374,0.9827349781990051,1.7522773742675781,0.24315619468688965
1772698598776621000,8.24162109375,0.8422330617904663,1.975234031677246,0.37268006801605225
1772698598786621000,8.251620849609376,0.6449949145317078,1.892472267150879,0.2529263496398926
1772698598796621000,8.26162109375,0.49135059118270874,1.5014896392822266,0.08877742290496826
1772698598806621000,8.271620849609375,0.3474465608596802,0.9261198043823242,0.011287808418273926
1772698598816621000,8.28162109375,0.14723825454711914,0.38620471954345703,-0.0025780200958251953
1772698598826621000,8.291620849609375,-0.017296969890594482,0.13322830200195312,-0.05135655403137207
1772698598836621000,8.30162109375,-0.17075219750404358,0.25836181640625,-0.23063302040100098
1772698598846621000,8.311620849609374,-0.2577577531337738,0.5766773223876953,-0.5244717597961426
1772698598856621000,8.32162109375,-0.22212976217269897,0.8114185333251953,-0.6771360635757446
1772698598866621000,8.331620849609376,-0.07453477382659912,1.0840320587158203,-0.7245522737503052
1772698598876621000,8.34162109375,0.10798299312591553,1.370676040649414,-0.7971521019935608
1772698598886621000,8.351620849609375,0.27310025691986084,1.5900459289550781,-0.8872090578079224
1772698598896621000,8.36162109375,0.3818055987358093,1.6938934326171875,-0.994312047958374
1772698598906621000,8.371620849609375,0.4130324721336365,1.706247329711914,-1.1022450923919678
1772698598916621000,8.38162109375,0.40603381395339966,1.7832551002502441,-1.1568877696990967
1772698598926621000,8.391620849609374,0.5712050199508667,2.0113658905029297,-1.1541723012924194
1772698598936621000,8.40162109375,0.6907572746276855,2.357564926147461,-1.1671929359436035
1772698598946621000,8.411620849609376,0.7779586315155029,2.7407617568969727,-1.1340535879135132
1772698598956621000,8.42162109375,0.8826850056648254,3.076663017272949,-1.025665283203125
1772698598966621000,8.431620849609375,1.0575947761535645,3.2636003494262695,-0.7726845145225525
1772698598976621000,8.44162109375,1.200406789779663,3.252102851867676,-0.3484315872192383
1772698598986621000,8.451620849609375,1.114548921585083,2.954822540283203,0.21458053588867188
1772698598996621000,8.46162109375,0.7710608839988708,2.31203556060791,0.7779141664505005
1772698599006621000,8.471620849609375,0.2626645565032959,1.5102958679199219,1.1689378023147583
1772698599016621000,8.48162109375,-0.12541282176971436,0.8536376953125,1.3726886510849
1772698599026621000,8.491620849609374,-0.5734654068946838,0.4004058837890625,1.5009225606918335
1772698599036621000,8.50162109375,-1.0099989175796509,0.13031768798828125,1.571437120437622
1772698599046621000,8.511620849609375,-1.168140172958374,0.0712575912475586,1.4827449321746826
1772698599056621000,8.52162109375,-1.1171170473098755,0.33421802520751953,1.3361637592315674
1772698599066621000,8.531620849609375,-0.8931323289871216,0.9286813735961914,1.064579725265503
1772698599076621000,8.54162109375,-0.5298421382904053,1.7410998344421387,0.6503927707672119
1772698599086621000,8.551620849609375,0.029470384120941162,2.5432891845703125,0.1993565559387207
1772698599096621000,8.56162109375,0.6938543915748596,3.0787534713745117,-0.04722332954406738
1772698599106621000,8.571620849609374,1.3490700721740723,3.206273078918457,-0.030631542205810547
1772698599116621000,8.58162109375,1.4410626888275146,2.8822550773620605,-0.06232428550720215
1772698599126621000,8.591620849609376,0.9355840682983398,2.0640430450439453,-0.22319507598876953
1772698599136621000,8.60162109375,0.008850276470184326,1.3436031341552734,-0.6484493017196655
1772698599146621000,8.611620849609375,-0.4579157531261444,1.1808242797851562,-1.0653727054595947
1772698599156621000,8.62162109375,-0.4556947648525238,1.6576223373413086,-1.592726707458496
1772698599166621000,8.631620849609375,-0.12220001220703125,2.3566551208496094,-1.9005231857299805
1772698599176621000,8.64162109375,0.5358086228370667,2.7722959518432617,-1.9943796396255493
1772698599186621000,8.651620849609374,1.2141284942626953,2.960843563079834,-1.7117793560028076
1772698599196621000,8.66162109375,1.5469021797180176,2.719128131866455,-0.9763559103012085
1772698599206621000,8.671620849609376,1.4970958232879639,2.432497978210449,-0.27492284774780273
1772698599216621000,8.68162109375,1.323786735534668,2.2496824264526367,-0.10954976081848145
1772698599226621000,8.691620849609375,1.2703158855438232,2.057178020477295,-0.344088077545166
1772698599236621000,8.70162109375,0.9371238946914673,1.918893814086914,-0.826357364654541
1772698599246621000,8.711620849609375,0.420127809047699,1.4388971328735352,-1.2068077325820923
1772698599256621000,8.72162109375,0.198050856590271,0.09271049499511719,-1.00348961353302
1772698599266621000,8.731620849609374,-0.0032453536987304688,-1.9383125305175781,-0.44154810905456543
1772698599276621000,8.74162109375,-0.3553880453109741,-3.694535255432129,0.10014939308166504
1772698599286621000,8.751620849609376,-0.5003656148910522,-4.899160385131836,0.4122292995452881
1772698599296621000,8.76162109375,-0.5526737570762634,-4.988071441650391,0.41178464889526367
1772698599306621000,8.771620849609375,-0.4668170213699341,-3.889942169189453,0.7743053436279297
1772698599316621000,8.78162109375,-0.5115042924880981,-2.9410629272460938,1.5316500663757324
1772698599326621000,8.791620849609375,-0.5993849039077759,-3.0648889541625977,2.294084310531616
1772698599336621000,8.80162109375,-0.6937601566314697,-4.379561424255371,2.7256979942321777
1772698599346621000,8.811620849609374,-0.49937987327575684,-6.528164863586426,3.0539560317993164
1772698599356621000,8.82162109375,-0.29878902435302734,-9.123867988586426,3.583451747894287
1772698599366621000,8.831620849609376,-0.49674439430236816,-11.513344764709473,4.064226150512695
1772698599376621000,8.84162109375,-0.8930046558380127,-12.280707359313965,3.8834328651428223
1772698599386621000,8.851620849609375,-0.6772410869598389,-9.208744049072266,2.488459587097168
1772698599396621000,8.86162109375,-0.3599259853363037,-5.450810432434082,1.2892519235610962
1772698599406621000,8.871620849609375,0.10654187202453613,-3.105234146118164,0.6755428314208984
1772698599416621000,8.88162109375,0.3854365348815918,-1.5765676498413086,0.23270511627197266
1772698599426621000,8.891620849609374,0.18544292449951172,-1.0432443618774414,0.3336775302886963
1772698599436621000,8.90162109375,0.016890764236450195,-1.1640472412109375,0.9112792015075684
1772698599446621000,8.911620849609376,-0.3819313049316406,-1.3821754455566406,1.5470976829528809
1772698599456621000,8.92162109375,-0.901191234588623,-1.118941307067871,1.7492039203643799
1772698599466621000,8.931620849609375,-1.6184685230255127,-0.5040864944458008,1.357590675354004
1772698599476621000,8.94162109375,-1.9397958517074585,0.2395792007446289,0.8181478977203369
1772698599486621000,8.951620849609375,-1.8278725147247314,0.9193038940429688,0.38060998916625977
1772698599496621000,8.96162109375,-1.449243187904358,1.612687110900879,0.044194936752319336
1772698599506621000,8.971620849609375,-0.9794857501983643,2.267819404602051,-0.19136929512023926
1772698599516621000,8.98162109375,-0.5569359064102173,2.8751964569091797,-0.4421260356903076
1772698599526621000,8.991620849609374,-0.24023866653442383,3.4036927223205566,-0.7415425777435303
1772698599536621000,9.00162109375,-0.07277774810791016,3.8135414123535156,-1.0467472076416016
1772698599546621000,9.011620849609375,0.0388413667678833,4.074489593505859,-1.307039499282837
1772698599556621000,9.02162109375,0.07543003559112549,4.177085876464844,-1.480107307434082
1772698599566621000,9.031620849609375,0.08846855163574219,4.100518226623535,-1.6133074760437012
1772698599576621000,9.04162109375,0.08606505393981934,3.9038915634155273,-1.6678184270858765
1772698599586621000,9.051620849609375,-0.04559206962585449,3.56613826751709,-1.5482269525527954
1772698599596621000,9.06162109375,-0.1944793462753296,3.177672863006592,-1.3053655624389648
1772698599606621000,9.071620849609374,-0.3179633617401123,2.843179702758789,-1.119518756866455
1772698599616621000,9.08162109375,-0.4204903841018677,2.62166690826416,-1.0212740898132324
1772698599626621000,9.091620849609376,-0.497033953666687,2.549431800842285,-1.0241931676864624
1772698599636621000,9.10162109375,-0.5117218494415283,2.6651811599731445,-1.1078542470932007
1772698599646621000,9.111620849609375,-0.5943444967269897,2.904374599456787,-1.2696584463119507
1772698599656621000,9.12162109375,-0.4468435049057007,3.2879347801208496,-1.3187005519866943
1772698599666621000,9.131620849609375,-0.20711994171142578,3.6976633071899414,-1.3150322437286377
1772698599676621000,9.14162109375,0.12044680118560791,3.988893508911133,-1.2490901947021484
1772698599686621000,9.151620849609374,0.35029304027557373,4.151612281799316,-1.018336296081543
1772698599706621000,9.171620849609376,0.15098106861114502,3.913691997528076,-0.5378967523574829
1772698599716621000,9.18162109375,0.07897615432739258,3.533473491668701,-0.3996822237968445
1772698599726621000,9.191620849609375,0.127091646194458,2.877878189086914,-0.25408679246902466
1772698599736621000,9.20162109375,0.06327950954437256,1.9364032745361328,-0.018421411514282227
1772698599746621000,9.211620849609375,0.1379086971282959,0.7779932022094727,0.3954813480377197
1772698599756621000,9.22162109375,0.266776442527771,-0.3731040954589844,0.996616005897522
1772698599766621000,9.231620849609374,0.2525566816329956,-1.1674156188964844,1.9301271438598633
1772698599776621000,9.24162109375,0.02634596824645996,-1.2185888290405273,2.8628721237182617
1772698599786621000,9.251620849609376,-0.5133382081985474,-0.20322608947753906,3.309060573577881
1772698599796621000,9.26162109375,-0.5675785541534424,1.1202888488769531,3.717250108718872
1772698599806621000,9.271620849609375,-0.10960149765014648,2.341960906982422,4.043793678283691
1772698599816621000,9.28162109375,0.4963085651397705,3.452108860015869,4.139514923095703
1772698599826621000,9.291620849609375,0.9163228273391724,4.371199607849121,3.9403836727142334
1772698599836621000,9.30162109375,1.2977652549743652,4.925344944000244,3.712299346923828
1772698599846621000,9.311620849609374,1.8633708953857422,4.9114813804626465,3.894965648651123
1772698599856621000,9.32162109375,2.557196617126465,4.165178298950195,4.353625774383545
1772698599866621000,9.331620849609376,2.6841306686401367,2.9001336097717285,4.294331073760986
1772698599876621000,9.34162109375,1.4317362308502197,1.239762306213379,3.9188849925994873
1772698599886621000,9.351620849609375,-1.071348786354065,-2.1589488983154297,4.290743827819824
1772698599896621000,9.36162109375,-1.5486222505569458,-8.05671501159668,4.956313133239746
1772698599906621000,9.371620849609375,-2.540170669555664,-15.07751178741455,2.931692600250244
1772698599916621000,9.38162109375,-10.203937530517578,-20.849414825439453,-2.4256949424743652
1772698599926621000,9.391620849609374,-10.938197135925293,-19.494876861572266,-6.257660865783691
1772698599936621000,9.40162109375,-6.753327369689941,-14.26804256439209,-6.276480674743652
1772698599946621000,9.411620849609376,0.20952153205871582,-12.21872615814209,-5.855408668518066
1772698599956621000,9.42162109375,3.4648778438568115,-8.190571784973145,-5.584052562713623
1772698599966621000,9.431620849609375,5.22656774520874,-2.1030988693237305,-4.446794033050537
1772698599976621000,9.44162109375,8.814796447753906,3.6996421813964844,-3.0815138816833496
1772698599986621000,9.451620849609375,9.250260353088379,7.404720783233643,-2.2573180198669434
1772698599996621000,9.46162109375,7.066831588745117,8.138572692871094,-2.0305533409118652
1772698600006621000,9.471620849609375,4.169827938079834,4.402157783508301,-1.0815504789352417
1772698600016621000,9.48162109375,1.2600815296173096,-0.23931217193603516,-0.17824745178222656
1772698600026621000,9.491620849609374,-2.3140792846679688,-4.535312652587891,-0.3082144260406494
1772698600036621000,9.50162109375,-5.683335304260254,-9.03581714630127,-1.3191884756088257
1772698600046621000,9.511620849609375,-6.84906530380249,-13.0945405960083,-2.12311053276062
1772698600056621000,9.52162109375,-4.991338729858398,-14.465441703796387,-2.802504539489746
1772698600066621000,9.531620849609375,-2.680020570755005,-10.641491889953613,-3.255735397338867
1772698600076621000,9.54162109375,-1.4256559610366821,-5.288935661315918,-2.6619389057159424
1772698600086621000,9.551620849609375,0.2545696496963501,-1.7038307189941406,-0.6564847230911255
1772698600096621000,9.56162109375,1.8774925470352173,0.7973346710205078,0.9535020589828491
1772698600106621000,9.571620849609374,2.6173160076141357,2.7111711502075195,1.3142485618591309
1772698600116621000,9.58162109375,2.4786019325256348,4.272910118103027,1.2215466499328613
1772698600126621000,9.591620849609376,1.5564854145050049,5.372231483459473,0.9127451181411743
1772698600136621000,9.60162109375,0.479594349861145,5.622026443481445,0.43781256675720215
1772698600146621000,9.611620849609375,-0.12549293041229248,4.802490234375,-0.26134705543518066
1772698600156621000,9.62162109375,-0.030347347259521484,3.764065742492676,-0.927574098110199
1772698600166621000,9.631620849609375,0.07649838924407959,2.961994171142578,-1.1014845371246338
1772698600176621000,9.64162109375,0.11130738258361816,2.0980896949768066,-0.7171282768249512
1772698600186621000,9.651620849609374,0.2276545763015747,1.3012866973876953,-0.23257112503051758
1772698600196621000,9.66162109375,0.5474739074707031,0.5489959716796875,0.29632604122161865
1772698600206621000,9.671620849609376,0.6902477741241455,0.16383934020996094,1.0822608470916748
1772698600216621000,9.68162109375,0.38837599754333496,0.29645252227783203,1.9504977464675903
1772698600226621000,9.691620849609375,0.034501075744628906,0.8210277557373047,2.630383253097534
1772698600236621000,9.70162109375,-0.26558077335357666,1.6597394943237305,2.7607154846191406
1772698600246621000,9.711620849609375,-0.31381916999816895,2.560013771057129,2.312809467315674
1772698600256621000,9.72162109375,0.08309292793273926,3.1790056228637695,1.6658775806427002
1772698600266621000,9.731620849609374,0.8120265007019043,3.508497714996338,1.0587477684020996
1772698600276621000,9.74162109375,1.6105085611343384,3.580564022064209,0.5934766530990601
1772698600286621000,9.751620849609376,2.275660514831543,3.5216073989868164,0.2171034812927246
1772698600296621000,9.76162109375,2.6313018798828125,3.429607391357422,-0.12775731086730957
1772698600306621000,9.771620849609375,2.664691925048828,3.2502827644348145,-0.3715941905975342
1772698600316621000,9.78162109375,2.398998498916626,3.0166616439819336,-0.6392421722412109
1772698600326621000,9.791620849609375,1.9756399393081665,2.6817407608032227,-0.8929657936096191
1772698600336621000,9.80162109375,1.513266921043396,2.3553900718688965,-1.1522172689437866
1772698600346621000,9.811620849609374,0.9487633109092712,2.1954779624938965,-1.451775312423706
1772698600356621000,9.82162109375,0.4133491516113281,2.104569435119629,-1.701476812362671
1772698600366621000,9.831620849609376,0.09577566385269165,2.0535688400268555,-1.8683565855026245
1772698600376621000,9.84162109375,0.11046737432479858,2.086575508117676,-1.924736738204956
1772698600386621000,9.851620849609375,0.3216659426689148,2.310148239135742,-1.8847095966339111
1772698600396621000,9.86162109375,0.6191045045852661,2.6216230392456055,-1.6337559223175049
1772698600406621000,9.871620849609375,0.9837316274642944,2.8244848251342773,-1.1700130701065063
1772698600416621000,9.88162109375,1.2774109840393066,2.832012176513672,-0.758037805557251
1772698600426621000,9.891620849609374,1.5043110847473145,2.541167736053467,-0.4380449056625366
1772698600436621000,9.90162109375,1.8510313034057617,1.8639183044433594,-0.31176185607910156
1772698600446621000,9.911620849609376,2.002169132232666,1.4317598342895508,-0.6144299507141113
1772698600456621000,9.92162109375,1.839378833770752,1.4490766525268555,-1.039738655090332
1772698600466621000,9.931620849609375,1.4443168640136719,1.6538782119750977,-1.4399371147155762
1772698600476621000,9.94162109375,1.0942784547805786,1.6555066108703613,-1.7556757926940918
1772698600486621000,9.951620849609375,0.948809027671814,1.3521337509155273,-2.0402133464813232
1772698600496621000,9.96162109375,0.9288707375526428,0.8639764785766602,-2.1628341674804688
1772698600506621000,9.971620849609375,0.8245830535888672,0.23268604278564453,-2.214160680770874
1772698600516621000,9.98162109375,0.334791898727417,-0.15697574615478516,-2.6481213569641113
1772698600526621000,9.991620849609374,-0.067294180393219,-0.1403665542602539,-3.2970447540283203
1772698600536621000,10.00162109375,-0.28957056999206543,-0.10312080383300781,-4.046339988708496
1772698600546621000,10.011620849609375,-0.42140769958496094,-0.40119266510009766,-4.558764457702637
1772698600556621000,10.02162109375,-0.4009805917739868,-0.9125471115112305,-4.909878730773926
1772698600566621000,10.031620849609375,-0.611377477645874,-1.7357864379882812,-4.648769855499268
1772698600576621000,10.04162109375,-0.5038747787475586,-2.648848533630371,-3.1112966537475586
1772698600586621000,10.051620849609375,-0.0725778341293335,-3.882157325744629,-0.7263416051864624
1772698600596621000,10.06162109375,-0.005348920822143555,-5.743090629577637,1.5721544027328491
1772698600606621000,10.071620849609374,-0.2516627311706543,-8.024393081665039,3.541851043701172
1772698600616621000,10.08162109375,-0.9340965747833252,-11.407410621643066,6.152234077453613
1772698600626621000,10.091620849609376,-1.8177640438079834,-14.758044242858887,8.754115104675293
1772698600636621000,10.10162109375,-3.226381301879883,-15.737115859985352,10.21725845336914
1772698600646621000,10.111620849609375,-3.779907703399658,-11.98189640045166,9.398524284362793
1772698600656621000,10.12162109375,-2.6540660858154297,-7.384366989135742,6.95012903213501
1772698600666621000,10.131620849609375,-1.0179646015167236,-3.946652412414551,4.449947357177734
1772698600676621000,10.14162109375,0.3413405418395996,-1.5952234268188477,2.220815896987915
1772698600686621000,10.151620849609374,2.075063705444336,-0.38000965118408203,0.7073619365692139
1772698600696621000,10.16162109375,3.2502079010009766,-0.007821083068847656,-0.28763580322265625
1772698600706621000,10.171620849609376,3.132183790206909,-0.2824115753173828,-1.1645262241363525
1772698600716621000,10.18162109375,2.33429217338562,-0.5001916885375977,-1.5669472217559814
1772698600726621000,10.191620849609375,1.1921436786651611,-0.179473876953125,-1.297750473022461
1772698600736621000,10.20162109375,-0.31650543212890625,0.3102903366088867,-1.0801879167556763
1772698600746621000,10.211620849609375,-1.5183746814727783,0.8776559829711914,-1.0058250427246094
1772698600756621000,10.22162109375,-2.299172878265381,1.5187129974365234,-0.9838212728500366
1772698600766621000,10.231620849609374,-2.508465051651001,2.0630741119384766,-0.8523561954498291
1772698600776621000,10.24162109375,-2.2817821502685547,2.4921512603759766,-0.6360913515090942
1772698600786621000,10.251620849609376,-1.8553426265716553,2.934896469116211,-0.5499787330627441
1772698600796621000,10.26162109375,-1.44237220287323,3.504121780395508,-0.6814730167388916
1772698600806621000,10.271620849609375,-1.0059900283813477,4.002330303192139,-0.7566640377044678
1772698600816621000,10.28162109375,-0.7141110897064209,4.3818039894104,-0.8104617595672607
1772698600826621000,10.291620849609375,-0.3829920291900635,4.588608264923096,-0.7231098413467407
1772698600836621000,10.30162109375,-0.17204642295837402,4.679123878479004,-0.7183763980865479
1772698600846621000,10.311620849609374,0.09154236316680908,4.58066987991333,-0.698521614074707
1772698600856621000,10.32162109375,0.37706124782562256,4.2369842529296875,-0.6876158714294434
1772698600866621000,10.331620849609376,0.5552400350570679,3.949913501739502,-0.6519423723220825
1772698600876621000,10.34162109375,0.5455918312072754,3.703329563140869,-0.6016472578048706
1772698600886621000,10.351620849609375,0.2911984920501709,3.4474964141845703,-0.685105562210083
1772698600896621000,10.36162109375,-0.007031559944152832,3.255459785461426,-0.7328974008560181
1772698600906621000,10.371620849609375,-0.21310758590698242,3.185516357421875,-0.8068413734436035
1772698600916621000,10.38162109375,-0.3831115961074829,3.1891045570373535,-0.5519125461578369
1772698600926621000,10.391620849609374,-0.4793504476547241,3.321788787841797,-0.1945122480392456
1772698600936621000,10.40162109375,-0.479053258895874,3.540818691253662,0.06909704208374023
1772698600946621000,10.411620849609376,-0.3917118310928345,3.6800479888916016,0.18612658977508545
1772698600956621000,10.42162109375,-0.2640887498855591,3.6676177978515625,0.3125436305999756
1772698600966621000,10.431620849609375,-0.10736322402954102,3.3580427169799805,0.27223241329193115
1772698600976621000,10.44162109375,0.20639753341674805,2.7937660217285156,0.05782723426818848
1772698600986621000,10.451620849609375,0.6662509441375732,1.9864120483398438,-0.04858899116516113
1772698600996621000,10.46162109375,1.152143955230713,1.0354499816894531,0.048609256744384766
1772698601006621000,10.471620849609375,1.3160449266433716,0.3091545104980469,0.15684938430786133
1772698601016621000,10.48162109375,1.0147156715393066,-0.07051467895507812,0.669185996055603
1772698601026621000,10.491620849609374,0.5971099138259888,0.25438976287841797,1.646278977394104
1772698601036621000,10.50162109375,0.6260393857955933,1.2398967742919922,2.633983612060547
1772698601046621000,10.511620849609375,0.8104476928710938,2.4625635147094727,2.9328250885009766
1772698601056621000,10.52162109375,1.1707993745803833,3.564694404602051,2.693067789077759
1772698601066621000,10.531620849609375,1.5757468938827515,4.350071907043457,2.260408639907837
1772698601076621000,10.54162109375,1.8574323654174805,4.630164623260498,1.9603384733200073
1772698601086621000,10.551620849609375,1.9999674558639526,4.349967002868652,1.8912546634674072
1772698601096621000,10.56162109375,1.9094632863998413,3.794321060180664,1.9169334173202515
1772698601106621000,10.571620849609374,1.056767225265503,2.916635513305664,2.17349910736084
1772698601116621000,10.58162109375,-1.3416465520858765,0.8762416839599609,3.313295841217041
1772698601126621000,10.591620849609376,-4.008166313171387,-4.3204450607299805,5.0160675048828125
1772698601136621000,10.60162109375,-1.0151591300964355,-11.628779411315918,5.729838848114014
1772698601146621000,10.611620849609375,-3.5208029747009277,-20.346664428710938,3.2268481254577637
1772698601156621000,10.62162109375,-11.682294845581055,-23.753032684326172,-2.2142868041992188
1772698601166621000,10.631620849609375,-7.790971279144287,-15.266545295715332,-5.621750831604004
1772698601176621000,10.64162109375,-2.993621349334717,-6.010720252990723,-6.545160293579102
1772698601186621000,10.651620849609374,-1.4837849140167236,-1.3678216934204102,-6.202153205871582
1772698601196621000,10.66162109375,-0.2704906463623047,-0.4877357482910156,-5.329550743103027
1772698601206621000,10.671620849609376,3.690316677093506,-2.119412422180176,-4.370217323303223
1772698601216621000,10.68162109375,7.340246200561523,-3.048619270324707,-3.063281297683716
1772698601226621000,10.691620849609375,7.980974197387695,-1.6824588775634766,-0.8996913433074951
1772698601236621000,10.70162109375,6.039697170257568,0.22821998596191406,1.1573970317840576
1772698601246621000,10.711620849609375,3.636929512023926,1.4875574111938477,1.7484805583953857
1772698601256621000,10.72162109375,1.9244537353515625,1.113210678100586,1.132965087890625
1772698601266621000,10.731620849609374,0.45920300483703613,-1.2754936218261719,0.21736884117126465
1772698601276621000,10.74162109375,-1.1716901063919067,-3.456210136413574,-0.6805899143218994
1772698601286621000,10.751620849609376,-2.4949727058410645,-5.938451766967773,-1.0764163732528687
1772698601296621000,10.76162109375,-2.5218918323516846,-7.9643144607543945,-0.963336706161499
1772698601306621000,10.771620849609375,-1.8944666385650635,-8.339104652404785,-0.7914990186691284
1772698601316621000,10.78162109375,-1.6417546272277832,-6.260676383972168,-0.9798251390457153
1772698601326621000,10.791620849609375,-1.257807970046997,-3.5941104888916016,-1.2108572721481323
1772698601336621000,10.80162109375,-0.3098052740097046,-1.3102045059204102,-1.3590877056121826
1772698601346621000,10.811620849609374,0.6037001609802246,0.6799240112304688,-1.5993191003799438
1772698601356621000,10.82162109375,1.1784560680389404,2.301516532897949,-1.8957409858703613
1772698601366621000,10.831620849609376,1.3046406507492065,3.506498336791992,-2.1410131454467773
1772698601376621000,10.84162109375,1.212689757347107,4.25210428237915,-2.143949031829834
1772698601386621000,10.851620849609375,0.9568229913711548,4.569534778594971,-2.033618688583374
1772698601396621000,10.86162109375,0.703718900680542,4.571723937988281,-1.9050967693328857
1772698601406621000,10.871620849609375,0.4667438268661499,4.247586250305176,-1.586198329925537
1772698601416621000,10.88162109375,0.22818589210510254,3.603902816772461,-1.0309514999389648
1772698601426621000,10.891620849609374,0.014329195022583008,2.78521728515625,-0.347872257232666
1772698601436621000,10.90162109375,-0.14536213874816895,2.015927314758301,0.32383668422698975
1772698601446621000,10.911620849609376,-0.11352646350860596,1.4672012329101562,0.9134877920150757
1772698601456621000,10.92162109375,0.0907127857208252,1.3189048767089844,1.3572494983673096
1772698601466621000,10.931620849609375,0.40788137912750244,1.5573863983154297,1.662762999534607
1772698601476621000,10.94162109375,0.7754337191581726,2.180485725402832,1.8364572525024414
1772698601486621000,10.951620849609375,1.2001231908798218,2.967593193054199,2.0265631675720215
1772698601496621000,10.96162109375,1.7326409816741943,3.761021614074707,2.1847541332244873
1772698601506621000,10.971620849609375,2.1689987182617188,4.508781433105469,2.235060691833496
1772698601516621000,10.98162109375,2.3040707111358643,5.032372951507568,2.150127649307251
1772698601526621000,10.991620849609374,2.0288727283477783,5.234265327453613,1.7902265787124634
1772698601536621000,11.00162109375,1.5344440937042236,5.170928001403809,1.1555804014205933
1772698601546621000,11.011620849609375,1.0931103229522705,4.834259986877441,0.47198641300201416
1772698601556621000,11.02162109375,0.565311074256897,4.634382247924805,-0.41858112812042236
1772698601566621000,11.031620849609375,0.3410069942474365,4.501715660095215,-1.3909392356872559
1772698601576621000,11.04162109375,0.3438854217529297,4.439842224121094,-2.2927937507629395
1772698601586621000,11.051620849609375,0.5601403117179871,4.215600967407227,-2.7911412715911865
1772698601596621000,11.06162109375,0.5701377987861633,3.9710187911987305,-2.9964599609375
1772698601606621000,11.071620849609374,0.7263159155845642,3.2698793411254883,-2.6012511253356934
1772698601616621000,11.08162109375,0.8667425513267517,1.9705615043640137,-1.7328547239303589
1772698601626621000,11.091620849609376,1.220595121383667,0.45395755767822266,-0.6755075454711914
1772698601636621000,11.10162109375,1.7330594062805176,-0.8017148971557617,0.20171451568603516
1772698601646621000,11.111620849609375,1.7943825721740723,-1.4838800430297852,0.6646859645843506
1772698601656621000,11.12162109375,1.2684357166290283,-1.3299293518066406,0.47794246673583984
1772698601666621000,11.131620849609375,1.0645976066589355,-0.527064323425293,-0.36004185676574707
1772698601676621000,11.14162109375,0.8207978010177612,0.3408851623535156,-1.697730302810669
1772698601686621000,11.151620849609374,0.4354966878890991,1.0842208862304688,-3.173215389251709
1772698601696621000,11.16162109375,0.48481595516204834,1.5444049835205078,-4.566531181335449
1772698601706621000,11.171620849609376,0.8242005109786987,1.2947711944580078,-5.711175918579102
1772698601716621000,11.18162109375,1.1629663705825806,0.06486320495605469,-5.888526916503906
1772698601726621000,11.191620849609375,0.8019707202911377,-1.543229103088379,-5.155506134033203
1772698601736621000,11.20162109375,0.20254600048065186,-2.915135383605957,-3.133715867996216
1772698601746621000,11.211620849609375,0.09918653964996338,-4.347379684448242,-0.2368255853652954
1772698601756621000,11.22162109375,0.1496264934539795,-6.073984146118164,2.4277877807617188
1772698601766621000,11.231620849609374,-0.4533548355102539,-8.567370414733887,4.451605796813965
1772698601776621000,11.24162109375,-2.049905776977539,-11.978055953979492,6.467407703399658
1772698601786621000,11.251620849609376,-3.85025691986084,-14.9751558303833,8.009751319885254
1772698601796621000,11.26162109375,-4.716465950012207,-16.089393615722656,9.00639820098877
1772698601806621000,11.271620849609375,-4.179683208465576,-13.67640495300293,8.722861289978027
1772698601816621000,11.28162109375,-3.1109511852264404,-9.386919975280762,7.1120147705078125
1772698601826621000,11.291620849609375,-1.6791446208953857,-5.493914604187012,5.206728935241699
1772698601836621000,11.30162109375,-0.28272485733032227,-2.1719255447387695,3.271622896194458
1772698601846621000,11.311620849609374,1.2868316173553467,0.16777515411376953,2.004826068878174
1772698601856621000,11.32162109375,2.1519908905029297,1.147028923034668,0.9900209903717041
1772698601866621000,11.331620849609376,2.0838446617126465,0.6400642395019531,-0.4060983657836914
1772698601876621000,11.34162109375,1.383148193359375,-0.19758129119873047,-2.2389743328094482
1772698601886621000,11.351620849609375,3.2840700149536133,-0.7597627639770508,-1.674505591392517
1772698601896621000,11.36162109375,1.735274076461792,-1.865610122680664,-4.556642532348633
1772698601906621000,11.371620849609375,0.24927520751953125,0.47455692291259766,-6.297646522521973
1772698601916621000,11.38162109375,1.2686455249786377,3.4162845611572266,-4.436596870422363
1772698601926621000,11.391620849609374,2.188443183898926,4.431124687194824,-1.6918580532073975
1772698601936621000,11.40162109375,1.4528989791870117,4.06536865234375,-0.16228008270263672
1772698601946621000,11.411620849609376,-1.7434515953063965,3.1980390548706055,-0.15430426597595215
1772698601956621000,11.42162109375,-4.321678161621094,2.0994906425476074,0.009513378143310547
1772698601966621000,11.431620849609375,-5.980607509613037,1.2310829162597656,0.5118203163146973
1772698601976621000,11.44162109375,-6.083832740783691,0.39888954162597656,0.9996492862701416
1772698601986621000,11.451620849609375,-4.600948333740234,-0.3359251022338867,1.5798778533935547
1772698601996621000,11.46162109375,-2.1621010303497314,0.1298542022705078,1.3199882507324219
1772698602006621000,11.471620849609375,0.5067496299743652,1.7805070877075195,0.04921317100524902
1772698602016621000,11.48162109375,1.8503637313842773,3.285287857055664,-1.0296344757080078
1772698602026621000,11.491620849609374,1.7857427597045898,4.229140281677246,-1.195620059967041
1772698602036621000,11.50162109375,1.2130813598632812,4.765072822570801,-0.6847655773162842
1772698602046621000,11.511620849609375,0.5773950815200806,5.073668956756592,-0.3212515115737915
1772698602056621000,11.52162109375,0.3004947900772095,5.219996452331543,-0.11798620223999023
1772698602066621000,11.531620849609375,0.49230003356933594,5.326260566711426,0.2607734203338623
1772698602076621000,11.54162109375,1.0151499509811401,5.643103122711182,0.4256078004837036
1772698602086621000,11.551620849609375,1.0933587551116943,5.824820518493652,0.09893369674682617
1772698602096621000,11.56162109375,0.9652575254440308,5.785733222961426,-0.014612436294555664
1772698602106621000,11.571620849609374,0.5562921762466431,5.515832901000977,-0.12562060356140137
1772698602116621000,11.58162109375,-0.20226073265075684,4.994347095489502,-0.19107437133789062
1772698602126621000,11.591620849609376,-1.0861527919769287,4.224214553833008,-0.007652401924133301
1772698602136621000,11.60162109375,-1.3898628950119019,3.2769885063171387,0.3676142692565918
1772698602146621000,11.611620849609375,-0.6381798386573792,2.3569087982177734,0.5581694841384888
1772698602156621000,11.62162109375,-0.057337284088134766,1.5254278182983398,0.3724402189254761
1772698602166621000,11.631620849609375,0.3263528347015381,0.9241628646850586,0.07971847057342529
1772698602176621000,11.64162109375,1.1219836473464966,0.45824527740478516,0.0567166805267334
1772698602186621000,11.651620849609374,2.1449570655822754,0.46268653869628906,0.23494553565979004
1772698602196621000,11.66162109375,2.895064353942871,1.0234575271606445,0.9837720394134521
1772698602206621000,11.671620849609376,3.362260341644287,2.0852599143981934,2.0508480072021484
1772698602216621000,11.68162109375,3.550764560699463,3.201746940612793,2.985020637512207
1772698602226621000,11.691620849609375,3.311112642288208,3.889446258544922,3.5959877967834473
1772698602236621000,11.70162109375,2.772861957550049,4.174647331237793,3.8785877227783203
1772698602246621000,11.711620849609375,1.596164584159851,3.9211254119873047,4.393756866455078
1772698602256621000,11.72162109375,-0.5799688100814819,2.3118696212768555,5.527983665466309
1772698602266621000,11.731620849609374,-3.4154396057128906,-1.6215763092041016,6.253757953643799
1772698602276621000,11.74162109375,-3.7659292221069336,-6.874408721923828,5.6138386726379395
1772698602286621000,11.751620849609376,-6.630399227142334,-13.587986946105957,3.557180881500244
1772698602296621000,11.76162109375,-8.897552490234375,-19.772602081298828,-0.14229106903076172
1772698602306621000,11.771620849609375,-4.290014743804932,-19.474849700927734,-4.8263020515441895
1772698602316621000,11.78162109375,-1.9292185306549072,-11.272934913635254,-7.395319938659668
1772698602326621000,11.791620849609375,-0.8988425731658936,-4.860102653503418,-5.990437984466553
1772698602336621000,11.80162109375,1.7241032123565674,-3.404677391052246,-3.5595505237579346
1772698602346621000,11.811620849609374,6.35380744934082,-3.7334890365600586,-2.4813361167907715
1772698602356621000,11.82162109375,8.521974563598633,-2.5127296447753906,-2.0767154693603516
1772698602366621000,11.831620849609376,7.403932571411133,0.0924844741821289,-1.1062939167022705
1772698602376621000,11.84162109375,5.006995677947998,3.001246929168701,-0.3523353338241577
1772698602386621000,11.851620849609375,3.6967110633850098,5.407275676727295,-0.5175720453262329
1772698602396621000,11.86162109375,2.3907737731933594,5.556032180786133,-0.7303204536437988
1772698602406621000,11.871620849609375,0.07930660247802734,1.6246933937072754,-0.5279538631439209
1772698602416621000,11.88162109375,-2.3188529014587402,-3.0688695907592773,-0.689794659614563
1772698602426621000,11.891620849609374,-3.293949842453003,-7.293208122253418,-0.9479721784591675
1772698602436621000,11.90162109375,-2.6287548542022705,-10.180346488952637,-1.3620779514312744
1772698602446621000,11.911620849609376,-0.7380562424659729,-10.95339584350586,-1.2992217540740967
1772698602456621000,11.92162109375,-0.2538173198699951,-8.811960220336914,-1.5322768688201904
1772698602466621000,11.931620849609375,-0.6347732543945312,-4.692391395568848,-1.8636417388916016
1772698602476621000,11.94162109375,-0.28894853591918945,-1.7055282592773438,-1.3017014265060425
1772698602486621000,11.951620849609375,0.2880733013153076,0.45438671112060547,-0.6382596492767334
1772698602496621000,11.96162109375,0.558879017829895,2.055257797241211,-0.42167162895202637
1772698602506621000,11.971620849609375,0.6540884971618652,3.213064670562744,-0.5667930841445923
1772698602516621000,11.98162109375,0.6712464094161987,3.8743739128112793,-0.8670523166656494
1772698602526621000,11.991620849609374,0.6566559672355652,4.059322834014893,-1.2325645685195923
1772698602536621000,12.00162109375,0.6770246624946594,3.9221439361572266,-1.4827088117599487
1772698602546621000,12.011620849609375,0.9290313720703125,3.6091861724853516,-1.4684782028198242
1772698602556621000,12.02162109375,1.1393874883651733,3.087407112121582,-1.2923609018325806
1772698602566621000,12.031620849609375,1.363893747329712,2.265819549560547,-0.685684084892273
1772698602576621000,12.04162109375,1.6439929008483887,1.1287755966186523,0.29797661304473877
1772698602586621000,12.051620849609375,1.8233857154846191,-0.06437873840332031,1.4130359888076782
1772698602596621000,12.06162109375,1.735533595085144,-0.8174362182617188,2.283552646636963
1772698602606621000,12.071620849609374,1.6034002304077148,-0.8176307678222656,2.6332154273986816
1772698602616621000,12.08162109375,1.741795539855957,-0.1399545669555664,2.4263060092926025
1772698602626621000,12.091620849609376,2.20243239402771,0.8103857040405273,1.9752086400985718
1772698602636621000,12.10162109375,2.665935754776001,1.8247919082641602,1.4563536643981934
1772698602646621000,12.111620849609375,3.0441837310791016,2.7135729789733887,0.9619510173797607
1772698602656621000,12.12162109375,3.2284305095672607,3.485950469970703,0.45718300342559814
1772698602666621000,12.131620849609375,3.280892848968506,4.001577854156494,0.004472970962524414
1772698602676621000,12.14162109375,3.1665468215942383,4.215699195861816,-0.3543832302093506
1772698602686621000,12.151620849609374,2.8892242908477783,4.166468143463135,-0.5372734069824219
1772698602696621000,12.16162109375,2.430645227432251,3.9343204498291016,-0.4805067777633667
1772698602706621000,12.171620849609376,2.02602219581604,3.6353368759155273,-0.21179866790771484
1772698602716621000,12.18162109375,1.734674334526062,3.3238372802734375,0.025436997413635254
1772698602726621000,12.191620849609375,1.4551185369491577,3.0584001541137695,0.11057138442993164
1772698602736621000,12.20162109375,1.1129645109176636,2.9061059951782227,0.09287774562835693
1772698602746621000,12.211620849609375,0.9337893128395081,2.87666654586792,-0.013899683952331543
1772698602756621000,12.22162109375,0.8980549573898315,2.974416732788086,-0.31243860721588135
1772698602766621000,12.231620849609374,1.065929889678955,3.2336816787719727,-0.9145742654800415
1772698602776621000,12.24162109375,1.534246563911438,3.4156055450439453,-1.7644106149673462
1772698602786621000,12.251620849609376,2.2998883724212646,3.6342406272888184,-2.8464956283569336
1772698602796621000,12.26162109375,3.225311517715454,3.8045167922973633,-3.900597333908081
1772698602806621000,12.271620849609375,3.6829140186309814,3.6027913093566895,-4.72676944732666
1772698602816621000,12.28162109375,4.4922027587890625,3.058351993560791,-4.831788063049316
1772698602826621000,12.291620849609375,5.085681915283203,2.0387516021728516,-4.3204240798950195
1772698602836621000,12.30162109375,5.228035926818848,0.7035646438598633,-3.274749517440796
1772698602846621000,12.311620849609374,5.208796977996826,-0.516901969909668,-1.9214037656784058
1772698602856621000,12.32162109375,3.7459325790405273,-1.0285158157348633,-0.5260754227638245
1772698602866621000,12.331620849609376,1.0287628173828125,-0.6647396087646484,0.7699286937713623
1772698602876621000,12.34162109375,-1.2975245714187622,-0.5473556518554688,1.7307249307632446
1772698602886621000,12.351620849609375,-3.5692548751831055,-1.8201017379760742,2.1643967628479004
1772698602896621000,12.36162109375,-5.177213668823242,-4.11766242980957,2.345480442047119
1772698602906621000,12.371620849609375,-5.977381229400635,-5.616208076477051,2.5449113845825195
1772698602916621000,12.38162109375,-4.453519344329834,-6.201828956604004,2.7339768409729004
1772698602926621000,12.391620849609374,-4.2957563400268555,-5.966815948486328,2.267422676086426
1772698602936621000,12.40162109375,-4.396358966827393,-5.1987504959106445,1.441404938697815
1772698602946621000,12.411620849609376,-3.6569790840148926,-5.186190605163574,1.7083323001861572
1772698602956621000,12.42162109375,-3.3048315048217773,-6.25250244140625,1.9295090436935425
1772698602966621000,12.431620849609375,-3.229971408843994,-8.684833526611328,2.0392656326293945
1772698602976621000,12.44162109375,-3.428412437438965,-12.061172485351562,2.745077133178711
1772698602986621000,12.451620849609375,-3.3970742225646973,-13.772829055786133,4.045468807220459
1772698602996621000,12.46162109375,-3.1423611640930176,-11.231097221374512,5.526218414306641
1772698603006621000,12.471620849609375,-3.0300450325012207,-7.465364456176758,6.7060065269470215
1772698603016621000,12.48162109375,-3.500016927719116,-5.084364891052246,7.749207973480225
1772698603026621000,12.491620849609374,-3.5703089237213135,-3.89068603515625,8.004883766174316
1772698603036621000,12.50162109375,-2.747795343399048,-2.84487247467041,7.080599784851074
1772698603046621000,12.511620849609375,-1.9100990295410156,-1.4263324737548828,5.399963855743408
1772698603056621000,12.52162109375,-0.8137568831443787,0.6582431793212891,3.586275815963745
1772698603066621000,12.531620849609375,-0.262012243270874,2.868584632873535,1.8246961832046509
1772698603076621000,12.54162109375,0.769628643989563,5.396703720092773,0.4437297582626343
1772698603086621000,12.551620849609375,0.9902182817459106,6.6587982177734375,-0.4741685390472412
1772698603096621000,12.56162109375,0.9176397323608398,6.834002494812012,-1.3039610385894775
1772698603106621000,12.571620849609374,1.1192959547042847,6.441715240478516,-2.374478340148926
1772698603116621000,12.58162109375,1.0292192697525024,5.446700096130371,-3.120250701904297
1772698603126621000,12.591620849609376,0.7187696695327759,3.9984779357910156,-3.525827407836914
1772698603136621000,12.60162109375,0.4470144510269165,2.850616455078125,-3.967062473297119
1772698603146621000,12.611620849609375,0.06663835048675537,2.0588064193725586,-4.37327766418457
1772698603156621000,12.62162109375,-0.5299025774002075,1.454690933227539,-4.584686279296875
1772698603166621000,12.631620849609375,-0.9868813157081604,0.973628044128418,-4.464620590209961
1772698603176621000,12.64162109375,-1.1585886478424072,0.7445955276489258,-3.8927836418151855
1772698603186621000,12.651620849609374,-1.2036322355270386,1.0677156448364258,-2.865368127822876
1772698603196621000,12.66162109375,-1.3123186826705933,1.5878982543945312,-1.6669976711273193
1772698603206621000,12.671620849609376,-1.3926904201507568,1.970682144165039,-0.7518866062164307
1772698603216621000,12.68162109375,-1.0232981443405151,2.234241485595703,-0.21969854831695557
1772698603226621000,12.691620849609375,-0.315230131149292,2.3960185050964355,-0.02898252010345459
1772698603236621000,12.70162109375,0.514162540435791,2.3908801078796387,0.029747962951660156
1772698603246621000,12.711620849609375,1.1569316387176514,2.3494105339050293,0.13518357276916504
1772698603256621000,12.72162109375,1.3614604473114014,2.3142824172973633,0.12396240234375
1772698603266621000,12.731620849609374,1.3525019884109497,2.361168384552002,0.10068154335021973
1772698603276621000,12.74162109375,1.3981797695159912,2.32999849319458,0.1216273307800293
1772698603286621000,12.751620849609376,1.6375956535339355,2.0654053688049316,0.19797003269195557
1772698603296621000,12.76162109375,1.9488887786865234,1.5995140075683594,0.37844419479370117
1772698603306621000,12.771620849609375,1.8968088626861572,0.8602104187011719,0.5418614149093628
1772698603316621000,12.78162109375,1.4210067987442017,-0.18257713317871094,0.7236239910125732
1772698603326621000,12.791620849609375,0.7397452592849731,-1.108987808227539,0.9232741594314575
1772698603336621000,12.80162109375,0.7035980224609375,-1.420018196105957,1.24497389793396
1772698603346621000,12.811620849609374,1.0505750179290771,-0.835423469543457,1.2776148319244385
1772698603356621000,12.82162109375,1.388602375984192,-0.02091693878173828,1.3041422367095947
