time,seconds_elapsed,z,y,x
1772698590576621000,0.04162109375,6.784081935882568,7.027924537658691,-0.8688482642173767
1772698590586621000,0.051620849609375,6.77062463760376,7.035808086395264,-0.9090803265571594
1772698590596621000,0.06162109375,6.735541820526123,7.0587286949157715,-0.9885417222976685
1772698590606621000,0.071620849609375,6.6839494705200195,7.091440200805664,-1.0984859466552734
1772698590616621000,0.08162109375,6.592717170715332,7.154106140136719,-1.2350009679794312
1772698590626621000,0.091620849609375,6.4686455726623535,7.2406415939331055,-1.3784533739089966
1772698590636621000,0.10162109375,6.324042320251465,7.340719223022461,-1.5135122537612915
1772698590646621000,0.111620849609375,6.200292110443115,7.420925617218018,-1.6299188137054443
1772698590656621000,0.12162109375,6.111441135406494,7.471828937530518,-1.7298693656921387
1772698590666621000,0.131620849609375,6.0278496742248535,7.5116801261901855,-1.846640944480896
1772698590676621000,0.14162109375,5.9562530517578125,7.530233383178711,-1.9972572326660156
1772698590686621000,0.151620849609375,5.920777797698975,7.51682710647583,-2.1475751399993896
1772698590696621000,0.16162109375,5.898244380950928,7.496260643005371,-2.2775394916534424
1772698590716621000,0.18162109375,5.884338855743408,7.433168888092041,-2.5085737705230713
1772698590726621000,0.191620849609375,5.921370506286621,7.381361484527588,-2.5735726356506348
1772698590736621000,0.20162109375,5.95801305770874,7.335000038146973,-2.6211159229278564
1772698590746621000,0.211620849609375,5.991207599639893,7.293792247772217,-2.6601545810699463
1772698590756621000,0.22162109375,6.031264305114746,7.258763313293457,-2.665444850921631
1772698590766621000,0.231620849609375,6.072178363800049,7.222382545471191,-2.6713685989379883
1772698590776621000,0.24162109375,6.119598865509033,7.182847499847412,-2.6697545051574707
1772698590786621000,0.251620849609375,6.1634907722473145,7.151299476623535,-2.6534273624420166
1772698590796621000,0.26162109375,6.200220584869385,7.127828598022461,-2.6309151649475098
1772698590806621000,0.271620849609375,6.2331037521362305,7.105630397796631,-2.61320161819458
1772698590816621000,0.28162109375,6.271075248718262,7.075416564941406,-2.6043202877044678
1772698590826621000,0.291620849609375,6.322659015655518,7.0320210456848145,-2.597123384475708
1772698590836621000,0.30162109375,6.393679618835449,6.973899841308594,-2.57991623878479
1772698590846621000,0.311620849609375,6.48441219329834,6.901367664337158,-2.548313856124878
1772698590856621000,0.32162109375,6.579845905303955,6.825103759765625,-2.5087826251983643
1772698590866621000,0.331620849609375,6.663125991821289,6.7577104568481445,-2.4711313247680664
1772698590876621000,0.34162109375,6.727200508117676,6.703238010406494,-2.445763111114502
1772698590886621000,0.351620849609375,6.77431058883667,6.659737586975098,-2.434539794921875
1772698590896621000,0.36162109375,6.8083977699279785,6.626161575317383,-2.431067943572998
1772698590906621000,0.371620849609375,6.835330963134766,6.597215175628662,-2.4342124462127686
1772698590916621000,0.38162109375,6.866405963897705,6.566049098968506,-2.431021213531494
1772698590926621000,0.391620849609375,6.903183937072754,6.532749652862549,-2.4165310859680176
1772698590936621000,0.40162109375,6.942193984985352,6.499848365783691,-2.393385410308838
1772698590946621000,0.411620849609375,6.981775760650635,6.466693878173828,-2.3679237365722656
1772698590956621000,0.42162109375,7.018235206604004,6.43392276763916,-2.3493402004241943
1772698590966621000,0.431620849609375,7.047518730163574,6.404907703399658,-2.3409478664398193
1772698590976621000,0.44162109375,7.06450080871582,6.383649826049805,-2.3478126525878906
1772698590986621000,0.451620849609375,7.067849159240723,6.370040416717529,-2.374549627304077
1772698590996621000,0.46162109375,7.0633721351623535,6.358124256134033,-2.4193851947784424
1772698591006621000,0.471620849609375,7.055696487426758,6.343908786773682,-2.478379487991333
1772698591016621000,0.48162109375,7.045136451721191,6.326949119567871,-2.5507164001464844
1772698591026621000,0.491620849609375,7.030681133270264,6.310351848602295,-2.630469560623169
1772698591036621000,0.50162109375,7.015234470367432,6.295076847076416,-2.707192897796631
1772698591046621000,0.511620849609375,7.001187801361084,6.281378269195557,-2.774534225463867
1772698591056621000,0.52162109375,6.989808082580566,6.267993450164795,-2.8328843116760254
1772698591066621000,0.531620849609375,6.991474151611328,6.246519565582275,-2.875877618789673
1772698591076621000,0.54162109375,7.030186653137207,6.20408296585083,-2.8733625411987305
1772698591086621000,0.551620849609375,7.105839252471924,6.144954204559326,-2.8137118816375732
1772698591096621000,0.56162109375,7.197410583496094,6.084062576293945,-2.7114312648773193
1772698591106621000,0.571620849609375,7.291025161743164,6.03065824508667,-2.5773069858551025
1772698591116621000,0.58162109375,7.3749613761901855,5.986937522888184,-2.436574697494507
1772698591126621000,0.591620849609375,7.438286781311035,5.946890354156494,-2.34025239944458
1772698591136621000,0.60162109375,7.473931312561035,5.913665771484375,-2.310694932937622
1772698591146621000,0.611620849609375,7.476461410522461,5.892859935760498,-2.3552329540252686
1772698591156621000,0.62162109375,7.435462951660156,5.8989057540893555,-2.4672248363494873
1772698591166621000,0.631620849609375,7.348484039306641,5.9392619132995605,-2.62589693069458
1772698591176621000,0.64162109375,7.23664665222168,6.0026044845581055,-2.787482976913452
1772698591186621000,0.651620849609375,7.1329264640808105,6.075972557067871,-2.8938403129577637
1772698591196621000,0.66162109375,7.053499698638916,6.1581525802612305,-2.9147377014160156
1772698591206621000,0.671620849609375,7.000817775726318,6.247356414794922,-2.8512234687805176
1772698591216621000,0.68162109375,6.949229717254639,6.337413311004639,-2.777730941772461
1772698591226621000,0.691620849609375,6.910820960998535,6.398787975311279,-2.732480764389038
1772698591236621000,0.70162109375,6.888582229614258,6.434912204742432,-2.7036516666412354
1772698591246621000,0.711620849609375,6.877963542938232,6.454831123352051,-2.683126449584961
1772698591256621000,0.72162109375,6.86928129196167,6.468928813934326,-2.6713905334472656
1772698591266621000,0.731620849609375,6.862407207489014,6.481979846954346,-2.657383918762207
1772698591276621000,0.74162109375,6.858011722564697,6.497602939605713,-2.6304397583007812
1772698591286621000,0.751620849609375,6.85593843460083,6.518013954162598,-2.5849525928497314
1772698591296621000,0.76162109375,6.856052875518799,6.543191432952881,-2.5202317237854004
1772698591306621000,0.771620849609375,6.861200332641602,6.57000207901001,-2.4350345134735107
1772698591316621000,0.78162109375,6.866560935974121,6.599239826202393,-2.3389649391174316
1772698591326621000,0.791620849609375,6.867283821105957,6.632019996643066,-2.2421224117279053
1772698591336621000,0.80162109375,6.86976957321167,6.66019344329834,-2.149064540863037
1772698591346621000,0.811620849609375,6.882595539093018,6.673600673675537,-2.0647778511047363
1772698591356621000,0.82162109375,6.906740188598633,6.668092727661133,-2.000966787338257
1772698591366621000,0.831620849609375,6.942367076873779,6.642693042755127,-1.9617726802825928
1772698591376621000,0.84162109375,6.988134384155273,6.601573944091797,-1.9379359483718872
1772698591386621000,0.851620849609375,7.038272380828857,6.551833629608154,-1.9252506494522095
1772698591396621000,0.86162109375,7.081763744354248,6.505496025085449,-1.922898530960083
1772698591406621000,0.871620849609375,7.095595836639404,6.488791465759277,-1.928342342376709
1772698591416621000,0.88162109375,7.08817720413208,6.5027031898498535,-1.9086593389511108
1772698591426621000,0.891620849609375,7.084352016448975,6.522031784057617,-1.8561891317367554
1772698591436621000,0.90162109375,7.078570365905762,6.54543399810791,-1.7948631048202515
1772698591446621000,0.911620849609375,7.071869373321533,6.569503307342529,-1.7322447299957275
1772698591456621000,0.92162109375,7.0746588706970215,6.583929061889648,-1.664772629737854
1772698591466621000,0.931620849609375,7.087738037109375,6.58803653717041,-1.5912699699401855
1772698591476621000,0.94162109375,7.108128070831299,6.585475444793701,-1.5087850093841553
1772698591486621000,0.951620849609375,7.13388204574585,6.576415061950684,-1.4243865013122559
1772698591496621000,0.96162109375,7.164248943328857,6.561836242675781,-1.3365020751953125
1772698591506621000,0.971620849609375,7.20188570022583,6.538293838500977,-1.2465705871582031
1772698591516621000,0.98162109375,7.243255615234375,6.508701324462891,-1.1586413383483887
1772698591526621000,0.991620849609375,7.282548427581787,6.481836795806885,-1.058609962463379
1772698591536621000,1.00162109375,7.314484119415283,6.464598655700684,-0.9368430972099304
1772698591546621000,1.011620849609375,7.329699993133545,6.467144012451172,-0.7886313199996948
1772698591556621000,1.02162109375,7.325186252593994,6.490896701812744,-0.61667400598526
1772698591566621000,1.031620849609375,7.307117938995361,6.527617931365967,-0.4081864655017853
1772698591576621000,1.04162109375,7.279657363891602,6.568999290466309,-0.1588359773159027
1772698591586621000,1.051620849609375,7.247986316680908,6.604706287384033,0.12219570577144623
1772698591596621000,1.06162109375,7.21833610534668,6.62455940246582,0.42569610476493835
1772698591606621000,1.071620849609375,7.19142484664917,6.626010417938232,0.7414758801460266
1772698591616621000,1.08162109375,7.167846202850342,6.608550071716309,1.0580391883850098
1772698591626621000,1.091620849609375,7.1490960121154785,6.568246364593506,1.3852636814117432
1772698591636621000,1.10162109375,7.133749485015869,6.504286289215088,1.724610686302185
1772698591646621000,1.111620849609375,7.118035316467285,6.415663242340088,2.0840396881103516
1772698591656621000,1.12162109375,7.09674072265625,6.302019119262695,2.46803879737854
1772698591666621000,1.131620849609375,7.068057537078857,6.159901142120361,2.8755125999450684
1772698591676621000,1.14162109375,7.0369110107421875,5.978163242340088,3.303610324859619
1772698591686621000,1.151620849609375,7.021793365478516,5.736971378326416,3.735233783721924
1772698591696621000,1.16162109375,7.037876605987549,5.419391632080078,4.155583381652832
1772698591706621000,1.171620849609375,7.077813148498535,5.029386520385742,4.55853271484375
1772698591716621000,1.18162109375,7.130829334259033,4.571165561676025,4.942276477813721
1772698591726621000,1.191620849609375,7.183746337890625,4.053508758544922,5.304079055786133
1772698591736621000,1.20162109375,7.216226100921631,3.489619016647339,5.649692535400391
1772698591746621000,1.211620849609375,7.2077250480651855,2.893528699874878,5.987202167510986
1772698591756621000,1.22162109375,7.146955966949463,2.2762961387634277,6.317426681518555
1772698591766621000,1.231620849609375,7.028277397155762,1.6472409963607788,6.63779354095459
1772698591776621000,1.24162109375,6.85384464263916,1.0015958547592163,6.942047119140625
1772698591786621000,1.251620849609375,6.634347915649414,0.3261926472187042,7.214527606964111
1772698591796621000,1.26162109375,6.3850998878479,-0.3828634023666382,7.433323860168457
1772698591806621000,1.271620849609375,6.120006084442139,-1.1237870454788208,7.579776763916016
1772698591816621000,1.28162109375,5.846287250518799,-1.8782658576965332,7.6461381912231445
1772698591826621000,1.291620849609375,5.575965404510498,-2.615000009536743,7.631565093994141
1772698591836621000,1.30162109375,5.319178104400635,-3.3054256439208984,7.546581268310547
1772698591846621000,1.311620849609375,5.077780723571777,-3.932311534881592,7.411036491394043
1772698591856621000,1.32162109375,4.845978260040283,-4.500204086303711,7.241204261779785
1772698591866621000,1.331620849609375,4.607640743255615,-5.035854339599609,7.041320323944092
1772698591876621000,1.34162109375,4.360415935516357,-5.555222034454346,6.804165840148926
1772698591886621000,1.351620849609375,4.122864723205566,-6.046097755432129,6.528176307678223
1772698591896621000,1.36162109375,3.9129245281219482,-6.491306304931641,6.222728729248047
1772698591906621000,1.371620849609375,3.7398622035980225,-6.886646270751953,5.8955841064453125
1772698591916621000,1.38162109375,3.6078250408172607,-7.230943202972412,5.555847644805908
1772698591926621000,1.391620849609375,3.517521858215332,-7.526069641113281,5.211114883422852
1772698591936621000,1.40162109375,3.4527463912963867,-7.773715496063232,4.880396366119385
1772698591946621000,1.411620849609375,3.399489402770996,-7.976962566375732,4.580601692199707
1772698591956621000,1.42162109375,3.3649299144744873,-8.152534484863281,4.287634372711182
1772698591966621000,1.431620849609375,3.3454978466033936,-8.313520431518555,3.9828879833221436
1772698591976621000,1.44162109375,3.334517002105713,-8.465494155883789,3.6587984561920166
1772698591986621000,1.451620849609375,3.3335092067718506,-8.604941368103027,3.318596363067627
1772698591996621000,1.46162109375,3.3470826148986816,-8.726760864257812,2.9683454036712646
1772698592006621000,1.471620849609375,3.377760410308838,-8.831934928894043,2.5996241569519043
1772698592016621000,1.48162109375,3.4167065620422363,-8.922768592834473,2.2092318534851074
1772698592026621000,1.491620849609375,3.4519386291503906,-8.998452186584473,1.8117283582687378
1772698592036621000,1.50162109375,3.481628656387329,-9.057190895080566,1.4198373556137085
1772698592046621000,1.511620849609375,3.515848159790039,-9.095329284667969,1.041242241859436
1772698592056621000,1.52162109375,3.563602924346924,-9.110565185546875,0.6846381425857544
1772698592066621000,1.531620849609375,3.6358206272125244,-9.10081958770752,0.35533860325813293
1772698592076621000,1.54162109375,3.740293025970459,-9.065210342407227,0.05051722005009651
1772698592086621000,1.551620849609375,3.8711211681365967,-9.007293701171875,-0.23123224079608917
1772698592096621000,1.56162109375,4.016256809234619,-8.93359375,-0.48058828711509705
1772698592106621000,1.571620849609375,4.1712965965271,-8.848185539245605,-0.6930280923843384
1772698592116621000,1.58162109375,4.3386149406433105,-8.751111030578613,-0.8745697140693665
1772698592126621000,1.591620849609375,4.508888244628906,-8.64783000946045,-1.0273090600967407
1772698592136621000,1.60162109375,4.667909622192383,-8.54485034942627,-1.1689943075180054
1772698592146621000,1.611620849609375,4.7964911460876465,-8.450983047485352,-1.3209669589996338
1772698592156621000,1.62162109375,4.88454008102417,-8.372902870178223,-1.4853131771087646
1772698592166621000,1.631620849609375,4.938106060028076,-8.308700561523438,-1.6586120128631592
1772698592176621000,1.64162109375,4.978039264678955,-8.250039100646973,-1.8238327503204346
1772698592186621000,1.651620849609375,5.0242919921875,-8.19038200378418,-1.9607419967651367
1772698592196621000,1.66162109375,5.09170389175415,-8.125739097595215,-2.0536084175109863
1772698592206621000,1.671620849609375,5.169743061065674,-8.065727233886719,-2.094804525375366
1772698592216621000,1.68162109375,5.2351274490356445,-8.021180152893066,-2.1034481525421143
1772698592226621000,1.691620849609375,5.2618584632873535,-8.001777648925781,-2.1106350421905518
1772698592236621000,1.70162109375,5.193021297454834,-8.03898811340332,-2.139528512954712
1772698592246621000,1.711620849609375,4.983766555786133,-8.16059684753418,-2.176487684249878
1772698592256621000,1.72162109375,4.759022235870361,-8.285640716552734,-2.2068681716918945
1772698592266621000,1.731620849609375,4.597634315490723,-8.374556541442871,-2.2133595943450928
1772698592276621000,1.74162109375,4.463285446166992,-8.454370498657227,-2.1847410202026367
1772698592286621000,1.751620849609375,4.31139612197876,-8.543468475341797,-2.142752170562744
1772698592296621000,1.76162109375,4.148521423339844,-8.636740684509277,-2.089705467224121
1772698592306621000,1.771620849609375,4.0329389572143555,-8.703719139099121,-2.037416696548462
1772698592316621000,1.78162109375,3.954927921295166,-8.750777244567871,-1.9881776571273804
1772698592326621000,1.791620849609375,3.896427631378174,-8.786628723144531,-1.9450901746749878
1772698592336621000,1.80162109375,3.847323179244995,-8.81542682647705,-1.9122600555419922
1772698592346621000,1.811620849609375,3.7985899448394775,-8.840324401855469,-1.894663691520691
1772698592356621000,1.82162109375,3.755801200866699,-8.86014461517334,-1.8873730897903442
1772698592366621000,1.831620849609375,3.729733467102051,-8.87390422821045,-1.8743767738342285
1772698592376621000,1.84162109375,3.7270896434783936,-8.879359245300293,-1.8536909818649292
1772698592386621000,1.851620849609375,3.7433340549468994,-8.876533508300781,-1.8343902826309204
1772698592396621000,1.86162109375,3.7705891132354736,-8.867156028747559,-1.8238964080810547
1772698592406621000,1.871620849609375,3.8039982318878174,-8.854635238647461,-1.8153268098831177
1772698592416621000,1.88162109375,3.8379769325256348,-8.841904640197754,-1.8058370351791382
1772698592426621000,1.891620849609375,3.863489866256714,-8.832807540893555,-1.7959243059158325
1772698592436621000,1.90162109375,3.8751184940338135,-8.830599784851074,-1.7816689014434814
1772698592446621000,1.911620849609375,3.87434720993042,-8.833680152893066,-1.768022894859314
1772698592456621000,1.92162109375,3.8665547370910645,-8.839319229125977,-1.7568615674972534
1772698592466621000,1.931620849609375,3.8544325828552246,-8.845915794372559,-1.7502857446670532
1772698592476621000,1.94162109375,3.837993860244751,-8.853277206420898,-1.7491919994354248
1772698592486621000,1.951620849609375,3.819023847579956,-8.860442161560059,-1.7544275522232056
1772698592496621000,1.96162109375,3.793135643005371,-8.869955062866211,-1.7625001668930054
1772698592506621000,1.971620849609375,3.7600622177124023,-8.88273811340332,-1.768973469734192
1772698592516621000,1.98162109375,3.721737861633301,-8.898798942565918,-1.7693032026290894
1772698592526621000,1.991620849609375,3.67612624168396,-8.919089317321777,-1.7624729871749878
1772698592536621000,2.00162109375,3.617483377456665,-8.945699691772461,-1.748902678489685
1772698592546621000,2.011620849609375,3.541745901107788,-8.978673934936523,-1.7348870038986206
1772698592556621000,2.02162109375,3.4522926807403564,-9.015726089477539,-1.7230037450790405
1772698592566621000,2.031620849609375,3.355015754699707,-9.0552978515625,-1.7075828313827515
1772698592576621000,2.04162109375,3.252192735671997,-9.101399421691895,-1.6607707738876343
1772698592586621000,2.051620849609375,3.1383590698242188,-9.15317440032959,-1.5938900709152222
1772698592596621000,2.06162109375,3.028872013092041,-9.192821502685547,-1.5774534940719604
1772698592606621000,2.071620849609375,2.9291772842407227,-9.220209121704102,-1.6056307554244995
1772698592616621000,2.08162109375,2.832352638244629,-9.241372108459473,-1.656864881515503
1772698592626621000,2.091620849609375,2.727591037750244,-9.26105785369873,-1.7214646339416504
1772698592636621000,2.10162109375,2.60807466506958,-9.284834861755371,-1.7776920795440674
1772698592646621000,2.111620849609375,2.4901742935180664,-9.308711051940918,-1.8213467597961426
1772698592656621000,2.12162109375,2.390188217163086,-9.327576637268066,-1.8584163188934326
1772698592666621000,2.131620849609375,2.3119359016418457,-9.342092514038086,-1.884319543838501
1772698592676621000,2.14162109375,2.2665770053863525,-9.35157299041748,-1.8923789262771606
1772698592686621000,2.151620849609375,2.2442305088043213,-9.360254287719727,-1.8760162591934204
1772698592696621000,2.16162109375,2.2244176864624023,-9.37724781036377,-1.8137232065200806
1772698592706621000,2.171620849609375,2.2139389514923096,-9.400297164916992,-1.7039004564285278
1772698592716621000,2.18162109375,2.2149126529693604,-9.421085357666016,-1.5835715532302856
1772698592726621000,2.191620849609375,2.1864171028137207,-9.445533752441406,-1.473722219467163
1772698592736621000,2.20162109375,2.143376350402832,-9.470087051391602,-1.3761433362960815
1772698592746621000,2.211620849609375,2.046846866607666,-9.500726699829102,-1.3103389739990234
1772698592756621000,2.22162109375,1.8852967023849487,-9.53907585144043,-1.2736088037490845
1772698592766621000,2.231620849609375,1.688110589981079,-9.582588195800781,-1.22257399559021
1772698592776621000,2.24162109375,1.4746642112731934,-9.629035949707031,-1.130232334136963
1772698592786621000,2.251620849609375,1.2327405214309692,-9.676785469055176,-1.0052659511566162
1772698592796621000,2.26162109375,0.9726323485374451,-9.721062660217285,-0.8516464233398438
1772698592806621000,2.271620849609375,0.7132413387298584,-9.759221076965332,-0.6475022435188293
1772698592816621000,2.28162109375,0.44345802068710327,-9.788290023803711,-0.4038678705692291
1772698592826621000,2.291620849609375,0.19752733409404755,-9.803637504577637,-0.1416417509317398
1772698592836621000,2.30162109375,0.0025380842853337526,-9.806022644042969,0.1109127625823021
1772698592846621000,2.311620849609375,-0.12215364724397659,-9.800806999206543,0.3156689405441284
1772698592856621000,2.32162109375,-0.20963233709335327,-9.793209075927734,0.46850767731666565
1772698592866621000,2.331620849609375,-0.2884662449359894,-9.78550910949707,0.5753101110458374
1772698592876621000,2.34162109375,-0.35423821210861206,-9.777471542358398,0.6678069829940796
1772698592886621000,2.351620849609375,-0.398135244846344,-9.768235206604004,0.7703675031661987
1772698592896621000,2.36162109375,-0.40811750292778015,-9.758552551269531,0.8800511956214905
1772698592906621000,2.371620849609375,-0.3685234487056732,-9.750697135925293,0.9790183305740356
1772698592916621000,2.38162109375,-0.28875428438186646,-9.744604110717773,1.0628749132156372
1772698592926621000,2.391620849609375,-0.1934405118227005,-9.741873741149902,1.1085429191589355
1772698592936621000,2.40162109375,-0.08798795193433762,-9.742502212524414,1.116382122039795
1772698592946621000,2.411620849609375,0.022060682997107506,-9.74506950378418,1.0970522165298462
1772698592956621000,2.42162109375,0.10475405305624008,-9.74756908416748,1.0697251558303833
1772698592966621000,2.431620849609375,0.136527419090271,-9.750113487243652,1.0426065921783447
1772698592976621000,2.44162109375,0.11272664368152618,-9.755000114440918,0.9988285303115845
1772698592986621000,2.451620849609375,0.07404683530330658,-9.759394645690918,0.9587044715881348
1772698592996621000,2.46162109375,0.024537965655326843,-9.76073932647705,0.9474958181381226
1772698593006621000,2.471620849609375,-0.01605163887143135,-9.759976387023926,0.955501914024353
1772698593016621000,2.48162109375,-0.024428045377135277,-9.757999420166016,0.9753170013427734
1772698593026621000,2.491620849609375,0.01337649766355753,-9.756521224975586,0.9901988506317139
1772698593036621000,2.50162109375,0.10123880952596664,-9.756426811218262,0.9860422015190125
1772698593046621000,2.511620849609375,0.22498050332069397,-9.757148742675781,0.9580355882644653
1772698593056621000,2.52162109375,0.36791184544563293,-9.753886222839355,0.9469522833824158
1772698593066621000,2.531620849609375,0.5269754528999329,-9.741964340209961,0.9933927059173584
1772698593076621000,2.54162109375,0.6940779089927673,-9.727494239807129,1.031740427017212
1772698593086621000,2.551620849609375,0.8769477605819702,-9.713826179504395,1.0212346315383911
1772698593096621000,2.56162109375,1.0709339380264282,-9.699756622314453,0.9686138033866882
1772698593106621000,2.571620849609375,1.2672131061553955,-9.684412956237793,0.8813031315803528
1772698593116621000,2.58162109375,1.4301060438156128,-9.669791221618652,0.7875983715057373
1772698593126621000,2.591620849609375,1.5232640504837036,-9.657708168029785,0.7607414126396179
1772698593136621000,2.60162109375,1.4969898462295532,-9.656058311462402,0.8306214809417725
1772698593146621000,2.611620849609375,1.4184352159500122,-9.660409927368164,0.9137415885925293
1772698593156621000,2.62162109375,1.379082202911377,-9.660469055175781,0.9715328812599182
1772698593166621000,2.631620849609375,1.3643888235092163,-9.658418655395508,1.0118227005004883
1772698593176621000,2.64162109375,1.3590624332427979,-9.656533241271973,1.0366876125335693
1772698593186621000,2.651620849609375,1.3568097352981567,-9.654011726379395,1.0627806186676025
1772698593196621000,2.66162109375,1.349841833114624,-9.650792121887207,1.1002435684204102
1772698593206621000,2.671620849609375,1.3147861957550049,-9.650485038757324,1.1444964408874512
1772698593216621000,2.68162109375,1.2453352212905884,-9.654085159301758,1.1908713579177856
1772698593226621000,2.691620849609375,1.1832115650177002,-9.657846450805664,1.2232760190963745
1772698593236621000,2.70162109375,1.162399411201477,-9.65861988067627,1.2370413541793823
1772698593246621000,2.711620849609375,1.178381323814392,-9.655923843383789,1.2429567575454712
1772698593256621000,2.72162109375,1.2181442975997925,-9.650497436523438,1.2467607259750366
1772698593266621000,2.731620849609375,1.2842943668365479,-9.642007827758789,1.246063232421875
1772698593276621000,2.74162109375,1.366944670677185,-9.630951881408691,1.2436281442642212
1772698593286621000,2.751620849609375,1.4554460048675537,-9.618250846862793,1.241499900817871
1772698593296621000,2.76162109375,1.534010648727417,-9.606247901916504,1.2398391962051392
1772698593306621000,2.771620849609375,1.5884935855865479,-9.597511291503906,1.2388982772827148
1772698593316621000,2.78162109375,1.6166175603866577,-9.592869758605957,1.238467812538147
1772698593326621000,2.791620849609375,1.6232037544250488,-9.592045783996582,1.2362334728240967
1772698593336621000,2.80162109375,1.617161512374878,-9.593719482421875,1.231147289276123
1772698593346621000,2.811620849609375,1.607384204864502,-9.596302032470703,1.223806619644165
1772698593356621000,2.82162109375,1.5998808145523071,-9.598479270935059,1.2165307998657227
1772698593366621000,2.831620849609375,1.5994294881820679,-9.599452018737793,1.2094380855560303
1772698593376621000,2.84162109375,1.6079360246658325,-9.598963737487793,1.2020070552825928
1772698593386621000,2.851620849609375,1.6237242221832275,-9.597189903259277,1.1949334144592285
1772698593396621000,2.86162109375,1.6457265615463257,-9.59426212310791,1.1883214712142944
1772698593406621000,2.871620849609375,1.672658085823059,-9.590323448181152,1.1824920177459717
1772698593416621000,2.88162109375,1.70198392868042,-9.585838317871094,1.177003264427185
1772698593426621000,2.891620849609375,1.7312381267547607,-9.581345558166504,1.1709054708480835
1772698593436621000,2.90162109375,1.7580875158309937,-9.57731819152832,1.163824439048767
1772698593446621000,2.911620849609375,1.780940294265747,-9.574064254760742,1.1558310985565186
1772698593456621000,2.92162109375,1.798775315284729,-9.571761131286621,1.1472476720809937
1772698593466621000,2.931620849609375,1.8099287748336792,-9.570821762084961,1.1375031471252441
1772698593476621000,2.94162109375,1.8133713006973267,-9.57170581817627,1.124508023262024
1772698593486621000,2.951620849609375,1.8087068796157837,-9.574748992919922,1.1059627532958984
1772698593496621000,2.96162109375,1.796010136604309,-9.580070495605469,1.0802661180496216
1772698593506621000,2.971620849609375,1.7772401571273804,-9.587235450744629,1.0472416877746582
1772698593516621000,2.98162109375,1.7557015419006348,-9.595473289489746,1.0073662996292114
1772698593526621000,2.991620849609375,1.735089659690857,-9.603781700134277,0.9629228115081787
1772698593536621000,3.00162109375,1.7166473865509033,-9.611520767211914,0.9176957011222839
1772698593546621000,3.011620849609375,1.7019951343536377,-9.618040084838867,0.8757391571998596
1772698593556621000,3.02162109375,1.6906477212905884,-9.623346328735352,0.8386272192001343
1772698593566621000,3.031620849609375,1.6823395490646362,-9.62748908996582,0.8072023391723633
1772698593576621000,3.04162109375,1.6779638528823853,-9.630261421203613,0.782877504825592
1772698593586621000,3.051620849609375,1.6783082485198975,-9.63134479522705,0.7686765789985657
1772698593596621000,3.06162109375,1.6872568130493164,-9.630048751831055,0.7653157114982605
1772698593606621000,3.071620849609375,1.7025805711746216,-9.627436637878418,0.7642521262168884
1772698593616621000,3.08162109375,1.7197885513305664,-9.624605178833008,0.7613814473152161
1772698593626621000,3.091620849609375,1.735506534576416,-9.622040748596191,0.7581081986427307
1772698593636621000,3.10162109375,1.7384953498840332,-9.62177562713623,0.7546110153198242
1772698593646621000,3.111620849609375,1.7445849180221558,-9.620443344116211,0.7575463652610779
1772698593656621000,3.12162109375,1.7926234006881714,-9.60830307006836,0.7983760237693787
1772698593666621000,3.131620849609375,1.839646816253662,-9.592267036437988,0.8800657987594604
1772698593676621000,3.14162109375,1.8372511863708496,-9.583697319030762,0.9734753370285034
1772698593686621000,3.151620849609375,1.8011773824691772,-9.577912330627441,1.090753436088562
1772698593696621000,3.16162109375,1.7298849821090698,-9.573590278625488,1.2346043586730957
1772698593706621000,3.171620849609375,1.6428663730621338,-9.566951751708984,1.3945637941360474
1772698593716621000,3.18162109375,1.5789192914962769,-9.552835464477539,1.5558754205703735
1772698593726621000,3.191620849609375,1.561012625694275,-9.533890724182129,1.6847996711730957
1772698593736621000,3.20162109375,1.581239938735962,-9.514907836914062,1.771040439605713
1772698593746621000,3.211620849609375,1.644030213356018,-9.493950843811035,1.8255038261413574
1772698593756621000,3.22162109375,1.730926275253296,-9.470236778259277,1.8678574562072754
1772698593766621000,3.231620849609375,1.7939211130142212,-9.450956344604492,1.9056882858276367
1772698593776621000,3.24162109375,1.7935177087783813,-9.447961807250977,1.920858383178711
1772698593786621000,3.251620849609375,1.7263052463531494,-9.466838836669922,1.8892406225204468
1772698593796621000,3.26162109375,1.607832431793213,-9.501608848571777,1.817879319190979
1772698593806621000,3.271620849609375,1.4659620523452759,-9.537334442138672,1.7494574785232544
1772698593816621000,3.28162109375,1.3388530015945435,-9.5641508102417,1.7043721675872803
1772698593826621000,3.291620849609375,1.2545113563537598,-9.579719543457031,1.680941104888916
1772698593836621000,3.30162109375,1.22469961643219,-9.585680961608887,1.6688951253890991
1772698593846621000,3.311620849609375,1.2433685064315796,-9.585658073425293,1.655165433883667
1772698593856621000,3.32162109375,1.2897915840148926,-9.58421516418457,1.627773642539978
1772698593866621000,3.331620849609375,1.3402403593063354,-9.584944725036621,1.5820833444595337
1772698593876621000,3.34162109375,1.380460500717163,-9.589523315429688,1.5184714794158936
1772698593886621000,3.351620849609375,1.404561996459961,-9.59787368774414,1.4416735172271729
1772698593896621000,3.36162109375,1.4136409759521484,-9.608596801757812,1.3589900732040405
1772698593906621000,3.371620849609375,1.4127784967422485,-9.619667053222656,1.2792387008666992
1772698593916621000,3.38162109375,1.4075192213058472,-9.62965202331543,1.2079274654388428
1772698593926621000,3.391620849609375,1.3999148607254028,-9.637927055358887,1.149340271949768
1772698593936621000,3.40162109375,1.3909446001052856,-9.644105911254883,1.1076422929763794
1772698593946621000,3.411620849609375,1.37712562084198,-9.648719787597656,1.0844930410385132
1772698593956621000,3.42162109375,1.3519598245620728,-9.653215408325195,1.0761131048202515
1772698593966621000,3.431620849609375,1.3164141178131104,-9.658143043518066,1.0759711265563965
1772698593976621000,3.44162109375,1.2768688201904297,-9.662837028503418,1.0814740657806396
1772698593986621000,3.451620849609375,1.2392386198043823,-9.66671371459961,1.090559482574463
1772698593996621000,3.46162109375,1.2086941003799438,-9.668966293334961,1.1047765016555786
1772698594006621000,3.471620849609375,1.1886305809020996,-9.668867111206055,1.1271885633468628
1772698594016621000,3.48162109375,1.1788831949234009,-9.666265487670898,1.1592845916748047
1772698594026621000,3.491620849609375,1.174928903579712,-9.661894798278809,1.1990447044372559
1772698594036621000,3.50162109375,1.171952247619629,-9.65662956237793,1.2435499429702759
1772698594046621000,3.511620849609375,1.1676366329193115,-9.650909423828125,1.2911059856414795
1772698594056621000,3.52162109375,1.1620477437973022,-9.64476490020752,1.3410987854003906
1772698594066621000,3.531620849609375,1.1569968461990356,-9.637930870056152,1.3935730457305908
1772698594076621000,3.54162109375,1.1548848152160645,-9.629972457885742,1.4492346048355103
1772698594086621000,3.551620849609375,1.157762885093689,-9.620469093322754,1.5088225603103638
1772698594096621000,3.56162109375,1.165441870689392,-9.609681129455566,1.5703970193862915
1772698594106621000,3.571620849609375,1.1736345291137695,-9.598228454589844,1.6330912113189697
1772698594116621000,3.58162109375,1.176857352256775,-9.586784362792969,1.6967495679855347
1772698594126621000,3.591620849609375,1.1728500127792358,-9.576014518737793,1.7591921091079712
1772698594136621000,3.60162109375,1.1622768640518188,-9.566363334655762,1.81773841381073
1772698594146621000,3.611620849609375,1.1467901468276978,-9.558183670043945,1.869858980178833
1772698594156621000,3.62162109375,1.125109076499939,-9.552165031433105,1.9132823944091797
1772698594166621000,3.631620849609375,1.0983830690383911,-9.548398971557617,1.947309970855713
1772698594176621000,3.64162109375,1.0715081691741943,-9.546154022216797,1.9731197357177734
1772698594186621000,3.651620849609375,1.049215316772461,-9.544591903686523,1.9925650358200073
1772698594196621000,3.66162109375,1.0333197116851807,-9.543091773986816,2.007997989654541
1772698594206621000,3.671620849609375,1.024571180343628,-9.541739463806152,2.0188770294189453
1772698594216621000,3.68162109375,1.0223984718322754,-9.540802955627441,2.0243923664093018
1772698594226621000,3.691620849609375,1.027216911315918,-9.540460586547852,2.023568630218506
1772698594236621000,3.70162109375,1.0390887260437012,-9.540756225585938,2.016098976135254
1772698594246621000,3.711620849609375,1.0580147504806519,-9.540711402893066,2.0064425468444824
1772698594256621000,3.72162109375,1.0820794105529785,-9.539970397949219,1.9971178770065308
1772698594266621000,3.731620849609375,1.111379861831665,-9.537556648254395,1.992547869682312
1772698594276621000,3.74162109375,1.1496734619140625,-9.532781600952148,1.993668556213379
1772698594286621000,3.751620849609375,1.2051178216934204,-9.525150299072266,1.9973951578140259
1772698594296621000,3.76162109375,1.287026286125183,-9.513760566711426,2.000577688217163
1772698594306621000,3.771620849609375,1.4016590118408203,-9.497897148132324,1.9989246129989624
1772698594316621000,3.78162109375,1.5472127199172974,-9.477645874023438,1.9876514673233032
1772698594326621000,3.791620849609375,1.7151225805282593,-9.455077171325684,1.9571045637130737
1772698594336621000,3.80162109375,1.8934661149978638,-9.431819915771484,1.904186725616455
1772698594346621000,3.811620849609375,2.077920436859131,-9.404841423034668,1.8443400859832764
1772698594356621000,3.82162109375,2.266559600830078,-9.370471954345703,1.7964812517166138
1772698594366621000,3.831620849609375,2.45540452003479,-9.329137802124023,1.7631109952926636
1772698594376621000,3.84162109375,2.636129856109619,-9.2848482131958,1.7357454299926758
1772698594386621000,3.851620849609375,2.784756898880005,-9.242650032043457,1.7288612127304077
1772698594396621000,3.86162109375,2.8790245056152344,-9.20858097076416,1.7560317516326904
1772698594406621000,3.871620849609375,2.9119246006011963,-9.189762115478516,1.7998212575912476
1772698594416621000,3.88162109375,2.884803056716919,-9.189851760864258,1.8425332307815552
1772698594426621000,3.891620849609375,2.8081040382385254,-9.204936981201172,1.8852269649505615
1772698594436621000,3.90162109375,2.7051312923431396,-9.225685119628906,1.933750867843628
1772698594446621000,3.911620849609375,2.602203369140625,-9.243729591369629,1.9880638122558594
1772698594456621000,3.92162109375,2.521757125854492,-9.254035949707031,2.043020725250244
1772698594466621000,3.931620849609375,2.47015118598938,-9.25639533996582,2.0947303771972656
1772698594476621000,3.94162109375,2.438931465148926,-9.254643440246582,2.1385927200317383
1772698594486621000,3.951620849609375,2.4121012687683105,-9.252984046936035,2.1758830547332764
1772698594496621000,3.96162109375,2.3746228218078613,-9.255319595336914,2.206948757171631
1772698594506621000,3.971620849609375,2.316164493560791,-9.264104843139648,2.2320704460144043
1772698594516621000,3.98162109375,2.23435640335083,-9.279389381408691,2.2518813610076904
1772698594526621000,3.991620849609375,2.135695457458496,-9.298538208007812,2.268561601638794
1772698594536621000,4.00162109375,2.0325558185577393,-9.318034172058105,2.283275842666626
1772698594546621000,4.011620849609375,1.9359186887741089,-9.335861206054688,2.2944068908691406
1772698594556621000,4.02162109375,1.8501909971237183,-9.352052688598633,2.299194097518921
1772698594566621000,4.031620849609375,1.7765398025512695,-9.367634773254395,2.2938425540924072
1772698594576621000,4.04162109375,1.7142330408096313,-9.383377075195312,2.276846408843994
1772698594586621000,4.051620849609375,1.6618413925170898,-9.39969539642334,2.2481982707977295
1772698594596621000,4.06162109375,1.6181412935256958,-9.416694641113281,2.208589553833008
1772698594606621000,4.071620849609375,1.5819780826568604,-9.434502601623535,2.1582162380218506
1772698594616621000,4.08162109375,1.5521481037139893,-9.453191757202148,2.0972371101379395
1772698594626621000,4.091620849609375,1.5281543731689453,-9.472521781921387,2.026440143585205
1772698594636621000,4.10162109375,1.5092277526855469,-9.491854667663574,1.9486693143844604
1772698594646621000,4.111620849609375,1.4948477745056152,-9.510358810424805,1.8678615093231201
1772698594656621000,4.12162109375,1.4843569993972778,-9.52734375,1.7879552841186523
1772698594666621000,4.131620849609375,1.476300835609436,-9.542458534240723,1.7124338150024414
1772698594676621000,4.14162109375,1.4688289165496826,-9.555985450744629,1.6419755220413208
1772698594686621000,4.151620849609375,1.4590520858764648,-9.56850814819336,1.576452612876892
1772698594696621000,4.16162109375,1.4443644285202026,-9.58067798614502,1.5148568153381348
1772698594706621000,4.171620849609375,1.4242229461669922,-9.593204498291016,1.4534070491790771
1772698594716621000,4.18162109375,1.3988566398620605,-9.606392860412598,1.3895275592803955
1772698594726621000,4.191620849609375,1.3685394525527954,-9.620340347290039,1.3215651512145996
1772698594736621000,4.20162109375,1.334758996963501,-9.634834289550781,1.2485079765319824
1772698594746621000,4.211620849609375,1.2993059158325195,-9.649422645568848,1.1708276271820068
1772698594756621000,4.22162109375,1.2644675970077515,-9.66351318359375,1.0899603366851807
1772698594766621000,4.231620849609375,1.2344423532485962,-9.676270484924316,1.0081329345703125
1772698594776621000,4.24162109375,1.2154022455215454,-9.6869535446167,0.9252675175666809
1772698594786621000,4.251620849609375,1.2112799882888794,-9.695219039916992,0.8401889204978943
1772698594796621000,4.26162109375,1.2207545042037964,-9.701128959655762,0.7538104057312012
1772698594806621000,4.271620849609375,1.2425384521484375,-9.70433235168457,0.6726120114326477
1772698594816621000,4.28162109375,1.275277018547058,-9.704675674438477,0.6027635931968689
1772698594826621000,4.291620849609375,1.3153958320617676,-9.702532768249512,0.5486239194869995
1772698594836621000,4.30162109375,1.3573201894760132,-9.698640823364258,0.5142309069633484
1772698594846621000,4.311620849609375,1.396336317062378,-9.69383430480957,0.5002089142799377
1772698594856621000,4.32162109375,1.4308240413665771,-9.688763618469238,0.5009872913360596
1772698594866621000,4.331620849609375,1.4609547853469849,-9.683913230895996,0.507780134677887
1772698594876621000,4.34162109375,1.4864170551300049,-9.679492950439453,0.5180262327194214
1772698594886621000,4.351620849609375,1.5061609745025635,-9.675727844238281,0.5311890840530396
1772698594896621000,4.36162109375,1.5169169902801514,-9.673346519470215,0.5438017845153809
1772698594906621000,4.371620849609375,1.5166364908218384,-9.672786712646484,0.554436981678009
1772698594916621000,4.38162109375,1.5088543891906738,-9.67330551147461,0.5664810538291931
1772698594926621000,4.391620849609375,1.5006165504455566,-9.673612594604492,0.5828841328620911
1772698594936621000,4.40162109375,1.4993971586227417,-9.672527313232422,0.6036843061447144
1772698594946621000,4.411620849609375,1.5038650035858154,-9.670296669006348,0.6277998685836792
1772698594956621000,4.42162109375,1.511149287223816,-9.667299270629883,0.6558459997177124
1772698594966621000,4.431620849609375,1.5305306911468506,-9.661201477050781,0.6993216276168823
1772698594976621000,4.44162109375,1.5691444873809814,-9.648736000061035,0.7810648679733276
1772698594986621000,4.451620849609375,1.6140735149383545,-9.63151741027832,0.8938926458358765
1772698594996621000,4.46162109375,1.642606496810913,-9.614556312561035,1.0161375999450684
1772698595006621000,4.471620849609375,1.6467337608337402,-9.599721908569336,1.141922116279602
1772698595016621000,4.48162109375,1.6272096633911133,-9.586061477661133,1.2767128944396973
1772698595026621000,4.491620849609375,1.6024677753448486,-9.567228317260742,1.438967227935791
1772698595036621000,4.50162109375,1.594254732131958,-9.540897369384766,1.6124554872512817
1772698595046621000,4.511620849609375,1.5992865562438965,-9.514906883239746,1.7547694444656372
1772698595056621000,4.52162109375,1.5962952375411987,-9.493143081665039,1.8714872598648071
1772698595066621000,4.531620849609375,1.5802768468856812,-9.478694915771484,1.956385612487793
1772698595076621000,4.54162109375,1.5719354152679443,-9.473540306091309,1.9878226518630981
1772698595086621000,4.551620849609375,1.5902693271636963,-9.475708961486816,1.9627448320388794
1772698595096621000,4.56162109375,1.6334829330444336,-9.48021411895752,1.9046416282653809
1772698595106621000,4.571620849609375,1.6797606945037842,-9.486654281616211,1.8308979272842407
1772698595116621000,4.58162109375,1.7162359952926636,-9.495820045471191,1.747662901878357
1772698595126621000,4.591620849609375,1.742005705833435,-9.504380226135254,1.6740846633911133
1772698595136621000,4.60162109375,1.7578696012496948,-9.509504318237305,1.6277661323547363
1772698595146621000,4.611620849609375,1.759311556816101,-9.515209197998047,1.5924794673919678
1772698595156621000,4.62162109375,1.7420849800109863,-9.5244140625,1.5559769868850708
1772698595166621000,4.631620849609375,1.7070679664611816,-9.536208152770996,1.52218759059906
1772698595176621000,4.64162109375,1.6606636047363281,-9.549150466918945,1.4920822381973267
1772698595186621000,4.651620849609375,1.6107529401779175,-9.562494277954102,1.4610211849212646
1772698595196621000,4.66162109375,1.5617316961288452,-9.576380729675293,1.4227871894836426
1772698595206621000,4.671620849609375,1.5164146423339844,-9.590550422668457,1.3755749464035034
1772698595216621000,4.68162109375,1.4777779579162598,-9.603728294372559,1.3247544765472412
1772698595226621000,4.691620849609375,1.4462945461273193,-9.614810943603516,1.2782871723175049
1772698595236621000,4.70162109375,1.420268177986145,-9.62353515625,1.241290807723999
1772698595246621000,4.711620849609375,1.393860936164856,-9.630971908569336,1.2132304906845093
1772698595256621000,4.72162109375,1.3605387210845947,-9.638461112976074,1.1913806200027466
1772698595266621000,4.731620849609375,1.3184785842895508,-9.645899772644043,1.1783921718597412
1772698595276621000,4.74162109375,1.26997709274292,-9.652508735656738,1.1775418519973755
1772698595286621000,4.751620849609375,1.2184926271438599,-9.657793045043945,1.1885645389556885
1772698595296621000,4.76162109375,1.1674658060073853,-9.661632537841797,1.2084146738052368
1772698595306621000,4.771620849609375,1.1203670501708984,-9.663847923278809,1.2349990606307983
1772698595316621000,4.78162109375,1.081333875656128,-9.663707733154297,1.270371675491333
1772698595326621000,4.791620849609375,1.0530413389205933,-9.660441398620605,1.3180944919586182
1772698595336621000,4.80162109375,1.036077857017517,-9.653623580932617,1.3800222873687744
1772698595346621000,4.811620849609375,1.0280834436416626,-9.643515586853027,1.4546650648117065
1772698595356621000,4.82162109375,1.023107647895813,-9.631204605102539,1.5373766422271729
1772698595366621000,4.831620849609375,1.0147488117218018,-9.618111610412598,1.6225277185440063
1772698595376621000,4.84162109375,1.0002399682998657,-9.605656623840332,1.7033089399337769
1772698595386621000,4.851620849609375,0.9802013635635376,-9.595381736755371,1.7715104818344116
1772698595396621000,4.86162109375,0.9587624669075012,-9.58853530883789,1.8196601867675781
1772698595406621000,4.871620849609375,0.942209005355835,-9.585583686828613,1.8436952829360962
1772698595416621000,4.88162109375,0.9351778030395508,-9.58596134185791,1.84530770778656
1772698595426621000,4.891620849609375,0.9380515217781067,-9.588797569274902,1.829043984413147
1772698595436621000,4.90162109375,0.9479507803916931,-9.592961311340332,1.8019102811813354
1772698595446621000,4.911620849609375,0.9613404273986816,-9.59720230102539,1.7719863653182983
1772698595456621000,4.92162109375,0.9771332144737244,-9.600302696228027,1.7463631629943848
1772698595466621000,4.931620849609375,0.9941139817237854,-9.601607322692871,1.7295254468917847
1772698595476621000,4.94162109375,1.007972240447998,-9.601223945617676,1.723625659942627
1772698595486621000,4.951620849609375,1.0154269933700562,-9.599306106567383,1.7299203872680664
1772698595496621000,4.96162109375,1.0178582668304443,-9.596198081970215,1.7456579208374023
1772698595506621000,4.971620849609375,1.019182562828064,-9.591890335083008,1.768417477607727
1772698595516621000,4.98162109375,1.0250972509384155,-9.585932731628418,1.7970689535140991
1772698595526621000,4.991620849609375,1.0444859266281128,-9.57802677154541,1.8277958631515503
1772698595536621000,5.00162109375,1.0871930122375488,-9.568532943725586,1.8524508476257324
1772698595546621000,5.011620849609375,1.1611852645874023,-9.558030128479004,1.8617432117462158
1772698595556621000,5.02162109375,1.2695915699005127,-9.546931266784668,1.8478680849075317
1772698595566621000,5.031620849609375,1.409389853477478,-9.534650802612305,1.8095390796661377
1772698595576621000,5.04162109375,1.5752270221710205,-9.51967716217041,1.7506542205810547
1772698595586621000,5.051620849609375,1.7595940828323364,-9.500417709350586,1.6781781911849976
1772698595596621000,5.06162109375,1.9523042440414429,-9.475375175476074,1.6050392389297485
1772698595606621000,5.071620849609375,2.142585277557373,-9.442818641662598,1.5533528327941895
1772698595616621000,5.08162109375,2.321552038192749,-9.403129577636719,1.536859393119812
1772698595626621000,5.091620849609375,2.4843733310699463,-9.357605934143066,1.5599662065505981
1772698595636621000,5.10162109375,2.627685308456421,-9.310378074645996,1.6070176362991333
1772698595646621000,5.111620849609375,2.745547294616699,-9.269006729125977,1.6485975980758667
1772698595656621000,5.12162109375,2.8225178718566895,-9.24179458618164,1.6712291240692139
1772698595666621000,5.131620849609375,2.8481605052948,-9.22969913482666,1.694408893585205
1772698595676621000,5.14162109375,2.831127166748047,-9.227681159973145,1.733497977256775
1772698595686621000,5.151620849609375,2.79006028175354,-9.230646133422852,1.7835758924484253
1772698595696621000,5.16162109375,2.7419326305389404,-9.234620094299316,1.8368420600891113
1772698595706621000,5.171620849609375,2.6899666786193848,-9.239442825317383,1.8886911869049072
1772698595716621000,5.18162109375,2.639261245727539,-9.243742942810059,1.9385343790054321
1772698595726621000,5.191620849609375,2.597921371459961,-9.245009422302246,1.987709879875183
1772698595736621000,5.20162109375,2.5701968669891357,-9.242486953735352,2.034921646118164
1772698595746621000,5.211620849609375,2.553624391555786,-9.237020492553711,2.080106258392334
1772698595756621000,5.22162109375,2.5404622554779053,-9.229460716247559,2.1291987895965576
1772698595766621000,5.231620849609375,2.520852565765381,-9.223024368286133,2.1797986030578613
1772698595776621000,5.24162109375,2.4874863624572754,-9.221600532531738,2.223712205886841
1772698595786621000,5.251620849609375,2.4407238960266113,-9.226009368896484,2.256991386413574
1772698595796621000,5.26162109375,2.3896355628967285,-9.233757019042969,2.279860496520996
1772698595806621000,5.271620849609375,2.3446221351623535,-9.241703987121582,2.2943477630615234
1772698595816621000,5.28162109375,2.309224843978882,-9.24893569946289,2.3010988235473633
1772698595826621000,5.291620849609375,2.2804601192474365,-9.257064819335938,2.2970967292785645
1772698595836621000,5.30162109375,2.253431797027588,-9.267630577087402,2.281106948852539
1772698595846621000,5.311620849609375,2.224926233291626,-9.281278610229492,2.2534358501434326
1772698595856621000,5.32162109375,2.1928884983062744,-9.298294067382812,2.214350938796997
1772698595866621000,5.331620849609375,2.1568233966827393,-9.318723678588867,2.1633074283599854
1772698595876621000,5.34162109375,2.116615056991577,-9.342172622680664,2.1009881496429443
1772698595886621000,5.351620849609375,2.0730881690979004,-9.367719650268555,2.0294108390808105
1772698595896621000,5.36162109375,2.028104305267334,-9.394183158874512,1.9510263204574585
1772698595906621000,5.371620849609375,1.9836006164550781,-9.420351028442383,1.8688781261444092
1772698595916621000,5.38162109375,1.9415713548660278,-9.445198059082031,1.7857565879821777
1772698595926621000,5.391620849609375,1.9017254114151,-9.468527793884277,1.7031737565994263
1772698595936621000,5.40162109375,1.8618628978729248,-9.490784645080566,1.6213734149932861
1772698595946621000,5.411620849609375,1.8187193870544434,-9.512776374816895,1.5393892526626587
1772698595956621000,5.42162109375,1.7702274322509766,-9.535207748413086,1.454819917678833
1772698595966621000,5.431620849609375,1.716421365737915,-9.557832717895508,1.3682554960250854
1772698595976621000,5.44162109375,1.659559965133667,-9.579669952392578,1.2830356359481812
1772698595986621000,5.451620849609375,1.6052491664886475,-9.599773406982422,1.1991348266601562
1772698595996621000,5.46162109375,1.5585001707077026,-9.617033958435059,1.1198650598526
1772698596006621000,5.471620849609375,1.5227911472320557,-9.630532264709473,1.0508772134780884
1772698596016621000,5.48162109375,1.5011522769927979,-9.63952922821045,0.9981938600540161
1772698596026621000,5.491620849609375,1.4933401346206665,-9.644126892089844,0.9649669528007507
1772698596036621000,5.50162109375,1.499363899230957,-9.64426326751709,0.9541888236999512
1772698596046621000,5.511620849609375,1.5138412714004517,-9.640719413757324,0.9670539498329163
1772698596056621000,5.52162109375,1.5309698581695557,-9.634661674499512,0.9999065399169922
1772698596066621000,5.531620849609375,1.5484384298324585,-9.627457618713379,1.041534662246704
1772698596076621000,5.54162109375,1.5654453039169312,-9.620121002197266,1.0830645561218262
1772698596086621000,5.551620849609375,1.5848506689071655,-9.612558364868164,1.1213243007659912
1772698596096621000,5.56162109375,1.6105860471725464,-9.604284286499023,1.1550480127334595
1772698596106621000,5.571620849609375,1.6435906887054443,-9.59560489654541,1.1804100275039673
1772698596116621000,5.58162109375,1.6806608438491821,-9.587801933288574,1.1915614604949951
1772698596126621000,5.591620849609375,1.7158523797988892,-9.582274436950684,1.1858539581298828
1772698596136621000,5.60162109375,1.7453950643539429,-9.579011917114258,1.1689728498458862
1772698596146621000,5.611620849609375,1.765192985534668,-9.577571868896484,1.1509109735488892
1772698596156621000,5.62162109375,1.777129054069519,-9.574857711791992,1.1551179885864258
1772698596166621000,5.631620849609375,1.7943676710128784,-9.563765525817871,1.2186155319213867
1772698596176621000,5.64162109375,1.8368477821350098,-9.5383939743042,1.3473801612854004
1772698596186621000,5.651620849609375,1.8660168647766113,-9.511030197143555,1.4928781986236572
1772698596206621000,5.671620849609375,1.7932270765304565,-9.486572265625,1.7203713655471802
1772698596216621000,5.68162109375,1.7014542818069458,-9.48631763458252,1.8125182390213013
1772698596226621000,5.691620849609375,1.5984241962432861,-9.490471839904785,1.8831807374954224
1772698596236621000,5.70162109375,1.5249691009521484,-9.492707252502441,1.9321961402893066
1772698596246621000,5.711620849609375,1.5005950927734375,-9.490586280822754,1.961471676826477
1772698596256621000,5.72162109375,1.5298120975494385,-9.482348442077637,1.9786691665649414
1772698596266621000,5.731620849609375,1.5995694398880005,-9.466368675231934,1.9999088048934937
1772698596276621000,5.74162109375,1.686665415763855,-9.447051048278809,2.0195975303649902
1772698596286621000,5.751620849609375,1.7696175575256348,-9.431983947753906,2.0190389156341553
1772698596296621000,5.76162109375,1.8309290409088135,-9.424156188964844,2.0008416175842285
1772698596306621000,5.771620849609375,1.8649388551712036,-9.423871994018555,1.9705452919006348
1772698596316621000,5.78162109375,1.8754202127456665,-9.430061340332031,1.9305758476257324
1772698596326621000,5.791620849609375,1.8676007986068726,-9.441084861755371,1.8837158679962158
1772698596336621000,5.80162109375,1.8404844999313354,-9.456083297729492,1.8345309495925903
1772698596346621000,5.811620849609375,1.797162413597107,-9.474072456359863,1.7839680910110474
1772698596356621000,5.82162109375,1.748314380645752,-9.492401123046875,1.734392523765564
1772698596366621000,5.831620849609375,1.702892541885376,-9.509170532226562,1.6870745420455933
1772698596376621000,5.84162109375,1.6639361381530762,-9.524070739746094,1.6412739753723145
1772698596386621000,5.851620849609375,1.6301449537277222,-9.537579536437988,1.5961164236068726
1772698596396621000,5.86162109375,1.5996570587158203,-9.55016803741455,1.5510578155517578
1772698596406621000,5.871620849609375,1.572688341140747,-9.562139511108398,1.504171371459961
1772698596416621000,5.88162109375,1.5489575862884521,-9.57341480255127,1.4563109874725342
1772698596426621000,5.891620849609375,1.5260608196258545,-9.583836555480957,1.4112433195114136
1772698596436621000,5.90162109375,1.5009247064590454,-9.593451499938965,1.3723338842391968
1772698596446621000,5.911620849609375,1.4705779552459717,-9.602599143981934,1.3408442735671997
1772698596456621000,5.92162109375,1.4342772960662842,-9.611480712890625,1.3163107633590698
1772698596466621000,5.931620849609375,1.3938597440719604,-9.619990348815918,1.2974357604980469
1772698596476621000,5.94162109375,1.3513813018798828,-9.627925872802734,1.283433437347412
1772698596486621000,5.951620849609375,1.3076035976409912,-9.634900093078613,1.2764270305633545
1772698596496621000,5.96162109375,1.2640388011932373,-9.640308380126953,1.2794744968414307
1772698596506621000,5.971620849609375,1.223431944847107,-9.643742561340332,1.2929936647415161
1772698596516621000,5.98162109375,1.1893341541290283,-9.644938468933105,1.315680980682373
1772698596526621000,5.991620849609375,1.1654785871505737,-9.643715858459473,1.3456593751907349
1772698596536621000,6.00162109375,1.1546735763549805,-9.639875411987305,1.3819952011108398
1772698596546621000,6.011620849609375,1.1563730239868164,-9.633453369140625,1.4246931076049805
1772698596556621000,6.02162109375,1.1667486429214478,-9.624809265136719,1.4738097190856934
1772698596566621000,6.031620849609375,1.1804360151290894,-9.615121841430664,1.5252480506896973
1772698596576621000,6.04162109375,1.1939609050750732,-9.60560417175293,1.5739202499389648
1772698596586621000,6.051620849609375,1.2057080268859863,-9.597452163696289,1.6141793727874756
1772698596596621000,6.06162109375,1.2150040864944458,-9.591968536376953,1.6396000385284424
1772698596606621000,6.071620849609375,1.221460223197937,-9.589834213256836,1.6472738981246948
1772698596616621000,6.08162109375,1.2254849672317505,-9.59069538116455,1.6392498016357422
1772698596626621000,6.091620849609375,1.2280611991882324,-9.593988418579102,1.6179145574569702
1772698596636621000,6.10162109375,1.2303961515426636,-9.598906517028809,1.5866690874099731
1772698596646621000,6.111620849609375,1.2334129810333252,-9.604019165039062,1.553029179573059
1772698596656621000,6.12162109375,1.2391364574432373,-9.607497215270996,1.5267380475997925
1772698596666621000,6.131620849609375,1.2502275705337524,-9.60766315460205,1.516615867614746
1772698596676621000,6.14162109375,1.2692174911499023,-9.604120254516602,1.523273229598999
1772698596686621000,6.151620849609375,1.3026437759399414,-9.597121238708496,1.53908371925354
1772698596696621000,6.16162109375,1.3595671653747559,-9.586079597473145,1.5585410594940186
1772698596706621000,6.171620849609375,1.445202350616455,-9.571158409118652,1.5731202363967896
1772698596716621000,6.18162109375,1.5616812705993652,-9.552736282348633,1.5737749338150024
1772698596726621000,6.191620849609375,1.704453706741333,-9.530800819396973,1.5585379600524902
1772698596736621000,6.20162109375,1.8639839887619019,-9.505064010620117,1.5328700542449951
1772698596746621000,6.211620849609375,2.0326504707336426,-9.475225448608398,1.5029436349868774
1772698596756621000,6.22162109375,2.205327033996582,-9.440545082092285,1.4775121212005615
1772698596766621000,6.231620849609375,2.3751277923583984,-9.401287078857422,1.4645631313323975
1772698596776621000,6.24162109375,2.5276079177856445,-9.360795021057129,1.4687092304229736
1772698596786621000,6.251620849609375,2.6478567123413086,-9.325380325317383,1.4820654392242432
1772698596796621000,6.26162109375,2.7299556732177734,-9.30112361907959,1.485535740852356
1772698596806621000,6.271620849609375,2.774869680404663,-9.289680480957031,1.473886489868164
1772698596816621000,6.28162109375,2.7858824729919434,-9.288139343261719,1.462781310081482
1772698596826621000,6.291620849609375,2.7687458992004395,-9.291587829589844,1.4733766317367554
1772698596836621000,6.30162109375,2.7324273586273193,-9.296409606933594,1.5102970600128174
1772698596846621000,6.311620849609375,2.6858701705932617,-9.301012992858887,1.56449556350708
1772698596856621000,6.32162109375,2.6302685737609863,-9.305954933166504,1.6282786130905151
1772698596866621000,6.331620849609375,2.569514513015747,-9.3113431930542,1.6931835412979126
1772698596876621000,6.34162109375,2.5109314918518066,-9.316936492919922,1.7493789196014404
1772698596886621000,6.351620849609375,2.46323823928833,-9.321654319763184,1.7915332317352295
1772698596896621000,6.36162109375,2.432331085205078,-9.32424259185791,1.820074439048767
1772698596906621000,6.371620849609375,2.414327383041382,-9.324614524841309,1.8420058488845825
1772698596916621000,6.38162109375,2.397522211074829,-9.325027465820312,1.8617544174194336
1772698596926621000,6.391620849609375,2.3684194087982178,-9.329272270202637,1.8776699304580688
1772698596936621000,6.40162109375,2.318314790725708,-9.340522766113281,1.8842546939849854
1772698596946621000,6.411620849609375,2.2484073638916016,-9.358627319335938,1.879131555557251
1772698596956621000,6.42162109375,2.166616916656494,-9.381274223327637,1.8622137308120728
1772698596966621000,6.431620849609375,2.083019971847534,-9.405759811401367,1.833874225616455
1772698596976621000,6.44162109375,2.005624294281006,-9.430256843566895,1.793911099433899
1772698596986621000,6.451620849609375,1.936471700668335,-9.453988075256348,1.7442982196807861
1772698596996621000,6.46162109375,1.8726476430892944,-9.477340698242188,1.6862951517105103
1772698597006621000,6.471620849609375,1.811718225479126,-9.500733375549316,1.6199243068695068
1772698597016621000,6.48162109375,1.751257300376892,-9.52432632446289,1.5461905002593994
1772698597026621000,6.491620849609375,1.688978910446167,-9.548266410827637,1.4657251834869385
1772698597036621000,6.50162109375,1.6241766214370728,-9.57247257232666,1.3784809112548828
1772698597046621000,6.511620849609375,1.5576268434524536,-9.596138000488281,1.287756085395813
1772698597056621000,6.52162109375,1.4919878244400024,-9.61837100982666,1.1963646411895752
1772698597066621000,6.531620849609375,1.4330893754959106,-9.637868881225586,1.1082086563110352
1772698597076621000,6.54162109375,1.3790359497070312,-9.65517520904541,1.0228501558303833
1772698597086621000,6.551620849609375,1.3306634426116943,-9.669617652893066,0.9477354884147644
1772698597096621000,6.56162109375,1.2924529314041138,-9.680283546447754,0.8899824619293213
1772698597106621000,6.571620849609375,1.2698057889938354,-9.687040328979492,0.8480618596076965
1772698597116621000,6.58162109375,1.263723611831665,-9.690558433532715,0.8163760900497437
1772698597126621000,6.591620849609375,1.2719218730926514,-9.691611289978027,0.7907388210296631
1772698597136621000,6.60162109375,1.2860908508300781,-9.691450119018555,0.7695185542106628
1772698597146621000,6.611620849609375,1.2960669994354248,-9.691513061523438,0.7517697215080261
1772698597156621000,6.62162109375,1.2962397336959839,-9.692441940307617,0.7393895387649536
1772698597166621000,6.631620849609375,1.2886687517166138,-9.693856239318848,0.7340767979621887
1772698597176621000,6.64162109375,1.2802468538284302,-9.694933891296387,0.7345870137214661
1772698597186621000,6.651620849609375,1.2769817113876343,-9.695085525512695,0.7382534742355347
1772698597196621000,6.66162109375,1.282189130783081,-9.694199562072754,0.7408580780029297
1772698597206621000,6.671620849609375,1.2961299419403076,-9.692543029785156,0.7382642030715942
1772698597216621000,6.68162109375,1.3181283473968506,-9.690311431884766,0.7285535931587219
1772698597226621000,6.691620849609375,1.3473809957504272,-9.687471389770508,0.7126408219337463
1772698597236621000,6.70162109375,1.379824161529541,-9.684137344360352,0.6956661939620972
1772698597246621000,6.711620849609375,1.4086599349975586,-9.6807222366333,0.6853352189064026
1772698597256621000,6.72162109375,1.4363007545471191,-9.675578117370605,0.7004407048225403
1772698597266621000,6.731620849609375,1.4602470397949219,-9.666491508483887,0.7726655006408691
1772698597276621000,6.74162109375,1.4852826595306396,-9.651695251464844,0.8994942903518677
1772698597286621000,6.751620849609375,1.5081223249435425,-9.632176399230957,1.056949257850647
1772698597296621000,6.76162109375,1.5103203058242798,-9.613027572631836,1.2161484956741333
1772698597306621000,6.771620849609375,1.4959067106246948,-9.59526538848877,1.3651164770126343
1772698597316621000,6.78162109375,1.4521830081939697,-9.581267356872559,1.5036253929138184
1772698597326621000,6.791620849609375,1.3773183822631836,-9.57186508178711,1.6287336349487305
1772698597336621000,6.80162109375,1.2946562767028809,-9.564916610717773,1.7339582443237305
1772698597346621000,6.811620849609375,1.235060691833496,-9.557940483093262,1.8140586614608765
1772698597356621000,6.82162109375,1.2203881740570068,-9.549752235412598,1.8663556575775146
1772698597366621000,6.831620849609375,1.2611041069030762,-9.538430213928223,1.8969355821609497
1772698597376621000,6.84162109375,1.3370754718780518,-9.524370193481445,1.9154630899429321
1772698597386621000,6.851620849609375,1.4170691967010498,-9.512121200561523,1.9188154935836792
1772698597396621000,6.86162109375,1.4797762632369995,-9.50749683380127,1.8942395448684692
1772698597406621000,6.871620849609375,1.5143146514892578,-9.512455940246582,1.841309905052185
1772698597416621000,6.88162109375,1.521990180015564,-9.525126457214355,1.7680190801620483
1772698597426621000,6.891620849609375,1.5117534399032593,-9.542133331298828,1.6830573081970215
1772698597436621000,6.90162109375,1.4942598342895508,-9.560455322265625,1.5922566652297974
1772698597446621000,6.911620849609375,1.477275013923645,-9.577374458312988,1.5039743185043335
1772698597456621000,6.92162109375,1.463575005531311,-9.591203689575195,1.427290916442871
1772698597466621000,6.931620849609375,1.45155930519104,-9.602123260498047,1.3647692203521729
1772698597476621000,6.94162109375,1.4356024265289307,-9.61171817779541,1.3131318092346191
1772698597486621000,6.951620849609375,1.4074922800064087,-9.621450424194336,1.2716350555419922
1772698597496621000,6.96162109375,1.3631305694580078,-9.63249397277832,1.235852837562561
1772698597506621000,6.971620849609375,1.3007214069366455,-9.64530086517334,1.2027734518051147
1772698597516621000,6.98162109375,1.220696210861206,-9.659926414489746,1.1688092947006226
1772698597526621000,6.991620849609375,1.1289044618606567,-9.675030708312988,1.1356639862060547
1772698597536621000,7.00162109375,1.034407615661621,-9.689070701599121,1.1055711507797241
1772698597546621000,7.011620849609375,0.945207953453064,-9.701154708862305,1.0791511535644531
1772698597556621000,7.02162109375,0.8649097681045532,-9.711134910583496,1.05648934841156
1772698597566621000,7.031620849609375,0.7917301058769226,-9.71944522857666,1.0372766256332397
1772698597576621000,7.04162109375,0.7208544015884399,-9.726730346679688,1.0205271244049072
1772698597586621000,7.051620849609375,0.6470549702644348,-9.733558654785156,1.0047615766525269
1772698597596621000,7.06162109375,0.5683227181434631,-9.73987865447998,0.9910406470298767
1772698597606621000,7.071620849609375,0.4844193160533905,-9.745424270629883,0.9810357689857483
1772698597616621000,7.08162109375,0.39687380194664,-9.749857902526855,0.9762908220291138
1772698597626621000,7.091620849609375,0.30825695395469666,-9.753052711486816,0.9763892889022827
1772698597636621000,7.10162109375,0.22268451750278473,-9.755005836486816,0.9801353216171265
1772698597646621000,7.111620849609375,0.14455240964889526,-9.755717277526855,0.9876551628112793
1772698597656621000,7.12162109375,0.0766705870628357,-9.755353927612305,0.9987881183624268
1772698597666621000,7.131620849609375,0.01915385015308857,-9.754146575927734,1.0132263898849487
1772698597676621000,7.14162109375,-0.0305058304220438,-9.752147674560547,1.0320188999176025
1772698597686621000,7.151620849609375,-0.07535023242235184,-9.749871253967285,1.0510529279708862
1772698597696621000,7.16162109375,-0.11790549755096436,-9.74801254272461,1.0643028020858765
1772698597706621000,7.171620849609375,-0.15974508225917816,-9.746713638305664,1.0707144737243652
1772698597716621000,7.18162109375,-0.2024531215429306,-9.745707511901855,1.0726484060287476
1772698597726621000,7.191620849609375,-0.24671447277069092,-9.74459171295166,1.0735228061676025
1772698597736621000,7.20162109375,-0.29212087392807007,-9.743193626403809,1.074815034866333
1772698597746621000,7.211620849609375,-0.3375588357448578,-9.741412162780762,1.0776512622833252
1772698597756621000,7.22162109375,-0.3819389343261719,-9.739167213439941,1.0831079483032227
1772698597766621000,7.231620849609375,-0.42614492774009705,-9.736299514770508,1.0923638343811035
1772698597776621000,7.24162109375,-0.4705495834350586,-9.732687950134277,1.1062395572662354
1772698597786621000,7.251620849609375,-0.5145565271377563,-9.728384017944336,1.1243512630462646
1772698597796621000,7.26162109375,-0.553819477558136,-9.723594665527344,1.1468982696533203
1772698597806621000,7.271620849609375,-0.5831661820411682,-9.718470573425293,1.1754318475723267
1772698597816621000,7.28162109375,-0.5993483066558838,-9.713733673095703,1.2060456275939941
1772698597826621000,7.291620849609375,-0.6007161140441895,-9.710426330566406,1.2317230701446533
1772698597836621000,7.30162109375,-0.5865777134895325,-9.7091646194458,1.2483700513839722
1772698597846621000,7.311620849609375,-0.5600159168243408,-9.709952354431152,1.2544294595718384
1772698597856621000,7.32162109375,-0.5291077494621277,-9.712201118469238,1.2504361867904663
1772698597866621000,7.331620849609375,-0.5045236945152283,-9.715046882629395,1.2384377717971802
1772698597876621000,7.34162109375,-0.4964542090892792,-9.717452049255371,1.222718596458435
1772698597886621000,7.351620849609375,-0.5155372619628906,-9.717933654785156,1.2109434604644775
1772698597896621000,7.36162109375,-0.5783066749572754,-9.714984893798828,1.206243634223938
1772698597906621000,7.371620849609375,-0.6936582922935486,-9.70915412902832,1.1922954320907593
1772698597916621000,7.38162109375,-0.8230535984039307,-9.705403327941895,1.1393489837646484
1772698597926621000,7.391620849609375,-0.8791725039482117,-9.713058471679688,1.0266129970550537
1772698597936621000,7.40162109375,-0.8264776468276978,-9.734020233154297,0.8580054044723511
1772698597946621000,7.411620849609375,-0.6725423336029053,-9.761686325073242,0.6538822650909424
1772698597956621000,7.42162109375,-0.451192706823349,-9.786198616027832,0.4439930319786072
1772698597966621000,7.431620849609375,-0.20065629482269287,-9.801166534423828,0.2593299150466919
1772698597976621000,7.44162109375,0.048422448337078094,-9.805699348449707,0.127695694565773
1772698597986621000,7.451620849609375,0.2801007926464081,-9.802437782287598,0.0644005686044693
1772698597996621000,7.46162109375,0.4858192801475525,-9.794371604919434,0.06829357147216797
1772698598006621000,7.471620849609375,0.6580533385276794,-9.783729553222656,0.12644682824611664
1772698598016621000,7.48162109375,0.7990156412124634,-9.771641731262207,0.216758131980896
1772698598026621000,7.491620849609375,0.9165636301040649,-9.758313179016113,0.32502779364585876
1772698598036621000,7.50162109375,1.0204284191131592,-9.743188858032227,0.446536123752594
1772698598046621000,7.511620849609375,1.1158114671707153,-9.725858688354492,0.5770882964134216
1772698598056621000,7.52162109375,1.2050714492797852,-9.706149101257324,0.7133356928825378
1772698598066621000,7.531620849609375,1.2866325378417969,-9.68475341796875,0.848825991153717
1772698598076621000,7.54162109375,1.3559826612472534,-9.663296699523926,0.9759091138839722
1772698598086621000,7.551620849609375,1.4087952375411987,-9.6433687210083,1.0913898944854736
1772698598096621000,7.56162109375,1.4458427429199219,-9.625472068786621,1.1959148645401
1772698598106621000,7.571620849609375,1.471455693244934,-9.609786033630371,1.2873350381851196
1772698598116621000,7.58162109375,1.484680414199829,-9.596989631652832,1.365248203277588
1772698598126621000,7.591620849609375,1.4906178712844849,-9.586010932922363,1.434171438217163
1772698598136621000,7.60162109375,1.4940097332000732,-9.57597827911377,1.4963140487670898
1772698598146621000,7.611620849609375,1.498037338256836,-9.56590461730957,1.5555522441864014
1772698598156621000,7.62162109375,1.504967212677002,-9.55578899383545,1.6100789308547974
1772698598166621000,7.631620849609375,1.515248417854309,-9.54623794555664,1.6564254760742188
1772698598176621000,7.64162109375,1.528486728668213,-9.537801742553711,1.6924703121185303
1772698598186621000,7.651620849609375,1.5428026914596558,-9.531041145324707,1.7173821926116943
1772698598196621000,7.66162109375,1.556820273399353,-9.52637004852295,1.7305935621261597
1772698598206621000,7.671620849609375,1.5696626901626587,-9.523903846740723,1.7325674295425415
1772698598216621000,7.68162109375,1.5799404382705688,-9.523724555969238,1.724198818206787
1772698598226621000,7.691620849609375,1.585878849029541,-9.525716781616211,1.7076568603515625
1772698598236621000,7.70162109375,1.5861681699752808,-9.52984619140625,1.6841890811920166
1772698598246621000,7.711620849609375,1.5819257497787476,-9.535621643066406,1.6552389860153198
1772698598256621000,7.72162109375,1.5754932165145874,-9.54237174987793,1.62214195728302
1772698598266621000,7.731620849609375,1.5695046186447144,-9.549654960632324,1.584654450416565
1772698598276621000,7.74162109375,1.5653469562530518,-9.557266235351562,1.5423166751861572
1772698598286621000,7.751620849609375,1.562000036239624,-9.565265655517578,1.495405673980713
1772698598296621000,7.76162109375,1.5577781200408936,-9.573709487915039,1.4449214935302734
1772698598306621000,7.771620849609375,1.5507913827896118,-9.582551002502441,1.3928955793380737
1772698598316621000,7.78162109375,1.5404475927352905,-9.591437339782715,1.342291235923767
1772698598326621000,7.791620849609375,1.5278111696243286,-9.59965705871582,1.2972098588943481
1772698598336621000,7.80162109375,1.5180538892745972,-9.606050491333008,1.2608280181884766
1772698598346621000,7.811620849609375,1.5154476165771484,-9.609749794006348,1.2355247735977173
1772698598356621000,7.82162109375,1.522439956665039,-9.610291481018066,1.2226394414901733
1772698598366621000,7.831620849609375,1.5423146486282349,-9.607340812683105,1.2209254503250122
1772698598376621000,7.84162109375,1.5767422914505005,-9.600957870483398,1.2271406650543213
1772698598386621000,7.851620849609375,1.624611258506775,-9.591218948364258,1.2407892942428589
1772698598396621000,7.86162109375,1.681714653968811,-9.57852840423584,1.2625447511672974
1772698598406621000,7.871620849609375,1.7398535013198853,-9.563760757446289,1.2952957153320312
1772698598416621000,7.88162109375,1.7899019718170166,-9.548280715942383,1.3405156135559082
1772698598426621000,7.891620849609375,1.8251146078109741,-9.533536911010742,1.3967925310134888
1772698598436621000,7.90162109375,1.8411847352981567,-9.521673202514648,1.4553946256637573
1772698598446621000,7.911620849609375,1.830396294593811,-9.516424179077148,1.5025651454925537
1772698598456621000,7.92162109375,1.7915089130401611,-9.520120620727539,1.5258337259292603
1772698598466621000,7.931620849609375,1.733041763305664,-9.5320463180542,1.5189024209976196
1772698598476621000,7.94162109375,1.6683056354522705,-9.548229217529297,1.4894542694091797
1772698598486621000,7.951620849609375,1.611059308052063,-9.561407089233398,1.467773675918579
1772698598496621000,7.96162109375,1.5554002523422241,-9.569486618041992,1.475138783454895
1772698598506621000,7.971620849609375,1.4952503442764282,-9.571345329284668,1.524458646774292
1772698598516621000,7.98162109375,1.4553873538970947,-9.56106185913086,1.6242973804473877
1772698598526621000,7.991620849609375,1.4462440013885498,-9.535346031188965,1.776496171951294
1772698598536621000,8.00162109375,1.4421902894973755,-9.497832298278809,1.9701902866363525
1772698598546621000,8.011620849609375,1.4241031408309937,-9.455059051513672,2.178114891052246
1772698598556621000,8.02162109375,1.3810571432113647,-9.415173530578613,2.3701412677764893
1772698598566621000,8.031620849609375,1.306077480316162,-9.386926651000977,2.519951820373535
1772698598576621000,8.04162109375,1.2027530670166016,-9.37492561340332,2.614295482635498
1772698598586621000,8.051620849609375,1.0815151929855347,-9.378981590270996,2.6524322032928467
1772698598596621000,8.06162109375,0.9606810212135315,-9.395169258117676,2.64163875579834
1772698598606621000,8.071620849609374,0.870695173740387,-9.416711807250977,2.59572696685791
1772698598616621000,8.08162109375,0.8249238729476929,-9.438663482666016,2.5301198959350586
1772698598626621000,8.091620849609376,0.8088420033454895,-9.459301948547363,2.457188606262207
1772698598636621000,8.10162109375,0.7997411489486694,-9.481045722961426,2.3749847412109375
1772698598646621000,8.111620849609375,0.7844892740249634,-9.503499031066895,2.288770914077759
1772698598656621000,8.12162109375,0.7612605094909668,-9.523677825927734,2.2114341259002686
1772698598666621000,8.131620849609375,0.7348669171333313,-9.540611267089844,2.1464126110076904
1772698598676621000,8.14162109375,0.7068565487861633,-9.55456256866455,2.093099594116211
1772698598686621000,8.151620849609374,0.678092896938324,-9.563718795776367,2.0605459213256836
1772698598696621000,8.16162109375,0.6508989334106445,-9.56714916229248,2.053382635116577
1772698598706621000,8.171620849609376,0.6277791261672974,-9.56666088104248,2.0628318786621094
1772698598716621000,8.18162109375,0.6103979349136353,-9.565811157226562,2.0719716548919678
1772698598726621000,8.191620849609375,0.599807620048523,-9.56733226776123,2.06803297996521
1772698598736621000,8.20162109375,0.5935003161430359,-9.57194709777832,2.0484094619750977
1772698598746621000,8.211620849609375,0.5884957909584045,-9.579011917114258,2.016577959060669
1772698598756621000,8.22162109375,0.5852937698364258,-9.58767032623291,1.9759520292282104
1772698598766621000,8.231620849609374,0.5856793522834778,-9.596705436706543,1.9314780235290527
1772698598776621000,8.24162109375,0.5895322561264038,-9.605055809020996,1.888316035270691
1772698598786621000,8.251620849609376,0.5949816703796387,-9.612251281738281,1.849597454071045
1772698598796621000,8.26162109375,0.6002734303474426,-9.618102073669434,1.8171820640563965
1772698598806621000,8.271620849609375,0.6047830581665039,-9.6225004196167,1.7922292947769165
1772698598816621000,8.28162109375,0.6080291867256165,-9.625333786010742,1.7758442163467407
1772698598826621000,8.291620849609375,0.6093860268592834,-9.626818656921387,1.7673146724700928
1772698598836621000,8.30162109375,0.6070687174797058,-9.627704620361328,1.7632824182510376
1772698598846621000,8.311620849609374,0.5997725129127502,-9.62879753112793,1.7598044872283936
1772698598856621000,8.32162109375,0.5874342918395996,-9.6301851272583,1.7563726902008057
1772698598866621000,8.331620849609376,0.5727465152740479,-9.631731986999512,1.7527438402175903
1772698598876621000,8.34162109375,0.5595245361328125,-9.633251190185547,1.7486560344696045
1772698598886621000,8.351620849609375,0.5508472919464111,-9.634568214416504,1.7441494464874268
1772698598896621000,8.36162109375,0.5473974347114563,-9.635552406311035,1.7397902011871338
1772698598906621000,8.371620849609375,0.548213005065918,-9.636164665222168,1.7361376285552979
1772698598916621000,8.38162109375,0.5531194806098938,-9.636351585388184,1.7335412502288818
1772698598926621000,8.391620849609374,0.5638879537582397,-9.636056900024414,1.7317109107971191
1772698598936621000,8.40162109375,0.5816462635993958,-9.635330200195312,1.7298814058303833
1772698598946621000,8.411620849609376,0.6065394878387451,-9.63433837890625,1.7268506288528442
1772698598956621000,8.42162109375,0.6383213996887207,-9.63306999206543,1.7224640846252441
1772698598966621000,8.431620849609375,0.6759359240531921,-9.631224632263184,1.7184345722198486
1772698598976621000,8.44162109375,0.7178463339805603,-9.628337860107422,1.7176133394241333
1772698598986621000,8.451620849609375,0.761377215385437,-9.624078750610352,1.7227274179458618
1772698598996621000,8.46162109375,0.8039247989654541,-9.6182279586792,1.7360284328460693
1772698599006621000,8.471620849609375,0.844165027141571,-9.610817909240723,1.757820963859558
1772698599016621000,8.48162109375,0.8801197409629822,-9.602112770080566,1.7875173091888428
1772698599026621000,8.491620849609374,0.9074653387069702,-9.592728614807129,1.8238569498062134
1772698599036621000,8.50162109375,0.9215109944343567,-9.58330249786377,1.865884780883789
1772698599046621000,8.511620849609375,0.9193653464317322,-9.574493408203125,1.9116058349609375
1772698599056621000,8.52162109375,0.9015595316886902,-9.566784858703613,1.9581079483032227
1772698599066621000,8.531620849609375,0.8727192282676697,-9.56047534942627,2.0015153884887695
1772698599076621000,8.54162109375,0.8392581939697266,-9.555665016174316,2.038454055786133
1772698599086621000,8.551620849609375,0.8075194358825684,-9.552013397216797,2.0681707859039307
1772698599096621000,8.56162109375,0.7813811302185059,-9.548379898071289,2.0948240756988525
1772698599106621000,8.571620849609374,0.7637195587158203,-9.543004989624023,2.1255993843078613
1772698599116621000,8.58162109375,0.7542628645896912,-9.5350341796875,2.1643881797790527
1772698599126621000,8.591620849609376,0.7484915852546692,-9.524910926818848,2.2104756832122803
1772698599136621000,8.60162109375,0.7410767674446106,-9.514683723449707,2.256539821624756
1772698599146621000,8.611620849609375,0.7305555939674377,-9.50613021850586,2.295686960220337
1772698599156621000,8.62162109375,0.7181325554847717,-9.499612808227539,2.326376438140869
1772698599166621000,8.631620849609375,0.7055996656417847,-9.494951248168945,2.3491311073303223
1772698599176621000,8.64162109375,0.6967080235481262,-9.491751670837402,2.364663600921631
1772698599186621000,8.651620849609374,0.6942835450172424,-9.489855766296387,2.372973680496216
1772698599196621000,8.66162109375,0.7008888721466064,-9.487804412841797,2.3792266845703125
1772698599206621000,8.671620849609376,0.717579185962677,-9.484115600585938,2.3889317512512207
1772698599216621000,8.68162109375,0.7446432113647461,-9.478726387023926,2.4020097255706787
1772698599226621000,8.691620849609375,0.7834240198135376,-9.472274780273438,2.415086507797241
1772698599236621000,8.70162109375,0.8361977338790894,-9.465715408325195,2.423095464706421
1772698599246621000,8.711620849609375,0.9036672711372375,-9.459928512573242,2.4214723110198975
1772698599256621000,8.72162109375,0.9841042757034302,-9.455224990844727,2.4084532260894775
1772698599266621000,8.731620849609374,1.076486349105835,-9.45198917388916,2.3814806938171387
1772698599276621000,8.74162109375,1.1832960844039917,-9.450665473937988,2.3356242179870605
1772698599286621000,8.751620849609376,1.3061219453811646,-9.449649810791016,2.2734463214874268
1772698599296621000,8.76162109375,1.4404821395874023,-9.44737720489502,2.2005629539489746
1772698599306621000,8.771620849609375,1.5824942588806152,-9.442671775817871,2.1218020915985107
1772698599316621000,8.78162109375,1.7310549020767212,-9.433990478515625,2.0429537296295166
1772698599326621000,8.791620849609375,1.884021282196045,-9.41991138458252,1.9713207483291626
1772698599336621000,8.80162109375,2.0346291065216064,-9.401209831237793,1.9099538326263428
1772698599346621000,8.811620849609374,2.172926902770996,-9.380616188049316,1.858176827430725
1772698599356621000,8.82162109375,2.285776138305664,-9.361421585083008,1.819182276725769
1772698599366621000,8.831620849609376,2.3647701740264893,-9.345279693603516,1.801110029220581
1772698599376621000,8.84162109375,2.4098730087280273,-9.331576347351074,1.8123410940170288
1772698599386621000,8.851620849609375,2.4280028343200684,-9.319960594177246,1.847567081451416
1772698599396621000,8.86162109375,2.4275567531585693,-9.31131362915039,1.891243577003479
1772698599406621000,8.871620849609375,2.4184956550598145,-9.304079055786133,1.937882661819458
1772698599416621000,8.88162109375,2.409939765930176,-9.296961784362793,1.9821922779083252
1772698599426621000,8.891620849609374,2.3996217250823975,-9.29253101348877,2.0152082443237305
1772698599436621000,8.90162109375,2.3849289417266846,-9.292658805847168,2.0319900512695312
1772698599446621000,8.911620849609376,2.364516258239746,-9.297080039978027,2.035623788833618
1772698599456621000,8.92162109375,2.337782382965088,-9.303783416748047,2.0358726978302
1772698599466621000,8.931620849609375,2.303102731704712,-9.312337875366211,2.036292791366577
1772698599476621000,8.94162109375,2.259557008743286,-9.322687149047852,2.0377180576324463
1772698599486621000,8.951620849609375,2.207887649536133,-9.334247589111328,2.0414280891418457
1772698599496621000,8.96162109375,2.151425361633301,-9.346053123474121,2.047692060470581
1772698599506621000,8.971620849609375,2.094273090362549,-9.357343673706055,2.055366039276123
1772698599516621000,8.98162109375,2.0391714572906494,-9.367952346801758,2.062436580657959
1772698599526621000,8.991620849609374,1.9871681928634644,-9.378405570983887,2.0656914710998535
1772698599536621000,9.00162109375,1.9388022422790527,-9.389381408691406,2.0617852210998535
1772698599546621000,9.011620849609375,1.893880844116211,-9.401555061340332,2.048015594482422
1772698599556621000,9.02162109375,1.8527109622955322,-9.41524600982666,2.0226175785064697
1772698599566621000,9.031620849609375,1.8161293268203735,-9.430359840393066,1.9850412607192993
1772698599576621000,9.04162109375,1.785360336303711,-9.446533203125,1.9354321956634521
1772698599586621000,9.051620849609375,1.7611562013626099,-9.463045120239258,1.8760313987731934
1772698599596621000,9.06162109375,1.7435799837112427,-9.479109764099121,1.8101933002471924
1772698599606621000,9.071620849609374,1.7317588329315186,-9.494393348693848,1.7400860786437988
1772698599616621000,9.08162109375,1.7246403694152832,-9.508705139160156,1.6674857139587402
1772698599626621000,9.091620849609376,1.721391201019287,-9.521939277648926,1.5936979055404663
1772698599636621000,9.10162109375,1.720357894897461,-9.534351348876953,1.5188484191894531
1772698599646621000,9.111620849609375,1.7205755710601807,-9.54623794555664,1.4419896602630615
1772698599656621000,9.12162109375,1.720866084098816,-9.55777645111084,1.3630547523498535
1772698599666621000,9.131620849609375,1.7193505764007568,-9.569319725036621,1.2815406322479248
1772698599676621000,9.14162109375,1.7145124673843384,-9.581167221069336,1.1966933012008667
1772698599686621000,9.151620849609374,1.7044899463653564,-9.593423843383789,1.1096478700637817
1772698599696621000,9.16162109375,1.6870713233947754,-9.606287956237793,1.02147376537323
1772698599706621000,9.171620849609376,1.6613000631332397,-9.619861602783203,0.9320656061172485
1772698599716621000,9.18162109375,1.6289018392562866,-9.633885383605957,0.8398212790489197
1772698599726621000,9.191620849609375,1.5925822257995605,-9.647896766662598,0.7430750131607056
1772698599736621000,9.20162109375,1.5555062294006348,-9.661150932312012,0.6426053643226624
1772698599746621000,9.211620849609375,1.5231117010116577,-9.672329902648926,0.5445637702941895
1772698599756621000,9.22162109375,1.501402735710144,-9.680188179016113,0.4584021270275116
1772698599766621000,9.231620849609374,1.4946496486663818,-9.683968544006348,0.39641931653022766
1772698599776621000,9.24162109375,1.5029196739196777,-9.683794021606445,0.3684426248073578
1772698599786621000,9.251620849609376,1.5223753452301025,-9.680484771728516,0.37547099590301514
1772698599796621000,9.26162109375,1.5493232011795044,-9.674515724182129,0.4168146848678589
1772698599806621000,9.271620849609375,1.5805188417434692,-9.666128158569336,0.48818105459213257
1772698599816621000,9.28162109375,1.612200140953064,-9.65588665008545,0.5788323283195496
1772698599826621000,9.291620849609375,1.6400783061981201,-9.645094871520996,0.672804057598114
1772698599836621000,9.30162109375,1.6618732213974,-9.635380744934082,0.7536555528640747
1772698599846621000,9.311620849609374,1.6783514022827148,-9.62773323059082,0.8125699162483215
1772698599856621000,9.32162109375,1.6963024139404297,-9.621273040771484,0.8509088754653931
1772698599866621000,9.331620849609376,1.7225253582000732,-9.614428520202637,0.875243067741394
1772698599876621000,9.34162109375,1.7596511840820312,-9.60603141784668,0.8934165835380554
1772698599886621000,9.351620849609375,1.8209296464920044,-9.591863632202148,0.9223594665527344
1772698599896621000,9.36162109375,1.9274049997329712,-9.5639009475708,0.9936267733573914
1772698599906621000,9.371620849609375,2.0530807971954346,-9.524447441101074,1.1136229038238525
1772698599916621000,9.38162109375,2.1098084449768066,-9.495850563049316,1.2441562414169312
1772698599926621000,9.391620849609374,2.0803372859954834,-9.482559204101562,1.3869575262069702
1772698599936621000,9.40162109375,1.9840043783187866,-9.4756498336792,1.5640279054641724
1772698599946621000,9.411620849609376,1.8481088876724243,-9.469653129577637,1.7551501989364624
1772698599956621000,9.42162109375,1.7130941152572632,-9.461907386779785,1.9256181716918945
1772698599966621000,9.431620849609375,1.626580834388733,-9.447912216186523,2.0643579959869385
1772698599976621000,9.44162109375,1.6093051433563232,-9.424946784973145,2.1796581745147705
1772698599986621000,9.451620849609375,1.6522083282470703,-9.397087097167969,2.2661330699920654
1772698599996621000,9.46162109375,1.743361473083496,-9.372264862060547,2.3003792762756348
1772698600006621000,9.471620849609375,1.8588169813156128,-9.355391502380371,2.278563976287842
1772698600016621000,9.48162109375,1.9734115600585938,-9.344817161560059,2.2249529361724854
1772698600026621000,9.491620849609374,2.0625905990600586,-9.341479301452637,2.1570496559143066
1772698600036621000,9.50162109375,2.1087262630462646,-9.348686218261719,2.07983660697937
1772698600046621000,9.511620849609375,2.106147527694702,-9.366647720336914,2.0001070499420166
1772698600056621000,9.52162109375,2.0644102096557617,-9.389694213867188,1.9344905614852905
1772698600066621000,9.531620849609375,1.9927923679351807,-9.413908004760742,1.8914291858673096
1772698600076621000,9.54162109375,1.9027434587478638,-9.439005851745605,1.8587989807128906
1772698600086621000,9.551620849609375,1.8103774785995483,-9.46005916595459,1.8439596891403198
1772698600096621000,9.56162109375,1.726920485496521,-9.474231719970703,1.8512365818023682
1772698600106621000,9.571620849609374,1.658438801765442,-9.483009338378906,1.8688257932662964
1772698600116621000,9.58162109375,1.6039835214614868,-9.489808082580566,1.881797194480896
1772698600126621000,9.591620849609376,1.5584146976470947,-9.498238563537598,1.8775486946105957
1772698600136621000,9.60162109375,1.516968011856079,-9.509601593017578,1.8538241386413574
1772698600146621000,9.611620849609375,1.477394700050354,-9.52208137512207,1.8214426040649414
1772698600156621000,9.62162109375,1.442291259765625,-9.533203125,1.7911468744277954
1772698600166621000,9.631620849609375,1.4135162830352783,-9.542293548583984,1.7655047178268433
1772698600176621000,9.64162109375,1.3877969980239868,-9.550119400024414,1.7434546947479248
1772698600186621000,9.651620849609374,1.3621718883514404,-9.557391166687012,1.7237015962600708
1772698600196621000,9.66162109375,1.3361637592315674,-9.564112663269043,1.706692099571228
1772698600206621000,9.671620849609376,1.3083094358444214,-9.569862365722656,1.6960136890411377
1772698600216621000,9.68162109375,1.2763428688049316,-9.574256896972656,1.6955640316009521
1772698600226621000,9.691620849609375,1.2389278411865234,-9.577022552490234,1.7076603174209595
1772698600236621000,9.70162109375,1.1945405006408691,-9.578863143920898,1.7288249731063843
1772698600246621000,9.711620849609375,1.1445509195327759,-9.580472946166992,1.7535502910614014
1772698600256621000,9.72162109375,1.0935496091842651,-9.581645965576172,1.779488205909729
1772698600266621000,9.731620849609374,1.0476248264312744,-9.581929206848145,1.8054112195968628
1772698600276621000,9.74162109375,1.0125386714935303,-9.580799102783203,1.83123779296875
1772698600286621000,9.751620849609376,0.9920446872711182,-9.577821731567383,1.8578362464904785
1772698600296621000,9.76162109375,0.9864922761917114,-9.573001861572266,1.8854314088821411
1772698600306621000,9.771620849609375,0.9912882447242737,-9.56651782989502,1.9155845642089844
1772698600316621000,9.78162109375,0.9999915957450867,-9.558940887451172,1.948603630065918
1772698600326621000,9.791620849609375,1.006265640258789,-9.550858497619629,1.9846737384796143
1772698600336621000,9.80162109375,1.0041167736053467,-9.542925834655762,2.023535966873169
1772698600346621000,9.811620849609374,0.9899418354034424,-9.536215782165527,2.061795234680176
1772698600356621000,9.82162109375,0.9633872509002686,-9.531631469726562,2.095301389694214
1772698600366621000,9.831620849609376,0.9283014535903931,-9.529555320739746,2.1204278469085693
1772698600376621000,9.84162109375,0.8905574083328247,-9.529704093933105,2.135892629623413
1772698600386621000,9.851620849609375,0.8531761765480042,-9.531757354736328,2.1419785022735596
1772698600396621000,9.86162109375,0.8186343908309937,-9.535107612609863,2.140547275543213
1772698600406621000,9.871620849609375,0.791042149066925,-9.53847599029541,2.1359143257141113
1772698600416621000,9.88162109375,0.7748426795005798,-9.540953636169434,2.1307735443115234
1772698600426621000,9.891620849609374,0.7724987864494324,-9.542133331298828,2.126342535018921
1772698600436621000,9.90162109375,0.7833803296089172,-9.541831016540527,2.123713493347168
1772698600446621000,9.911620849609376,0.8043946027755737,-9.540609359741211,2.1213457584381104
1772698600456621000,9.92162109375,0.8298744559288025,-9.539162635803223,2.1180336475372314
1772698600466621000,9.931620849609375,0.8545130491256714,-9.537909507751465,2.113878011703491
1772698600476621000,9.94162109375,0.8756145238876343,-9.53701114654541,2.1092889308929443
1772698600486621000,9.951620849609375,0.8934202790260315,-9.536293029785156,2.1050639152526855
1772698600496621000,9.96162109375,0.9096102118492126,-9.535367965698242,2.102323055267334
1772698600506621000,9.971620849609375,0.930681049823761,-9.53333568572998,2.102318048477173
1772698600516621000,9.98162109375,0.9657213091850281,-9.52950382232666,2.103879451751709
1772698600526621000,9.991620849609374,1.0262939929962158,-9.523340225219727,2.1031150817871094
1772698600536621000,10.00162109375,1.1193256378173828,-9.514918327331543,2.0937583446502686
1772698600546621000,10.011620849609375,1.2465500831604004,-9.503829956054688,2.0721275806427
1772698600556621000,10.02162109375,1.4048432111740112,-9.49008560180664,2.033491611480713
1772698600566621000,10.031620849609375,1.5832654237747192,-9.474064826965332,1.9762989282608032
1772698600576621000,10.04162109375,1.767494559288025,-9.455209732055664,1.90928316116333
1772698600586621000,10.051620849609375,1.9499731063842773,-9.43156909942627,1.8475606441497803
1772698600596621000,10.06162109375,2.1300642490386963,-9.400988578796387,1.8040614128112793
1772698600606621000,10.071620849609374,2.3079731464385986,-9.363327980041504,1.7809356451034546
1772698600616621000,10.08162109375,2.4755148887634277,-9.319971084594727,1.7833548784255981
1772698600626621000,10.091620849609376,2.6174042224884033,-9.275691986083984,1.8113881349563599
1772698600636621000,10.10162109375,2.712407112121582,-9.239641189575195,1.855334758758545
1772698600646621000,10.111620849609375,2.745988130569458,-9.220149040222168,1.9023122787475586
1772698600656621000,10.12162109375,2.719071626663208,-9.216615676879883,1.95730721950531
1772698600666621000,10.131620849609375,2.6450207233428955,-9.224388122558594,2.021113395690918
1772698600676621000,10.14162109375,2.5462656021118164,-9.237748146057129,2.085890769958496
1772698600686621000,10.151620849609374,2.45198655128479,-9.24942398071289,2.146230459213257
1772698600696621000,10.16162109375,2.38775897026062,-9.254154205322266,2.1976425647735596
1772698600706621000,10.171620849609376,2.3628933429718018,-9.251494407653809,2.2353920936584473
1772698600716621000,10.18162109375,2.370590925216675,-9.243429183959961,2.2604641914367676
1772698600726621000,10.191620849609375,2.3950159549713135,-9.232646942138672,2.2787082195281982
1772698600736621000,10.20162109375,2.419147253036499,-9.223089218139648,2.291883945465088
1772698600746621000,10.211620849609375,2.4300105571746826,-9.217707633972168,2.3020179271698
1772698600756621000,10.22162109375,2.4192004203796387,-9.218488693237305,2.3102662563323975
1772698600766621000,10.231620849609374,2.384761333465576,-9.22558879852295,2.3177151679992676
1772698600776621000,10.24162109375,2.3309483528137207,-9.237713813781738,2.3241569995880127
1772698600786621000,10.251620849609376,2.2653591632843018,-9.253181457519531,2.3274848461151123
1772698600796621000,10.26162109375,2.1958112716674805,-9.270931243896484,2.3234949111938477
1772698600806621000,10.271620849609375,2.126368522644043,-9.290353775024414,2.3104708194732666
1772698600816621000,10.28162109375,2.060053586959839,-9.311147689819336,2.28672456741333
1772698600826621000,10.291620849609375,1.9987220764160156,-9.333064079284668,2.2515368461608887
1772698600836621000,10.30162109375,1.9436031579971313,-9.35587215423584,2.2046449184417725
1772698600846621000,10.311620849609374,1.896472454071045,-9.379080772399902,2.146306037902832
1772698600856621000,10.32162109375,1.8574087619781494,-9.4022855758667,2.0778450965881348
1772698600866621000,10.331620849609376,1.8252679109573364,-9.424872398376465,2.0026421546936035
1772698600876621000,10.34162109375,1.7971552610397339,-9.446442604064941,1.9249294996261597
1772698600886621000,10.351620849609375,1.7703742980957031,-9.467048645019531,1.8469315767288208
1772698600896621000,10.36162109375,1.743141531944275,-9.487010955810547,1.7687478065490723
1772698600906621000,10.371620849609375,1.7120065689086914,-9.507283210754395,1.688486099243164
1772698600916621000,10.38162109375,1.6750340461730957,-9.52793025970459,1.607234239578247
1772698600926621000,10.391620849609374,1.6342369318008423,-9.54826831817627,1.526510238647461
1772698600936621000,10.40162109375,1.592423677444458,-9.567660331726074,1.44722318649292
1772698600946621000,10.411620849609376,1.5537883043289185,-9.58535099029541,1.370100736618042
1772698600956621000,10.42162109375,1.5225987434387207,-9.600330352783203,1.2983614206314087
1772698600966621000,10.431620849609375,1.5015205144882202,-9.611804008483887,1.2365394830703735
1772698600976621000,10.44162109375,1.4919415712356567,-9.619309425354004,1.1888518333435059
1772698600986621000,10.451620849609375,1.493700623512268,-9.622466087341309,1.1607742309570312
1772698600996621000,10.46162109375,1.5066325664520264,-9.620757102966309,1.1582239866256714
1772698601006621000,10.471620849609375,1.5281764268875122,-9.61451530456543,1.1815969944000244
1772698601016621000,10.48162109375,1.5507794618606567,-9.605057716369629,1.22813880443573
1772698601026621000,10.491620849609374,1.5700511932373047,-9.59349536895752,1.2923489809036255
1772698601036621000,10.50162109375,1.5876206159591675,-9.58020305633545,1.367318868637085
1772698601046621000,10.511620849609375,1.605446457862854,-9.566576957702637,1.4399759769439697
1772698601056621000,10.52162109375,1.6251866817474365,-9.554512023925781,1.4968146085739136
1772698601066621000,10.531620849609375,1.6459410190582275,-9.545430183410645,1.531675100326538
1772698601076621000,10.54162109375,1.6650341749191284,-9.539907455444336,1.545383334159851
1772698601086621000,10.551620849609375,1.6829506158828735,-9.537416458129883,1.5413457155227661
1772698601096621000,10.56162109375,1.701830506324768,-9.537092208862305,1.5225111246109009
1772698601106621000,10.571620849609374,1.7174121141433716,-9.538910865783691,1.4933445453643799
1772698601116621000,10.58162109375,1.7216081619262695,-9.542317390441895,1.4665037393569946
1772698601126621000,10.591620849609376,1.7264573574066162,-9.540521621704102,1.4724746942520142
1772698601136621000,10.60162109375,1.7698193788528442,-9.521964073181152,1.5395859479904175
1772698601146621000,10.611620849609375,1.8348394632339478,-9.490242958068848,1.6550058126449585
1772698601156621000,10.62162109375,1.8435783386230469,-9.46613883972168,1.7787178754806519
1772698601166621000,10.631620849609375,1.8026691675186157,-9.449604988098145,1.9041334390640259
1772698601176621000,10.64162109375,1.7146326303482056,-9.442280769348145,2.0183510780334473
1772698601186621000,10.651620849609374,1.5888636112213135,-9.444954872131348,2.1068274974823
1772698601196621000,10.66162109375,1.4612807035446167,-9.452740669250488,2.1635019779205322
1772698601206621000,10.671620849609376,1.3677518367767334,-9.4607515335083,2.189481735229492
1772698601216621000,10.68162109375,1.3325464725494385,-9.465291023254395,2.1915650367736816
1772698601226621000,10.691620849609375,1.3598248958587646,-9.462169647216797,2.188291311264038
1772698601236621000,10.70162109375,1.4313251972198486,-9.450944900512695,2.1911938190460205
1772698601246621000,10.711620849609375,1.5213054418563843,-9.4375581741333,2.188267946243286
1772698601256621000,10.72162109375,1.6053451299667358,-9.429610252380371,2.162339448928833
1772698601266621000,10.731620849609374,1.66580331325531,-9.428297996520996,2.1219513416290283
1772698601276621000,10.74162109375,1.6932986974716187,-9.433687210083008,2.0757334232330322
1772698601286621000,10.751620849609376,1.6885281801223755,-9.44449520111084,2.0299689769744873
1772698601296621000,10.76162109375,1.666103720664978,-9.456811904907227,1.9907844066619873
1772698601306621000,10.771620849609375,1.6348187923431396,-9.468563079833984,1.960627555847168
1772698601316621000,10.78162109375,1.5932868719100952,-9.480878829956055,1.9351401329040527
1772698601326621000,10.791620849609375,1.5424468517303467,-9.494272232055664,1.9105050563812256
1772698601336621000,10.80162109375,1.486251711845398,-9.50817584991455,1.8857468366622925
1772698601346621000,10.811620849609374,1.4295432567596436,-9.522537231445312,1.8569071292877197
1772698601356621000,10.82162109375,1.375332236289978,-9.537792205810547,1.8191704750061035
1772698601366621000,10.831620849609376,1.324974775314331,-9.554118156433105,1.7702124118804932
1772698601376621000,10.84162109375,1.2791446447372437,-9.570676803588867,1.7135701179504395
1772698601386621000,10.851620849609375,1.2383983135223389,-9.5861234664917,1.6561998128890991
1772698601396621000,10.86162109375,1.2025046348571777,-9.599699020385742,1.6031707525253296
1772698601406621000,10.871620849609375,1.1699336767196655,-9.611123085021973,1.5581871271133423
1772698601416621000,10.88162109375,1.1379048824310303,-9.620492935180664,1.5237029790878296
1772698601426621000,10.891620849609374,1.10499906539917,-9.627846717834473,1.501305341720581
1772698601436621000,10.90162109375,1.070895791053772,-9.633086204528809,1.4923834800720215
1772698601446621000,10.911620849609376,1.0368047952651978,-9.636194229125977,1.49639093875885
1772698601456621000,10.92162109375,1.0040861368179321,-9.637293815612793,1.511545181274414
1772698601466621000,10.931620849609375,0.9733854532241821,-9.636661529541016,1.535464882850647
1772698601476621000,10.94162109375,0.9459360837936401,-9.634478569030762,1.5660176277160645
1772698601486621000,10.951620849609375,0.9237299561500549,-9.63046646118164,1.603508472442627
1772698601496621000,10.96162109375,0.9083688855171204,-9.623990058898926,1.650475025177002
1772698601506621000,10.971620849609375,0.9006433486938477,-9.614639282226562,1.7081966400146484
1772698601516621000,10.98162109375,0.9001318216323853,-9.602388381958008,1.776033878326416
1772698601526621000,10.991620849609374,0.9046720266342163,-9.58801555633545,1.8498402833938599
1772698601536621000,11.00162109375,0.9106876254081726,-9.573153495788574,1.922437310218811
1772698601546621000,11.011620849609375,0.9148456454277039,-9.559730529785156,1.9862022399902344
1772698601556621000,11.02162109375,0.9165914058685303,-9.549965858459473,2.0318443775177
1772698601566621000,11.031620849609375,0.91916424036026,-9.545536041259766,2.051403045654297
1772698601576621000,11.04162109375,0.9260907769203186,-9.546746253967285,2.0426418781280518
1772698601586621000,11.051620849609375,0.9372639656066895,-9.552204132080078,2.0117928981781006
1772698601596621000,11.06162109375,0.9492957592010498,-9.560166358947754,1.96785306930542
1772698601606621000,11.071620849609374,0.9572229385375977,-9.568944931030273,1.9207818508148193
1772698601616621000,11.08162109375,0.9588104486465454,-9.57713508605957,1.8787071704864502
1772698601626621000,11.091620849609376,0.956773042678833,-9.58282470703125,1.8505233526229858
1772698601636621000,11.10162109375,0.9578617811203003,-9.583946228027344,1.8441475629806519
1772698601646621000,11.111620849609375,0.966113805770874,-9.579710960388184,1.8617603778839111
1772698601656621000,11.12162109375,0.9793521761894226,-9.571220397949219,1.8981573581695557
1772698601666621000,11.131620849609375,0.9981538653373718,-9.559891700744629,1.9448745250701904
1772698601676621000,11.14162109375,1.0291855335235596,-9.547046661376953,1.99125075340271
1772698601686621000,11.151620849609374,1.0823920965194702,-9.53388500213623,2.025796413421631
1772698601696621000,11.16162109375,1.1662590503692627,-9.520552635192871,2.041888475418091
1772698601706621000,11.171620849609376,1.2834757566452026,-9.506837844848633,2.035465717315674
1772698601716621000,11.18162109375,1.4309444427490234,-9.492169380187988,2.0053679943084717
1772698601726621000,11.191620849609375,1.603323221206665,-9.476554870605469,1.9479858875274658
1772698601736621000,11.20162109375,1.791662573814392,-9.459195137023926,1.8665369749069214
1772698601746621000,11.211620849609375,1.9879080057144165,-9.436638832092285,1.7800151109695435
1772698601756621000,11.22162109375,2.1877291202545166,-9.405479431152344,1.709145426750183
1772698601766621000,11.231620849609374,2.3824636936187744,-9.365898132324219,1.6655956506729126
1772698601776621000,11.24162109375,2.5552210807800293,-9.321885108947754,1.656408667564392
1772698601786621000,11.251620849609376,2.693371295928955,-9.280259132385254,1.6712064743041992
1772698601796621000,11.26162109375,2.78021240234375,-9.249971389770508,1.696709156036377
1772698601806621000,11.271620849609375,2.800828456878662,-9.236504554748535,1.7357251644134521
1772698601816621000,11.28162109375,2.762089490890503,-9.235764503479004,1.8005268573760986
1772698601826621000,11.291620849609375,2.684345006942749,-9.241632461547852,1.8859747648239136
1772698601836621000,11.30162109375,2.589235305786133,-9.2495756149292,1.9777753353118896
1772698601846621000,11.311620849609374,2.500213861465454,-9.254298210144043,2.0681569576263428
1772698601856621000,11.32162109375,2.4405250549316406,-9.251214027404785,2.151569366455078
1772698601866621000,11.331620849609376,2.4333887100219727,-9.236577987670898,2.2214038372039795
1772698601876621000,11.34162109375,2.4892044067382812,-9.208488464355469,2.275517702102661
1772698601886621000,11.351620849609375,2.5723330974578857,-9.168712615966797,2.3426918983459473
1772698601896621000,11.36162109375,2.6232712268829346,-9.139514923095703,2.399606704711914
1772698601906621000,11.371620849609375,2.61004900932312,-9.141020774841309,2.4082679748535156
1772698601916621000,11.38162109375,2.543879985809326,-9.16783332824707,2.376951217651367
1772698601926621000,11.391620849609374,2.464146614074707,-9.201593399047852,2.3300342559814453
1772698601936621000,11.40162109375,2.4038546085357666,-9.229188919067383,2.2834036350250244
1772698601946621000,11.411620849609376,2.367743968963623,-9.251073837280273,2.2319936752319336
1772698601956621000,11.42162109375,2.3363537788391113,-9.272557258605957,2.1752052307128906
1772698601966621000,11.431620849609375,2.2952849864959717,-9.297189712524414,2.1128923892974854
1772698601976621000,11.44162109375,2.2386608123779297,-9.324936866760254,2.0504472255706787
1772698601986621000,11.451620849609375,2.166006326675415,-9.352424621582031,2.0027408599853516
1772698601996621000,11.46162109375,2.084960699081421,-9.376640319824219,1.9753364324569702
1772698602006621000,11.471620849609375,2.0045435428619385,-9.39810562133789,1.956477165222168
1772698602016621000,11.48162109375,1.9242643117904663,-9.420114517211914,1.9310747385025024
1772698602026621000,11.491620849609374,1.8403384685516357,-9.444369316101074,1.8940504789352417
1772698602036621000,11.50162109375,1.752903699874878,-9.470304489135742,1.8469057083129883
1772698602046621000,11.511620849609375,1.6664036512374878,-9.497265815734863,1.7875748872756958
1772698602056621000,11.52162109375,1.587560772895813,-9.524195671081543,1.7145665884017944
1772698602066621000,11.531620849609375,1.524332046508789,-9.548705101013184,1.6337108612060547
1772698602076621000,11.54162109375,1.4819976091384888,-9.56927490234375,1.5501737594604492
1772698602086621000,11.551620849609375,1.4591385126113892,-9.586568832397461,1.462528944015503
1772698602096621000,11.56162109375,1.452172040939331,-9.600651741027832,1.3744333982467651
1772698602106621000,11.571620849609374,1.4517292976379395,-9.612407684326172,1.290151834487915
1772698602116621000,11.58162109375,1.4462122917175293,-9.622971534729004,1.2154256105422974
1772698602126621000,11.591620849609376,1.427456259727478,-9.632863998413086,1.1578764915466309
1772698602136621000,11.60162109375,1.3984227180480957,-9.640848159790039,1.1264278888702393
1772698602146621000,11.611620849609375,1.3705103397369385,-9.645061492919922,1.1246728897094727
1772698602156621000,11.62162109375,1.3495903015136719,-9.645119667053223,1.1491936445236206
1772698602166621000,11.631620849609375,1.3365544080734253,-9.64169692993164,1.1923506259918213
1772698602176621000,11.64162109375,1.3331708908081055,-9.635570526123047,1.2445197105407715
1772698602186621000,11.651620849609374,1.342260718345642,-9.628002166748047,1.292401671409607
1772698602196621000,11.66162109375,1.3654375076293945,-9.620198249816895,1.3257999420166016
1772698602206621000,11.671620849609376,1.4020484685897827,-9.61298942565918,1.3398092985153198
1772698602216621000,11.68162109375,1.4480972290039062,-9.607145309448242,1.3327295780181885
1772698602226621000,11.691620849609375,1.497144341468811,-9.603321075439453,1.3058276176452637
1772698602236621000,11.70162109375,1.5430642366409302,-9.601609230041504,1.2642967700958252
1772698602246621000,11.711620849609375,1.5781350135803223,-9.601493835449219,1.221145510673523
1772698602256621000,11.72162109375,1.5972800254821777,-9.600887298583984,1.2008494138717651
1772698602266621000,11.731620849609374,1.599746823310852,-9.596121788024902,1.2351698875427246
1772698602276621000,11.74162109375,1.600420594215393,-9.583255767822266,1.3305147886276245
1772698602286621000,11.751620849609376,1.6011059284210205,-9.563615798950195,1.4642785787582397
1772698602296621000,11.76162109375,1.574249267578125,-9.544755935668945,1.6092673540115356
1772698602306621000,11.771620849609375,1.5128535032272339,-9.530277252197266,1.7479933500289917
1772698602316621000,11.78162109375,1.4147107601165771,-9.523463249206543,1.8634980916976929
1772698602326621000,11.791620849609375,1.2902554273605347,-9.522590637207031,1.95599365234375
1772698602336621000,11.80162109375,1.1777104139328003,-9.518777847290039,2.043588399887085
1772698602346621000,11.811620849609374,1.1151106357574463,-9.507465362548828,2.1295578479766846
1772698602356621000,11.82162109375,1.1132702827453613,-9.490279197692871,2.205815076828003
1772698602366621000,11.831620849609376,1.159657597541809,-9.469465255737305,2.2704198360443115
1772698602376621000,11.84162109375,1.2341828346252441,-9.448972702026367,2.3160486221313477
1772698602386621000,11.851620849609375,1.318307638168335,-9.435747146606445,2.323604106903076
1772698602396621000,11.86162109375,1.3874984979629517,-9.437138557434082,2.2772018909454346
1772698602406621000,11.871620849609375,1.4201844930648804,-9.45313835144043,2.188978433609009
1772698602416621000,11.88162109375,1.4145358800888062,-9.478521347045898,2.080172061920166
1772698602426621000,11.891620849609374,1.3880785703659058,-9.506762504577637,1.9659812450408936
1772698602436621000,11.90162109375,1.3629894256591797,-9.53190803527832,1.8588672876358032
1772698602446621000,11.911620849609376,1.3476839065551758,-9.550078392028809,1.7748605012893677
1772698602456621000,11.92162109375,1.3329946994781494,-9.562698364257812,1.7170675992965698
1772698602466621000,11.931620849609375,1.311794638633728,-9.573654174804688,1.6717467308044434
1772698602476621000,11.94162109375,1.2791314125061035,-9.583808898925781,1.6385389566421509
1772698602486621000,11.951620849609375,1.2310069799423218,-9.593304634094238,1.619722843170166
1772698602496621000,11.96162109375,1.166398525238037,-9.60306453704834,1.6096786260604858
1772698602506621000,11.971620849609375,1.0883779525756836,-9.613862037658691,1.5998378992080688
1772698602516621000,11.98162109375,1.0034281015396118,-9.625771522521973,1.583681583404541
1772698602526621000,11.991620849609374,0.9193921089172363,-9.638073921203613,1.5596890449523926
1772698602536621000,12.00162109375,0.8417394757270813,-9.649686813354492,1.5314762592315674
1772698602546621000,12.011620849609375,0.7712295055389404,-9.659904479980469,1.5039422512054443
1772698602556621000,12.02162109375,0.7054941058158875,-9.668673515319824,1.4796684980392456
1772698602566621000,12.031620849609375,0.6422751545906067,-9.675846099853516,1.4614627361297607
1772698602576621000,12.04162109375,0.5795032978057861,-9.680978775024414,1.4536845684051514
1772698602586621000,12.051620849609375,0.5148047208786011,-9.683552742004395,1.4608796834945679
1772698602596621000,12.06162109375,0.44561856985092163,-9.683438301086426,1.4841899871826172
1772698602606621000,12.071620849609374,0.3728223145008087,-9.681507110595703,1.5165112018585205
1772698602616621000,12.08162109375,0.2994212210178375,-9.67935562133789,1.5462247133255005
1772698602626621000,12.091620849609376,0.22999389469623566,-9.677799224853516,1.5677030086517334
1772698602636621000,12.10162109375,0.16986718773841858,-9.676700592041016,1.582087755203247
1772698602646621000,12.111620849609375,0.12317483872175217,-9.675756454467773,1.592150330543518
1772698602656621000,12.12162109375,0.09028298407793045,-9.675111770629883,1.5982592105865479
1772698602666621000,12.131620849609375,0.06711205095052719,-9.674944877624512,1.600414752960205
1772698602676621000,12.14162109375,0.04611760005354881,-9.675198554992676,1.599622130393982
1772698602686621000,12.151620849609374,0.017814546823501587,-9.675600051879883,1.5977553129196167
1772698602696621000,12.16162109375,-0.024996483698487282,-9.675579071044922,1.597785472869873
1772698602706621000,12.171620849609376,-0.08422432839870453,-9.674302101135254,1.6034809350967407
1772698602716621000,12.18162109375,-0.15636023879051208,-9.671285629272461,1.616219401359558
1772698602726621000,12.191620849609375,-0.23538407683372498,-9.666388511657715,1.6358243227005005
1772698602736621000,12.20162109375,-0.31677940487861633,-9.659720420837402,1.6612790822982788
1772698602746621000,12.211620849609375,-0.3951687514781952,-9.652104377746582,1.688515543937683
1772698602756621000,12.22162109375,-0.4620259702205658,-9.645241737365723,1.7106221914291382
1772698602766621000,12.231620849609374,-0.5071694850921631,-9.641194343566895,1.720618724822998
1772698602776621000,12.24162109375,-0.5215676426887512,-9.641307830810547,1.7156727313995361
1772698602786621000,12.251620849609376,-0.49919503927230835,-9.646323204040527,1.6939988136291504
1772698602796621000,12.26162109375,-0.44052472710609436,-9.656280517578125,1.6530506610870361
1772698602806621000,12.271620849609375,-0.3569762110710144,-9.669300079345703,1.59611976146698
1772698602816621000,12.28162109375,-0.27172836661338806,-9.681951522827148,1.5350428819656372
1772698602826621000,12.291620849609375,-0.20441240072250366,-9.691214561462402,1.4862489700317383
1772698602836621000,12.30162109375,-0.1648767739534378,-9.69524097442627,1.4647506475448608
1772698602846621000,12.311620849609374,-0.15645502507686615,-9.6941499710083,1.472876787185669
1772698602856621000,12.32162109375,-0.18786318600177765,-9.688372611999512,1.5068292617797852
1772698602866621000,12.331620849609376,-0.27559778094291687,-9.677702903747559,1.5609335899353027
1772698602876621000,12.34162109375,-0.43457740545272827,-9.662103652954102,1.620278239250183
1772698602886621000,12.351620849609375,-0.6506320238113403,-9.643120765686035,1.660508394241333
1772698602896621000,12.36162109375,-0.8454418182373047,-9.62943172454834,1.6521674394607544
1772698602906621000,12.371620849609375,-0.8992037177085876,-9.638269424438477,1.5702143907546997
1772698602916621000,12.38162109375,-0.8027629852294922,-9.670310020446777,1.4181143045425415
1772698602926621000,12.391620849609374,-0.5970972776412964,-9.711712837219238,1.2233076095581055
1772698602936621000,12.40162109375,-0.32219311594963074,-9.748130798339844,1.0200691223144531
1772698602946621000,12.411620849609376,-0.018688585609197617,-9.7706298828125,0.8395381569862366
1772698602956621000,12.42162109375,0.27055543661117554,-9.778055191040039,0.6977243423461914
1772698602966621000,12.431620849609375,0.5268600583076477,-9.773675918579102,0.6066800951957703
1772698602976621000,12.44162109375,0.7470834255218506,-9.76095199584961,0.5797198414802551
1772698602986621000,12.451620849609375,0.9237398505210876,-9.74332046508789,0.6203122735023499
1772698602996621000,12.46162109375,1.0570701360702515,-9.723623275756836,0.7100271582603455
1772698603006621000,12.471620849609375,1.1535303592681885,-9.703392028808594,0.827010452747345
1772698603016621000,12.48162109375,1.2166376113891602,-9.683272361755371,0.9614537954330444
1772698603026621000,12.491620849609374,1.2517263889312744,-9.663196563720703,1.1073353290557861
1772698603036621000,12.50162109375,1.269572377204895,-9.642568588256836,1.2567646503448486
1772698603046621000,12.511620849609375,1.2777198553085327,-9.621603012084961,1.4009162187576294
1772698603056621000,12.52162109375,1.285597324371338,-9.600329399108887,1.5334004163742065
1772698603066621000,12.531620849609375,1.2996171712875366,-9.579422950744629,1.6480422019958496
1772698603076621000,12.54162109375,1.3362830877304077,-9.557722091674805,1.7420343160629272
1772698603086621000,12.551620849609375,1.3957055807113647,-9.534685134887695,1.8199362754821777
1772698603096621000,12.56162109375,1.4647859334945679,-9.511436462402344,1.8860982656478882
1772698603106621000,12.571620849609374,1.5358879566192627,-9.4896240234375,1.938680648803711
1772698603116621000,12.58162109375,1.5990753173828125,-9.470601081848145,1.9801669120788574
1772698603126621000,12.591620849609376,1.6477406024932861,-9.454516410827637,2.0167958736419678
1772698603136621000,12.60162109375,1.6789841651916504,-9.441978454589844,2.049497127532959
1772698603146621000,12.611620849609375,1.6939977407455444,-9.433818817138672,2.0745651721954346
1772698603156621000,12.62162109375,1.6961948871612549,-9.430681228637695,2.0869946479797363
1772698603166621000,12.631620849609375,1.6926124095916748,-9.43215274810791,2.0832552909851074
1772698603176621000,12.64162109375,1.6925164461135864,-9.436220169067383,2.0648305416107178
1772698603186621000,12.651620849609374,1.699890375137329,-9.441158294677734,2.0359995365142822
1772698603196621000,12.66162109375,1.7113621234893799,-9.44632625579834,2.002138614654541
1772698603206621000,12.671620849609376,1.7190930843353271,-9.452363967895508,1.9666991233825684
1772698603216621000,12.68162109375,1.7156747579574585,-9.46074390411377,1.929029941558838
1772698603226621000,12.691620849609375,1.698041319847107,-9.472623825073242,1.885854959487915
1772698603236621000,12.70162109375,1.6656827926635742,-9.488225936889648,1.8356118202209473
1772698603246621000,12.711620849609375,1.623002290725708,-9.506390571594238,1.778985619544983
1772698603256621000,12.72162109375,1.5780583620071411,-9.525463104248047,1.7162983417510986
1772698603266621000,12.731620849609374,1.540030837059021,-9.5437650680542,1.6477991342544556
1772698603276621000,12.74162109375,1.5164437294006348,-9.559895515441895,1.5745396614074707
1772698603286621000,12.751620849609376,1.5119677782058716,-9.572604179382324,1.499860405921936
1772698603296621000,12.76162109375,1.5276985168457031,-9.580964088439941,1.4288634061813354
1772698603306621000,12.771620849609375,1.5552252531051636,-9.585643768310547,1.3664169311523438
1772698603316621000,12.78162109375,1.5839835405349731,-9.587566375732422,1.3190703392028809
1772698603326621000,12.791620849609375,1.610764980316162,-9.586825370788574,1.2917441129684448
1772698603336621000,12.80162109375,1.641775131225586,-9.58211898803711,1.2876158952713013
1772698603346621000,12.811620849609374,1.6834630966186523,-9.572869300842285,1.3025039434432983
1772698603356621000,12.82162109375,1.7345799207687378,-9.559361457824707,1.3342552185058594
1772698603366621000,12.831620849609376,1.7874621152877808,-9.541647911071777,1.3900821208953857
1772698603376621000,12.84162109375,1.83156156539917,-9.520319938659668,1.476243019104004
1772698603386621000,12.851620849609375,1.8599368333816528,-9.49667739868164,1.5887569189071655
1772698603396621000,12.86162109375,1.8743051290512085,-9.472678184509277,1.7104804515838623
1772698603406621000,12.871620849609375,1.8829593658447266,-9.452262878417969,1.8109616041183472
1772698603416621000,12.88162109375,1.889108419418335,-9.440315246582031,1.866041898727417
1772698603426621000,12.891620849609374,1.8892011642456055,-9.438438415527344,1.875420093536377
1772698603436621000,12.90162109375,1.88168203830719,-9.4435396194458,1.857208251953125
1772698603446621000,12.911620849609376,1.8637511730194092,-9.453381538391113,1.8249362707138062
1772698603456621000,12.92162109375,1.8365980386734009,-9.466497421264648,1.7840204238891602
1772698603466621000,12.931620849609375,1.798998236656189,-9.48342227935791,1.7316763401031494
1772698603476621000,12.94162109375,1.7416657209396362,-9.505537033081055,1.6678587198257446
1772698603486621000,12.951620849609375,1.6670501232147217,-9.52627182006836,1.6252614259719849
1772698603496621000,12.96162109375,1.5830518007278442,-9.539475440979004,1.631786584854126
1772698603506621000,12.971620849609375,1.5173805952072144,-9.538424491882324,1.6989407539367676
1772698603516621000,12.98162109375,1.4990469217300415,-9.52029037475586,1.8130937814712524
1772698603526621000,12.991620849609374,1.4965614080429077,-9.489791870117188,1.9683833122253418
1772698603536621000,13.00162109375,1.4839617013931274,-9.44979476928711,2.1609272956848145
1772698603546621000,13.011620849609375,1.4516842365264893,-9.406603813171387,2.3619511127471924
