time,seconds_elapsed,z,y,x
1772698590578272800,0.043272705078125,-0.061391908675432205,0.34865108132362366,0.13240493834018707
1772698590595618800,0.060618896484375,-0.1805105358362198,0.5080868005752563,0.3058905303478241
1772698590612964900,0.07796484375,-0.291687935590744,0.58749920129776,0.46715885400772095
1772698590630311200,0.095311279296875,-0.4120282828807831,0.7457131743431091,0.54962557554245
1772698590647657200,0.1126572265625,-0.526870846748352,0.966846227645874,0.4286743700504303
1772698590665003500,0.13000341796875,-0.5097666382789612,1.131779670715332,0.16661337018013
1772698590682349600,0.147349609375,-0.3900371491909027,1.3920080661773682,-0.09178243577480316
1772698590699695900,0.16469580078125,-0.3631591200828552,1.2331832647323608,-0.18402300775051117
1772698590725715000,0.19071484375,-0.5146535634994507,0.30833399295806885,-0.2341139316558838
1772698590743061200,0.208061279296875,-0.45051276683807373,-0.32818710803985596,-0.2842048406600952
1772698590760407300,0.2254072265625,-0.12980876863002777,-0.7142536640167236,-0.4033234715461731
1772698590777753600,0.242753662109375,0.032070402055978775,-0.7869465351104736,-0.6122392416000366
1772698590795099600,0.260099609375,0.11392628401517868,-0.6201804876327515,-0.7576250433921814
1772698590812446000,0.277446044921875,0.16340632736682892,-0.3153589367866516,-0.8578068614006042
1772698590829792000,0.2947919921875,0.14202606678009033,-0.16814053058624268,-0.9738711714744568
1772698590847138300,0.31213818359375,0.08032871782779694,-0.42653632164001465,-1.0209077596664429
1772698590864484400,0.329484375,0.005192350596189499,-0.7014254927635193,-0.8504765033721924
1772698590881830400,0.346830322265625,0.09437860548496246,-0.3630063831806183,-0.6800451874732971
1772698590899176700,0.3641767578125,0.37293294072151184,0.28267768025398254,-0.5548179149627686
1772698590916522800,0.381522705078125,0.4920515716075897,0.6003273725509644,-0.48701193928718567
1772698590933869000,0.398869140625,0.30085089802742004,0.34987279772758484,-0.4222602844238281
1772698590951215000,0.416215087890625,0.00946840364485979,-0.03558287397027016,-0.33979353308677673
1772698590968561400,0.4335615234375,-0.24465134739875793,-0.14859285950660706,-0.20906847715377808
1772698590985907500,0.450907470703125,-0.39858928322792053,0.1311832070350647,-0.10461059212684631
1772698591003253800,0.468253662109375,-0.4199695289134979,0.44700029492378235,-0.09300415962934494
1772698591020599800,0.485599853515625,-0.35216355323791504,0.6424770355224609,-0.1363755613565445
1772698591037945900,0.50294580078125,-0.2214384824037552,0.6235402226448059,-0.1406516134738922
1772698591055292200,0.520292236328125,-0.17073670029640198,0.44700029492378235,-0.2176205813884735
1772698591072638200,0.53763818359375,-0.21716243028640747,0.002290742937475443,-0.4607447683811188
1772698591089984500,0.554984619140625,-0.22266021370887756,-1.1326960325241089,-0.7044798135757446
1772698591107330600,0.57233056640625,-0.3228420317173004,-1.808923363685608,-0.49739664793014526
1772698591124676600,0.589676513671875,-0.5714640021324158,-1.6488767862319946,-0.24144430458545685
1772698591142023000,0.60702294921875,-0.9080504775047302,-0.4436405599117279,-0.11866047978401184
1772698591159369000,0.624368896484375,-0.6777544617652893,1.1256710290908813,0.2741255760192871
1772698591176715300,0.64171533203125,0.23915356397628784,2.1555891036987305,0.6779071688652039
1772698591194061300,0.659061279296875,1.0583232641220093,1.3009892702102661,0.9033163189888
1772698591211407600,0.67640771484375,1.375972867012024,-0.16264274716377258,0.9424116611480713
1772698591228753700,0.693753662109375,0.926376461982727,0.12385283410549164,0.3614792227745056
1772698591246100000,0.711099853515625,0.3808741867542267,0.10308343172073364,0.03527744114398956
1772698591263446000,0.728446044921875,-0.006414080038666725,-0.10277800261974335,0.11346813291311264
1772698591280792300,0.745792236328125,-0.07910698652267456,-0.6415607333183289,0.33460119366645813
1772698591298138400,0.763138427734375,0.00946840364485979,-1.0630574226379395,0.4384481906890869
1772698591315484400,0.780484375,0.12980876863002777,-1.300683856010437,0.4329504072666168
1772698591332830700,0.797830810546875,0.22754712402820587,-1.1950042247772217,0.30772313475608826
1772698591350176800,0.8151767578125,0.1230892539024353,-0.9592103958129883,-0.08811724185943604
1772698591367523000,0.832523193359375,-0.1438586562871933,-0.549930989742279,-0.5090031027793884
1772698591384869000,0.849869140625,-0.2678641974925995,-0.3428478538990021,-0.7093667387962341
1772698591402215400,0.86721533203125,-0.08888082206249237,-0.3116937577724457,-0.4552469849586487
1772698591419561500,0.8845615234375,0.6459894776344299,-0.17547090351581573,0.01695149764418602
1772698591436907800,0.90190771484375,0.6661480665206909,-0.1773035079240799,0.187382772564888
1772698591454253800,0.91925390625,0.5048797130584717,-0.3868301212787628,0.02672533318400383
1772698591471600000,0.93660009765625,0.5665770769119263,-0.6714931130409241,-0.1980729103088379
1772698591488946200,0.9539462890625,0.7846558094024658,-0.6598866581916809,-0.356286883354187
1772698591506292200,0.971292236328125,1.5176935195922852,-0.18829907476902008,-0.5933024287223816
1772698591523638500,0.988638427734375,1.6215405464172363,-0.0007635809597559273,-0.6592758297920227
1772698591540984600,1.005984619140625,1.3008365631103516,-0.6574432253837585,-0.304974228143692
1772698591558331000,1.023330810546875,1.1927134990692139,-1.5010474920272827,0.20998476445674896
1772698591575677000,1.040677001953125,1.5592323541641235,-2.240804672241211,0.4744892120361328
1772698591593023200,1.058023193359375,2.151771068572998,-2.3758058547973633,0.41095927357673645
1772698591610369300,1.075369384765625,2.6410739421844482,-2.097862482070923,0.21120649576187134
1772698591627715600,1.092715576171875,3.076620578765869,-1.8364121913909912,0.01695149764418602
1772698591645061600,1.1100615234375,3.4779586791992188,-1.8144210577011108,-0.1461493968963623
1772698591662408000,1.127407958984375,3.7760605812072754,-2.0642647743225098,-0.29886558651924133
1772698591679754000,1.14475390625,4.0417866706848145,-2.315941095352173,-0.6647735834121704
1772698591697100300,1.162100341796875,4.4193010330200195,-1.8797836303710938,-1.6195552349090576
1772698591714446300,1.1794462890625,4.717403411865234,-1.5896228551864624,-2.4631595611572266
1772698591731792400,1.19679248046875,4.940369129180908,-1.578627347946167,-2.93902325630188
1772698591749138700,1.214138671875,5.223199367523193,-2.0349433422088623,-2.9158103466033936
1772698591766484700,1.231484619140625,5.4217305183410645,-2.67390775680542,-2.6061017513275146
1772698591783831000,1.2488310546875,5.700284481048584,-3.1540474891662598,-2.5138611793518066
1772698591801177000,1.266177001953125,5.925083160400391,-3.054476499557495,-3.0306529998779297
1772698591818523400,1.2835234375,6.096735954284668,-2.578613042831421,-3.551109790802002
1772698591835869400,1.300869384765625,5.970286846160889,-1.9451462030410767,-3.4374887943267822
1772698591853215500,1.318215576171875,5.583609580993652,-1.5267038345336914,-2.978729486465454
1772698591870561800,1.335561767578125,5.377748012542725,-1.261588454246521,-3.118617296218872
1772698591887907800,1.352907958984375,5.263516426086426,-0.5670352578163147,-3.579820394515991
1772698591905254100,1.370254150390625,5.0222249031066895,-0.03802633285522461,-3.2841618061065674
1772698591922600200,1.38760009765625,4.91165828704834,-0.12843431532382965,-2.2090396881103516
1772698591939946500,1.404946533203125,4.721679210662842,-0.6769908666610718,-1.078329086303711
1772698591957292500,1.42229248046875,4.235430717468262,-0.3764454126358032,-0.6110175251960754
1772698591974638800,1.439638916015625,4.090044975280762,0.36392268538475037,-0.6165152788162231
1772698591991985000,1.45698486328125,4.000858783721924,1.2289072275161743,-0.687986433506012
1772698592009331000,1.4743310546875,3.82187557220459,2.4378085136413574,-0.625067412853241
1772698592026677200,1.49167724609375,3.6312856674194336,3.3938119411468506,-0.653167188167572
1772698592044023300,1.509023193359375,3.4382524490356445,3.1396923065185547,-0.5083922147750854
1772698592061369600,1.52636962890625,3.2989752292633057,2.235001564025879,0.012675444595515728
1772698592078715600,1.543715576171875,3.1328201293945312,1.4726423025131226,0.7615956664085388
1772698592096062000,1.56106201171875,2.8377723693847656,1.1384992599487305,1.3058761358261108
1772698592113408000,1.578407958984375,2.2983787059783936,0.9845613241195679,1.6473495960235596
1772698592130754300,1.59575439453125,1.672242283821106,1.1177297830581665,1.929569125175476
1772698592148100400,1.613100341796875,1.240360975265503,1.705992579460144,1.7163772583007812
1772698592165446400,1.6304462890625,0.9978476166725159,2.2582144737243652,1.141553521156311
1772698592182792700,1.647792724609375,0.7699950337409973,2.0633485317230225,0.8892664313316345
1772698592200138800,1.665138671875,0.33322674036026,1.206916093826294,1.0706932544708252
1772698592217485000,1.682485107421875,-0.1847866028547287,0.5386300086975098,0.9069814682006836
1772698592234831000,1.6998310546875,-0.3637699782848358,0.9888373613357544,-0.03375028073787689
1772698592252177400,1.717177490234375,-0.5225948095321655,1.5722131729125977,-2.0575451850891113
1772698592269523500,1.7345234375,-0.4114174246788025,0.6082686185836792,-1.5603013038635254
1772698592286869800,1.751869873046875,-0.39797839522361755,-0.2652680277824402,-1.5218168497085571
1772698592304215800,1.7692158203125,-0.435241162776947,-0.24694208800792694,-1.346498727798462
1772698592321562000,1.78656201171875,-0.3692677617073059,-0.346513032913208,-0.6592758297920227
1772698592338908200,1.803908203125,-0.37232208251953125,0.23625195026397705,-0.31230461597442627
1772698592356254200,1.821254150390625,-0.2813032269477844,0.44211336970329285,-0.2548833191394806
1772698592373600500,1.8386005859375,-0.23426663875579834,-0.06307178735733032,-0.08323032408952713
1772698592390946600,1.855946533203125,-0.09376774728298187,-0.39477136731147766,0.18310672044754028
1772698592408292900,1.87329296875,0.011911863461136818,-0.3312414288520813,0.310166597366333
1772698592425639000,1.890638916015625,-0.05833758786320686,-0.08384118974208832,0.25641047954559326
1772698592442985200,1.907985107421875,-0.25320345163345337,0.15073087811470032,0.03283398225903511
1772698592460331300,1.925331298828125,-0.3179551064968109,0.15500694513320923,-0.11682789027690887
1772698592477677600,1.942677490234375,-0.15241076052188873,-0.09728021919727325,-0.2286161482334137
1772698592495023600,1.960023681640625,0.048563748598098755,-0.304974228143692,-0.35323256254196167
1772698592512370000,1.977369873046875,0.03145953640341759,-0.19440771639347076,-0.48762279748916626
1772698592529716000,1.994716064453125,-0.18600831925868988,0.14523309469223022,-0.5487092733383179
1772698592547062000,2.01206201171875,-0.39186975359916687,0.5288561582565308,-0.717307984828949
1772698592564408300,2.029408203125,-0.4566214084625244,0.7383828163146973,-0.8810197114944458
1772698592581754400,2.04675439453125,-0.8182533979415894,0.5862774848937988,-1.041066288948059
1772698592599100700,2.0641005859375,-0.49510589241981506,0.846505880355835,-0.9359975457191467
1772698592616446700,2.08144677734375,0.03695731982588768,0.6302597522735596,-0.8736893534660339
1772698592633793000,2.09879296875,0.3381136655807495,0.43600472807884216,-1.0661118030548096
1772698592651139000,2.11613916015625,0.39797839522361755,0.22708898782730103,-1.1504111289978027
1772698592668485400,2.1334853515625,0.536644697189331,-0.5145008563995361,-1.0068578720092773
1772698592685831400,2.15083154296875,0.49510589241981506,-1.1852303743362427,-0.706923246383667
1772698592703177700,2.168177734375,-0.30634868144989014,-0.6488910913467407,-0.4864010810852051
1772698592720523800,2.185523681640625,-0.989295482635498,0.38469210267066956,-0.15531237423419952
1772698592737870000,2.2028701171875,-1.2061525583267212,1.2551743984222412,-0.38988444209098816
1772698592755216100,2.220216064453125,-0.8439096808433533,1.3235912322998047,-1.282357931137085
1772698592772562200,2.237562255859375,-0.9355394244194031,0.9265291690826416,-1.8944443464279175
1772698592789908500,2.254908447265625,-1.433394193649292,0.8067996501922607,-2.3006694316864014
1772698592807254500,2.272254638671875,-2.036317825317383,0.578336238861084,-2.491870164871216
1772698592824600800,2.289600830078125,-2.534783363342285,0.23686282336711884,-2.495535373687744
1772698592841947000,2.30694677734375,-2.417497396469116,-0.5071704983711243,-1.7649410963058472
1772698592859293200,2.324293212890625,-1.6368122100830078,-0.33857181668281555,-1.0056360960006714
1772698592876639200,2.34163916015625,-1.053436279296875,0.33765551447868347,-0.7673988938331604
1772698592893985500,2.358985595703125,-1.1230748891830444,0.09575305134057999,-0.28176137804985046
1772698592911331600,2.37633154296875,-1.0222822427749634,-0.9995275139808655,0.6369792222976685
1772698592928678000,2.393677978515625,-0.23426663875579834,1.8055635690689087,0.873994767665863
1772698592946024000,2.41102392578125,0.1536324918270111,1.9087997674942017,0.7793107628822327
1772698592963370000,2.428369873046875,0.2984074354171753,-0.27687445282936096,0.5178605914115906
1772698592980716300,2.44571630859375,0.4834994673728943,-0.5523744821548462,-0.2744309902191162
1772698592998062300,2.463062255859375,0.08155044913291931,-0.20906847715377808,-0.48334676027297974
1772698593015408600,2.48040869140625,-0.1640172004699707,-0.6714931130409241,-0.17363831400871277
1772698593032754700,2.497754638671875,-0.06994401663541794,-0.6782126426696777,0.6919570565223694
1772698593050101000,2.51510107421875,0.31001389026641846,-0.3355174660682678,1.3797907829284668
1772698593067447000,2.532447021484375,-0.32528549432754517,-0.9793689846992493,1.7347033023834229
1772698593084793000,2.54979296875,0.07116574794054031,-1.411250352859497,2.011425018310547
1772698593102139400,2.567139404296875,0.897665798664093,-1.0013600587844849,2.220951557159424
1772698593119485400,2.5844853515625,0.8310815095901489,-0.14737112820148468,1.5893174409866333
1772698593136831700,2.601831787109375,-0.34238970279693604,-2.3073890209198,-0.14981459081172943
1772698593154177800,2.619177734375,-0.4523453712463379,-0.8260418772697449,-0.337350070476532
1772698593171524000,2.636524169921875,-0.25320345163345337,-0.006872228812426329,-0.14859285950660706
1772698593188870100,2.6538701171875,-0.2360992431640625,-0.26160284876823425,-0.049632761627435684
1772698593206216400,2.671216552734375,-0.3442223072052002,-0.8785762786865234,-0.31352636218070984
1772698593223562500,2.6885625,-0.1945604383945465,-1.501658320426941,-0.60490882396698
1772698593240908500,2.705908447265625,0.03695731982588768,-0.4839576184749603,-0.014202605932950974
1772698593258254800,2.7232548828125,0.021685699000954628,0.01695149764418602,0.4182896614074707
1772698593275601000,2.740600830078125,0.04367683082818985,0.32788166403770447,0.7615956664085388
1772698593292947200,2.757947265625,0.035735588520765305,0.3223838806152344,0.7903063297271729
1772698593310293200,2.775293212890625,0.032681263983249664,0.08231402933597565,0.39568766951560974
1772698593327639600,2.7926396484375,0.06444623321294785,-0.14004075527191162,-0.0038179049734026194
1772698593344985600,2.809985595703125,0.12553271651268005,-0.30314165353775024,-0.1418733447790146
1772698593362331600,2.82733154296875,0.12553271651268005,-0.3043633699417114,-0.07223475724458694
1772698593379678000,2.844677978515625,0.1182023361325264,-0.18463388085365295,0.08842267841100693
1772698593397024000,2.86202392578125,0.10231985151767731,-0.09056070446968079,0.20937390625476837
1772698593414370300,2.879370361328125,0.09376774728298187,-0.06734783947467804,0.2857320010662079
1772698593431716400,2.89671630859375,0.11392628401517868,-0.09117157012224197,0.28328853845596313
1772698593449062700,2.914062744140625,0.1487455666065216,-0.13515383005142212,0.2124282270669937
1772698593466408700,2.93140869140625,0.18234314024448395,-0.16752967238426208,0.09941824525594711
1772698593483755000,2.948755126953125,0.2464839369058609,-0.11743875592947006,-0.05146535858511925
1772698593501101000,2.96610107421875,0.3637699782848358,-0.10583232343196869,-0.19868376851081848
1772698593518447400,2.983447265625,0.49999281764030457,-0.2029598206281662,-0.24205516278743744
1772698593535793400,3.00079345703125,0.5867356061935425,-0.36911505460739136,-0.17791436612606049
1772698593553139700,3.0181396484375,0.5378664135932922,-0.38560840487480164,-0.07773254066705704
1772698593570485800,3.03548583984375,0.38331764936447144,-0.10461059212684631,-0.023976443335413933
1772698593587831800,3.052831787109375,0.16584978997707367,0.04321868345141411,0.021838415414094925
1772698593605178000,3.07017822265625,-0.02779434807598591,0.1971566081047058,0.12324196845293045
1772698593622524200,3.087524169921875,-0.0668896958231926,0.46715885400772095,0.1207985132932663
1772698593639870500,3.104870361328125,-0.12247838824987411,0.7652608752250671,0.013286309316754341
1772698593657216500,3.122216552734375,-0.6563742160797119,1.095127820968628,0.6595812439918518
1772698593674562800,3.139562744140625,-1.3203842639923096,0.6944005489349365,0.5300779342651367
1772698593691908900,3.156908935546875,-1.4553853273391724,-1.2005020380020142,-0.29153522849082947
1772698593709255200,3.174255126953125,-1.6111558675765991,-1.2133301496505737,-0.7954986691474915
1772698593726601200,3.191601318359375,-1.1029163599014282,-1.0618356466293335,-0.16752967238426208
1772698593743947300,3.208947265625,-0.4309650957584381,-0.6684387922286987,0.5752819180488586
1772698593761293600,3.22629345703125,-0.5335903763771057,0.7652608752250671,0.8410080671310425
1772698593778639600,3.2436396484375,-0.28008151054382324,0.145843967795372,0.0102319847792387
1772698593795986000,3.26098583984375,0.499381959438324,-0.3165806829929352,-1.03129243850708
1772698593813332000,3.27833203125,0.3741546869277954,0.10735948383808136,-1.4552326202392578
1772698593830678300,3.29567822265625,0.032070402055978775,0.5655080676078796,-0.8724676370620728
1772698593848024300,3.3130244140625,0.012522728182375431,0.9717331528663635,-0.04108065739274025
1772698593865370400,3.330370361328125,0.22204934060573578,1.4182753562927246,0.2533561587333679
1772698593882716700,3.347716552734375,0.5195404887199402,1.3480257987976074,0.12324196845293045
1772698593900062700,3.365062744140625,0.6948586702346802,1.0034980773925781,-0.05451968312263489
1772698593917409000,3.382408935546875,0.674700140953064,0.5624537467956543,-0.10705405473709106
1772698593934755000,3.399755126953125,0.4468475878238678,0.504421591758728,-0.13332124054431915
1772698593952101400,3.417101318359375,0.13775001466274261,0.5618428587913513,-0.2603811025619507
1772698593969447400,3.434447509765625,-0.03817904740571976,0.6327031850814819,-0.45707955956459045
1772698593986793500,3.45179345703125,-0.10354158282279968,0.4396699368953705,-0.4650208055973053
1772698594004139800,3.469139892578125,-0.1951712965965271,0.20204351842403412,-0.29764387011528015
1772698594021485800,3.48648583984375,-0.3430005609989166,0.04566214233636856,-0.10644318908452988
1772698594038832000,3.50383203125,-0.43279770016670227,0.02000582218170166,-0.05635227635502815
1772698594056178200,3.52117822265625,-0.48105600476264954,0.005345067009329796,-0.07406735420227051
1772698594073524500,3.5385244140625,-0.5482511520385742,0.001679878099821508,-0.04780016839504242
1772698594090870500,3.55587060546875,-0.6404917240142822,0.0334448479115963,0.03222311660647392
1772698594108216800,3.573216796875,-0.6795870661735535,-0.0062613640911877155,0.060322895646095276
1772698594125563000,3.59056298828125,-0.6801979541778564,-0.0844520553946495,-0.03191768378019333
1772698594142909200,3.6079091796875,-0.5958985686302185,-0.1204930767416954,-0.12843431532382965
1772698594160255200,3.625255126953125,-0.4199695289134979,-0.22067490220069885,-0.2029598206281662
1772698594177601500,3.6426015625,-0.22815799713134766,-0.4088212549686432,-0.20357069373130798
1772698594194947600,3.659947509765625,-0.11026109009981155,-0.5022835731506348,-0.10094540566205978
1772698594212293600,3.677293701171875,-0.011300998739898205,-0.5590940117835999,0.02367101050913334
1772698594229640000,3.694639892578125,0.08155044913291931,-0.5377137064933777,0.14950916171073914
1772698594246986000,3.711986083984375,0.13164135813713074,-0.5371028780937195,0.2735147178173065
1772698594264332300,3.729332275390625,0.08277218043804169,-0.5334376692771912,0.3559814393520355
1772698594281678300,3.74667822265625,-0.04734202101826668,-0.31413722038269043,0.5117519497871399
1772698594299024600,3.764024658203125,-0.10659590363502502,0.007177661173045635,0.9332486391067505
1772698594316370700,3.78137060546875,0.0204639695584774,-0.03558287397027016,1.531285285949707
1772698594333717000,3.798717041015625,0.4834994673728943,-0.4631882309913635,1.9674427509307861
1772698594351063000,3.81606298828125,0.8017600178718567,-0.9531017541885376,2.1867432594299316
1772698594368409300,3.833409423828125,0.5555815100669861,-0.6226239204406738,2.26004695892334
1772698594385755400,3.85075537109375,0.3631591200828552,-0.5841394662857056,1.9020801782608032
1772698594403101700,3.868101806640625,-0.1230892539024353,-0.6061305999755859,0.8984293937683105
1772698594420447700,3.88544775390625,-0.05283980444073677,-0.9188933372497559,-0.23777911067008972
1772698594437793800,3.902793701171875,-0.12247838824987411,-1.2078323364257812,-0.8785762786865234
1772698594455140000,3.92014013671875,-0.2263254076242447,-1.3232858180999756,-0.6776017546653748
1772698594472486100,3.937486083984375,-0.17318016290664673,-1.2292126417160034,-0.14798198640346527
1772698594489832400,3.95483251953125,-0.07483093440532684,-1.0135773420333862,-0.03191768378019333
1772698594507178500,3.972178466796875,0.021685699000954628,-1.042288064956665,-0.3379609286785126
1772698594524524800,3.98952490234375,0.12736530601978302,-1.297629475593567,-0.6849321126937866
1772698594541870800,4.006870849609375,0.16646064817905426,-1.4448479413986206,-0.7338013052940369
1772698594559217200,4.024217041015625,0.22204934060573578,-1.3391683101654053,-0.5902481079101562
1772698594576563200,4.041563232421875,0.3656025826931,-1.1962260007858276,-0.42653632164001465
1772698594593909200,4.0589091796875,0.5293143391609192,-1.085659384727478,-0.2854265570640564
1772698594611255600,4.076255615234375,0.6899717450141907,-0.929888904094696,-0.18096868693828583
1772698594628601600,4.0936015625,0.8420770764350891,-0.7466294765472412,-0.10583232343196869
1772698594645948000,4.110947998046875,0.8909462690353394,-0.47296205163002014,-0.06612611562013626
1772698594663294000,4.1282939453125,0.8072578310966492,-0.11499529331922531,-0.06856957077980042
1772698594680640300,4.14564013671875,0.6771436333656311,0.16661337018013,-0.11133010685443878
1772698594697986300,4.162986328125,0.5897899270057678,0.28328853845596313,-0.2084576040506363
1772698594715332600,4.18033251953125,0.6093376278877258,0.32910341024398804,-0.31413722038269043
1772698594732678700,4.1976787109375,0.6679806113243103,0.4488328993320465,-0.41004297137260437
1772698594750025000,4.21502490234375,0.6979129910469055,0.7133373618125916,-0.4631882309913635
1772698594767371000,4.23237109375,0.6795870661735535,0.9295834898948669,-0.41676250100135803
1772698594784717300,4.24971728515625,0.6997455954551697,0.9308052062988281,-0.17852523922920227
1772698594802063400,4.2670634765625,0.7327322959899902,0.8348994255065918,0.08353576064109802
1772698594819409400,4.284409423828125,0.5568032264709473,0.8892664313316345,0.2948949635028839
1772698594836755700,4.301755615234375,0.27397283911705017,0.8489493131637573,0.3724747896194458
1772698594854101800,4.319101806640625,-0.025961752980947495,0.8263473510742188,0.3058905303478241
1772698594871448000,4.336447998046875,-0.11514800786972046,0.7890845537185669,0.20631958544254303
1772698594888794000,4.353794189453125,-0.12125665694475174,0.6595812439918518,0.11468986421823502
1772698594906140400,4.371140380859375,-0.1389717310667038,0.9558506608009338,-0.061850059777498245
1772698594923486500,4.388486572265625,-0.20189081132411957,0.8868229389190674,-0.16081015765666962
1772698594940832800,4.405832763671875,-0.231212317943573,0.34193155169487,-0.01847865991294384
1772698594958178800,4.4231787109375,-0.26908594369888306,0.13423752784729004,0.11407899856567383
1772698594975525000,4.440525146484375,-0.7626646757125854,0.03527744114398956,0.43233954906463623
1772698594992871200,4.45787109375,-1.3961313962936401,0.17088942229747772,0.5447386503219604
1772698595010217200,4.47521728515625,-1.515860915184021,0.2386954128742218,0.07559451460838318
1772698595027563500,4.4925634765625,-1.7516547441482544,-0.42531460523605347,-0.16752967238426208
1772698595044909600,4.50990966796875,-1.738215684890747,0.4042397737503052,-0.04535670951008797
1772698595062255900,4.527255859375,-1.2366957664489746,0.8770490884780884,-0.34834563732147217
1772698595079602000,4.544601806640625,-0.1701258420944214,0.301003634929657,-0.23228132724761963
1772698595096948200,4.5619482421875,0.6044507026672363,0.15745039284229279,0.3993528485298157
1772698595114294300,4.579294189453125,0.6814196705818176,0.596662163734436,0.38408124446868896
1772698595131640600,4.596640625,0.43463030457496643,0.6210967898368835,0.1672242283821106
1772698595148986600,4.613986572265625,0.25992295145988464,0.21059563755989075,-0.03436114266514778
1772698595166332700,4.631332763671875,0.30634868144989014,0.16844595968723297,-0.3874409794807434
1772698595183679000,4.648678955078125,0.23976442217826843,0.5154171586036682,-0.6091849207878113
1772698595201025000,4.66602490234375,0.24709481000900269,1.2576178312301636,-0.6830995678901672
1772698595218371300,4.683371337890625,0.28069236874580383,1.5551090240478516,-0.6104066371917725
1772698595235717400,4.70071728515625,0.23915356397628784,1.0071632862091064,-0.4289797842502594
1772698595253063700,4.718063720703125,0.23915356397628784,0.15806126594543457,-0.3452913165092468
1772698595270409700,4.73540966796875,0.15546508133411407,-0.18402300775051117,-0.439364492893219
1772698595287756000,4.752756103515625,-0.018631376326084137,-0.2945895493030548,-0.5016726851463318
1772698595305102000,4.77010205078125,-0.1585194170475006,-0.19379685819149017,-0.48762279748916626
1772698595322448400,4.787448486328125,-0.33750277757644653,-0.1253799945116043,-0.36361727118492126
1772698595339794400,4.80479443359375,-0.5830704569816589,-0.20723587274551392,-0.16997312009334564
1772698595357140700,4.822140625,-0.7614429593086243,-0.29275694489479065,-0.05146535858511925
1772698595374486800,4.83948681640625,-0.7834340929985046,-0.35934120416641235,-0.10705405473709106
1772698595391832800,4.856832763671875,-0.5623010396957397,-0.4992292523384094,-0.1718057245016098
1772698595409179100,4.87417919921875,-0.1487455666065216,-0.725860059261322,-0.07345648854970932
1772698595426525200,4.891525146484375,0.20799945294857025,-0.949436604976654,0.15012001991271973
1772698595443871500,4.90887158203125,0.3594939112663269,-1.0355684757232666,0.2942841053009033
1772698595461217500,4.926217529296875,0.2929096519947052,-0.9585995674133301,0.3352120518684387
1772698595478563800,4.943563720703125,0.10476330667734146,-0.6928733587265015,0.24724751710891724
1772698595495910000,4.960909912109375,-0.12125665694475174,-0.4277580678462982,0.08842267841100693
1772698595513256200,4.978256103515625,-0.2776380479335785,-0.23533566296100616,0.056657709181308746
1772698595530602200,4.995602294921875,-0.3601047992706299,0.0102319847792387,0.2637408673763275
1772698595547948500,5.012948486328125,-0.20677772164344788,0.33948808908462524,0.7463240623474121
1772698595565294600,5.030294677734375,0.17195843160152435,0.4237874448299408,1.3394737243652344
1772698595582640600,5.047640625,0.5439751148223877,0.11652245372533798,1.8544327020645142
1772698595599987000,5.064987060546875,0.7144063711166382,-0.24510949850082397,2.084117889404297
1772698595617333000,5.0823330078125,0.25442516803741455,-0.37583455443382263,1.994931697845459
1772698595634679300,5.09967919921875,-0.324063777923584,-0.30802857875823975,1.7475314140319824
1772698595652025300,5.117025390625,-0.19883649051189423,-0.12965604662895203,1.2777763605117798
1772698595669371600,5.13437158203125,0.057726722210645676,-0.735023021697998,0.42623090744018555
1772698595686717700,5.1517177734375,-0.18417572975158691,-0.8596394658088684,-0.19135339558124542
1772698595704064000,5.16906396484375,-0.36254823207855225,-0.5175551772117615,-0.4430296719074249
1772698595721410000,5.18641015625,-0.4199695289134979,-0.31413722038269043,-0.4839576184749603
1772698595738756400,5.20375634765625,-0.4260781705379486,-0.2890917658805847,-0.25549420714378357
1772698595756102400,5.221102294921875,-0.44318240880966187,-0.4094321131706238,-0.06612611562013626
1772698595773448700,5.23844873046875,-0.3271180987358093,-0.7631227970123291,-0.11316270381212234
1772698595790794800,5.255794677734375,-0.08765909820795059,-0.9048434495925903,-0.28787001967430115
1772698595808141000,5.27314111328125,0.07360920310020447,-0.8315396904945374,-0.2493855506181717
1772698595825487000,5.290487060546875,0.16768237948417664,-0.5212203860282898,-0.17058399319648743
1772698595842833400,5.30783349609375,0.3026835024356842,-0.19929464161396027,-0.23044873774051666
1772698595860179500,5.325179443359375,0.4584540128707886,-0.049632761627435684,-0.337350070476532
1772698595877525500,5.342525390625,0.6356047987937927,-0.0013744457392022014,-0.43203410506248474
1772698595894871800,5.359871826171875,0.766940712928772,0.04016435891389847,-0.4894554018974304
1772698595912217900,5.3772177734375,0.8255837559700012,0.09453132748603821,-0.4802924394607544
1772698595929564200,5.394564208984375,0.8182533979415894,0.17944152653217316,-0.45280352234840393
1772698595946910200,5.41191015625,0.8035926222801208,0.30711227655410767,-0.503505289554596
1772698595964256500,5.429256591796875,0.8378010392189026,0.45249807834625244,-0.6183478832244873
1772698595981602600,5.4466025390625,0.8121446967124939,0.5923861265182495,-0.6855430006980896
1772698595998948900,5.463948974609375,0.7058542370796204,0.8520036339759827,-0.6042979955673218
1772698596016295000,5.481294921875,0.4535670876502991,0.957072377204895,-0.38499751687049866
1772698596033641200,5.49864111328125,0.08460476994514465,0.957072377204895,-0.1314886510372162
1772698596050987300,5.5159873046875,-0.30024003982543945,0.7896954417228699,0.053603384643793106
1772698596068333600,5.53333349609375,-0.5225948095321655,0.9045380353927612,0.09697478264570236
1772698596085679600,5.5506796875,-0.47433650493621826,0.7695369124412537,0.10308343172073364
1772698596103026000,5.56802587890625,-0.31673339009284973,0.393244206905365,0.22220206260681152
1772698596120372000,5.5853720703125,-0.010690134018659592,0.040775224566459656,0.301003634929657
1772698596137718300,5.60271826171875,0.2684750556945801,-0.1418733447790146,0.23686282336711884
1772698596155064300,5.620064208984375,0.16829325258731842,-0.1204930767416954,0.13973531126976013
1772698596172410400,5.637410400390625,-1.0961968898773193,0.7506000995635986,0.3657552897930145
1772698596189756700,5.654756591796875,-1.8396192789077759,1.3577996492385864,0.2991710305213928
1772698596207102700,5.672102783203125,-1.2562434673309326,-0.32268932461738586,-0.37949973344802856
1772698596224449000,5.689448974609375,-0.7834340929985046,-0.8327614068984985,-0.92072594165802
1772698596241795000,5.706795166015625,-0.5189296007156372,0.14706569910049438,-0.6666061878204346
1772698596259141400,5.724141357421875,-0.27397283911705017,0.208152174949646,0.18005239963531494
1772698596276487400,5.7414873046875,-0.19211697578430176,-0.06307178735733032,0.8379537463188171
1772698596293833700,5.758833740234375,0.09498947113752365,0.22525638341903687,0.7035635113716125
1772698596311179800,5.7761796875,0.21838416159152985,0.40607234835624695,0.268627792596817
1772698596328526000,5.793526123046875,0.2837466895580292,0.679739773273468,-0.12415826320648193
1772698596345872100,5.8108720703125,0.3594939112663269,0.5636754631996155,-0.5120574235916138
1772698596363218400,5.828218505859375,0.4218021333217621,0.34437501430511475,-0.5908589363098145
1772698596380564500,5.845564453125,0.42302384972572327,0.31444263458251953,-0.5077813267707825
1772698596397910800,5.862910888671875,0.3808741867542267,0.6009382009506226,-0.4631882309913635
1772698596415256800,5.8802568359375,0.3546070158481598,0.9589049816131592,-0.42164942622184753
1772698596432603000,5.897602783203125,0.31001389026641846,0.8623883724212646,-0.3917170464992523
1772698596449949200,5.91494921875,0.25809037685394287,0.443945974111557,-0.4045451879501343
1772698596467295500,5.93229541015625,0.21716243028640747,0.10674861818552017,-0.4381427764892578
1772698596484641500,5.9496416015625,0.15485422313213348,-0.04474584385752678,-0.45707955956459045
1772698596501987600,5.966987548828125,-0.013133592903614044,-0.12110394239425659,-0.449138343334198
1772698596519334000,5.984333984375,-0.19150610268115997,-0.12904518842697144,-0.35995206236839294
1772698596536680000,6.001679931640625,-0.3326158821582794,-0.049632761627435684,-0.16997312009334564
1772698596554026200,6.019026123046875,-0.46395179629325867,0.002290742937475443,0.018784092739224434
1772698596571372300,6.036372314453125,-0.5152644515037537,0.004734201822429895,0.08536835014820099
1772698596588718600,6.053718505859375,-0.39370235800743103,-0.12660172581672668,0.09086613357067108
1772698596606064600,6.071064697265625,-0.08032871782779694,-0.3862192630767822,0.09208786487579346
1772698596623411000,6.088410888671875,0.2360992431640625,-0.735633909702301,0.11163553595542908
1772698596640757000,6.105757080078125,0.44440412521362305,-0.9072869420051575,0.145843967795372
1772698596658103300,6.123103271484375,0.37354379892349243,-0.7893900275230408,0.16783510148525238
1772698596675449300,6.140449462890625,0.032070402055978775,-0.4454731345176697,0.24297146499156952
1772698596692795600,6.157795654296875,-0.22693626582622528,0.018784092739224434,0.4909825623035431
1772698596710141700,6.1751416015625,-0.22999058663845062,0.16294817626476288,0.9747874736785889
1772698596727487700,6.19248779296875,0.061391908675432205,-0.1259908676147461,1.4976876974105835
1772698596744834000,6.209833984375,0.29535311460494995,-0.28176137804985046,1.7915136814117432
1772698596762180000,6.22718017578125,0.2306014597415924,-0.03558287397027016,1.8709261417388916
1772698596779526400,6.2445263671875,-0.05955931544303894,0.15867212414741516,1.6278018951416016
1772698596796872400,6.26187255859375,-0.006414080038666725,0.10919208079576492,1.0352630615234375
1772698596814218800,6.27921875,0.3637699782848358,-0.5273290276527405,0.43172869086265564
1772698596831565000,6.29656494140625,0.10415244847536087,-0.8455895781517029,-0.07406735420227051
1772698596848911000,6.3139111328125,-0.3222311735153198,-0.6421716213226318,-0.3862192630767822
1772698596866257400,6.33125732421875,-0.43279770016670227,-0.6348412036895752,-0.5542070865631104
1772698596883603500,6.348603515625,-0.35766133666038513,-0.3837758004665375,-0.5083922147750854
1772698596900949800,6.36594970703125,-0.18784092366695404,-0.33368489146232605,-0.20723587274551392
1772698596918295800,6.3832958984375,-0.10415244847536087,-0.5193877816200256,-0.06856957077980042
1772698596935642000,6.40064208984375,0.09132428467273712,-0.7838922142982483,-0.3092502951622009
1772698596952988200,6.41798828125,0.32039856910705566,-0.8633046746253967,-0.6195695996284485
1772698596970334200,6.435334228515625,0.4834994673728943,-0.7148644924163818,-0.7093667387962341
1772698596987680500,6.452680419921875,0.6191114783287048,-0.5187768936157227,-0.6226239204406738
1772698597005026600,6.470026611328125,0.7302888631820679,-0.35017824172973633,-0.5798633694648743
1772698597022372900,6.487372802734375,0.8536835312843323,-0.3165806829929352,-0.5945241451263428
1772698597039719000,6.504718994140625,0.9642500281333923,-0.31352636218070984,-0.6421716213226318
1772698597057065200,6.522065185546875,0.971580445766449,-0.17974695563316345,-0.6653844714164734
1772698597074411300,6.539411376953125,0.8897245526313782,0.0743727833032608,-0.5933024287223816
1772698597091757600,6.556757568359375,0.6178897023200989,0.5917752385139465,-0.5291616320610046
1772698597109103600,6.574103515625,0.28985533118247986,0.8752164840698242,-0.30802857875823975
1772698597126450000,6.591449951171875,0.13775001466274261,0.9069814682006836,-0.045967575162649155
1772698597143796000,6.6087958984375,0.07116574794054031,0.744491457939148,0.03527744114398956
1772698597161142300,6.626142333984375,-0.025961752980947495,0.6253728270530701,-0.08384118974208832
1772698597178488300,6.64348828125,-0.1029307171702385,0.4091266989707947,-0.10705405473709106
1772698597195834600,6.660834716796875,-0.08888082206249237,0.43722647428512573,0.009010255336761475
1772698597213180700,6.6781806640625,0.05283980444073677,0.4292852282524109,0.12385283410549164
1772698597230527000,6.69552685546875,0.20922118425369263,0.30344706773757935,0.22647811472415924
1772698597247873000,6.712873046875,0.16523891687393188,0.31444263458251953,0.21487168967723846
1772698597265219300,6.73021923828125,-0.5891790986061096,0.7292198538780212,0.22036947309970856
1772698597282565400,6.7475654296875,-1.6942334175109863,1.4616466760635376,0.2802342176437378
1772698597299911700,6.76491162109375,-2.0222678184509277,1.6736167669296265,-0.0032070400193333626
1772698597317257700,6.7822578125,-1.535408616065979,-0.2945895493030548,-0.3617846667766571
1772698597334604000,6.79960400390625,-1.1438442468643188,-0.39416050910949707,-0.790000855922699
1772698597351950000,6.8169501953125,-0.712573766708374,0.13973531126976013,-0.5438223481178284
1772698597369296400,6.83429638671875,-0.35582873225212097,0.32849252223968506,0.3303251266479492
1772698597386642400,6.851642333984375,-0.1340848207473755,0.39018988609313965,0.7163916826248169
1772698597403988700,6.86898876953125,0.3081812858581543,0.5997164845466614,0.34987279772758484
1772698597421334800,6.886334716796875,0.6026180982589722,0.9094249606132507,-0.12293653935194016
1772698597438681000,6.90368115234375,0.6716458201408386,1.3425281047821045,-0.3568977415561676
1772698597456027100,6.921027099609375,0.5983420610427856,1.1311688423156738,-0.31902414560317993
1772698597473373400,6.93837353515625,0.49144071340560913,0.596662163734436,-0.25121814012527466
1772698597490719500,6.955719482421875,0.3692677617073059,0.4335612654685974,-0.4332558512687683
1772698597508065800,6.973065673828125,0.3173442482948303,0.5453495383262634,-0.7417425513267517
1772698597525411800,6.990411865234375,0.2629773020744324,0.9753983616828918,-1.0459532737731934
1772698597542758100,7.007758056640625,0.1792888194322586,1.208748698234558,-1.1100940704345703
1772698597560104200,7.025104248046875,0.13225223124027252,1.068860650062561,-0.9677625298500061
1772698597577450500,7.042450439453125,0.13530655205249786,0.6082686185836792,-0.8516982197761536
1772698597594796500,7.059796630859375,0.15729768574237823,0.2484692484140396,-0.8578068614006042
1772698597612142600,7.077142578125,0.10842850059270859,0.15256348252296448,-0.9195042252540588
1772698597629489000,7.094489013671875,0.026572618633508682,0.1879936307668686,-0.9561560750007629
1772698597646835000,7.1118349609375,-0.04367683082818985,0.3095557391643524,-0.8846849203109741
1772698597664181200,7.12918115234375,-0.1127045527100563,0.3981311321258545,-0.725860059261322
1772698597681527300,7.14652734375,-0.19333870708942413,0.4757109582424164,-0.6116283535957336
1772698597698873600,7.16387353515625,-0.12431098520755768,0.23441936075687408,-0.5352702736854553
1772698597716219600,7.1812197265625,-0.02412915788590908,0.15928299725055695,-0.5138899683952332
1772698597733566000,7.19856591796875,-0.0027488914784044027,0.16661337018013,-0.5279398560523987
1772698597750912000,7.215912109375,-0.022907428443431854,0.2484692484140396,-0.5279398560523987
1772698597768258300,7.23325830078125,-0.08093958348035812,0.24541492760181427,-0.5267181396484375
1772698597785604400,7.250604248046875,-0.16035200655460358,0.21487168967723846,-0.540768027305603
1772698597802950700,7.26795068359375,-0.24342961609363556,0.4243983030319214,-0.4692968726158142
1772698597820296700,7.285296630859375,-0.2782489061355591,0.48792824149131775,-0.28725916147232056
1772698597837643000,7.30264306640625,-0.14569124579429626,0.5233584046363831,-0.036193739622831345
1772698597854989000,7.319989013671875,0.03145953640341759,0.48914995789527893,0.11285726726055145
1772698597872335400,7.33733544921875,0.15607595443725586,0.2863428592681885,0.00045814859913662076
1772698597889681400,7.354681396484375,0.10659590363502502,-0.055741410702466965,-0.34468045830726624
1772698597907027700,7.37202783203125,0.12186752259731293,-0.8590285778045654,-1.0435097217559814
1772698597924373800,7.389373779296875,0.961195707321167,-0.6482802629470825,-0.5994110703468323
1772698597941720000,7.406719970703125,1.9135339260101318,-0.3837758004665375,1.2374593019485474
1772698597959066000,7.424066162109375,2.0247113704681396,-1.223714828491211,2.5550947189331055
1772698597976412400,7.441412353515625,1.3338232040405273,-1.6409355401992798,2.671769857406616
1772698597993758500,7.458758544921875,0.19089524447917938,-1.4906628131866455,2.299142360687256
1772698598011104800,7.476104736328125,-0.6618719696998596,-1.2964078187942505,1.7090469598770142
1772698598028450800,7.493450927734375,-0.9630283117294312,-1.0001384019851685,1.272889494895935
1772698598045797000,7.510797119140625,-1.1310161352157593,-0.819322407245636,1.107956051826477
1772698598063143200,7.52814306640625,-1.21287202835083,-0.9323323965072632,1.0157153606414795
1772698598080489500,7.545489501953125,-1.027169108390808,-1.399643898010254,0.8477275967597961
1772698598097835500,7.56283544921875,-0.7480039000511169,-1.8944443464279175,0.6223185062408447
1772698598115181800,7.580181884765625,-0.48472121357917786,-1.9518656730651855,0.43722647428512573
1772698598132527900,7.59752783203125,-0.38759371638298035,-1.652541995048523,0.28695371747016907
1772698598149874200,7.614874267578125,-0.3484983444213867,-1.6555962562561035,0.2955058515071869
1772698598167220200,7.63222021484375,-0.23854269087314606,-1.7356195449829102,0.3871355652809143
1772698598184566500,7.64956640625,-0.07544180005788803,-1.623220443725586,0.4286743700504303
1772698598201912600,7.66691259765625,0.0925460159778595,-1.3715441226959229,0.37858346104621887
1772698598219259000,7.6842587890625,0.2666424810886383,-1.2163845300674438,0.3065013885498047
1772698598236605000,7.70160498046875,0.3863719701766968,-1.0655008554458618,0.18677189946174622
1772698598253951200,7.718951171875,0.44868019223213196,-0.8645263910293579,0.07009673118591309
1772698598271297300,7.73629736328125,0.5036579966545105,-0.6641627550125122,0.031612250953912735
1772698598288643600,7.7536435546875,0.572685718536377,-0.4943423271179199,0.019394956529140472
1772698598305989600,7.77098974609375,0.6062833070755005,-0.3251327872276306,-0.042913250625133514
1772698598323336000,7.7883359375,0.5647444725036621,-0.26221370697021484,-0.11377356201410294
1772698598340682200,7.80568212890625,0.44379326701164246,-0.40088000893592834,-0.05146535858511925
1772698598358028300,7.8230283203125,0.24709481000900269,-0.5096139311790466,0.12996147572994232
1772698598375374600,7.84037451171875,0.08949168771505356,-0.5749764442443848,0.3779725730419159
1772698598392720600,7.857720703125,-0.060781046748161316,-0.4894554018974304,0.5697841048240662
1772698598410067000,7.87506689453125,-0.2306014597415924,-0.5426006317138672,0.5948295593261719
1772698598427413000,7.8924130859375,-0.3338375985622406,-0.88285231590271,0.4176788032054901
1772698598444759300,7.90975927734375,-0.21777328848838806,-1.0251837968826294,0.06826414167881012
1772698598462105300,7.927105224609375,0.14752385020256042,-0.7637336850166321,-0.40698865056037903
1772698598479451600,7.94445166015625,0.2929096519947052,0.15561780333518982,-0.5841394662857056
1772698598496797700,7.961797607421875,-0.29962918162345886,0.8605557680130005,-0.5462658405303955
1772698598514144000,7.97914404296875,-1.2263110876083374,0.8782708644866943,-0.46257734298706055
1772698598531490000,7.996489990234375,-2.000276803970337,-0.2548833191394806,0.005955931730568409
1772698598548836400,8.01383642578125,-2.3173155784606934,0.06276635825634003,-0.18646647036075592
1772698598566182400,8.031182373046875,-1.6325361728668213,-0.3819431960582733,-0.5994110703468323
1772698598583528700,8.04852880859375,-0.4566214084625244,-0.9482148289680481,-0.9048434495925903
1772698598600874800,8.065874755859374,0.4205803871154785,-1.0972658395767212,-0.8126028776168823
1772698598618221000,8.083220947265625,0.722347617149353,-0.8541416525840759,-0.13393209874629974
1772698598635567400,8.1005673828125,0.7168498039245605,-0.19868376851081848,0.004123337101191282
1772698598652913400,8.117913330078125,0.6863065958023071,0.04810560122132301,-0.23655737936496735
1772698598670259700,8.135259765625,0.48594292998313904,0.11102467030286789,-0.31413722038269043
1772698598687605800,8.152605712890624,0.19150610268115997,0.34498587250709534,-0.36483898758888245
1772698598704952000,8.1699521484375,-0.19944734871387482,0.6626355648040771,-0.3764454126358032
1772698598722298000,8.187298095703126,-0.1438586562871933,0.9894482493400574,-0.3379609286785126
1772698598739644400,8.20464453125,0.16707152128219604,0.9454659819602966,-0.26648977398872375
1772698598756990500,8.221990478515625,0.3912588953971863,0.651029109954834,-0.1931859850883484
1772698598774336800,8.239336669921874,0.4419606626033783,0.5746710300445557,-0.10705405473709106
1772698598791682800,8.256682861328125,0.33628106117248535,0.7780889868736267,-0.10949750989675522
1772698598809029000,8.274029052734376,0.18173226714134216,0.9870047569274902,-0.14859285950660706
1772698598826375200,8.291375244140625,0.025350889191031456,1.0206023454666138,-0.1724165827035904
1772698598843721500,8.308721435546875,-0.035124726593494415,0.9747874736785889,-0.23228132724761963
1772698598861067500,8.326067626953124,-0.03695731982588768,0.9827287197113037,-0.3202458620071411
1772698598878413800,8.343413818359375,-0.03390299528837204,1.0847431421279907,-0.33490660786628723
1772698598895760100,8.360760009765626,-0.04062250629067421,1.2191333770751953,-0.27320927381515503
1772698598913106200,8.378106201171875,-0.06383536756038666,1.2948806285858154,-0.21151192486286163
1772698598930452200,8.3954521484375,-0.07788526266813278,1.3028218746185303,-0.11621702462434769
1772698598947798500,8.412798583984374,-0.06505709886550903,1.3327542543411255,0.002290742937475443
1772698598965144600,8.43014453125,-0.051618073135614395,1.337030291557312,0.11102467030286789
1772698598982491000,8.447490966796876,-0.10231985151767731,1.2270746231079102,0.19410228729248047
1772698598999837200,8.464837158203125,-0.22510367631912231,1.1012364625930786,0.2179260104894638
1772698599017183200,8.482183349609375,-0.36193737387657166,0.9735657572746277,0.19471314549446106
1772698599034529500,8.499529541015624,-0.45906487107276917,0.7664825916290283,0.0591011680662632
1772698599051875600,8.51687548828125,-0.4944950342178345,0.46288278698921204,-0.17302745580673218
1772698599069222000,8.534221923828126,-0.425467312335968,0.17027856409549713,-0.33918267488479614
1772698599086568000,8.55156787109375,-0.2880227565765381,-0.05329795181751251,-0.32757624983787537
1772698599103914200,8.568914306640625,-0.25931209325790405,-0.32757624983787537,-0.17791436612606049
1772698599121260300,8.58626025390625,-0.4004218578338623,-0.44791659712791443,-0.010537417605519295
1772698599138606600,8.603606689453125,-0.4761691093444824,-0.12660172581672668,-0.05329795181751251
1772698599155952600,8.62095263671875,-0.3601047992706299,0.017562363296747208,-0.1253799945116043
1772698599173299000,8.638298828125,-0.2202167510986328,-0.06795870512723923,-0.10766492038965225
1772698599190645000,8.65564501953125,-0.07360920310020447,-0.191964253783226,0.013286309316754341
1772698599207991300,8.6729912109375,-0.08949168771505356,-0.13271036744117737,0.17944152653217316
1772698599225337600,8.690337646484375,-0.14263692498207092,0.07315105944871902,0.33337944746017456
1772698599242683600,8.70768359375,-0.0717766135931015,0.29367324709892273,0.5563451051712036
1772698599260030000,8.725030029296875,0.12614357471466064,0.281455934047699,0.817184329032898
1772698599277376000,8.7423759765625,0.4725039005279541,0.06215549260377884,1.1476621627807617
1772698599294722300,8.759722412109374,0.777325451374054,-0.3000873327255249,1.5086833238601685
1772698599312068400,8.777068359375,0.9819651246070862,-0.74540776014328,1.736535906791687
1772698599329414700,8.79441455078125,0.952643632888794,-0.892626166343689,1.8507676124572754
1772698599346761000,8.811760986328125,0.7449495792388916,-0.6519454121589661,1.6571234464645386
1772698599364107000,8.82910693359375,0.4224129915237427,-0.4247037470340729,1.1055124998092651
1772698599381453300,8.846453369140624,-0.14508038759231567,-0.3379609286785126,0.4964803457260132
1772698599398799400,8.86379931640625,-0.3607156574726105,-0.42959064245224,0.08842267841100693
1772698599416145700,8.881145751953126,-0.3020726442337036,-0.7044798135757446,0.057268574833869934
1772698599433491700,8.89849169921875,-0.06750056147575378,-0.6201804876327515,-0.0013744457392022014
1772698599450838000,8.915838134765625,0.13469567894935608,-0.42653632164001465,-0.12843431532382965
1772698599468184000,8.93318408203125,0.13530655205249786,-0.4332558512687683,-0.2444986253976822
1772698599485530400,8.9505302734375,0.08826996386051178,-0.4442514181137085,-0.40637779235839844
1772698599502876400,8.96787646484375,0.044898562133312225,-0.49739664793014526,-0.4864010810852051
1772698599520222700,8.98522265625,0.04917461425065994,-0.5151117444038391,-0.4705185890197754
1772698599537569000,9.002569091796875,0.1432477980852127,-0.48273590207099915,-0.4247037470340729
1772698599554915000,9.0199150390625,0.30512696504592896,-0.36544984579086304,-0.38927358388900757
1772698599572261400,9.037261474609375,0.4834994673728943,-0.17913609743118286,-0.3410152494907379
1772698599589607400,9.054607421875,0.6331613659858704,-0.011759147047996521,-0.24755294620990753
1772698599606953700,9.07195361328125,0.703410804271698,0.11713331937789917,-0.15042544901371002
1772698599624299800,9.0892998046875,0.7070759534835815,0.2857320010662079,-0.09117157012224197
1772698599641646000,9.10664599609375,0.6899717450141907,0.47326749563217163,-0.07712167501449585
1772698599658992000,9.1239921875,0.6966912746429443,0.6272054314613342,-0.09605848789215088
1772698599676338400,9.14133837890625,0.7443387508392334,0.6748528480529785,-0.15775582194328308
1772698599693684700,9.158684814453125,0.7754928469657898,0.7328850030899048,-0.26710063219070435
1772698599711030800,9.17603076171875,0.7785471677780151,0.9088140726089478,-0.4094321131706238
1772698599728377000,9.193377197265624,0.8335250020027161,1.067638874053955,-0.48273590207099915
1772698599745723100,9.21072314453125,0.8610138893127441,1.0792453289031982,-0.4179842174053192
1772698599763069400,9.2280693359375,0.6667588949203491,0.7939714789390564,-0.16936226189136505
1772698599780415700,9.245415771484375,0.1585194170475006,0.4702131748199463,0.1262962967157364
1772698599797761800,9.26276171875,-0.43951719999313354,0.46776971220970154,0.2759581506252289
1772698599815108000,9.280108154296874,-0.8701768517494202,0.37980517745018005,0.28756460547447205
1772698599832454100,9.2974541015625,-0.8659008145332336,0.3321577310562134,0.18310672044754028
1772698599849800400,9.314800537109376,-0.509155809879303,0.4897608458995819,0.04932733252644539
1772698599867146500,9.332146484375,-0.19944734871387482,0.3926333487033844,0.1623373180627823
1772698599884492800,9.349492919921875,-0.20311254262924194,0.3565923273563385,0.5416843295097351
1772698599901838800,9.3668388671875,-0.9703587293624878,0.06154462695121765,1.410944938659668
1772698599919185200,9.38418505859375,-1.570227861404419,0.18555018305778503,0.7383828163146973
1772698599936531500,9.401531494140626,-2.0045528411865234,-0.34895649552345276,-0.7130318880081177
1772698599953877500,9.41887744140625,-1.979507327079773,-0.595745861530304,-1.4320197105407715
1772698599971223800,9.436223876953125,-1.5195261240005493,0.4329504072666168,-0.8639155030250549
1772698599988569900,9.45356982421875,-0.8176425099372864,-0.2646571695804596,0.3627009689807892
1772698600005916200,9.470916259765625,0.24342961609363556,-0.2591593861579895,1.1543817520141602
1772698600023262200,9.48826220703125,0.6429351568222046,0.12263110280036926,1.093906044960022
1772698600040608500,9.5056083984375,0.5690205693244934,0.846505880355835,0.31932955980300903
1772698600057954800,9.522954833984375,0.3228420317173004,0.928972601890564,-0.4961749315261841
1772698600075300900,9.54030078125,0.24342961609363556,0.10980294644832611,-0.8987348079681396
1772698600092647200,9.557647216796875,0.021685699000954628,-0.006872228812426329,-0.9628756046295166
1772698600109993200,9.5749931640625,-0.21777328848838806,0.4189005196094513,-0.8297070860862732
1772698600127339500,9.592339599609375,-0.05711585655808449,0.9796743988990784,-0.7270817756652832
1772698600144685600,9.609685546875,0.14630211889743805,1.3461933135986328,-0.6989820003509521
1772698600162031900,9.627031982421874,0.12980876863002777,0.9882264733314514,-0.5309942364692688
1772698600179378000,9.6443779296875,0.16035200655460358,0.38530296087265015,-0.3477347791194916
1772698600196724200,9.66172412109375,0.1847866028547287,0.021838415414094925,-0.29153522849082947
1772698600214070500,9.679070556640625,0.12736530601978302,-0.3312414288520813,-0.2744309902191162
1772698600231416600,9.69641650390625,-0.041844237595796585,-0.4894554018974304,-0.3361283540725708
1772698600248763000,9.713762939453124,-0.14202606678009033,-0.4405862092971802,-0.4503600597381592
1772698600266109000,9.73110888671875,-0.189673513174057,-0.33979353308677673,-0.4503600597381592
1772698600283455200,9.748455322265626,-0.2208276242017746,-0.2811505198478699,-0.2750418782234192
1772698600300801500,9.765801513671875,-0.2623664140701294,-0.24816381931304932,-0.03375028073787689
1772698600318147600,9.783147705078125,-0.3191768527030945,-0.3220784664154053,0.0896444097161293
1772698600335494000,9.800493896484374,-0.37171122431755066,-0.4790706932544708,0.044440411031246185
1772698600352840000,9.81783984375,-0.3381136655807495,-0.652556300163269,-0.11133010685443878
1772698600370186200,9.835186279296876,-0.19089524447917938,-0.754570722579956,-0.22495095431804657
1772698600387532300,9.8525322265625,-0.011911863461136818,-0.8565851449966431,-0.21395538747310638
1772698600404878600,9.869878662109375,0.11148282140493393,-0.9604321718215942,-0.12293653935194016
1772698600422225000,9.887224853515624,0.1182023361325264,-0.81810063123703,0.04993819445371628
1772698600439571000,9.904571044921875,0.07299833744764328,-0.6159043908119202,0.2331976294517517
1772698600456917200,9.921917236328126,0.05833758786320686,-0.49861836433410645,0.3272708058357239
1772698600474263300,9.93926318359375,0.047952886670827866,-0.3721693754196167,0.27779075503349304
1772698600491609600,9.956609619140625,0.013133592903614044,-0.23716825246810913,0.1971566081047058
1772698600508956000,9.973955810546874,-0.06322450190782547,0.0010690133785828948,0.21914774179458618
1772698600526302000,9.991302001953125,-0.12553271651268005,0.45249807834625244,0.5221366882324219
1772698600543648300,10.008648193359376,-0.010079269297420979,0.6650790572166443,1.0914626121520996
1772698600560994300,10.025994384765625,0.31612253189086914,0.32849252223968506,1.7224860191345215
1772698600578340600,10.043340576171875,0.6569850444793701,-0.1406516134738922,1.9992077350616455
1772698600595686700,10.060686767578124,0.5769617557525635,-0.3972148299217224,2.0218098163604736
1772698600613033000,10.078032958984375,0.2788597643375397,-0.4497492015361786,2.0211987495422363
1772698600630379300,10.095379150390626,-0.05833758786320686,-0.5523744821548462,1.6620103120803833
1772698600647725300,10.112725341796875,-0.17867794632911682,-0.48273590207099915,0.5795579552650452
1772698600665071600,10.130071533203125,-0.4169152081012726,-0.5645917654037476,-0.5517635941505432
1772698600682417700,10.147417724609374,-0.45539969205856323,-0.725860059261322,-0.9482148289680481
1772698600699764000,10.164763916015625,-0.34788748621940613,-0.725860059261322,-0.4796815812587738
1772698600717110300,10.1821103515625,-0.2257145345211029,-0.337350070476532,0.12202023714780807
1772698600734456300,10.199456298828125,-0.11331541836261749,-0.2542724609375,0.3407098352909088
1772698600751802600,10.216802734375,-0.03390299528837204,-0.3000873327255249,0.12202023714780807
1772698600769149000,10.23414892578125,0.04062250629067421,-0.4754055142402649,-0.2652680277824402
1772698600786495000,10.251494873046875,0.10965022444725037,-0.5670352578163147,-0.5371028780937195
1772698600803841300,10.26884130859375,0.22937972843647003,-0.48212501406669617,-0.6275108456611633
1772698600821187300,10.286187255859375,0.38698282837867737,-0.30863943696022034,-0.623845636844635
1772698600838533600,10.30353369140625,0.5574141144752502,-0.11316270381212234,-0.5694786906242371
1772698600855879700,10.320879638671874,0.7168498039245605,0.05299251899123192,-0.4650208055973053
1772698600873226000,10.33822607421875,0.8035926222801208,0.10735948383808136,-0.36361727118492126
1772698600890572300,10.355572265625,0.795040488243103,0.14278964698314667,-0.33001968264579773
1772698600907918300,10.37291845703125,0.8109229803085327,0.16844595968723297,-0.37400195002555847
1772698600925264600,10.3902646484375,0.8237511515617371,0.18493930995464325,-0.45769044756889343
1772698600942610700,10.407610595703124,0.7803797721862793,0.32849252223968506,-0.47723811864852905
1772698600959957000,10.42495703125,0.6575959324836731,0.5196931958198547,-0.3733910918235779
1772698600977303300,10.44230322265625,0.4053087830543518,0.5838339924812317,-0.1821904182434082
1772698600994649300,10.4596494140625,0.026572618633508682,0.38957902789115906,0.031612250953912735
1772698601011995600,10.47699560546875,-0.4010327160358429,0.1971566081047058,0.18616104125976562
1772698601029342000,10.494342041015624,-0.6985238790512085,0.24113887548446655,0.145843967795372
1772698601046688000,10.51168798828125,-0.7571669220924377,0.48304131627082825,0.08597921580076218
1772698601064034300,10.529034423828126,-0.45539969205856323,0.6131555438041687,0.06765327602624893
1772698601081380400,10.54638037109375,-0.0412333719432354,0.31932955980300903,0.07070759683847427
1772698601098726700,10.5637265625,0.3222311735153198,-0.18829907476902008,0.16844595968723297
1772698601116072700,10.58107275390625,0.4633409380912781,-0.4338667094707489,0.1415679156780243
1772698601133419000,10.5984189453125,-0.406530499458313,0.2386954128742218,0.3510945439338684
1772698601150765300,10.615765380859376,-1.5219695568084717,0.8226821422576904,0.6754637360572815
1772698601168111400,10.633111328125,-1.6679662466049194,0.6583595275878906,-0.39477136731147766
1772698601185457700,10.650457763671875,-1.0723731517791748,-0.4137081801891327,-1.1797325611114502
1772698601202804000,10.667803955078124,-0.5445859432220459,0.12324196845293045,-1.2493711709976196
1772698601220150000,10.68514990234375,-0.09682206809520721,0.3046688139438629,-0.4027126133441925
1772698601237496300,10.702496337890626,-0.04306596517562866,0.24480405449867249,0.5801688432693481
1772698601254842400,10.71984228515625,0.21899501979351044,0.32421648502349854,0.7903063297271729
1772698601272188700,10.737188720703125,0.39370235800743103,0.310166597366333,0.41034841537475586
1772698601289535000,10.754534912109374,0.3484983444213867,0.35048365592956543,-0.10705405473709106
1772698601306881000,10.771881103515625,0.19089524447917938,0.37491825222969055,-0.32818710803985596
1772698601324227300,10.789227294921876,0.16646064817905426,0.28206682205200195,-0.5206094980239868
1772698601341573400,10.806573486328125,0.19394956529140472,0.268627792596817,-0.6580541133880615
1772698601358919700,10.823919677734375,0.3228420317173004,0.41462448239326477,-0.6830995678901672
1772698601376266000,10.841265869140624,0.46028661727905273,0.7023417949676514,-0.6562215089797974
1772698601393612000,10.858612060546875,0.4321868419647217,0.8617774844169617,-0.5719221234321594
1772698601410958300,10.875958251953126,0.3094030022621155,0.7872520089149475,-0.48273590207099915
1772698601428304400,10.893304443359375,0.1444695144891739,0.6168206930160522,-0.44791659712791443
1772698601445650700,10.910650634765625,-0.05345066636800766,0.47815442085266113,-0.42959064245224
1772698601462997000,10.9279970703125,-0.210442915558815,0.3633118271827698,-0.39416050910949707
1772698601480343000,10.945343017578125,-0.3094030022621155,0.2680169343948364,-0.33979353308677673
1772698601497689300,10.962689453125,-0.4419606626033783,0.1519526094198227,-0.23167046904563904
1772698601515035400,10.980035400390625,-0.6172788739204407,0.02611446939408779,-0.09117157012224197
1772698601532381700,10.997381591796875,-0.7070759534835815,-0.052687086164951324,0.01511890348047018
1772698601549728000,11.01472802734375,-0.5732966065406799,-0.2078467458486557,0.04199695214629173
1772698601567074000,11.032073974609375,-0.16768237948417664,-0.40149086713790894,0.09330959618091583
1772698601584420400,11.04942041015625,0.29474225640296936,-0.6128500699996948,0.2136499583721161
1772698601601766400,11.066766357421875,0.5232056975364685,-0.8883501291275024,0.26618432998657227
1772698601619112700,11.08411279296875,0.499381959438324,-1.123533010482788,0.19471314549446106
1772698601636459000,11.101458984375,0.17134757339954376,-0.984255850315094,0.15561780333518982
1772698601653805000,11.11880517578125,-0.2831358313560486,-0.44241881370544434,0.18005239963531494
1772698601671151400,11.1361513671875,-0.527481734752655,-0.03130681812763214,0.22036947309970856
1772698601688497700,11.15349755859375,-0.4376846253871918,0.2130390852689743,0.5465712547302246
1772698601705843700,11.17084375,-0.12675444781780243,0.28756460547447205,1.1128429174423218
1772698601723190000,11.18818994140625,0.34177884459495544,0.06337722390890121,1.6949970722198486
1772698601740536300,11.205536376953125,0.8530726432800293,-0.033139415085315704,2.0499095916748047
1772698601757882400,11.22288232421875,0.8512400984764099,-0.36911505460739136,2.2276711463928223
1772698601775228700,11.240228759765625,0.4224129915237427,-0.6116283535957336,2.1305437088012695
1772698601792575000,11.257574951171875,0.10231985151767731,-0.6030762791633606,1.5435025691986084
1772698601809921000,11.274921142578124,-0.11881320178508759,-0.7234166264533997,0.3217730224132538
1772698601827267300,11.292267333984375,-0.6154462695121765,-0.7209731340408325,-0.6354520916938782
1772698601844613400,11.30961328125,-0.7174606919288635,-0.7790052890777588,-0.8565851449966431
1772698601861959700,11.326959716796875,-0.6704241037368774,-0.5878046154975891,-0.3061959743499756
1772698601879306000,11.344305908203125,-0.6832522749900818,0.1409570425748825,0.6791289448738098
1772698601896652000,11.361652099609374,-0.7614429593086243,0.001679878099821508,0.5258018374443054
1772698601913998300,11.378998291015625,0.19333870708942413,-0.19379685819149017,-0.6110175251960754
1772698601931344600,11.3963447265625,0.8414662480354309,-1.224936604499817,-0.5694786906242371
1772698601948690700,11.413690673828125,0.8164207935333252,-0.8956804871559143,-0.09239330142736435
1772698601966037000,11.431037109375,0.6313287615776062,0.2582430839538574,-0.34895649552345276
1772698601983383300,11.44838330078125,0.3802633285522461,1.0248783826828003,-0.8168789148330688
1772698602000729300,11.465729248046875,0.12492185086011887,0.5887209177017212,-0.9714277386665344
1772698602018075600,11.48307568359375,0.32650721073150635,-0.2646571695804596,-0.8681915402412415
1772698602035422000,11.500421875,0.5543597936630249,-0.3568977415561676,-0.9078977704048157
1772698602052768000,11.51776806640625,0.7137954831123352,0.1055268943309784,-0.9237802624702454
1772698602070114300,11.5351142578125,0.766940712928772,0.7683151960372925,-0.7619010806083679
1772698602087460400,11.55246044921875,0.7693842053413391,1.1250602006912231,-0.4497492015361786
1772698602104806700,11.569806640625,0.7302888631820679,1.1684316396713257,-0.20662501454353333
1772698602122153000,11.587153076171875,0.5635227560997009,0.9320269227027893,-0.24327689409255981
1772698602139499000,11.6044990234375,0.17745621502399445,0.5807796716690063,-0.35873034596443176
1772698602156845300,11.62184521484375,-0.26542073488235474,0.14828743040561676,-0.23716825246810913
1772698602174191600,11.639191650390625,-0.5323686599731445,0.002901607658714056,-0.08872810751199722
1772698602191537700,11.65653759765625,-0.40775224566459656,-0.09361502528190613,0.10797034949064255
1772698602208884000,11.673884033203125,-0.03390299528837204,0.004734201822429895,0.3119991719722748
1772698602226230300,11.691230224609376,0.3643808364868164,0.0743727833032608,0.402407169342041
1772698602243576300,11.708576416015624,0.5971203446388245,-0.04535670951008797,0.3480401933193207
1772698602260922600,11.725922607421875,0.189673513174057,-0.13454297184944153,0.18555018305778503
1772698602278269000,11.74326904296875,-0.9984585046768188,0.16905683279037476,0.1262962967157364
1772698602295615000,11.760614990234375,-1.76875901222229,1.098182201385498,-0.09850194305181503
1772698602312961300,11.777961181640626,-1.5531237125396729,-0.1314886510372162,-0.7521272301673889
1772698602330307300,11.795307373046874,-1.0149518251419067,-0.4289797842502594,-1.2261583805084229
1772698602347653600,11.812653564453125,-1.010064959526062,0.21181736886501312,-0.8126028776168823
1772698602365000000,11.83,-0.777325451374054,0.27717989683151245,0.15806126594543457
1772698602382346000,11.847345947265625,-0.30451610684394836,0.23258677124977112,0.6998983025550842
1772698602399692300,11.8646923828125,0.6459894776344299,0.1672242283821106,0.5355756878852844
1772698602417038600,11.88203857421875,1.0619884729385376,0.4066832363605499,-0.09178243577480316
1772698602434384600,11.899384521484375,0.9581413865089417,0.8721621632575989,-0.35506516695022583
1772698602451731000,11.91673095703125,0.5513054728507996,0.6736311316490173,-0.22678354382514954
1772698602469077200,11.9340771484375,0.3387245237827301,0.3572031855583191,-0.2787070572376251
1772698602486423300,11.95142333984375,0.12492185086011887,0.4543306827545166,-0.5829176902770996
1772698602503769600,11.96876953125,-0.021685699000954628,0.9399681687355042,-0.9610430002212524
1772698602521116000,11.986115966796875,0.05406153202056885,1.3529127836227417,-1.1388046741485596
1772698602538462000,12.0034619140625,0.14630211889743805,1.4139991998672485,-1.0441206693649292
1772698602555808300,12.020808349609375,0.16035200655460358,0.9595158696174622,-0.8663589954376221
1772698602573154300,12.038154296875,0.10109812021255493,0.4243983030319214,-0.7533490061759949
1772698602590500600,12.05550048828125,-0.10354158282279968,0.12996147572994232,-0.7490729093551636
1772698602607847000,12.072846923828125,-0.2868010103702545,0.24297146499156952,-0.8321505188941956
1772698602625193000,12.09019287109375,-0.19394956529140472,0.45249807834625244,-0.8559742569923401
1772698602642539300,12.107539306640625,-0.08949168771505356,0.4610501825809479,-0.6947059631347656
1772698602659885600,12.124885498046876,-0.03023780696094036,0.3572031855583191,-0.4430296719074249
1772698602677231600,12.142231689453125,0.016798781231045723,0.18005239963531494,-0.32818710803985596
1772698602694578000,12.159577880859375,0.011911863461136818,-0.012980876490473747,-0.4686860144138336
1772698602711924200,12.17692431640625,-0.08582650125026703,-0.12904518842697144,-0.7154753804206848
1772698602729270300,12.194270263671875,-0.20922118425369263,-0.17486004531383514,-0.8327614068984985
1772698602746616600,12.211616455078126,-0.2782489061355591,-0.20601414144039154,-0.799163818359375
1772698602763963000,12.228962890625,-0.15118902921676636,-0.07528908550739288,-0.551152765750885
1772698602781309000,12.246308837890625,0.10720676928758621,0.38102689385414124,-0.0899498388171196
1772698602798655200,12.2636552734375,0.41874781250953674,0.8758273720741272,0.44211336970329285
1772698602816001500,12.28100146484375,0.5610793232917786,1.0163263082504272,0.6137663722038269
1772698602833347600,12.29834765625,0.2568686306476593,0.7377719283103943,0.2643517255783081
1772698602850694000,12.31569384765625,-0.22266021370887756,0.5936078429222107,-0.2756527364253998
1772698602868040000,12.3330400390625,-0.5580250024795532,0.1207985132932663,-1.0306816101074219
1772698602885386200,12.35038623046875,-0.47067132592201233,-0.9781472086906433,-1.9536982774734497
1772698602902732500,12.367732666015625,0.5451968312263489,-0.26771149039268494,-1.0569487810134888
1772698602920078600,12.38507861328125,1.8371758460998535,0.23136503994464874,1.4995203018188477
1772698602937425000,12.4024248046875,2.0741913318634033,-0.7881683111190796,3.065166711807251
1772698602954771200,12.419771240234375,1.5916081666946411,-1.6568180322647095,3.241706609725952
1772698602972117500,12.437117431640624,0.7425061464309692,-1.8907792568206787,2.6503896713256836
1772698602989463600,12.454463623046875,-0.3631591200828552,-1.4906628131866455,1.8935281038284302
1772698603006809900,12.471809814453126,-0.8988875150680542,-1.3489421606063843,1.1934770345687866
1772698603024156200,12.48915625,-1.1029163599014282,-1.4967714548110962,0.6834049820899963
1772698603041502200,12.506502197265625,-1.1572833061218262,-1.707519769668579,0.41584619879722595
1772698603058848500,12.5238486328125,-0.9911280870437622,-2.023336887359619,0.41584619879722595
1772698603076194800,12.54119482421875,-0.6771436333656311,-2.033721685409546,0.6913462281227112
1772698603093540900,12.558540771484376,-0.4627300798892975,-1.800982117652893,1.001665472984314
1772698603110887200,12.57588720703125,-0.27030766010284424,-1.6470441818237305,1.0071632862091064
1772698603128233500,12.5932333984375,-0.1701258420944214,-1.6409355401992798,0.8000801205635071
1772698603145579500,12.61057958984375,-0.07422006875276566,-1.6898046731948853,0.5288561582565308
1772698603162925800,12.62792578125,0.14813470840454102,-1.5694643259048462,0.3315468728542328
1772698603180272000,12.645272216796876,0.4010327160358429,-1.3605486154556274,0.34926193952560425
1772698603197618200,12.6626181640625,0.5451968312263489,-1.177899956703186,0.40057456493377686
1772698603214964500,12.679964599609375,0.5586358308792114,-0.8938478827476501,0.1928805559873581
1772698603232310800,12.697310791015624,0.6539307236671448,-0.8083268404006958,-0.12904518842697144
1772698603249656800,12.71465673828125,0.7706059217453003,-0.8327614068984985,-0.35384342074394226
1772698603267003100,12.732003173828126,0.8390227556228638,-0.6568323373794556,-0.32452189922332764
1772698603284349400,12.749349365234375,0.8414662480354309,-0.29275694489479065,-0.09911280870437622
1772698603301695700,12.76669580078125,0.7113520503044128,0.05238165333867073,0.18066325783729553
1772698603319041800,12.784041748046874,0.4309650957584381,0.22036947309970856,0.23503021895885468
1772698603336388000,12.80138818359375,0.03817904740571976,0.2240346521139145,0.2790125012397766
1772698603353734400,12.818734375,-0.2782489061355591,0.20143266022205353,0.453719824552536
1772698603371080400,12.83608056640625,-0.6692023873329163,0.03894263133406639,0.4793761372566223
1772698603388426800,12.8534267578125,-1.027169108390808,-0.4332558512687683,0.29184064269065857
1772698603405773000,12.87077294921875,-0.82436203956604,-0.687986433506012,0.15867212414741516
1772698603423119000,12.888119140625,0.008246674202382565,-0.5584831237792969,0.07681624591350555
1772698603440465400,12.90546533203125,0.5048797130584717,-0.5963567495346069,-0.04535670951008797
1772698603457811700,12.922811767578125,0.6637045741081238,-0.6507236957550049,-0.16386447846889496
1772698603475157800,12.94015771484375,0.685084879398346,0.007177661173045635,-0.4894554018974304
1772698603492504000,12.957504150390625,-0.008857538923621178,0.6632464528083801,-0.827874481678009
1772698603509850400,12.974850341796875,-1.204319953918457,0.9515746235847473,-0.5071704983711243
1772698603527196700,12.99219677734375,-1.9379684925079346,0.28206682205200195,-0.06001746281981468
1772698603544542700,13.009542724609375,-2.319758892059326,0.16539163887500763,-0.2842048406600952
1772698603561889000,13.026888916015626,-1.7828088998794556,-0.32757624983787537,-0.7570141553878784
1772698603579235300,13.0442353515625,-0.4004218578338623,-0.892015278339386,-1.0099122524261475
1772698603596581400,13.061581298828125,0.6117810606956482,-1.1754565238952637,-0.8657481074333191
1772698603613927700,13.078927734375,0.7351757884025574,-1.1388046741485596,-0.34406960010528564
1772698603631274000,13.09627392578125,0.7889318466186523,-0.6030762791633606,-0.26160284876823425
1772698603648620000,13.1136201171875,0.8775072693824768,-0.5383245944976807,-0.15225805342197418
1772698603665966300,13.13096630859375,0.7498365044593811,-0.26710063219070435,-0.0038179049734026194
1772698603683312600,13.148312744140625,0.5812378525733948,0.22586725652217865,-0.17608177661895752
1772698603700659000,13.165658935546874,0.3246746361255646,0.7261655330657959,-0.4039343297481537
1772698603718005000,13.1830048828125,0.14813470840454102,1.114675521850586,-0.4949531853199005
1772698603735351300,13.200351318359376,0.25320345163345337,1.392619013786316,-0.4405862092971802
1772698603752697600,13.217697509765625,0.29962918162345886,1.3388628959655762,-0.3110828995704651
1772698603770043600,13.235043701171875,0.29901832342147827,1.0975712537765503,-0.1571449637413025
1772698603787390000,13.252389892578124,0.3497200906276703,1.0389282703399658,-0.14492766559123993
1772698603804736300,13.269736328125,0.40347617864608765,1.15132737159729,-0.2903134822845459
1772698603822082600,13.28708251953125,0.3686569035053253,1.2722786664962769,-0.4088212549686432
1772698603839428600,13.3044287109375,0.25320345163345337,1.2411245107650757,-0.38927358388900757
1772698603856775000,13.32177490234375,0.11392628401517868,1.0456477403640747,-0.37094762921333313
1772698603874121200,13.339121337890624,0.02412915788590908,0.8776599764823914,-0.43753188848495483
1772698603891467300,13.35646728515625,-0.0204639695584774,0.8416189551353455,-0.5175551772117615
1772698603908813600,13.3738134765625,-0.09132428467273712,0.8617774844169617,-0.5719221234321594
1772698603926160000,13.391159912109375,-0.16279546916484833,0.8294016718864441,-0.5920807123184204
1772698603943506000,13.408505859375,-0.19333870708942413,0.8116865754127502,-0.5639809370040894
1772698603960852200,13.425852294921874,-0.24526220560073853,0.734717607498169,-0.5285507440567017
1772698603978198500,13.443198486328125,-0.45906487107276917,0.539851725101471,-0.5493201613426208
1772698603995544800,13.460544921875,-0.6875283122062683,0.3633118271827698,-0.585972011089325
1772698604012891000,13.477890869140625,-0.5812378525733948,-0.08139773458242416,-0.5395463109016418
1772698604030237200,13.4952373046875,-0.2935205399990082,-0.2994764447212219,-0.3196350038051605
1772698604047583500,13.51258349609375,0.023518294095993042,-0.19501857459545135,-0.012370011769235134
1772698604064929500,13.529929443359375,0.21227550506591797,0.02611446939408779,0.1977674663066864
1772698604082275800,13.54727587890625,0.05711585655808449,0.37369653582572937,0.32421648502349854
1772698604099622100,13.5646220703125,-0.23732095956802368,0.8330668210983276,0.2906189262866974
1772698604116968400,13.581968505859376,-0.3900371491909027,1.1494947671890259,0.32849252223968506
1772698604134314500,13.599314453125,-0.383928507566452,1.0523673295974731,0.4378373324871063
1772698604151660800,13.616660888671875,-0.3588830530643463,0.7567087411880493,0.42562004923820496
1772698604169007000,13.634007080078124,-0.231212317943573,0.5820014476776123,0.23747368156909943
1772698604186353400,13.651353515625,-0.05589412897825241,0.5361865758895874,0.009010255336761475
1772698604203699500,13.668699462890626,0.005803215317428112,0.4072940945625305,-0.05757400393486023
1772698604221045800,13.686045654296874,-0.016798781231045723,0.19410228729248047,0.04260781779885292
1772698604238392000,13.70339208984375,-0.11942406743764877,0.04932733252644539,0.24052800238132477
1772698604255738000,13.720738037109374,-0.29535311460494995,0.017562363296747208,0.40118545293807983
1772698604273084400,13.73808447265625,-0.508544921875,0.1769980639219284,0.3889681398868561
1772698604290430700,13.7554306640625,-0.4969384968280792,0.40118545293807983,0.18677189946174622
1772698604307777000,13.772777099609375,-0.35643959045410156,0.054214250296354294,0.040775224566459656
1772698604325123000,13.790123046875,-0.18234314024448395,-0.3367392122745514,0.14767655730247498
1772698604342469400,13.807469482421874,0.09010255336761475,-0.006872228812426329,0.708450436592102
1772698604359815700,13.824815673828125,0.5525271892547607,0.25091269612312317,1.3602432012557983
1772698604377161700,13.84216162109375,1.0131192207336426,-0.13820815086364746,1.8941389322280884
1772698604394508000,13.859508056640625,1.0772600173950195,-0.7655662894248962,2.0468552112579346
1772698604411854300,13.876854248046875,0.804814338684082,-0.9127846956253052,1.9723296165466309
1772698604429200600,13.89420068359375,0.42791077494621277,-0.49312058091163635,1.9423972368240356
1772698604446546700,13.911546630859375,-0.0015271619195118546,-0.5077813267707825,1.5099049806594849
1772698604463893000,13.92889306640625,-0.38820457458496094,-0.6006327867507935,0.3822486400604248
1772698604481239300,13.9462392578125,-0.5256491303443909,-0.7252492308616638,-0.4503600597381592
1772698604498585600,13.963585693359375,-0.5103775262832642,-0.7588467597961426,-0.4845684766769409
1772698604515931600,13.980931640625,-0.27091851830482483,-0.6079631447792053,-0.09178243577480316
1772698604533278000,13.99827783203125,-0.06933315098285675,-0.3379609286785126,0.2606865465641022
1772698604550624300,14.015624267578126,0.06750056147575378,-0.3611738085746765,0.258853942155838
1772698604567970600,14.032970458984375,0.2660316228866577,-0.4949531853199005,-0.08811724185943604
1772698604585316600,14.050316650390625,0.5348120927810669,-0.7759509682655334,-0.47296205163002014
1772698604602663000,14.067662841796874,0.72173672914505,-0.8767436742782593,-0.6452259421348572
1772698604620009200,14.08500927734375,0.8280271887779236,-0.8174898028373718,-0.6116283535957336
1772698604637355500,14.10235546875,0.8659008145332336,-0.7002037763595581,-0.5578722357749939
1772698604654701600,14.11970166015625,0.9086613655090332,-0.512668251991272,-0.5615374445915222
1772698604672047900,14.1370478515625,0.9129374027252197,-0.162031888961792,-0.5560396909713745
1772698604689394200,14.154394287109374,0.9049961566925049,0.21548254787921906,-0.3972148299217224
1772698604706740500,14.171740478515625,0.9172134399414062,0.485484778881073,-0.1308777779340744
1772698604724086500,14.18908642578125,0.8518509268760681,0.596662163734436,0.06887500733137131
1772698604741432800,14.206432861328125,0.6734784245491028,0.514195442199707,0.16539163887500763
1772698604758779100,14.223779052734375,0.5348120927810669,0.3254382014274597,0.12263110280036926
1772698604776125400,14.24112548828125,0.5409207344055176,0.0951421856880188,-0.06673697382211685
1772698604793471700,14.2584716796875,0.39186975359916687,0.0847574844956398,-0.2738201320171356
1772698604810817800,14.27581787109375,-0.02718348242342472,0.16294817626476288,-0.07284562289714813
1772698604828164000,14.2931640625,-0.43340855836868286,0.14401137828826904,0.3217730224132538
1772698604845510400,14.310510498046876,-0.8579595685005188,0.3816377818584442,0.45249807834625244
1772698604862856400,14.3278564453125,-0.9337068200111389,0.8006910085678101,0.4036289155483246
1772698604880202800,14.34520263671875,-0.6588176488876343,0.7896954417228699,0.38469210267066956
1772698604897549000,14.362549072265624,-0.31612253189086914,0.2906189262866974,0.37552911043167114
1772698604914895400,14.379895263671875,-0.6569850444793701,-0.21517711877822876,0.37369653582572937
1772698604932241400,14.397241455078126,-1.6869031190872192,-0.0001527161948615685,0.9051488637924194
1772698604949587700,14.414587646484375,-2.0137157440185547,0.5526798963546753,-0.16264274716377258
1772698604966934000,14.43193408203125,-1.6862921714782715,-0.7667880058288574,-1.1131483316421509
1772698604984280300,14.4492802734375,-1.747989535331726,-0.26282456517219543,-0.8523091077804565
1772698605001626600,14.466626708984375,-1.4718786478042603,-0.04230238497257233,-0.07651081681251526
1772698605018972700,14.48397265625,-0.5482511520385742,-0.5633700489997864,0.5581777095794678
1772698605036319000,14.501319091796875,0.8463531732559204,-0.4277580678462982,0.4195113778114319
1772698605053665300,14.518665283203125,1.543960690498352,0.3981311321258545,-0.06246092543005943
1772698605071011600,14.536011474609374,1.3081669807434082,0.6113229393959045,-0.18952079117298126
1772698605088357600,14.553357666015625,0.6453786492347717,0.13851359486579895,-0.3263545036315918
1772698605105704000,14.570703857421876,0.37354379892349243,0.21609342098236084,-0.5285507440567017
1772698605123050200,14.58805029296875,0.27030766010284424,0.5465712547302246,-0.7496837973594666
1772698605140396300,14.605396240234375,0.46395179629325867,0.9833396077156067,-0.9225585460662842
1772698605157742600,14.62274267578125,0.6527090072631836,1.159879446029663,-0.8144354820251465
1772698605175089000,14.6400888671875,0.6331613659858704,0.8098539710044861,-0.5474875569343567
1772698605192435200,14.657435302734376,0.5195404887199402,0.4384481906890869,-0.3611738085746765
1772698605209781500,14.674781494140625,0.25320345163345337,0.2845102846622467,-0.33857181668281555
1772698605227127600,14.69212744140625,-0.17867794632911682,0.30344706773757935,-0.4864010810852051
1772698605244473900,14.709473876953124,-0.5439751148223877,0.31322091817855835,-0.6067414283752441
1772698605261820200,14.726820068359375,-0.8261946439743042,0.17638720571994781,-0.523052990436554
1772698605279166500,14.74416650390625,-1.0638209581375122,-0.06001746281981468,-0.2750418782234192
1772698605296512500,14.761512451171875,-1.1310161352157593,-0.2597702443599701,-0.02153298258781433
1772698605313858800,14.77885888671875,-0.8182533979415894,-0.4650208055973053,0.17577634751796722
1772698605331205000,14.796205078125,-0.24831652641296387,-0.8046616315841675,0.24785839021205902
1772698605348551400,14.813551513671875,0.3032943606376648,-1.292131781578064,0.26129740476608276
1772698605365897700,14.830897705078126,0.5995637774467468,-1.4723368883132935,0.3309359848499298
1772698605383243800,14.848243896484375,0.4108065664768219,-1.2261583805084229,0.3993528485298157
1772698605400590000,14.865590087890626,-0.1438586562871933,-0.7105884552001953,0.43111783266067505
1772698605417936400,14.882936279296874,-0.4376846253871918,-0.37461283802986145,0.4280634820461273
1772698605435282700,14.90028271484375,-0.40775224566459656,-0.10827577859163284,0.5086976289749146
1772698605452628700,14.917628662109376,-0.2721402645111084,0.0951421856880188,0.558788537979126
1772698605469975000,14.93497509765625,-0.21227550506591797,0.26251915097236633,0.47754353284835815
1772698605487321300,14.9523212890625,-0.14019346237182617,0.7249437570571899,0.6039925217628479
1772698605504667600,14.969667724609375,0.10354158282279968,0.8019127249717712,1.0560325384140015
1772698605522014000,14.987013916015625,0.526870846748352,0.30283620953559875,1.6070325374603271
1772698605539360000,15.004360107421874,1.0393863916397095,-0.1314886510372162,1.9747731685638428
1772698605556706300,15.021706298828125,1.0650427341461182,-0.12782345712184906,2.2148430347442627
1772698605574052600,15.039052490234376,0.6973021626472473,-0.22739441692829132,2.55692720413208
1772698605591399000,15.05639892578125,0.37110036611557007,-0.708145022392273,2.050520420074463
1772698605608745000,15.073744873046875,0.23793183267116547,-1.2218822240829468,0.41462448239326477
1772698605626091300,15.09109130859375,-0.006414080038666725,-1.068555235862732,-1.1290308237075806
1772698605643437600,15.1084375,-0.18600831925868988,-0.7338013052940369,-1.6586506366729736
1772698605660783900,15.125783935546876,-0.2458730787038803,-0.6635518670082092,-0.9610430002212524
1772698605678130200,15.143130126953125,-0.28924447298049927,-0.3984365463256836,-0.0025961752980947495
1772698605695476200,15.160476318359375,-0.21899501979351044,-0.5181660652160645,0.27168211340904236
1772698605712822500,15.177822509765624,0.016187917441129684,-0.7686206102371216,-0.04413498193025589
1772698605730168800,15.1951689453125,0.250149130821228,-1.0624465942382812,-0.53221595287323
1772698605747515100,15.21251513671875,0.31551164388656616,-1.089935541152954,-0.7765618562698364
1772698605764861400,15.229861328125,0.32100942730903625,-0.9323323965072632,-0.6965385675430298
1772698605782207500,15.24720751953125,0.4205803871154785,-0.6207913160324097,-0.6317868828773499
1772698605799553800,15.2645537109375,0.5574141144752502,-0.28176137804985046,-0.6110175251960754
1772698605816900000,15.281900146484375,0.7443387508392334,-0.04718930274248123,-0.5102248191833496
1772698605834246400,15.299246337890626,0.9538653492927551,0.06154462695121765,-0.356286883354187
1772698605851592700,15.3165927734375,1.1572833061218262,0.07315105944871902,-0.28298309445381165
1772698605868938800,15.333938720703125,1.2605195045471191,0.0902552679181099,-0.3770562708377838
1772698605886285000,15.35128515625,1.1646137237548828,0.09575305134057999,-0.5383245944976807
1772698605903631400,15.36863134765625,0.9764673709869385,0.1769980639219284,-0.5969675779342651
1772698605920977700,15.385977783203124,0.7736602425575256,0.2845102846622467,-0.2689332067966461
1772698605938324000,15.403323974609375,0.27580544352531433,0.42684176564216614,0.23197589814662933
1772698605955670000,15.420669921875,-0.36254823207855225,0.6058251261711121,0.4653262495994568
1772698605973016300,15.438016357421875,-0.7980948090553284,0.44761115312576294,0.45249807834625244
1772698605990362600,15.455362548828125,-1.1200206279754639,0.2124282270669937,0.3767508566379547
1772698606007709000,15.472708984375,-1.1242966651916504,0.351705402135849,0.3883572816848755
1772698606025055200,15.49005517578125,-0.5378664135932922,0.5392408967018127,0.31810784339904785
1772698606042401500,15.507401611328126,-0.07910698652267456,0.3407098352909088,0.18371757864952087
1772698606059747600,15.52474755859375,-0.10598503798246384,0.4909825623035431,0.13851359486579895
1772698606077094000,15.542093994140625,-1.1236857175827026,0.5508472919464111,0.7518218159675598
1772698606094440200,15.559440185546874,-1.7821979522705078,0.47693267464637756,-0.32391104102134705
1772698606111786500,15.576786376953125,-1.3533709049224854,-0.800385594367981,-1.78937566280365
1772698606129132500,15.594132568359376,-1.2843432426452637,-0.4747946560382843,-2.1357359886169434
1772698606146478800,15.611478759765625,-1.426674723625183,0.39507678151130676,-0.8614720702171326
1772698606163825200,15.6288251953125,-1.4633265733718872,0.27168211340904236,0.2124282270669937
1772698606181171500,15.64617138671875,-0.13469567894935608,-0.04657844081521034,0.5068650245666504
1772698606198517800,15.663517822265625,1.4523310661315918,0.11224640160799026,0.11652245372533798
1772698606215863800,15.68086376953125,1.7730350494384766,0.5380191802978516,-0.1107192412018776
1772698606233210000,15.698210205078125,1.053436279296875,0.6937896609306335,-0.0007635809597559273
1772698606250556400,15.715556396484375,0.602007269859314,0.754265308380127,-0.18646647036075592
1772698606267902700,15.73290283203125,0.6594285368919373,0.9454659819602966,-0.4631882309913635
1772698606285249000,15.7502490234375,0.5525271892547607,1.0896300077438354,-0.7502946853637695
1772698606302595300,15.76759521484375,0.5574141144752502,1.355356216430664,-0.9604321718215942
1772698606319941400,15.78494140625,0.5769617557525635,1.504407286643982,-0.8755219578742981
1772698606337287700,15.80228759765625,0.41935867071151733,1.281441569328308,-0.6201804876327515
1772698606354634000,15.819634033203124,0.1585194170475006,0.8978185057640076,-0.46135562658309937
1772698606371980300,15.836980224609375,-0.16340632736682892,0.5606211423873901,-0.45158177614212036
1772698606389326300,15.854326416015626,-0.476779967546463,0.29856017231941223,-0.5395463109016418
1772698606406672600,15.871672607421875,-0.6374374032020569,0.09941824525594711,-0.5694786906242371
1772698606424019000,15.88901904296875,-0.7919861674308777,-0.15836669504642487,-0.4192059636116028
1772698606441365200,15.906365234375,-0.9312633275985718,-0.28787001967430115,-0.21151192486286163
1772698606458711600,15.923711669921875,-0.8310815095901489,-0.30802857875823975,-0.13332124054431915
1772698606476057900,15.941057861328124,-0.5384773015975952,-0.448527455329895,-0.09056070446968079
1772698606493404000,15.95840380859375,-0.22754712402820587,-0.7979421019554138,0.0639880821108818
1772698606510750200,15.975750244140626,0.04001164436340332,-1.1467459201812744,0.26190826296806335
1772698606528096500,15.993096435546875,0.14752385020256042,-1.2127193212509155,0.3358229100704193
1772698606545442800,16.01044287109375,0.12186752259731293,-0.9732602834701538,0.31444263458251953
1772698606562789000,16.0277890625,0.00946840364485979,-0.6989820003509521,0.3480401933193207
1772698606580135400,16.045135498046875,-0.1737910360097885,-0.4839576184749603,0.3883572816848755
1772698606597481500,16.0624814453125,-0.33322674036026,-0.35017824172973633,0.3260490894317627
1772698606614827800,16.079827880859376,-0.34605491161346436,-0.24510949850082397,0.20143266022205353
1772698606632174000,16.097174072265624,-0.2415970265865326,-0.1308777779340744,0.11896591633558273
1772698606649520400,16.114520263671874,-0.13103049993515015,0.10186170041561127,0.39446592330932617
1772698606666866700,16.13186669921875,0.07788526266813278,0.23686282336711884,0.9503529071807861
1772698606684213000,16.149212890625,0.5946768522262573,-0.10277800261974335,1.538004755973816
1772698606701559300,16.166559326171875,1.0418298244476318,-0.2023489624261856,1.7835724353790283
1772698606718905300,16.1839052734375,0.9770781993865967,-0.44241881370544434,1.921017050743103
1772698606736251600,16.201251708984376,0.5690205693244934,-0.36911505460739136,1.954614520072937
1772698606753598000,16.218597900390623,0.4199695289134979,-0.5572614073753357,1.734092354774475
1772698606770944300,16.2359443359375,-0.03940077871084213,-0.8743002414703369,0.8239038586616516
1772698606788290600,16.25329052734375,-0.5201513767242432,-0.8071050643920898,-0.01847865991294384
1772698606805636600,16.27063671875,-0.7156280875205994,-0.6794343590736389,-0.19624030590057373
1772698606822983000,16.28798291015625,-0.6331613659858704,-0.5896372199058533,0.08170316368341446
1772698606840329200,16.3053291015625,-0.34116798639297485,-0.4271472096443176,0.2948949635028839
1772698606857675500,16.322675537109376,-0.000305432389723137,-0.5548179149627686,0.33460119366645813
1772698606875021800,16.340021728515627,0.31612253189086914,-0.8046616315841675,0.16600249707698822
1772698606892368100,16.3573681640625,0.508544921875,-0.8779653906822205,-0.1101083755493164
1772698606909714400,16.37471435546875,0.6038398146629333,-0.7741183638572693,-0.28725916147232056
1772698606927060500,16.392060546875,0.6325504779815674,-0.6360629796981812,-0.36911505460739136
1772698606944406800,16.40940673828125,0.7070759534835815,-0.5480984449386597,-0.490066260099411
1772698606961753000,16.426753173828125,0.814588189125061,-0.4381427764892578,-0.6073523163795471
1772698606979099400,16.444099365234376,0.9245438575744629,-0.356286883354187,-0.6971494555473328
1772698606996445700,16.46144580078125,0.9740238785743713,-0.28237223625183105,-0.8083268404006958
1772698607013792000,16.4787919921875,0.9392045736312866,-0.17058399319648743,-0.8956804871559143
1772698607031138300,16.49613818359375,0.8842267394065857,-0.06979130208492279,-0.9524909257888794
1772698607048484400,16.513484375,0.757777750492096,0.05787943676114082,-0.8718567490577698
1772698607065830700,16.53083056640625,0.5775726437568665,0.1721111536026001,-0.5328267812728882
1772698607083177000,16.548177001953125,0.31062474846839905,0.3773617148399353,-0.014202605932950974
1772698607100523300,16.565523193359375,-0.03817904740571976,0.5367974042892456,0.38591381907463074
1772698607117869600,16.58286962890625,-0.17867794632911682,0.43111783266067505,0.45799586176872253
1772698607135215900,16.6002158203125,-0.13958260416984558,0.1366809904575348,0.3675878942012787
1772698607152562000,16.61756201171875,-0.12064579129219055,-0.07101303339004517,0.5343539714813232
1772698607169908200,16.634908203125,-0.14569124579429626,0.002901607658714056,0.753654420375824
1772698607187254500,16.652254638671874,-0.35766133666038513,0.5532907843589783,0.7677043080329895
1772698607204600800,16.669600830078124,-1.2721259593963623,0.5948295593261719,0.7982475757598877
1772698607221947100,16.686947021484375,-2.0827434062957764,0.8959859013557434,0.8929315805435181
1772698607239293400,16.70429345703125,-1.8909319639205933,0.44761115312576294,0.2441931962966919
1772698607256639700,16.7216396484375,-1.2886192798614502,-0.020311253145337105,-0.6556106209754944
1772698607273986000,16.738986083984376,-1.0864230394363403,-0.11927134543657303,-0.5297724604606628
1772698607291332000,16.75633203125,-0.8701768517494202,-0.020922118797898293,-0.03741546720266342
1772698607308678400,16.773678466796873,-0.6508764028549194,-0.09972367435693741,0.5404626131057739
1772698607326024700,16.791024658203124,-0.3857611119747162,0.37491825222969055,0.5178605914115906
1772698607343371000,16.80837109375,0.6533198952674866,-0.049021899700164795,0.5740602016448975
1772698607360717300,16.82571728515625,0.8219185471534729,0.754265308380127,-0.3727802336215973
1772698607378063600,16.843063720703125,0.2929096519947052,0.1971566081047058,-0.8333722949028015
1772698607395410000,16.860409912109375,0.24342961609363556,0.1568395346403122,-0.6122392416000366
1772698607412756000,16.877755859375,0.2770271897315979,0.6052142977714539,-0.5212203860282898
1772698607430102300,16.895102294921877,0.43951719999313354,0.9784526824951172,-0.6378955245018005
1772698607447448600,16.912448486328124,0.4608974754810333,0.8917098641395569,-0.7319687008857727
1772698607464795000,16.929794921875,0.4932733178138733,0.5422952175140381,-0.7057015299797058
1772698607482141200,16.94714111328125,0.4419606626033783,0.2234237939119339,-0.7307469844818115
1772698607499487500,16.964487548828124,0.2721402645111084,0.017562363296747208,-0.6501128673553467
1772698607516833800,16.981833740234375,-0.19700388610363007,-0.19135339558124542,-0.40637779235839844
1772698607534179800,16.999179931640626,-0.8005383014678955,-0.15042544901371002,-0.4497492015361786
1772698607551526100,17.016526123046877,-0.5213730931282043,-0.012980876490473747,-0.7741183638572693
1772698607568872400,17.03387255859375,-0.6484329700469971,-0.39965829253196716,-0.42653632164001465
1772698607586218800,17.05121875,-0.8402445316314697,-0.64278244972229,-0.2188423126935959
1772698607603565000,17.06856494140625,-0.8097012639045715,-0.8633046746253967,-0.1308777779340744
1772698607620911400,17.085911376953124,-0.61117023229599,-1.3446661233901978,-0.09972367435693741
1772698607638257700,17.103257568359375,-0.3277289569377899,-1.7203478813171387,-0.346513032913208
1772698607655604000,17.12060400390625,-0.4712821841239929,-0.9647082090377808,-0.9176716208457947
1772698607672950000,17.137949951171876,-0.38820457458496094,-0.24694208800792694,-0.6482802629470825
1772698607690296300,17.15529638671875,0.021685699000954628,-0.4045451879501343,-0.052687086164951324
1772698607707642600,17.172642578125,0.4401280879974365,-1.3129011392593384,0.4659371078014374
1772698607724989000,17.189989013671877,0.6307178735733032,-1.708741545677185,0.5765036344528198
1772698607742335200,17.207335205078124,0.9062178730964661,-1.3764311075210571,0.5477929711341858
1772698607759681500,17.224681640625,1.107803225517273,-0.6488910913467407,0.8251255750656128
1772698607777027800,17.24202783203125,1.1242966651916504,-0.6293434500694275,1.289382815361023
1772698607794374100,17.2593740234375,1.101083755493164,-1.1186461448669434,1.6094759702682495
1772698607811720200,17.27672021484375,1.3264929056167603,-1.4155263900756836,1.6131411790847778
1772698607829066500,17.29406640625,1.1487312316894531,-1.162017583847046,1.5037963390350342
1772698607846412800,17.311412841796876,0.6875283122062683,-0.6885973215103149,1.345582365989685
1772698607863759000,17.328759033203124,0.5152644515037537,-0.8455895781517029,1.1965314149856567
1772698607881105400,17.34610546875,0.5561923980712891,-1.182176113128662,1.0444260835647583
1772698607898451700,17.36345166015625,0.5739074349403381,-1.5572470426559448,1.050534725189209
1772698607915798000,17.380798095703124,0.7076868414878845,-1.1100940704345703,0.9601266980171204
1772698607933144300,17.398144287109375,0.6789761781692505,-0.5493201613426208,0.6925679445266724
1772698607950490400,17.415490478515625,0.5757400393486023,-0.6171261668205261,0.6314814686775208
1772698607967836700,17.432836669921876,0.5476402640342712,-0.9640973210334778,0.7793107628822327
1772698607985183000,17.450182861328123,0.467006117105484,-1.2053889036178589,0.8813251852989197
1772698608002529300,17.467529296875,0.46395179629325867,-1.1730130910873413,0.7005091905593872
1772698608019875600,17.48487548828125,0.527481734752655,-1.004414439201355,0.39018988609313965
1772698608037222000,17.502221923828124,0.7107411623001099,-0.7460185885429382,0.39507678151130676
1772698608054568200,17.519568115234375,0.9117156863212585,-0.6549997329711914,0.9155336022377014
1772698608071914500,17.53691455078125,1.1542290449142456,-0.92072594165802,1.6241366863250732
1772698608089260800,17.5542607421875,1.5806126594543457,-0.5175551772117615,2.0181446075439453
1772698608106607000,17.571607177734375,1.7369940280914307,-0.8804088830947876,2.794553756713867
1772698608123953400,17.588953369140626,1.848171353340149,-1.170569658279419,3.4377942085266113
1772698608141299500,17.606299560546876,2.1591014862060547,-1.5627448558807373,3.8122544288635254
1772698608158645800,17.623645751953124,1.8915427923202515,-0.8981239199638367,4.102415084838867
1772698608175992000,17.640991943359374,1.5213587284088135,-0.9127846956253052,2.9570436477661133
1772698608193338400,17.65833837890625,0.19822561740875244,-2.4552183151245117,0.9686788320541382
1772698608210684700,17.6756845703125,-1.4578287601470947,-4.560258388519287,0.9039271473884583
1772698608228031000,17.693031005859375,-2.593426465988159,-4.64761209487915,0.33765551447868347
1772698608245377300,17.710377197265625,-3.4498589038848877,-3.8406596183776855,-0.09361502528190613
1772698608262723600,17.7277236328125,-4.130362033843994,-2.682460069656372,-0.03436114266514778
1772698608280070000,17.74506982421875,-5.082700252532959,-2.299447774887085,-0.25732678174972534
1772698608297416200,17.762416259765626,-6.220741271972656,-2.4833180904388428,-0.17302745580673218
1772698608314762200,17.77976220703125,-7.440638542175293,-2.2536327838897705,0.476321816444397
1772698608332108500,17.797108642578124,-8.42718505859375,-1.5157082080841064,1.6687299013137817
1772698608349454800,17.814454833984374,-9.43144702911377,-0.614682674407959,2.7420191764831543
1772698608366801200,17.83180126953125,-9.830952644348145,0.48853909969329834,3.721846342086792
1772698608384147500,17.8491474609375,-9.720996856689453,1.5086833238601685,4.0443830490112305
1772698608401493800,17.86649365234375,-8.359990119934082,2.5941901206970215,3.64670991897583
1772698608418840000,17.883840087890626,-6.907353401184082,3.721846342086792,3.0834927558898926
1772698608436186400,17.901186279296876,-6.517010688781738,3.548971652984619,3.1421356201171875
1772698608453532700,17.91853271484375,-6.429046154022217,3.18550705909729,3.6314384937286377
1772698608470879000,17.93587890625,-5.955626010894775,3.628994941711426,4.134180068969727
1772698608488225300,17.953225341796873,-4.582402229309082,4.3797478675842285,4.352869510650635
1772698608505571600,17.970571533203124,-2.7840161323547363,4.982060432434082,3.6552622318267822
1772698608522918000,17.98791796875,-1.4480549097061157,5.227017402648926,1.3333650827407837
1772698608540264200,18.00526416015625,-0.7254019379615784,4.599048137664795,-0.0019853105768561363
1772698608557610500,18.022610595703124,-1.3374884128570557,2.4860668182373047,0.2851211428642273
1772698608574956500,18.03995654296875,-1.4847068786621094,0.8959859013557434,1.3523019552230835
1772698608592302800,18.057302734375,-1.1340705156326294,1.1586577892303467,2.0022621154785156
1772698608609649200,18.074649169921877,-1.0320560932159424,2.030972719192505,1.708436131477356
1772698608626995500,18.091995361328124,-0.8396336436271667,3.065777540206909,0.9314160943031311
1772698608644341800,18.109341796875,-0.7406735420227051,3.1757333278656006,0.2393062710762024
1772698608661688000,18.12668798828125,-0.6459894776344299,2.3785548210144043,-0.5896372199058533
1772698608679034400,18.144034423828124,-0.23915356397628784,0.32360562682151794,-1.5108213424682617
1772698608696380700,18.161380615234375,0.425467312335968,-0.3966039717197418,-1.6714787483215332
1772698608713727000,18.17872705078125,1.1242966651916504,0.33887723088264465,-0.8333722949028015
1772698608731073300,18.1960732421875,1.5787800550460815,1.4928008317947388,0.23991714417934418
1772698608748419600,18.213419677734375,1.5989385843276978,1.162322998046875,0.44211336970329285
1772698608765766000,18.230765869140626,1.758985161781311,0.5416843295097351,0.02611446939408779
1772698608783112200,18.2481123046875,2.101069450378418,-0.25793763995170593,-0.8810197114944458
1772698608800458500,18.26545849609375,2.3710715770721436,-0.31719154119491577,-1.345276951789856
1772698608817804800,18.2828046875,2.6172502040863037,1.0511455535888672,-1.3910918235778809
1772698608835150800,18.30015087890625,2.542724609375,1.9430081844329834,-1.2047780752182007
1772698608852497200,18.3174970703125,1.8438953161239624,1.0432043075561523,-0.6000219583511353
1772698608869843500,18.334843505859375,0.8683443069458008,-0.23533566296100616,0.34376415610313416
1772698608887189800,18.352189697265626,0.2306014597415924,-0.44241881370544434,1.2197442054748535
1772698608904536000,18.3695361328125,0.2922987937927246,0.37919431924819946,1.4610358476638794
1772698608921882400,18.38688232421875,0.5836812853813171,1.0615302324295044,1.161101222038269
1772698608939228700,18.404228759765626,0.6801979541778564,1.2576178312301636,0.7615956664085388
1772698608956575000,18.421574951171873,0.49144071340560913,1.3907864093780518,0.3926333487033844
1772698608973921300,18.43892138671875,0.3191768527030945,1.3950624465942383,0.07681624591350555
1772698608991267600,18.456267578125,0.3344484567642212,1.2301290035247803,-0.25182899832725525
1772698609008614000,18.47361376953125,0.45417797565460205,0.8416189551353455,-0.4699077308177948
1772698609025960200,18.490960205078125,0.49144071340560913,0.5477929711341858,-0.3196350038051605
1772698609043306500,18.508306396484375,0.41813695430755615,0.35475972294807434,-0.06490438431501389
1772698609060652800,18.52565283203125,0.3588830530643463,0.4335612654685974,0.15928299725055695
1772698609077999000,18.5429990234375,0.3863719701766968,0.5832231640815735,0.17333288490772247
1772698609095345400,18.560345458984376,0.4419606626033783,0.6534726023674011,0.10674861818552017
1772698609112691500,18.57769140625,0.46456265449523926,0.5007563829421997,0.22220206260681152
1772698609130037800,18.595037841796874,0.4780016839504242,0.44700029492378235,0.4848739206790924
1772698609147384000,18.612384033203124,0.44440412521362305,0.505032479763031,0.6210967898368835
1772698609164730400,18.62973046875,0.48533207178115845,0.7334958910942078,0.5746710300445557
1772698609182076700,18.64707666015625,0.3894262909889221,0.9228639602661133,0.5258018374443054
1772698609199423000,18.664423095703125,0.10170898586511612,0.18127411603927612,0.3205513060092926
1772698609216769300,18.681769287109375,0.25992295145988464,0.018784092739224434,0.0487164668738842
1772698609234115600,18.699115478515626,0.3381136655807495,0.24113887548446655,-0.20906847715377808
1772698609251462000,18.7164619140625,0.47922343015670776,0.7108938694000244,-0.22983787953853607
