time,seconds_elapsed,z,y,x
1772698590592052200,0.05705224609375,6.348158359527588,6.6831536293029785,-1.0001999139785767
1772698590609398500,0.0743984375,6.410371780395508,7.183253765106201,-1.4524433612823486
1772698590626744600,0.09174462890625,5.958128452301025,7.6666035652160645,-1.7778671979904175
1772698590644090600,0.109090576171875,5.816951751708984,7.946564197540283,-1.7563318014144897
1772698590661437000,0.12643701171875,5.414957523345947,7.680960655212402,-1.8616160154342651
1772698590678783000,0.143782958984375,5.651846885681152,7.57806921005249,-2.572284460067749
1772698590696129300,0.16112939453125,5.970092296600342,7.769495010375977,-2.778067111968994
1772698590722148600,0.187148681640625,7.176074981689453,8.063812255859375,-3.105883836746216
1772698590739494700,0.20449462890625,6.453442573547363,7.6043901443481445,-3.431307554244995
1772698590756841000,0.221841064453125,5.819344520568848,7.0755767822265625,-3.352344512939453
1772698590774187000,0.23918701171875,5.304887771606445,6.606583118438721,-3.3786656856536865
1772698590791533000,0.256532958984375,5.209175109863281,7.3052873611450195,-3.0340991020202637
1772698590808879400,0.27387939453125,5.13739013671875,7.288537979125977,-2.9240293502807617
1772698590826225400,0.291225341796875,5.730810165405273,6.955935478210449,-2.7661030292510986
1772698590843571700,0.30857177734375,6.915257453918457,6.692724704742432,-2.5986053943634033
1772698590860917800,0.325917724609375,7.051648139953613,6.460621356964111,-2.746960401535034
1772698590878263800,0.343263916015625,6.805187702178955,6.556334018707275,-2.8666014671325684
1772698590895610000,0.360610107421875,6.955935478210449,6.5874409675598145,-2.5986053943634033
1772698590912956200,0.3779560546875,7.57806921005249,6.38883638381958,-2.0315065383911133
1772698590930302500,0.395302490234375,8.051848411560059,6.508477687835693,-1.6151553392410278
1772698590947648500,0.4126484375,8.128418922424316,6.558726787567139,-1.820937991142273
1772698590964994800,0.429994873046875,7.791030406951904,6.419943332672119,-2.00518536567688
1772698590982340900,0.4473408203125,7.161718368530273,6.597012042999268,-2.0267207622528076
1772698590999687200,0.464687255859375,6.939185619354248,6.472585201263428,-2.3234307765960693
1772698591017033200,0.482033203125,6.592226505279541,6.1710896492004395,-2.964707374572754
1772698591034379300,0.499379150390625,6.561119556427002,6.25723123550415,-3.548556089401245
1772698591051725600,0.5167255859375,5.972485542297363,6.31944465637207,-3.524627685546875
1772698591069071600,0.534071533203125,6.697510719299316,6.3361945152282715,-3.0245277881622314
1772698591086418000,0.55141796875,8.250452041625977,6.410371780395508,-2.4670002460479736
1772698591103764000,0.568763916015625,8.63330364227295,5.8959150314331055,-1.2801600694656372
1772698591121110300,0.5861103515625,7.252645492553711,4.713860511779785,-0.9571290612220764
1772698591138456300,0.603456298828125,5.704489231109619,4.5822553634643555,-1.1940184831619263
1772698591155802600,0.620802734375,5.776273727416992,5.814558982849121,-2.548356056213379
1772698591173148700,0.638148681640625,7.668996810913086,7.326822757720947,-4.460221290588379
1772698591190495000,0.655494873046875,9.365508079528809,6.809973239898682,-4.706682205200195
1772698591207841000,0.672841064453125,8.233702659606934,6.372086524963379,-4.034298896789551
1772698591225187000,0.69018701171875,5.795416355133057,6.2189459800720215,-3.0939197540283203
1772698591242533400,0.707533447265625,6.008377552032471,6.5419769287109375,-2.194218397140503
1772698591259879400,0.72487939453125,6.501298904418945,6.592226505279541,-2.289931297302246
1772698591277225700,0.742225830078125,7.085147857666016,6.314659118652344,-3.012563705444336
1772698591294571800,0.75957177734375,6.903293132781982,6.104090690612793,-2.8522446155548096
1772698591311918000,0.77691796875,6.620940208435059,5.907878875732422,-2.352144718170166
1772698591329264000,0.79426416015625,5.5034918785095215,6.281159400939941,-2.0482561588287354
1772698591346610400,0.8116103515625,5.000999450683594,6.372086524963379,-1.2346965074539185
1772698591363956500,0.82895654296875,5.223531723022461,6.4079790115356445,-0.9308080077171326
1772698591381302800,0.846302734375,6.221338748931885,6.364908218383789,-1.1509476900100708
1772698591398648800,0.86364892578125,8.197810173034668,8.293522834777832,-4.548755645751953
1772698591415995000,0.880994873046875,8.049455642700195,8.252845764160156,-4.029513359069824
1772698591433341200,0.898341064453125,6.996613502502441,6.25723123550415,-1.2299108505249023
1772698591450687200,0.915687255859375,6.453442573547363,6.960721015930176,-1.1700903177261353
1772698591468033500,0.933033447265625,6.32662296295166,6.9583282470703125,-2.2540390491485596
1772698591485379600,0.950379638671875,6.302694797515869,6.649653911590576,-2.7038896083831787
1772698591502726000,0.967725830078125,5.7547383308410645,5.493920803070068,-3.1896326541900635
1772698591520072000,0.985072021484375,6.147161483764648,5.7547383308410645,-1.7682958841323853
1772698591537418200,1.002418212890625,6.156732559204102,5.539384365081787,-0.6532405614852905
1772698591554764300,1.019764404296875,5.166104316711426,5.280959606170654,-1.6390835046768188
1772698591572110600,1.037110595703125,4.113262176513672,4.153940200805664,-2.062613010406494
1772698591589456600,1.05445654296875,2.840280532836914,2.5698914527893066,-1.557727575302124
1772698591606802700,1.071802734375,2.062613010406494,1.4883357286453247,-0.7345965504646301
1772698591624149000,1.08914892578125,1.9022940397262573,0.6005984544754028,-0.2799602448940277
1772698591641495000,1.1064951171875,1.612762451171875,-0.3924229145050049,0.37088751792907715
1772698591658841300,1.12384130859375,0.849452018737793,-1.2251251935958862,1.552941918373108
1772698591676187400,1.1411875,-0.2105683982372284,-2.414358139038086,2.4885356426239014
1772698591693533700,1.15853369140625,-0.6269195079803467,-4.058227062225342,3.656233072280884
1772698591710879700,1.175879638671875,0.8590233325958252,-4.895715236663818,4.644468784332275
1772698591728225800,1.193225830078125,3.139383316040039,-6.214160442352295,5.285745143890381
1772698591745572000,1.210572021484375,4.926821708679199,-7.238288402557373,6.245266914367676
1772698591762918100,1.227918212890625,5.630311489105225,-8.365307807922363,7.276573657989502
1772698591780264400,1.245264404296875,5.197210788726807,-9.57607650756836,8.774480819702148
1772698591797610500,1.262610595703125,5.474778175354004,-10.526026725769043,10.456634521484375
1772698591814956800,1.279956787109375,7.872386455535889,-11.949756622314453,12.75613784790039
1772698591832302800,1.297302734375,10.506884574890137,-12.978670120239258,14.859428405761719
1772698591849649200,1.314649169921875,11.375478744506836,-12.600604057312012,15.670595169067383
1772698591866995200,1.3319951171875,10.463813781738281,-12.636496543884277,15.512669563293457
1772698591884341500,1.349341552734375,11.765508651733398,-13.35434341430664,16.543975830078125
1772698591901687600,1.3666875,14.976676940917969,-13.339985847473145,15.716058731079102
1772698591919033600,1.38403369140625,16.46022605895996,-12.959527015686035,13.785051345825195
1772698591936380000,1.4013798828125,14.818750381469727,-12.361321449279785,13.947763442993164
1772698591953726000,1.418725830078125,10.825129508972168,-11.241480827331543,13.296915054321289
1772698591971072300,1.436072265625,9.080761909484863,-10.49970531463623,11.018948554992676
1772698591988418300,1.453418212890625,8.784051895141602,-9.81535816192627,10.676774978637695
1772698592005764600,1.4707646484375,8.367700576782227,-9.28893756866455,9.908679008483887
1772698592023110700,1.488110595703125,8.666803359985352,-9.107083320617676,8.96112060546875
1772698592040456700,1.505456787109375,10.327422142028809,-9.090332984924316,7.128218650817871
1772698592057803000,1.522802978515625,11.016555786132812,-8.920442581176758,6.183053493499756
1772698592075149000,1.540149169921875,10.99741268157959,-9.023334503173828,6.092126369476318
1772698592092495400,1.557495361328125,9.824930191040039,-9.174081802368164,7.140182971954346
1772698592109841400,1.57484130859375,8.944371223449707,-8.693124771118164,7.558926582336426
1772698592127187700,1.592187744140625,6.317051887512207,-8.310273170471191,7.037291526794434
1772698592144533800,1.60953369140625,3.2781670093536377,-6.955935478210449,4.170690059661865
1772698592161880000,1.626880126953125,2.455035924911499,-6.020341873168945,2.337787628173828
1772698592179226000,1.64422607421875,4.371686935424805,-5.429314613342285,1.3878371715545654
1772698592196572400,1.661572509765625,4.931607246398926,-4.350151538848877,1.0241280794143677
1772698592213918500,1.67891845703125,2.775674343109131,-4.053441524505615,-0.10767702013254166
1772698592231264800,1.6962646484375,-2.0721843242645264,-4.974678039550781,-1.1174482107162476
1772698592248610800,1.71361083984375,-3.603590965270996,-6.26440954208374,-0.5240281820297241
1772698592265956900,1.730956787109375,3.9912281036376953,-8.23848819732666,-2.6321048736572266
1772698592283303200,1.74830322265625,-2.5842485427856445,-7.848458290100098,-2.014756679534912
1772698592300649200,1.765649169921875,1.129412293434143,-9.81535816192627,-1.2275179624557495
1772698592317995500,1.78299560546875,1.4859428405761719,-11.408978462219238,-2.00518536567688
1772698592335341600,1.800341552734375,1.0169496536254883,-10.755738258361816,-0.9116654396057129
1772698592352687900,1.81768798828125,1.9405791759490967,-10.487741470336914,-2.337787628173828
1772698592370034000,1.835033935546875,3.493520975112915,-9.863214492797852,-2.8498518466949463
1772698592387380200,1.852380126953125,3.5509488582611084,-8.937192916870117,-3.290131092071533
1772698592404726300,1.869726318359375,3.728017568588257,-8.044670104980469,-2.084148406982422
1772698592422072600,1.887072509765625,3.7806596755981445,-7.276573657989502,-1.2873386144638062
1772698592439418600,1.904418701171875,3.730410575866699,-6.802794933319092,-1.9094724655151367
1772698592456764700,1.9217646484375,4.1419758796691895,-7.089933395385742,-4.000799655914307
1772698592474111000,1.939111083984375,3.869194269180298,-7.381857872009277,-4.859822750091553
1772698592491457000,1.95645703125,3.8356947898864746,-7.601997375488281,-4.503292083740234
1772698592508803300,1.97380322265625,4.060619831085205,-7.216753005981445,-2.9862427711486816
1772698592526149400,1.9911494140625,3.366701364517212,-6.8554368019104,-1.8496519327163696
1772698592543495700,2.00849560546875,1.9286150932312012,-6.807580471038818,-1.7443677186965942
1772698592560841700,2.025841796875,1.9932212829589844,-7.802994728088379,-1.9860427379608154
1772698592578188000,2.04318798828125,1.7228323221206665,-9.17886734008789,1.0815558433532715
1772698592595534000,2.0605341796875,1.1581261157989502,-8.520841598510742,-5.225924491882324
1772698592612880400,2.07788037109375,1.9860427379608154,-9.987641334533691,-7.848458290100098
1772698592630226400,2.095226318359375,0.4666004180908203,-8.82951545715332,-4.8813581466674805
1772698592647572700,2.11257275390625,2.50289249420166,-8.315058708190918,-0.9236295223236084
1772698592664918800,2.129918701171875,5.063212871551514,-10.674382209777832,1.3423734903335571
1772698592682264800,2.147264892578125,6.4510498046875,-9.363115310668945,5.508277893066406
1772698592699611100,2.164611083984375,5.359922885894775,-7.491927623748779,10.310672760009766
1772698592716957200,2.181957275390625,5.402993679046631,-8.025527000427246,4.809573650360107
1772698592734303500,2.199303466796875,4.199403762817383,-6.50608491897583,0.5910272002220154
1772698592751649500,2.2166494140625,-2.0506489276885986,-7.288537979125977,-4.450650215148926
1772698592768995800,2.233995849609375,-2.148754835128784,-6.175875186920166,-0.35892340540885925
1772698592786342000,2.251341796875,-3.7423746585845947,-6.955935478210449,0.0023928226437419653
1772698592803688200,2.268688232421875,-1.9286150932312012,-7.456035137176514,2.744567632675171
1772698592821034200,2.2860341796875,-1.399801254272461,-8.575876235961914,2.7349963188171387
1772698592838380500,2.303380615234375,3.933800458908081,-12.533604621887207,-1.4428720474243164
1772698592855726600,2.3207265625,3.0891339778900146,-18.762123107910156,-3.8285162448883057
1772698592873072600,2.33807275390625,0.916451096534729,-17.39582061767578,-1.098305583000183
1772698592890419000,2.3554189453125,0.760917603969574,-15.089139938354492,1.0815558433532715
1772698592907765000,2.372764892578125,1.7922241687774658,-11.138589859008789,0.15074782073497772
1772698592925111000,2.390111083984375,-1.8903298377990723,-9.439684867858887,3.2446675300598145
1772698592942457300,2.407457275390625,3.5437703132629395,-10.068997383117676,0.31106695532798767
1772698592959803600,2.4248037109375,1.7012969255447388,-10.169496536254883,1.8352949619293213
1772698592977149700,2.442149658203125,-0.3852444589138031,-10.695917129516602,0.6484549641609192
1772698592994495700,2.459495849609375,0.08135596662759781,-12.191431045532227,1.28255295753479
1772698593011842000,2.476842041015625,2.3952155113220215,-10.15753173828125,1.770688772201538
1772698593029188000,2.49418798828125,2.196611166000366,-8.870193481445312,0.11485548317432404
1772698593046534400,2.511534423828125,0.31106695532798767,-9.729216575622559,1.2562319040298462
1772698593063880400,2.52888037109375,0.7202396392822266,-7.262216567993164,4.467400074005127
1772698593081226800,2.546226806640625,0.08135596662759781,-7.618747234344482,-0.8590233325958252
1772698593098572800,2.56357275390625,-1.9860427379608154,-10.162318229675293,0.16271193325519562
1772698593115918800,2.5809189453125,1.2969099283218384,-11.626725196838379,-1.2083754539489746
1772698593133265200,2.59826513671875,4.005585193634033,-23.569303512573242,3.297309637069702
1772698593150611200,2.615611083984375,-0.2632105052471161,-11.413763999938965,3.1920254230499268
1772698593167957500,2.63295751953125,2.170290231704712,-3.0317063331604004,1.887937068939209
1772698593185303600,2.650303466796875,2.8833513259887695,-7.255038261413574,1.1700903177261353
1772698593202649900,2.66764990234375,2.7038896083831787,-6.530013084411621,0.31106695532798767
1772698593219996000,2.684995849609375,1.9286150932312012,-8.437092781066895,1.7635103464126587
1772698593237342200,2.70234228515625,2.59621262550354,-10.217352867126465,3.1106693744659424
1772698593254688300,2.719688232421875,2.012363910675049,-9.602396965026855,2.775674343109131
1772698593272034300,2.737034423828125,2.368894338607788,-8.504091262817383,2.801995277404785
1772698593289380600,2.754380615234375,2.6727828979492188,-7.8317084312438965,2.706282377243042
1772698593306726700,2.7717265625,2.8498518466949463,-7.154539585113525,2.0099709033966064
1772698593324073000,2.789072998046875,3.129812002182007,-6.738188743591309,1.2658032178878784
1772698593341419000,2.8064189453125,3.2207393646240234,-6.628118515014648,0.8733802437782288
1772698593358765300,2.823765380859375,2.940778970718384,-7.128218650817871,1.0336993932724
1772698593376111400,2.841111328125,2.5459632873535156,-7.389036178588867,1.2562319040298462
1772698593393457700,2.858457763671875,2.2205393314361572,-7.6498541831970215,1.4835500717163086
1772698593410803700,2.8758037109375,2.100898265838623,-7.759923934936523,1.667797327041626
1772698593428150000,2.89314990234375,2.076970100402832,-7.642675399780273,1.7467604875564575
1772698593445496000,2.91049609375,2.3569302558898926,-7.637889862060547,2.045863389968872
1772698593462842400,2.92784228515625,2.641676187515259,-7.860422611236572,2.3617160320281982
1772698593480188400,2.9451884765625,2.7421748638153076,-7.83410120010376,2.335394859313965
1772698593497534500,2.962534423828125,2.737389087677002,-7.664210796356201,2.029113531112671
1772698593514880800,2.979880859375,2.50289249420166,-7.810173034667969,1.8592232465744019
1772698593532226800,2.997226806640625,1.9046868085861206,-7.963313579559326,2.1583259105682373
1772698593549573000,3.014572998046875,0.7728816866874695,-7.802994728088379,2.555534601211548
1772698593566919200,3.031919189453125,0.21774685382843018,-7.645068168640137,2.383251428604126
1772698593584265500,3.049265380859375,1.0408778190612793,-7.9657063484191895,1.6654045581817627
1772698593601611500,3.066611572265625,2.0338993072509766,-8.7505521774292,0.5934200286865234
1772698593618957800,3.083957763671875,2.4981069564819336,-9.92542839050293,0.31345975399017334
1772698593636304000,3.101303955078125,-1.0528420209884644,-11.842079162597656,0.1866401731967926
1772698593653650000,3.11864990234375,-2.691925525665283,-22.51885414123535,1.5672988891601562
1772698593670996200,3.135996337890625,-10.985448837280273,-26.835506439208984,-5.0703911781311035
1772698593688342300,3.15334228515625,-0.04546362906694412,-16.218551635742188,-6.594619274139404
1772698593705688600,3.1706884765625,3.579662561416626,-7.223931789398193,-1.5146567821502686
1772698593723034600,3.18803466796875,5.5034918785095215,-3.3547372817993164,3.4743785858154297
1772698593740380700,3.205380615234375,5.149354457855225,-14.857035636901855,5.802595138549805
1772698593757727000,3.22272705078125,0.34217363595962524,-22.72463607788086,5.410171985626221
1772698593775073000,3.240072998046875,-1.7826528549194336,-23.523839950561523,-1.2969099283218384
1772698593792419300,3.25741943359375,-1.550549030303955,-15.464812278747559,-6.7621169090271
1772698593809765400,3.274765380859375,1.6414763927459717,-10.461421012878418,-3.321237802505493
1772698593827111700,3.292111572265625,4.613361835479736,-6.374479293823242,-0.9451649188995361
1772698593844457700,3.309457763671875,4.567898273468018,-4.9531426429748535,0.4331009089946747
1772698593861804000,3.326803955078125,2.0578274726867676,-6.238088607788086,-0.1698904037475586
1772698593879150000,3.344150146484375,0.6508477330207825,-8.62612533569336,-0.035892341285943985
1772698593896496000,3.36149609375,0.19142581522464752,-10.224531173706055,0.8231309652328491
1772698593913842400,3.378842529296875,0.7322037220001221,-9.994820594787598,2.069791555404663
1772698593931188500,3.3961884765625,0.8805587291717529,-9.07119083404541,2.778067111968994
1772698593948534800,3.41353466796875,1.0456634759902954,-7.779066562652588,3.2446675300598145
1772698593965880800,3.430880859375,0.849452018737793,-6.522834300994873,2.902493953704834
1772698593983227100,3.44822705078125,1.6917256116867065,-5.6925249099731445,2.2157537937164307
1772698594000573200,3.4655732421875,2.0338993072509766,-6.161518096923828,1.9621145725250244
1772698594017919500,3.48291943359375,2.0793628692626953,-6.9344000816345215,2.146361827850342
1772698594035265500,3.500265625,1.588834285736084,-7.168896675109863,2.2707886695861816
1772698594052611800,3.51761181640625,1.397408366203308,-7.11146879196167,2.218146562576294
1772698594069958000,3.5349580078125,1.2251251935958862,-6.865008354187012,1.576870083808899
1772698594087304200,3.55230419921875,1.4380863904953003,-6.750152587890625,0.8685946464538574
1772698594104650200,3.569650146484375,1.6319050788879395,-7.250252723693848,0.35413774847984314
1772698594121996300,3.586996337890625,1.4069796800613403,-8.018348693847656,0.2153540402650833
1772698594139342600,3.604342529296875,1.2490534782409668,-8.23848819732666,0.3397808074951172
1772698594156688600,3.621688720703125,0.8470591902732849,-8.212167739868164,0.7465606927871704
1772698594174035000,3.639034912109375,1.2586246728897095,-8.267202377319336,1.368694543838501
1772698594191381000,3.656381103515625,1.8807586431503296,-8.044670104980469,1.8711873292922974
1772698594208727300,3.673727294921875,2.076970100402832,-6.881757736206055,1.7802600860595703
1772698594226073300,3.6910732421875,1.8735800981521606,-5.6925249099731445,0.8757730722427368
1772698594243419400,3.70841943359375,2.0506489276885986,-5.513063430786133,0.08374879509210587
1772698594260765700,3.725765625,2.3473589420318604,-6.482156753540039,-0.11964113265275955
1772698594278111700,3.74311181640625,1.8783657550811768,-8.030312538146973,-0.39481574296951294
1772698594295458000,3.7604580078125,1.1820544004440308,-8.563912391662598,-1.1174482107162476
1772698594312804000,3.77780419921875,1.5720844268798828,-9.89432144165039,-1.5696916580200195
1772698594330150400,3.795150390625,2.2444677352905273,-13.069597244262695,-1.038485050201416
1772698594347496400,3.812496337890625,3.2470602989196777,-16.424335479736328,3.0939197540283203
1772698594364842800,3.8298427734375,1.0121639966964722,-20.355741500854492,5.599205017089844
1772698594382188800,3.847188720703125,2.234896421432495,-25.112672805786133,7.642675399780273
1772698594399535000,3.86453515625,1.1150553226470947,-25.064817428588867,9.475577354431152
1772698594416881200,3.881881103515625,1.9980069398880005,-17.860027313232422,7.3914289474487305
1772698594434227500,3.8992275390625,3.7710886001586914,-12.928421020507812,4.54636287689209
1772698594451573500,3.916573486328125,4.785645484924316,-11.009376525878906,2.5363919734954834
1772698594468919600,3.93391943359375,3.297309637069702,-10.49252700805664,2.9958138465881348
1772698594486265900,3.951265869140625,0.9020941257476807,-9.121439933776855,3.7016966342926025
1772698594503612000,3.96861181640625,-0.23688943684101105,-7.6043901443481445,2.6560330390930176
1772698594520958200,3.985958251953125,0.20099709928035736,-6.530013084411621,1.5744773149490356
1772698594538304300,4.00330419921875,1.4979069232940674,-5.4867424964904785,1.0648061037063599
1772698594555650600,4.020650634765625,2.3401806354522705,-4.730610370635986,0.4546363055706024
1772698594572996600,4.03799658203125,2.8139593601226807,-4.42193603515625,-0.34695929288864136
1772698594590343000,4.055343017578125,2.8689942359924316,-5.099104881286621,-0.7178468108177185
1772698594607689000,4.07268896484375,2.586641311645508,-6.271588325500488,-0.5647061467170715
1772698594625035300,4.09003515625,2.084148406982422,-7.623532772064209,-0.09571290761232376
1772698594642381300,4.10738134765625,1.526620864868164,-8.561519622802734,0.3613162338733673
1772698594659727600,4.1247275390625,1.25144624710083,-8.654839515686035,0.7178468108177185
1772698594677073700,4.14207373046875,1.2634103298187256,-8.14516830444336,0.8015955686569214
1772698594694419700,4.159419677734375,1.2083754539489746,-7.357929706573486,0.8949156403541565
1772698594711766000,4.17676611328125,1.3280165195465088,-6.726224422454834,0.8757730722427368
1772698594729112000,4.194112060546875,1.246660590171814,-6.216553211212158,0.5407779216766357
1772698594746458400,4.211458251953125,1.0169496536254883,-5.864808082580566,-0.36610186100006104
1772698594763804400,4.228804443359375,1.124626636505127,-5.84566593170166,-1.2969099283218384
1772698594781150700,4.246150634765625,1.5146567821502686,-6.072983741760254,-1.5696916580200195
1772698594798496800,4.263496826171875,1.5290136337280273,-6.649653911590576,-0.7752745151519775
1772698594815843000,4.280843017578125,1.4811571836471558,-7.231110095977783,0.19142581522464752
1772698594833189000,4.298189208984375,1.588834285736084,-7.317251682281494,1.9836499691009521
1772698594850535200,4.31553515625,1.9573289155960083,-7.245467185974121,3.3020951747894287
1772698594867881500,4.332881591796875,2.9599215984344482,-8.202595710754395,3.9529430866241455
1772698594885227500,4.3502275390625,3.0317063331604004,-9.726823806762695,5.213960647583008
1772698594902573800,4.36757373046875,1.9621145725250244,-9.8871431350708,5.125426292419434
1772698594919919900,4.384919921875,1.9094724655151367,-8.571090698242188,3.783052682876587
1772698594937266200,4.40226611328125,1.7994025945663452,-7.226324558258057,2.352144718170166
1772698594954612200,4.4196123046875,-0.5814558863639832,-8.499305725097656,2.5148565769195557
1772698594971958500,4.43695849609375,0.7058826684951782,-16.893327713012695,2.6392834186553955
1772698594989304600,4.4543046875,-3.8045880794525146,-22.82513427734375,-2.7014968395233154
1772698595006651000,4.47165087890625,-3.3020951747894287,-16.383657455444336,-3.5341989994049072
1772698595023997000,4.488996826171875,3.139383316040039,-21.487546920776367,-0.5670989751815796
1772698595041343200,4.50634326171875,3.620340585708618,-16.99143409729004,-1.3088740110397339
1772698595058689300,4.523689208984375,3.531806230545044,-8.34138011932373,1.490728497505188
1772698595076035300,4.541035400390625,6.652047157287598,-7.125825881958008,2.8809585571289062
1772698595093381600,4.558381591796875,2.801995277404785,-12.191431045532227,2.5938198566436768
1772698595110727700,4.575727783203125,-0.6819544434547424,-15.830914497375488,-0.7010970115661621
1772698595128074000,4.593073974609375,1.3112667798995972,-17.742780685424805,-0.3397808074951172
1772698595145420000,4.610419921875,1.3615161180496216,-13.442877769470215,-0.5599204897880554
1772698595162766300,4.627766357421875,1.8544375896453857,-10.511670112609863,1.0719845294952393
1772698595180112400,4.6451123046875,1.8496519327163696,-8.85344409942627,2.0315065383911133
1772698595197458700,4.662458740234375,0.9571290612220764,-7.171289443969727,1.3830515146255493
1772698595214804700,4.6798046875,1.1485549211502075,-6.561119556427002,0.5144568681716919
1772698595232150800,4.69715087890625,1.9573289155960083,-6.417550563812256,0.6795616149902344
1772698595249497000,4.7144970703125,1.4572290182113647,-7.661818027496338,1.4333007335662842
1772698595266843100,4.731843017578125,1.0169496536254883,-8.559126853942871,2.7038896083831787
1772698595284189400,4.749189453125,1.1413763761520386,-7.936992645263672,3.799802303314209
1772698595301535500,4.766535400390625,1.4117653369903564,-6.510870456695557,4.060619831085205
1772698595318881800,4.7838818359375,2.210968017578125,-5.347958564758301,4.022335052490234
1772698595336227800,4.801227783203125,2.833101987838745,-4.989035129547119,3.9601213932037354
1772698595353574100,4.81857421875,2.3186452388763428,-5.2283172607421875,3.5222349166870117
1772698595370920200,4.835920166015625,1.892722725868225,-5.972485542297363,2.493321180343628
1772698595388266500,4.8532666015625,2.203789710998535,-6.331408500671387,1.129412293434143
1772698595405612500,4.870612548828125,2.9527430534362793,-6.029912948608398,-0.13160525262355804
1772698595422958600,4.88795849609375,2.809173822402954,-5.855237007141113,-0.9595218896865845
1772698595440305000,4.905304931640625,1.770688772201538,-6.632904529571533,-0.9499505758285522
1772698595457651000,4.92265087890625,1.277767300605774,-7.740781307220459,0.2153540402650833
1772698595474997200,4.939997314453125,1.3160524368286133,-8.327022552490234,1.3040883541107178
1772698595492343300,4.95734326171875,1.612762451171875,-9.238688468933105,1.3160524368286133
1772698595509689600,4.974689697265625,1.801795482635498,-10.255638122558594,1.0480563640594482
1772698595527035600,4.99203564453125,1.648654818534851,-9.860821723937988,-0.12681959569454193
1772698595544382000,5.0093818359375,1.1102696657180786,-8.384450912475586,-2.1846470832824707
1772698595561728000,5.02672802734375,1.215553879737854,-8.740981101989746,-3.862015724182129
1772698595579074300,5.04407421875,1.7276179790496826,-11.016555786132812,-3.8285162448883057
1772698595596420400,5.06142041015625,2.478964328765869,-12.665210723876953,-0.12203395366668701
1772698595613766700,5.0787666015625,2.5674986839294434,-17.448463439941406,3.5126636028289795
1772698595631112700,5.09611279296875,1.6606189012527466,-23.114665985107422,6.872186660766602
1772698595648459000,5.113458984375,-0.3517449200153351,-23.913869857788086,7.5708909034729
1772698595665805000,5.13080517578125,0.3326023519039154,-20.441883087158203,7.980063438415527
1772698595683151400,5.1481513671875,1.2203395366668701,-15.134603500366211,6.386443614959717
1772698595700497400,5.165497314453125,3.297309637069702,-11.497512817382812,4.261617183685303
1772698595717843500,5.182843505859375,4.374079704284668,-9.351150512695312,2.974278450012207
1772698595735189800,5.200189697265625,4.101297855377197,-8.14516830444336,1.576870083808899
1772698595752535800,5.217535888671875,2.794816732406616,-7.891529083251953,0.7824530005455017
1772698595769882000,5.234882080078125,1.2131611108779907,-7.178467750549316,0.7010970115661621
1772698595787228200,5.252228271484375,0.3684946894645691,-6.869793891906738,1.0217353105545044
1772698595804574500,5.269574462890625,0.9667003750801086,-6.3601226806640625,1.8472590446472168
1772698595821920500,5.28692041015625,0.7848458290100098,-5.548955917358398,1.7515461444854736
1772698595839266800,5.304266845703125,0.5982056856155396,-5.335994720458984,1.3423734903335571
1772698595856612900,5.32161279296875,0.9451649188995361,-5.874379634857178,0.5718846321105957
1772698595873959200,5.338959228515625,1.2897313833236694,-6.429514408111572,-0.2847459018230438
1772698595891305200,5.35630517578125,1.459621787071228,-6.788437843322754,-0.5288137793540955
1772698595908651500,5.373651611328125,1.5409778356552124,-7.22871732711792,0.05024927482008934
1772698595925997600,5.39099755859375,1.545763373374939,-7.331608772277832,0.727418065071106
1772698595943343900,5.40834375,1.1988041400909424,-6.888936519622803,1.155733346939087
1772698595960690000,5.42568994140625,1.0648061037063599,-6.080162525177002,1.4620146751403809
1772698595978036200,5.4430361328125,1.6582261323928833,-5.410171985626221,1.9334007501602173
1772698595995382300,5.46038232421875,2.445464849472046,-5.352744102478027,2.0865414142608643
1772698596012728300,5.477728271484375,3.074777126312256,-6.089733600616455,2.555534601211548
1772698596030074600,5.49507470703125,3.5820555686950684,-7.688138961791992,2.6488547325134277
1772698596047420700,5.512420654296875,2.682354211807251,-9.332008361816406,3.263810157775879
1772698596064767000,5.52976708984375,0.9451649188995361,-8.894122123718262,3.3571300506591797
1772698596082113000,5.547113037109375,1.5960127115249634,-7.456035137176514,2.9288148880004883
1772698596099459300,5.564459228515625,3.108276605606079,-5.948556900024414,2.823530673980713
1772698596116805400,5.581805419921875,4.230510234832764,-5.54177713394165,2.5124638080596924
1772698596134151700,5.599151611328125,4.35254430770874,-6.3601226806640625,3.146561861038208
1772698596151497700,5.616497802734375,1.5649060010910034,-9.671789169311523,5.72123908996582
1772698596168844000,5.633843994140625,-1.3806586265563965,-20.437097549438477,7.444071292877197
1772698596186190000,5.651190185546875,-8.800801277160645,-29.840890884399414,-0.2967100143432617
1772698596212209400,5.67720947265625,-0.5024927258491516,-13.265809059143066,-3.9314076900482178
1772698596229555500,5.694555419921875,2.830709218978882,-9.533005714416504,-1.7084753513336182
1772698596246901800,5.71190185546875,9.363115310668945,-11.547761917114258,-0.9236295223236084
1772698596264247800,5.729247802734375,8.097311973571777,-9.370293617248535,1.7635103464126587
1772698596281594000,5.746593994140625,2.4598217010498047,-9.269794464111328,2.3258235454559326
1772698596298940200,5.763940185546875,-0.24646073579788208,-14.536397933959961,0.9427721500396729
1772698596316286500,5.781286376953125,-1.9884356260299683,-18.573089599609375,0.12681959569454193
1772698596333632500,5.798632568359375,-0.14835500717163086,-16.790435791015625,-0.014356935396790504
1772698596350978800,5.815978759765625,2.2085752487182617,-12.32542896270752,0.7010970115661621
1772698596368324900,5.833324951171875,4.024727821350098,-9.375079154968262,1.4213366508483887
1772698596385671200,5.850671142578125,3.7112679481506348,-7.168896675109863,1.526620864868164
1772698596403017200,5.868017333984375,2.172683000564575,-5.864808082580566,1.3112667798995972
1772698596420363300,5.88536328125,1.6199408769607544,-5.606383323669434,1.2059825658798218
1772698596437709600,5.90270947265625,1.4835500717163086,-6.774080753326416,1.6630117893218994
1772698596455055600,5.9200556640625,1.2969099283218384,-8.46341323852539,2.4502503871917725
1772698596472402000,5.93740185546875,1.545763373374939,-9.248259544372559,3.184846878051758
1772698596489748000,5.954748046875,1.856830358505249,-8.585447311401367,3.586841106414795
1772698596507094300,5.97209423828125,2.3258235454559326,-6.695117950439453,3.129812002182007
1772698596524440300,5.9894404296875,2.825923442840576,-4.347758769989014,2.3258235454559326
1772698596541786600,6.00678662109375,3.10109806060791,-2.7086751461029053,1.797009825706482
1772698596559132700,6.024132568359375,2.854637384414673,-2.510071039199829,1.3639088869094849
1772698596576479000,6.04147900390625,2.4430718421936035,-3.517449378967285,0.5575276613235474
1772698596593825000,6.058824951171875,2.306680917739868,-4.510470867156982,-0.4091726839542389
1772698596611171300,6.07617138671875,2.313859462738037,-5.558526992797852,-0.5958128571510315
1772698596628517400,6.093517333984375,2.218146562576294,-7.0923261642456055,-0.019142581149935722
1772698596645863700,6.11086376953125,2.2372891902923584,-9.454042434692383,1.5361921787261963
1772698596663209700,6.128209716796875,2.2947168350219727,-11.863615036010742,3.0005996227264404
1772698596680556000,6.14555615234375,1.4931213855743408,-12.0335054397583,1.9381862878799438
1772698596697902000,6.162902099609375,1.0360921621322632,-9.138189315795898,-1.1030912399291992
1772698596715248400,6.180248291015625,2.108076810836792,-7.0301127433776855,-3.6466617584228516
1772698596732594400,6.197594482421875,3.1561331748962402,-9.29611587524414,-2.799602508544922
1772698596749940700,6.214940673828125,2.5196423530578613,-13.598411560058594,1.210768222808838
1772698596767286800,6.232286865234375,2.2061824798583984,-18.948762893676758,5.036891460418701
1772698596784633000,6.249633056640625,0.5599204897880554,-23.499910354614258,6.3601226806640625
1772698596801979100,6.266979248046875,0.5527420043945312,-24.335006713867188,5.278566837310791
1772698596819325400,6.284325439453125,1.4021940231323242,-19.771894454956055,6.522834300994873
1772698596836671500,6.30167138671875,2.0099709033966064,-14.498112678527832,6.642475605010986
1772698596854017500,6.319017578125,3.4025938510894775,-11.310873031616211,5.802595138549805
1772698596871363800,6.33636376953125,3.4480574131011963,-9.844072341918945,4.486542224884033
1772698596888710000,6.3537099609375,3.218346357345581,-8.970691680908203,2.1200408935546875
1772698596906056200,6.37105615234375,1.9980069398880005,-8.482556343078613,0.6867401003837585
1772698596923402200,6.38840234375,0.6460621356964111,-8.051848411560059,0.5240281820297241
1772698596940748500,6.40574853515625,-0.2871387302875519,-7.6498541831970215,0.6221339106559753
1772698596958094600,6.423094482421875,0.07178468257188797,-6.951149940490723,0.4307080805301666
1772698596975441000,6.44044091796875,0.8063812255859375,-5.836094379425049,0.14356936514377594
1772698596992787000,6.457786865234375,0.763310432434082,-5.312066078186035,-0.02871387079358101
1772698597010133200,6.47513330078125,0.8662018179893494,-4.965106964111328,-0.04546362906694412
1772698597027479300,6.492479248046875,0.9499505758285522,-4.778466701507568,-0.07178468257188797
1772698597044825600,6.50982568359375,0.9332008361816406,-4.754538536071777,0.17228323221206665
1772698597062171600,6.527171630859375,1.4715858697891235,-4.170690059661865,0.6963114142417908
1772698597079518000,6.54451806640625,0.9403793215751648,-4.603790760040283,0.5838487148284912
1772698597096864000,6.561864013671875,1.8233308792114258,-4.596612453460693,0.8398807644844055
1772698597114210300,6.579210205078125,2.462214469909668,-4.4961137771606445,0.2392822653055191
1772698597131556400,6.596556396484375,2.6057839393615723,-5.565705299377441,-0.20099709928035736
1772698597148902700,6.613902587890625,1.3208380937576294,-7.89631462097168,-0.7058826684951782
1772698597166248700,6.631248779296875,1.1150553226470947,-10.470992088317871,-0.7465606927871704
1772698597183595000,6.648594970703125,1.1437692642211914,-10.552348136901855,0.16510476171970367
1772698597200941000,6.665941162109375,2.1128623485565186,-8.429914474487305,1.4476577043533325
1772698597218287400,6.683287353515625,3.421736478805542,-6.386443614959717,2.730210542678833
1772698597235633400,6.70063330078125,3.7543387413024902,-5.711667537689209,4.130012035369873
1772698597252979700,6.717979736328125,2.0745773315429688,-8.161917686462402,6.460621356964111
1772698597270325800,6.73532568359375,-0.47617170214653015,-16.386049270629883,6.618547439575195
1772698597287672000,6.752672119140625,-5.979663848876953,-25.428525924682617,1.2586246728897095
1772698597305018000,6.77001806640625,-1.28255295753479,-21.276979446411133,-3.7782669067382812
1772698597322364200,6.7873642578125,-0.035892341285943985,-11.85165023803711,-1.3758729696273804
1772698597339710500,6.80471044921875,2.847458839416504,-10.023533821105957,1.3782658576965332
1772698597357056800,6.822056884765625,8.659625053405762,-13.648660659790039,1.852044701576233
1772698597374402800,6.83940283203125,5.781059741973877,-12.098111152648926,1.28255295753479
1772698597391749000,6.8567490234375,1.5337992906570435,-10.607382774353027,-0.46420758962631226
1772698597409095200,6.87409521484375,-0.11964113265275955,-12.524033546447754,-1.3591232299804688
1772698597426441500,6.89144140625,-0.7513462901115417,-14.110475540161133,-0.8303094506263733
1772698597443787500,6.90878759765625,1.1820544004440308,-14.663217544555664,0.04546362906694412
1772698597461133800,6.9261337890625,3.0317063331604004,-13.761122703552246,1.674975872039795
1772698597478480000,6.94347998046875,2.706282377243042,-11.550154685974121,2.311466693878174
1772698597495826000,6.960825927734375,1.8041882514953613,-10.097711563110352,3.098705291748047
1772698597513172200,6.978172119140625,0.7034898400306702,-9.415757179260254,2.825923442840576
1772698597530518300,6.995518310546875,1.129412293434143,-8.824729919433594,2.0650060176849365
1772698597547864600,7.012864501953125,2.4095723628997803,-7.812565803527832,1.373480200767517
1772698597565210600,7.030210693359375,3.0317063331604004,-7.458428382873535,1.1318050622940063
1772698597582557000,7.047556884765625,2.344966173171997,-8.094919204711914,1.6031911373138428
1772698597599903000,7.064903076171875,1.3184453248977661,-8.559126853942871,2.2851455211639404
1772698597617249300,7.082249267578125,1.275374412536621,-8.128418922424316,2.641676187515259
1772698597634595300,7.09959521484375,1.856830358505249,-7.523034572601318,2.445464849472046
1772698597651941600,7.116941650390625,2.6799614429473877,-7.101897716522217,2.0889341831207275
1772698597669287700,7.13428759765625,2.6321048736572266,-6.733402729034424,1.2418749332427979
1772698597686634000,7.151634033203125,3.2135608196258545,-6.089733600616455,0.6173482537269592
1772698597703980000,7.16897998046875,2.4717857837677,-5.788238048553467,0.29431718587875366
1772698597721326300,7.186326416015625,1.8592232465744019,-6.013163089752197,0.6197410821914673
1772698597738672400,7.20367236328125,1.2729816436767578,-6.403193473815918,0.9332008361816406
1772698597756018700,7.221018798828125,1.3615161180496216,-6.853044033050537,1.1341979503631592
1772698597773364700,7.23836474609375,1.7180466651916504,-7.585247993469238,1.2801600694656372
1772698597790711000,7.2557109375,2.2755744457244873,-8.556734085083008,1.277767300605774
1772698597808057000,7.27305712890625,3.2853455543518066,-9.09990406036377,1.1174482107162476
1772698597825403400,7.2904033203125,4.223331928253174,-8.578269004821777,0.6125625967979431
1772698597842749400,7.30774951171875,5.008177757263184,-7.676175117492676,0.1339980661869049
1772698597860095700,7.325095703125,5.242674350738525,-7.264609336853027,0.16271193325519562
1772698597877441800,7.34244189453125,3.1800613403320312,-7.5708909034729,0.9475577473640442
1772698597894788000,7.3597880859375,-1.1461620330810547,-8.528019905090332,2.3330020904541016
1772698597912134100,7.377134033203125,-5.441278457641602,-11.973684310913086,2.0003998279571533
1772698597929480400,7.39448046875,-6.534798622131348,-16.264015197753906,1.5290136337280273
1772698597946826500,7.411826416015625,-5.044070243835449,-16.816757202148438,0.014356935396790504
1772698597964172800,7.4291728515625,-4.108476638793945,-16.352550506591797,-0.7250252366065979
1772698597981518800,7.446518798828125,-3.3547372817993164,-17.3814640045166,-0.40677985548973083
1772698597998865200,7.463865234375,-2.5387847423553467,-18.587446212768555,0.35413774847984314
1772698598016211200,7.481211181640625,-1.5026925802230835,-16.60858154296875,2.6153552532196045
1772698598033557500,7.4985576171875,-1.490728497505188,-14.849857330322266,5.077569484710693
1772698598050903600,7.515903564453125,-1.2346965074539185,-14.775679588317871,4.969892501831055
1772698598068249900,7.533249755859375,-0.5000999569892883,-13.84965705871582,3.6155550479888916
1772698598085596000,7.550595947265625,0.07896314561367035,-11.138589859008789,2.9479575157165527
1772698598102942200,7.567942138671875,0.6747759580612183,-7.183253765106201,2.651247501373291
1772698598120288300,7.585288330078125,0.6149554252624512,-5.458028316497803,2.3880369663238525
1772698598137634600,7.602634521484375,1.332802176475525,-4.874179840087891,1.368694543838501
1772698598154980600,7.619980712890625,1.7012969255447388,-4.902893543243408,0.07896314561367035
1772698598172327000,7.637326904296875,1.4404792785644531,-5.898307800292969,-0.6819544434547424
1772698598189673000,7.6546728515625,1.4213366508483887,-6.580262184143066,-0.9403793215751648
1772698598207019300,7.672019287109375,1.7156537771224976,-7.061219692230225,-0.760917603969574
1772698598224365300,7.689365234375,1.435693621635437,-6.989434719085693,-0.34217363595962524
1772698598241711600,7.706711669921875,1.5122638940811157,-7.008577346801758,-0.07417750358581543
1772698598259057700,7.7240576171875,2.0171494483947754,-7.429714202880859,0.2512463629245758
1772698598276404000,7.741404052734375,2.306680917739868,-8.044670104980469,0.7369893789291382
1772698598293750000,7.75875,2.2636101245880127,-8.630910873413086,1.4261223077774048
1772698598311096300,7.776096435546875,2.3330020904541016,-9.20997428894043,2.084148406982422
1772698598328442600,7.793442626953125,2.5746772289276123,-9.463613510131836,2.792423963546753
1772698598345788700,7.81078857421875,2.4598217010498047,-9.21715259552002,3.084348440170288
1772698598363135000,7.828135009765625,2.4909284114837646,-8.786444664001465,3.1489546298980713
1772698598380481000,7.84548095703125,3.4552359580993652,-8.891729354858398,3.136990547180176
1772698598397827300,7.862827392578125,4.498506546020508,-9.497113227844238,3.218346357345581
1772698598415173400,7.88017333984375,4.804787635803223,-10.691131591796875,4.644468784332275
1772698598432519700,7.897519775390625,4.551148891448975,-10.918449401855469,6.214160442352295
1772698598449865700,7.91486572265625,2.706282377243042,-11.181660652160645,6.190232276916504
1772698598467212000,7.9322119140625,0.8877372145652771,-16.484155654907227,3.359523057937622
1772698598484558000,7.94955810546875,-3.22552490234375,-18.630517959594727,1.0671988725662231
1772698598501904400,7.966904296875,-5.402993679046631,-20.7242374420166,-2.5435705184936523
1772698598519250400,7.98425048828125,1.4093725681304932,-20.111675262451172,-5.422136306762695
1772698598536596700,8.0015966796875,-0.3445664644241333,-8.819944381713867,-3.7974095344543457
1772698598553942800,8.01894287109375,-2.447857618331909,-5.032105922698975,-2.227717876434326
1772698598571289000,8.0362890625,-2.526820659637451,-5.7619171142578125,0.727418065071106
1772698598588635100,8.05363525390625,-1.7395820617675781,-9.339186668395996,3.9146578311920166
1772698598605981400,8.0709814453125,-1.275374412536621,-12.335000991821289,1.923829436302185
1772698598623327500,8.088327392578124,-1.0528420209884644,-13.196416854858398,-1.6965112686157227
1772698598640673800,8.105673828125,0.5575276613235474,-12.713067054748535,-4.1730828285217285
1772698598658019800,8.123019775390626,1.0528420209884644,-9.968499183654785,-4.381258487701416
1772698598675366100,8.1403662109375,0.380458801984787,-8.46580696105957,-3.2231321334838867
1772698598692712400,8.15771240234375,-0.019142581149935722,-9.351150512695312,-1.1030912399291992
1772698598710058500,8.17505859375,-0.16271193325519562,-9.422935485839844,-0.397208571434021
1772698598727404800,8.19240478515625,0.24646073579788208,-9.090332984924316,0.5647061467170715
1772698598744750800,8.209750732421876,1.2083754539489746,-8.683553695678711,1.6031911373138428
1772698598762097200,8.22709716796875,1.5792629718780518,-7.970492362976074,2.2133610248565674
1772698598779443200,8.244443115234375,1.2849457263946533,-7.795815944671631,2.179861545562744
1772698598796789500,8.26178955078125,1.038485050201416,-8.525627136230469,1.8664016723632812
1772698598814135600,8.279135498046875,0.7226324677467346,-9.470791816711426,1.789831280708313
1772698598831481900,8.29648193359375,0.4450650215148926,-9.504291534423828,1.5649060010910034
1772698598848828000,8.313827880859375,0.34695929288864136,-9.006584167480469,1.1318050622940063
1772698598866174200,8.33117431640625,0.5742774605751038,-8.547162055969238,1.0241280794143677
1772698598883520300,8.348520263671874,0.8542376756668091,-8.13081169128418,0.8590233325958252
1772698598900866600,8.365866455078125,0.973878800868988,-8.032705307006836,0.6604190468788147
1772698598918212600,8.383212646484376,1.0767701864242554,-7.81974458694458,0.5958128571510315
1772698598935559000,8.400558837890625,1.3208380937576294,-7.216753005981445,0.5862415432929993
1772698598952905200,8.4179052734375,1.5433706045150757,-6.589833736419678,0.727418065071106
1772698598970251300,8.435251220703124,1.911865234375,-6.410371780395508,1.3040883541107178
1772698598987597600,8.45259765625,1.7371892929077148,-7.046862602233887,2.2995026111602783
1772698599004943600,8.469943603515626,0.9786644577980042,-8.37009334564209,3.0245277881622314
1772698599022290000,8.4872900390625,0.3086741268634796,-9.253045082092285,3.342773199081421
1772698599039636000,8.504635986328125,-0.23688943684101105,-9.561718940734863,3.4169507026672363
1772698599056982300,8.521982177734374,-0.1339980661869049,-8.994620323181152,3.19441819190979
1772698599074328300,8.539328369140625,0.4307080805301666,-7.623532772064209,2.589034080505371
1772698599091674600,8.556674560546876,1.4715858697891235,-6.484549522399902,2.0482561588287354
1772698599109020700,8.574020751953125,2.256431818008423,-6.496513366699219,2.1128623485565186
1772698599126367000,8.591366943359375,1.2586246728897095,-7.8628153800964355,1.828116536140442
1772698599143713000,8.608713134765624,0.23210379481315613,-8.303094863891602,1.1437692642211914
1772698599161059300,8.626059326171875,0.5575276613235474,-7.137789726257324,0.4546363055706024
1772698599178405400,8.6434052734375,1.7156537771224976,-6.467799663543701,0.4905286431312561
1772698599195751700,8.660751708984375,2.266003131866455,-6.853044033050537,1.734796404838562
1772698599213098000,8.678097900390625,2.0554347038269043,-7.192824840545654,2.2779672145843506
1772698599230444000,8.695444091796874,1.8305093050003052,-7.458428382873535,1.648654818534851
1772698599247790300,8.712790283203125,1.1892328262329102,-8.628518104553223,1.2299108505249023
1772698599265136400,8.730136474609376,0.973878800868988,-12.011969566345215,2.1032910346984863
1772698599282482700,8.747482666015625,0.8063812255859375,-14.388042449951172,2.6871397495269775
1772698599299828700,8.764828857421875,1.069591760635376,-13.536197662353516,2.7900311946868896
1772698599317175000,8.782175048828124,1.2634103298187256,-12.229716300964355,3.9744784832000732
1772698599334521000,8.79952099609375,1.4069796800613403,-14.297115325927734,4.685146808624268
1772698599351867400,8.816867431640626,2.007578134536743,-18.575481414794922,5.419743061065674
1772698599369213700,8.834213623046875,1.5864413976669312,-21.903898239135742,5.936593055725098
1772698599386559700,8.851559814453125,1.954936146736145,-16.599010467529297,3.706482172012329
1772698599403906000,8.868906005859374,2.7326035499572754,-12.110074996948242,2.5914268493652344
1772698599421252000,8.886252197265625,2.6273193359375,-10.480563163757324,2.3545374870300293
1772698599438598400,8.903598388671876,2.1511476039886475,-10.813165664672852,3.4432718753814697
1772698599455944400,8.9209443359375,1.129412293434143,-10.356136322021484,3.7088751792907715
1772698599473290800,8.938290771484375,0.3326023519039154,-9.126225471496582,2.8115665912628174
1772698599490636800,8.95563671875,0.6939185857772827,-7.9585280418396,2.1535403728485107
1772698599507983000,8.972983154296875,1.3878371715545654,-6.857829570770264,1.7563318014144897
1772698599525329200,8.9903291015625,1.820937991142273,-5.941378593444824,1.2251251935958862
1772698599542675500,9.007675537109375,1.954936146736145,-5.419743061065674,0.7393822073936462
1772698599560021800,9.025021728515625,1.9286150932312012,-5.391029357910156,0.41156548261642456
1772698599577367800,9.042367919921874,1.8089739084243774,-5.802595138549805,0.2871387302875519
1772698599594714000,9.059714111328125,1.5050854682922363,-6.484549522399902,0.5575276613235474
1772698599612060200,9.07706005859375,1.3088740110397339,-6.946363925933838,0.6556333899497986
1772698599629406500,9.094406494140625,1.2275179624557495,-6.951149940490723,0.46420758962631226
1772698599646752500,9.11175244140625,1.1820544004440308,-6.491727828979492,0.10767702013254166
1772698599664098800,9.129098876953124,1.5912270545959473,-5.795416355133057,-0.04307080805301666
1772698599681445000,9.146445068359375,2.0554347038269043,-5.434100151062012,0.08853443711996078
1772698599698791200,9.163791259765626,1.8687944412231445,-5.594419479370117,0.3565305769443512
1772698599716137500,9.181137451171875,1.7252250909805298,-6.3122663497924805,0.4618147611618042
1772698599733483500,9.1984833984375,1.6007983684539795,-7.872386455535889,0.6628118753433228
1772698599750829800,9.215829833984374,1.7587246894836426,-9.920642852783203,1.3854442834854126
1772698599768175900,9.23317578125,1.648654818534851,-10.98305606842041,2.967100143432617
1772698599785522200,9.250522216796876,0.9020941257476807,-9.317651748657227,3.8285162448883057
1772698599802868200,9.2678681640625,1.5337992906570435,-7.135396957397461,4.570291042327881
1772698599820214500,9.285214599609375,2.4909284114837646,-5.32403039932251,4.642076015472412
1772698599837560800,9.302560791015624,3.2470602989196777,-4.536791801452637,4.53200626373291
1772698599854907000,9.319906982421875,4.431507587432861,-5.702096462249756,5.307280540466309
1772698599872253200,9.337253173828126,3.0867412090301514,-8.358129501342773,4.780859470367432
1772698599889599200,9.35459912109375,0.10049854964017868,-16.074981689453125,5.941378593444824
1772698599906945500,9.371945556640625,-4.048655986785889,-28.120450973510742,1.5385849475860596
1772698599924291800,9.389291748046874,-8.10688304901123,-27.617958068847656,-5.139782905578613
1772698599941638000,9.406637939453125,2.122433662414551,-21.84886360168457,-4.082155227661133
1772698599958984200,9.423984130859376,6.173482418060303,-13.387843132019043,-2.8283164501190186
1772698599976330200,9.441330322265625,10.971092224121094,-3.8333017826080322,-0.31824541091918945
1772698599993676500,9.458676513671875,8.214560508728027,-1.5672988891601562,0.3565305769443512
1772698600011022600,9.476022705078124,3.4719855785369873,-9.360722541809082,2.053041934967041
1772698600028369000,9.493368896484375,-2.6177480220794678,-16.967504501342773,1.1581261157989502
1772698600045715000,9.51071484375,-4.338187217712402,-23.739192962646484,-0.4450650215148926
1772698600063061200,9.528061279296875,-0.4426721930503845,-19.434505462646484,-1.4069796800613403
1772698600080407600,9.545407470703125,1.8687944412231445,-11.715259552001953,0.9571290612220764
1772698600097753600,9.562753662109374,4.175475597381592,-7.661818027496338,3.211168050765991
1772698600115100000,9.580099853515625,3.8883368968963623,-4.9363932609558105,3.074777126312256
1772698600132446000,9.597446044921876,1.94297194480896,-4.041477680206299,2.280359983444214
1772698600149792300,9.614792236328125,1.4021940231323242,-5.745167255401611,0.9906286001205444
1772698600167138300,9.63213818359375,1.5361921787261963,-7.178467750549316,0.8470591902732849
1772698600184484600,9.649484619140624,1.674975872039795,-8.60459041595459,1.6319050788879395
1772698600201831000,9.666830810546875,2.0195422172546387,-9.53061294555664,2.809173822402954
1772698600219177000,9.684177001953126,1.3782658576965332,-9.044869422912598,4.235296249389648
1772698600236523300,9.701523193359375,0.8303094506263733,-7.568498134613037,4.362115859985352
1772698600253869300,9.718869384765625,1.2993026971817017,-6.398407936096191,3.326023578643799
1772698600271215600,9.736215576171874,2.59621262550354,-6.080162525177002,2.4574289321899414
1772698600288561700,9.753561767578125,3.555734395980835,-6.180660724639893,1.8664016723632812
1772698600305908000,9.770907958984376,3.5844483375549316,-6.463014125823975,1.466800332069397
1772698600323254300,9.788254150390625,2.9144580364227295,-6.97268533706665,1.074377417564392
1772698600340600300,9.805600341796875,2.00518536567688,-7.3675007820129395,0.6436693072319031
1772698600357946600,9.822946533203124,1.1174482107162476,-7.491927623748779,0.31106695532798767
1772698600375292700,9.840292724609375,1.0600204467773438,-7.412964344024658,0.2153540402650833
1772698600392639000,9.857638916015626,1.466800332069397,-6.888936519622803,0.5359922647476196
1772698600409985300,9.8749853515625,2.021935224533081,-6.678368091583252,1.3088740110397339
1772698600427331300,9.892331298828125,2.4741785526275635,-7.338787078857422,1.8089739084243774
1772698600444677600,9.909677734375,2.799602508544922,-8.13081169128418,1.3806586265563965
1772698600462023700,9.927023681640625,2.282752752304077,-7.846065521240234,0.6556333899497986
1772698600479370000,9.944369873046876,1.8448662757873535,-8.047062873840332,0.10049854964017868
1772698600496716000,9.961716064453125,1.8855443000793457,-8.927620887756348,-0.07178468257188797
1772698600514062300,9.979062255859375,1.2299108505249023,-9.66939640045166,-0.6795616149902344
1772698600531408400,9.996408447265624,0.8255237936973572,-9.561718940734863,-1.947757601737976
1772698600548754700,10.013754638671875,0.9858429431915283,-10.164710998535156,-2.7972097396850586
1772698600566101000,10.03110107421875,1.038485050201416,-11.542976379394531,-2.203789710998535
1772698600583447000,10.048447021484375,1.9764715433120728,-13.540983200073242,1.552941918373108
1772698600600793300,10.06579345703125,2.084148406982422,-17.094324111938477,5.087141036987305
1772698600618139600,10.0831396484375,1.1270195245742798,-23.011775970458984,9.65503978729248
1772698600635485700,10.100485595703125,-0.9068797826766968,-24.270401000976562,12.143574714660645
1772698600652832000,10.11783203125,0.2919243574142456,-16.29033660888672,8.669196128845215
1772698600670178000,10.135177978515625,2.691925525665283,-11.241480827331543,4.60857629776001
1772698600687524400,10.1525244140625,5.402993679046631,-9.468399047851562,2.304288148880005
1772698600704870400,10.169870361328124,5.350351333618164,-9.827322959899902,0.8877372145652771
1772698600722216700,10.187216796875,3.572484254837036,-9.556933403015137,1.0432707071304321
1772698600739563000,10.20456298828125,1.1676974296569824,-8.642875671386719,1.337587833404541
1772698600756909000,10.221908935546875,-0.04785645380616188,-7.549355506896973,1.4141582250595093
1772698600774255400,10.23925537109375,0.17706887423992157,-6.795616149902344,1.7802600860595703
1772698600791601400,10.256601318359374,0.7800601720809937,-5.900700569152832,1.674975872039795
1772698600808947700,10.27394775390625,1.3160524368286133,-5.120640277862549,1.521835207939148
1772698600826294000,10.2912939453125,1.7563318014144897,-4.816751956939697,1.576870083808899
1772698600843640000,10.30864013671875,2.0578274726867676,-4.924428939819336,1.4524433612823486
1772698600860986400,10.325986328125,2.390429735183716,-5.515456199645996,1.3663017749786377
1772698600878332700,10.343332763671874,2.1918256282806396,-5.974878311157227,1.2490534782409668
1772698600895678700,10.3606787109375,1.6390835046768188,-6.297909259796143,0.9403793215751648
1772698600913025000,10.37802490234375,1.2634103298187256,-6.3529438972473145,1.0887342691421509
1772698600930371000,10.39537109375,1.1078768968582153,-6.051448345184326,1.5074782371520996
1772698600947717400,10.41271728515625,1.2131611108779907,-5.879165172576904,1.5960127115249634
1772698600965063400,10.4300634765625,1.459621787071228,-6.374479293823242,1.423729419708252
1772698600982409700,10.44740966796875,2.1894326210021973,-7.661818027496338,1.1030912399291992
1772698600999756000,10.464756103515626,2.8594231605529785,-9.138189315795898,1.2442678213119507
1772698601017102000,10.48210205078125,2.313859462738037,-9.564111709594727,2.3736801147460938
1772698601034448400,10.499448486328125,2.2707886695861816,-7.963313579559326,4.1970109939575195
1772698601051794400,10.51679443359375,2.792423963546753,-5.927021503448486,4.182653903961182
1772698601069140700,10.534140625,3.4504501819610596,-4.845465660095215,3.5437703132629395
1772698601086487000,10.551487060546876,3.6921253204345703,-5.3455657958984375,3.428914785385132
1772698601103833000,10.5688330078125,2.4358935356140137,-6.764509677886963,3.761517286300659
1772698601121179400,10.586179443359375,-2.462214469909668,-13.411770820617676,6.405586242675781
1772698601138525700,10.603525634765624,0.7920243144035339,-27.041288375854492,6.197410583496094
1772698601155871700,10.620871826171875,-9.351150512695312,-31.008588790893555,-2.304288148880005
1772698601173218000,10.638218017578126,-0.7345965504646301,-14.431113243103027,-4.53200626373291
1772698601190564000,10.655564208984375,0.8398807644844055,-9.882357597351074,-3.2590243816375732
1772698601207910400,10.672910400390625,7.637889862060547,-12.607782363891602,-1.4500504732131958
1772698601225256400,10.69025634765625,8.927620887756348,-10.514062881469727,2.1511476039886475
1772698601242602800,10.707602783203125,4.984249591827393,-7.9585280418396,3.957728624343872
1772698601259949000,10.724948974609376,2.4358935356140137,-10.41356372833252,2.550748825073242
1772698601277295000,10.742295166015625,-0.28235307335853577,-14.364114761352539,1.069591760635376
1772698601294641400,10.759641357421875,-0.672383189201355,-17.9700984954834,1.0911271572113037
1772698601311987700,10.77698779296875,-0.016749758273363113,-15.840485572814941,0.9786644577980042
1772698601329333800,10.794333740234375,0.9810572862625122,-11.509476661682129,0.6197410821914673
1772698601346680000,10.81168017578125,2.3784656524658203,-8.169096946716309,0.12681959569454193
1772698601364026400,10.8290263671875,2.644068956375122,-5.982056617736816,-0.3852444589138031
1772698601381372400,10.846372314453125,2.2229323387145996,-5.161318302154541,-0.35413774847984314
1772698601398718700,10.86371875,1.7324036359786987,-5.338387489318848,-0.12921242415905
1772698601416064800,10.881064697265625,1.2681959867477417,-6.472585201263428,0.7920243144035339
1772698601433411000,10.8984111328125,0.916451096534729,-7.8388872146606445,1.9405791759490967
1772698601450757000,10.915757080078125,1.0791629552841187,-8.422736167907715,2.847458839416504
1772698601468103400,10.933103515625,1.6103696823120117,-7.802994728088379,3.345165967941284
1772698601485449700,10.95044970703125,2.321038007736206,-6.439085960388184,3.730410575866699
1772698601502795800,10.967795654296875,3.115455150604248,-5.0943193435668945,3.9625144004821777
1772698601520142000,10.98514208984375,3.019742250442505,-4.412364959716797,3.728017568588257
1772698601537488400,11.00248828125,2.201396942138672,-4.627718925476074,2.7637102603912354
1772698601554834400,11.01983447265625,1.3663017749786377,-4.974678039550781,1.3232308626174927
1772698601572180700,11.0371806640625,1.2705888748168945,-5.0943193435668945,-0.29431718587875366
1772698601589526800,11.05452685546875,1.4739787578582764,-5.4556355476379395,-1.0528420209884644
1772698601606873000,11.071873046875,1.7395820617675781,-6.865008354187012,-0.3206382393836975
1772698601624219400,11.089219482421875,2.2995026111602783,-9.446864128112793,1.4189438819885254
1772698601641565400,11.1065654296875,2.770888566970825,-11.026126861572266,2.524427890777588
1772698601658911700,11.123911865234374,2.0673987865448,-10.29870891571045,1.8711873292922974
1772698601676258000,11.141258056640625,1.6917256116867065,-8.788837432861328,-0.38763725757598877
1772698601693604000,11.15860400390625,1.7276179790496826,-7.874779224395752,-2.7972097396850586
1772698601710950400,11.175950439453125,2.5914268493652344,-9.243474006652832,-3.9194436073303223
1772698601728296400,11.19329638671875,2.100898265838623,-11.885149955749512,-2.0817556381225586
1772698601745642800,11.210642822265624,2.2061824798583984,-14.35454273223877,2.6632115840911865
1772698601762989000,11.227989013671875,1.8161523342132568,-18.300308227539062,6.3840508460998535
1772698601780335000,11.245335205078124,-0.9595218896865845,-24.028724670410156,9.535398483276367
1772698601797681400,11.262681396484375,-1.6342978477478027,-24.56232452392578,10.863414764404297
1772698601815027700,11.28002783203125,0.12442677468061447,-17.431713104248047,8.37009334564209
1772698601832373800,11.297373779296874,2.4358935356140137,-11.380264282226562,5.163711071014404
1772698601849720000,11.314719970703125,4.5583271980285645,-8.307880401611328,3.359523057937622
1772698601867066000,11.332066162109374,4.046263217926025,-9.372686386108398,0.760917603969574
1772698601884412400,11.349412353515625,5.733202934265137,-10.87298583984375,0.18424734473228455
1772698601901758700,11.3667587890625,2.8666014671325684,-8.817551612854004,-3.900300979614258
1772698601919105000,11.38410498046875,4.252045631408691,-4.962714195251465,0.13160525262355804
1772698601936451000,11.401451171875,2.3162522315979004,-5.6590256690979,2.2085752487182617
1772698601953797400,11.41879736328125,-2.390429735183716,-7.506284713745117,2.306680917739868
1772698601971143400,11.436143310546875,-3.8835511207580566,-8.987442016601562,3.0388846397399902
1772698601988489700,11.45348974609375,-0.9092726111412048,-9.726823806762695,3.5820555686950684
1772698602005836000,11.4708359375,3.31884503364563,-7.008577346801758,1.4500504732131958
1772698602023182000,11.48818212890625,3.5748770236968994,-5.201996326446533,0.7465606927871704
1772698602040528400,11.5055283203125,2.321038007736206,-4.515256404876709,1.4620146751403809
1772698602057874700,11.522874755859375,1.9310078620910645,-4.319045066833496,1.7850457429885864
1772698602075220700,11.540220703125,2.610569477081299,-3.84765887260437,1.828116536140442
1772698602092567000,11.557567138671875,2.4023938179016113,-3.830909013748169,1.3423734903335571
1772698602109913300,11.574913330078125,1.4117653369903564,-4.491328239440918,1.0193424224853516
1772698602127259400,11.59225927734375,-0.02632104977965355,-5.905486106872559,1.3280165195465088
1772698602144605700,11.609605712890625,0.9523434042930603,-7.5086774826049805,1.667797327041626
1772698602161951700,11.62695166015625,1.6630117893218994,-8.683553695678711,1.2586246728897095
1772698602179298000,11.644298095703125,3.2685956954956055,-9.186046600341797,1.397408366203308
1772698602196644400,11.661644287109375,4.551148891448975,-8.066205024719238,2.837887763977051
1772698602213990400,11.678990478515624,5.01296329498291,-6.1328043937683105,4.498506546020508
1772698602231336700,11.696336669921875,4.335794448852539,-5.350351333618164,5.1182475090026855
1772698602248683000,11.71368310546875,1.7132610082626343,-6.405586242675781,6.273981094360352
1772698602266029000,11.731029052734375,-2.0673987865448,-13.24427318572998,7.5804619789123535
1772698602283375400,11.748375244140625,-5.86002254486084,-24.346969604492188,4.649254322052002
1772698602300721700,11.7657216796875,-3.0867412090301514,-29.742786407470703,-2.6871397495269775
1772698602318067700,11.783067626953125,0.08614161610603333,-16.005590438842773,-4.9363932609558105
1772698602335414000,11.8004140625,4.620540618896484,-13.184453010559082,-0.8231309652328491
1772698602352760300,11.81776025390625,9.750752449035645,-11.909078598022461,0.21774685382843018
1772698602370106400,11.8351064453125,6.534798622131348,-6.996613502502441,1.9525432586669922
1772698602387452700,11.85245263671875,4.479363918304443,-3.493520975112915,1.5840486288070679
1772698602404798700,11.869798828125,0.6747759580612183,-9.418149948120117,1.6271194219589233
1772698602422145000,11.88714501953125,-1.9262222051620483,-17.079967498779297,1.0193424224853516
1772698602439491300,11.9044912109375,0.3158525824546814,-20.760129928588867,0.4905286431312561
1772698602456837400,11.92183740234375,0.8327022790908813,-16.37887191772461,-0.12203395366668701
1772698602474183700,11.93918359375,1.153340458869934,-10.853843688964844,0.5551348328590393
1772698602491530000,11.956530029296875,1.7467604875564575,-7.740781307220459,1.222732424736023
1772698602508876000,11.9738759765625,1.7180466651916504,-6.027520179748535,0.851844847202301
1772698602526222300,11.991222412109375,1.5098711252212524,-5.764309883117676,0.17228323221206665
1772698602543568600,12.008568603515625,1.7276179790496826,-6.2500529289245605,0.05503492057323456
1772698602560914700,12.025914794921874,1.9980069398880005,-7.436892986297607,0.7226324677467346
1772698602578261000,12.043260986328125,2.344966173171997,-9.487542152404785,2.517249345779419
1772698602595607300,12.060607177734376,2.1056840419769287,-10.753344535827637,4.029513359069824
1772698602612953300,12.077953369140625,2.0721843242645264,-9.836894035339355,3.950550079345703
1772698602630299600,12.095299560546875,2.7876384258270264,-8.09970474243164,3.1250264644622803
1772698602647646000,12.11264599609375,3.2781670093536377,-6.580262184143066,2.2755744457244873
1772698602664992000,12.129991943359375,3.326023578643799,-5.656632900238037,1.4883357286453247
1772698602682338300,12.14733837890625,2.8833513259887695,-5.587240695953369,1.0600204467773438
1772698602699684600,12.1646845703125,2.0315065383911133,-6.027520179748535,1.3399807214736938
1772698602717030700,12.18203076171875,1.397408366203308,-6.532405853271484,1.7252250909805298
1772698602734377000,12.199376953125,0.7130611538887024,-6.798008918762207,1.7515461444854736
1772698602751723000,12.216722900390625,0.4331009089946747,-6.687939167022705,1.404586911201477
1772698602769069300,12.2340693359375,0.851844847202301,-6.269195556640625,0.20817556977272034
1772698602786415600,12.25141552734375,2.2995026111602783,-5.891129493713379,-1.6893328428268433
1772698602803761700,12.26876171875,3.4480574131011963,-6.120840549468994,-3.2853455543518066
1772698602821108000,12.28610791015625,4.864608287811279,-7.525427341461182,-2.895315408706665
1772698602838454300,12.303454345703125,5.132604598999023,-9.839286804199219,-0.9188438653945923
1772698602855800300,12.32080029296875,2.4670002460479736,-10.566704750061035,1.545763373374939
1772698602873146600,12.338146728515625,-2.053041934967041,-10.176674842834473,3.462414264678955
1772698602890493000,12.355492919921875,-5.764309883117676,-13.47877025604248,3.9744784832000732
1772698602907839000,12.3728388671875,-5.891129493713379,-15.701702117919922,4.177868366241455
1772698602925185300,12.390185302734375,-4.969892501831055,-15.4360990524292,3.074777126312256
1772698602942531600,12.407531494140626,-3.5772697925567627,-15.03171157836914,2.5842485427856445
1772698602959877600,12.424877685546875,-2.7254250049591064,-17.95334815979004,2.612962245941162
1772698602977224000,12.442223876953125,-2.5938198566436768,-23.42812728881836,4.012763500213623
1772698602994570200,12.4595703125,-1.9286150932312012,-19.987247467041016,6.642475605010986
1772698603011916300,12.476916259765625,-2.266003131866455,-14.921642303466797,8.760123252868652
1772698603029262600,12.4942626953125,-1.6845471858978271,-13.00499153137207,8.685946464538574
1772698603046609000,12.51160888671875,0.016749758273363113,-10.269994735717773,6.041877269744873
1772698603063955000,12.528954833984375,1.2562319040298462,-6.372086524963379,3.19441819190979
1772698603081301200,12.54630126953125,2.421536445617676,-3.0795626640319824,1.4021940231323242
1772698603098647600,12.5636474609375,2.6273193359375,-3.0029923915863037,-0.12921242415905
1772698603115993600,12.58099365234375,2.5292134284973145,-4.761716842651367,-1.2897313833236694
1772698603133340000,12.59833984375,2.1032910346984863,-6.869793891906738,-1.9621145725250244
1772698603150686200,12.615686279296876,1.246660590171814,-8.030312538146973,-2.469393014907837
1772698603168032300,12.6330322265625,0.5838487148284912,-8.767302513122559,-2.0673987865448
1772698603185378600,12.650378662109375,0.4905286431312561,-8.271987915039062,-0.3684946894645691
1772698603202724900,12.667724853515624,0.33738797903060913,-7.534998416900635,1.3088740110397339
1772698603220071200,12.6850712890625,1.2681959867477417,-7.156932353973389,1.8711873292922974
1772698603237417200,12.702417236328126,2.589034080505371,-7.195217609405518,1.9142581224441528
1772698603254763500,12.719763427734375,2.9359934329986572,-7.262216567993164,1.8185452222824097
1772698603272109600,12.737109619140625,2.9240293502807617,-7.283751964569092,1.7012969255447388
1772698603289455900,12.754455810546874,3.4552359580993652,-7.908278942108154,1.7922241687774658
1772698603306802200,12.77180224609375,3.311666488647461,-9.276973724365234,1.9645073413848877
1772698603324148500,12.7891484375,2.2540390491485596,-10.918449401855469,2.273181438446045
1772698603341494500,12.80649462890625,2.7349963188171387,-10.482955932617188,2.589034080505371
1772698603358840800,12.8238408203125,3.3930225372314453,-9.343972206115723,3.005385160446167
1772698603376187100,12.841187255859374,3.7950167655944824,-9.745966911315918,5.099104881286621
1772698603393533200,12.858533203125,4.314259052276611,-9.846465110778809,7.1856465339660645
1772698603410879500,12.87587939453125,4.505684852600098,-8.48734188079834,7.520641803741455
1772698603428225800,12.893225830078125,4.070191383361816,-8.147561073303223,7.231110095977783
1772698603445572000,12.910572021484375,2.321038007736206,-8.561519622802734,5.869594097137451
1772698603462918100,12.927918212890624,0.4785645306110382,-12.612567901611328,4.400400638580322
1772698603480264400,12.945264404296875,-0.7896314859390259,-20.05424690246582,1.892722725868225
1772698603497610800,12.96261083984375,-4.2831525802612305,-22.774885177612305,-1.3160524368286133
1772698603514956800,12.979956787109375,-0.18424734473228455,-22.325035095214844,-5.2283172607421875
1772698603532303000,12.99730322265625,1.7371892929077148,-12.256037712097168,-4.314259052276611
1772698603549649400,13.0146494140625,-1.6199408769607544,-6.714260101318359,-2.8761727809906006
1772698603566995500,13.031995361328125,-2.0673987865448,-6.410371780395508,-0.04785645380616188
1772698603584341800,13.049341796875,-1.9453648328781128,-9.516255378723145,5.424529075622559
1772698603601688000,13.06668798828125,-2.6847469806671143,-10.930414199829102,4.73300313949585
1772698603619034400,13.084034423828125,-3.2853455543518066,-11.397014617919922,-0.07178468257188797
1772698603636380400,13.10138037109375,0.33020952343940735,-11.882757186889648,-3.328416347503662
1772698603653726700,13.118726806640625,1.9142581224441528,-10.73420238494873,-5.115854740142822
1772698603671073000,13.136072998046876,0.15074782073497772,-8.908478736877441,-6.463014125823975
1772698603688419000,13.153419189453125,-0.9882357716560364,-8.358129501342773,-4.871787071228027
1772698603705765400,13.170765380859375,-0.47617170214653015,-9.30329418182373,-2.895315408706665
1772698603723111700,13.188111572265624,-0.2273181527853012,-9.724431037902832,-1.7228323221206665
1772698603740458000,13.2054580078125,0.9427721500396729,-9.851250648498535,0.27038896083831787
1772698603757804000,13.222803955078126,1.978864312171936,-9.013762474060059,1.8185452222824097
1772698603775150300,13.240150390625,1.3615161180496216,-8.01356315612793,2.155933141708374
1772698603792496600,13.25749658203125,0.4570291340351105,-7.83410120010376,1.734796404838562
1772698603809842700,13.2748427734375,0.4307080805301666,-8.740981101989746,0.9236295223236084
1772698603827189000,13.29218896484375,1.1748759746551514,-9.578469276428223,0.7465606927871704
1772698603844535300,13.309535400390626,1.6342978477478027,-9.628718376159668,1.5146567821502686
1772698603861881300,13.32688134765625,1.4835500717163086,-9.391828536987305,2.641676187515259
1772698603879227600,13.3442275390625,1.2538390159606934,-9.150154113769531,3.4241292476654053
1772698603896574000,13.361573974609374,0.9978070259094238,-9.075976371765137,3.314059257507324
1772698603913920300,13.378920166015625,0.8327022790908813,-9.300901412963867,2.816352367401123
1772698603931266300,13.396266357421876,0.8662018179893494,-9.33440113067627,2.5603201389312744
1772698603948612600,13.413612548828125,0.5335994362831116,-9.128618240356445,2.6392834186553955
1772698603965959000,13.430958984375,-0.21774685382843018,-9.020941734313965,2.7900311946868896
1772698603983305000,13.448304931640624,-1.6007983684539795,-9.236295700073242,2.3258235454559326
1772698604000651300,13.4656513671875,-1.4380863904953003,-9.355937004089355,2.218146562576294
1772698604017997600,13.48299755859375,-0.7250252366065979,-8.252845764160156,1.4021940231323242
1772698604035344000,13.50034375,0.04307080805301666,-6.692724704742432,0.07178468257188797
1772698604052690000,13.51768994140625,1.1054840087890625,-5.773880958557129,-0.3684946894645691
1772698604070036200,13.5350361328125,1.5194423198699951,-5.955735683441162,0.2273181527853012
1772698604087382500,13.552382568359375,1.2203395366668701,-7.348358154296875,0.07657032459974289
1772698604104728600,13.569728515625,1.1102696657180786,-8.669196128845215,-0.48813581466674805
1772698604122075000,13.587074951171875,1.7730815410614014,-8.202595710754395,-0.11006984114646912
1772698604139421200,13.604421142578126,1.6701902151107788,-7.759923934936523,1.832902193069458
1772698604156767200,13.621767333984375,0.9690931439399719,-8.080561637878418,3.524627685546875
1772698604174113500,13.639113525390625,-0.37806597352027893,-8.374878883361816,4.323830604553223
1772698604191459800,13.6564599609375,-0.7800601720809937,-7.95134973526001,4.089334011077881
1772698604208806100,13.67380615234375,0.07178468257188797,-6.747759819030762,3.1657042503356934
1772698604226152200,13.691152099609376,1.2538390159606934,-5.407779216766357,2.56510591506958
1772698604243498500,13.70849853515625,2.108076810836792,-4.297509670257568,2.469393014907837
1772698604260844800,13.7258447265625,1.4859428405761719,-3.94815731048584,1.8137595653533936
1772698604278191000,13.743191162109374,-0.5048855543136597,-5.314459323883057,0.5886343717575073
1772698604295537200,13.760537109375,0.16510476171970367,-7.609176158905029,0.6963114142417908
1772698604312883500,13.777883544921876,2.3401806354522705,-9.1716890335083,2.6273193359375
1772698604330229800,13.795229736328125,1.3543375730514526,-9.41336441040039,1.0049854516983032
1772698604347576000,13.812576171875,-0.1052841991186142,-8.805587768554688,-0.9571290612220764
1772698604364922000,13.829922119140624,0.576670229434967,-11.035697937011719,-0.6699903607368469
1772698604382268400,13.847268310546875,1.5098711252212524,-14.47896957397461,0.7034898400306702
1772698604399614700,13.86461474609375,2.1415762901306152,-17.249858856201172,2.5459632873535156
1772698604416960800,13.881960693359375,1.1102696657180786,-21.942184448242188,4.278367042541504
1772698604434307000,13.89930712890625,1.0432707071304321,-26.160730361938477,7.613961696624756
1772698604451653400,13.9166533203125,-0.5168496966362,-22.904098510742188,9.499505996704102
1772698604468999700,13.933999755859375,1.1485549211502075,-15.62991714477539,6.245266914367676
1772698604486345700,13.951345703125,3.242274761199951,-10.564311981201172,3.8213376998901367
1772698604503692000,13.968692138671875,4.505684852600098,-8.133204460144043,1.7874385118484497
1772698604521038300,13.986038330078125,3.5533416271209717,-8.02791976928711,1.0169496536254883
1772698604538384600,14.003384521484374,1.332802176475525,-8.520841598510742,1.6582261323928833
1772698604555730700,14.020730712890625,-0.8542376756668091,-7.982456207275391,1.8711873292922974
1772698604573077000,14.038076904296876,-1.3088740110397339,-7.499105930328369,1.4476577043533325
1772698604590423300,14.05542333984375,-0.729810893535614,-6.8865437507629395,1.5744773149490356
1772698604607769600,14.07276953125,0.23449662327766418,-5.900700569152832,1.6175481081008911
1772698604625115600,14.09011572265625,1.0719845294952393,-5.072783946990967,1.3878371715545654
1772698604642462000,14.1074619140625,1.5314065217971802,-4.524827480316162,0.7034898400306702
1772698604659808300,14.124808349609374,1.6558332443237305,-4.668396949768066,0.08135596662759781
1772698604677154600,14.142154541015625,1.9621145725250244,-4.651647090911865,-0.3038884699344635
1772698604694500600,14.15950048828125,2.2612173557281494,-4.268795490264893,-0.9499505758285522
1772698604711847000,14.176846923828125,1.9764715433120728,-4.058227062225342,-0.9882357716560364
1772698604729193200,14.194193115234375,1.459621787071228,-4.053441524505615,-0.15314064919948578
1772698604746539500,14.21153955078125,0.3397808074951172,-4.3788652420043945,0.3852444589138031
1772698604763885600,14.228885498046875,-0.2991028428077698,-5.699703693389893,0.05024927482008934
1772698604781231900,14.24623193359375,-0.2871387302875519,-9.087940216064453,-0.2967100143432617
1772698604798578200,14.263578125,1.6462619304656982,-12.818350791931152,0.6508477330207825
1772698604815924500,14.280924560546875,4.175475597381592,-13.371092796325684,2.2636101245880127
1772698604833270500,14.2982705078125,4.613361835479736,-9.990034103393555,5.072783946990967
1772698604850616800,14.315616943359375,3.8739798069000244,-5.9437713623046875,5.891129493713379
1772698604867963100,14.332963134765626,4.340580463409424,-3.3643085956573486,5.221138954162598
1772698604885309400,14.350309326171875,3.5844483375549316,-3.1202406883239746,4.706682205200195
1772698604902655700,14.36765576171875,0.1698904037475586,-6.86261510848999,5.513063430786133
1772698604920001800,14.385001708984374,-2.66560435295105,-20.133209228515625,6.52044153213501
1772698604937348000,14.40234814453125,-9.731609344482422,-40.039100646972656,0.1459621787071228
1772698604954694400,14.4196943359375,-3.1992039680480957,-25.962125778198242,-4.711467742919922
1772698604972040700,14.437040771484375,5.7164530754089355,-17.142181396484375,-1.9764715433120728
1772698604989386800,14.45438671875,8.752944946289062,-10.303494453430176,-0.363709032535553
1772698605006733000,14.471733154296874,7.802994728088379,-3.081955671310425,1.4452649354934692
1772698605024079400,14.489079345703125,4.453042984008789,-2.7732813358306885,2.337787628173828
1772698605041425400,14.50642529296875,-0.5240281820297241,-13.014562606811523,1.6055840253829956
1772698605058771700,14.523771728515625,-1.038485050201416,-22.442283630371094,0
1772698605076118000,14.541117919921875,0.8638089895248413,-22.89931297302246,-0.885344386100769
1772698605093464300,14.55846435546875,1.7419748306274414,-12.897314071655273,-0.641276478767395
1772698605110810600,14.575810546875,2.7589244842529297,-7.551748275756836,1.1318050622940063
1772698605128156700,14.59315673828125,2.416750907897949,-4.347758769989014,1.4117653369903564
1772698605145503000,14.6105029296875,1.6366907358169556,-3.81655216217041,1.1341979503631592
1772698605162849300,14.627849365234376,1.4691931009292603,-5.036891460418701,1.28255295753479
1772698605180195600,14.645195556640624,1.2179467678070068,-6.240481376647949,2.0410776138305664
1772698605197541600,14.662541748046875,1.2203395366668701,-7.5086774826049805,3.201596736907959
1772698605214888000,14.679887939453126,1.222732424736023,-8.059026718139648,4.40757942199707
1772698605232234200,14.697234130859375,1.6558332443237305,-7.774280548095703,5.309673309326172
1772698605249580500,14.71458056640625,2.187039852142334,-6.766902446746826,5.424529075622559
1772698605266926600,14.731926513671874,2.775674343109131,-5.663811206817627,5.051248550415039
1772698605284273000,14.74927294921875,2.2636101245880127,-4.673182487487793,4.261617183685303
1772698605301619200,14.766619140625,1.222732424736023,-4.005585193634033,2.4885356426239014
1772698605318965500,14.783965576171875,1.1030912399291992,-4.309473514556885,0.38763725757598877
1772698605336311600,14.8013115234375,1.160519003868103,-5.13739013671875,-0.28235307335853577
1772698605353657900,14.818657958984375,2.0027925968170166,-5.802595138549805,0.5647061467170715
1772698605371004200,14.836004150390625,2.423929452896118,-7.03489875793457,1.7132610082626343
1772698605388350500,14.8533505859375,2.4047868251800537,-8.650053977966309,3.0077781677246094
1772698605405696800,14.87069677734375,2.7732813358306885,-8.791230201721191,2.2061824798583984
1772698605423042800,14.888042724609376,3.2207393646240234,-6.833901405334473,0.08614161610603333
1772698605440389000,14.90538916015625,3.242274761199951,-5.737988471984863,-1.3519448041915894
1772698605457735400,14.9227353515625,2.8354947566986084,-7.2335028648376465,-1.1676974296569824
1772698605475081700,14.940081787109374,1.8999011516571045,-9.580862045288086,-1.0528420209884644
1772698605492428000,14.957427978515625,2.3952155113220215,-10.38485050201416,-2.038684844970703
1772698605509774000,14.974774169921876,3.5533416271209717,-10.083354949951172,-3.012563705444336
1772698605527120400,14.992120361328125,2.493321180343628,-11.43529987335205,-2.737389087677002
1772698605544466700,15.009466796875,1.6965112686157227,-14.7206449508667,0.9571290612220764
1772698605561813000,15.02681298828125,1.5672988891601562,-19.994426727294922,6.91765022277832
1772698605579159000,15.044158935546875,0.3852444589138031,-28.122844696044922,12.256037712097168
1772698605596505300,15.06150537109375,-0.3206382393836975,-28.551158905029297,15.002998352050781
1772698605613851600,15.0788515625,0.6269195079803467,-18.396020889282227,10.066604614257812
1772698605631198000,15.096197998046875,2.9479575157165527,-12.208181381225586,5.00578498840332
1772698605648544300,15.113544189453124,7.1162543296813965,-8.951549530029297,1.2801600694656372
1772698605665890300,15.130890380859375,6.709474563598633,-8.57348346710205,-1.397408366203308
1772698605683236600,15.148236572265626,3.4791641235351562,-8.824729919433594,-0.4570291340351105
1772698605700583000,15.1655830078125,-0.014356935396790504,-7.884350776672363,1.797009825706482
1772698605717929200,15.18292919921875,-1.3208380937576294,-6.893722057342529,2.1200408935546875
1772698605735275500,15.200275634765624,-0.9355936646461487,-6.183053493499756,2.713460922241211
1772698605752621600,15.21762158203125,0.3924229145050049,-5.350351333618164,2.885744094848633
1772698605769967900,15.2349677734375,0.7202396392822266,-4.433900356292725,1.978864312171936
1772698605787314200,15.252314208984375,0.8135597109794617,-3.7567315101623535,0.916451096534729
1772698605804660500,15.269660400390626,1.5337992906570435,-3.524627685546875,-0.19142581522464752
1772698605822006800,15.2870068359375,2.311466693878174,-3.8835511207580566,-1.1509476900100708
1772698605839352800,15.304352783203125,2.4023938179016113,-4.503292083740234,-1.8424733877182007
1772698605856699100,15.32169921875,1.674975872039795,-5.242674350738525,-1.588834285736084
1772698605874045400,15.33904541015625,0.672383189201355,-5.996413707733154,-0.2727817893028259
1772698605891391700,15.356391845703126,-0.36610186100006104,-6.673582553863525,0.6532405614852905
1772698605908738000,15.373738037109375,-0.7680960893630981,-7.039684295654297,0.13639089465141296
1772698605926084000,15.391083984375,0.1866401731967926,-7.970492362976074,-0.2273181527853012
1772698605943430400,15.408430419921874,1.828116536140442,-8.609375953674316,-0.5335994362831116
1772698605960776700,15.425776611328125,3.704089403152466,-8.4562349319458,0.09571290761232376
1772698605978123000,15.443123046875,4.431507587432861,-7.5637125968933105,3.4002010822296143
1772698605995469000,15.460468994140625,4.426722049713135,-5.979663848876953,7.11146879196167
1772698606012815400,15.4778154296875,3.2231321334838867,-3.7160534858703613,8.039883613586426
1772698606030161700,15.49516162109375,1.9046868085861206,-4.548755645751953,7.135396957397461
1772698606047508000,15.512508056640625,-0.97148597240448,-7.334001541137695,6.166304111480713
1772698606064854300,15.529854248046876,-2.799602508544922,-18.865013122558594,8.571090698242188
1772698606082200600,15.54720068359375,-8.566305160522461,-38.3330192565918,3.390629768371582
1772698606099546600,15.564546630859375,-0.9379864931106567,-27.720849990844727,-6.896114826202393
1772698606116893000,15.581892822265624,0.35413774847984314,-15.328421592712402,-4.792823791503906
1772698606134239200,15.5992392578125,8.774480819702148,-17.197216033935547,-1.6965112686157227
1772698606151585500,15.61658544921875,8.752944946289062,-9.382257461547852,2.548356056213379
1772698606168931800,15.633931884765625,6.367300987243652,-2.7254250049591064,3.239881753921509
1772698606186278000,15.65127783203125,3.431307554244995,-6.008377552032471,1.373480200767517
1772698606203624200,15.668624267578124,-0.8183453679084778,-14.663217544555664,-0.7992027401924133
1772698606220970500,15.685970458984375,-0.8901300430297852,-20.980268478393555,-1.3208380937576294
1772698606238316800,15.70331689453125,-0.5718846321105957,-18.01077651977539,-1.8735800981521606
1772698606255662800,15.720662841796875,0.6221339106559753,-10.415956497192383,-2.170290231704712
1772698606273009200,15.738009033203125,2.1104695796966553,-6.9104719161987305,-0.08374879509210587
1772698606290355500,15.75535546875,1.954936146736145,-5.170889854431152,0.7010970115661621
1772698606307701800,15.77270166015625,1.4069796800613403,-4.776073932647705,0.8207381963729858
1772698606325048000,15.790048095703124,1.153340458869934,-5.364708423614502,1.672582983970642
1772698606342394400,15.807394287109375,0.7728816866874695,-6.640082836151123,2.7326035499572754
1772698606359740400,15.824740478515626,0.6364908218383789,-8.161917686462402,3.94815731048584
1772698606377086700,15.842086669921875,1.0360921621322632,-8.71226692199707,5.288137912750244
1772698606394433000,15.85943310546875,1.5936198234558105,-8.073383331298828,5.938985824584961
1772698606411779300,15.876779296875,2.4598217010498047,-7.118647575378418,6.16391134262085
1772698606429125600,15.894125732421875,2.4670002460479736,-6.128018856048584,5.955735683441162
1772698606446472000,15.911471923828126,1.2801600694656372,-5.027320384979248,4.426722049713135
1772698606463818000,15.92881787109375,0.6245267391204834,-4.443471431732178,2.4765713214874268
1772698606481164300,15.946164306640625,1.2586246728897095,-4.9363932609558105,1.306481122970581
1772698606498510600,15.963510498046874,2.196611166000366,-5.718846321105957,0.4618147611618042
1772698606515857000,15.98085693359375,1.9070796966552734,-6.329015731811523,0.6580262184143066
1772698606533203200,15.998203125,1.069591760635376,-6.714260101318359,1.0839486122131348
1772698606550549500,16.015549560546877,1.3471591472625732,-6.489335060119629,1.3950155973434448
1772698606567895600,16.0328955078125,2.2707886695861816,-6.527620315551758,1.6869399547576904
1772698606585241900,16.050241943359374,2.4885356426239014,-7.355536937713623,1.703689694404602
1772698606602588200,16.067588134765625,1.7443677186965942,-8.2695951461792,1.4165509939193726
1772698606619934500,16.0849345703125,1.3256237506866455,-9.274580955505371,1.0193424224853516
1772698606637280500,16.102280517578127,1.820937991142273,-9.80100154876709,0.3158525824546814
1772698606654626800,16.119626708984374,1.730010747909546,-9.707681655883789,-0.9762716293334961
1772698606671973000,16.13697314453125,2.201396942138672,-11.263015747070312,-1.828116536140442
1772698606689319400,16.1543193359375,0.5000999569892883,-14.057832717895508,-1.6462619304656982
1772698606706665700,16.171665771484374,0.8925228714942932,-15.218352317810059,0.727418065071106
1772698606724012000,16.189011962890625,0.5264210104942322,-17.900705337524414,3.6227335929870605
1772698606741358300,16.2063583984375,-0.2799602448940277,-22.308284759521484,5.5345988273620605
1772698606758704600,16.22370458984375,-0.7250252366065979,-24.35893440246582,9.035298347473145
1772698606776050700,16.24105078125,-0.09571290761232376,-17.087146759033203,7.094718933105469
1772698606793397000,16.25839697265625,2.1607189178466797,-12.014362335205078,4.388436794281006
1772698606810743300,16.275743408203127,4.275974273681641,-9.016156196594238,2.6297121047973633
1772698606828089600,16.293089599609374,3.7950167655944824,-8.331808090209961,0.9547362327575684
1772698606845436000,16.310435791015625,2.462214469909668,-8.221738815307617,0.22492532432079315
1772698606862782200,16.3277822265625,1.1174482107162476,-7.678567886352539,0.41156548261642456
1772698606880128300,16.345128173828126,0.15553347766399384,-7.4464640617370605,1.459621787071228
1772698606897474600,16.362474609375,0.14835500717163086,-7.4847493171691895,2.0243279933929443
1772698606914820900,16.37982080078125,0.8231309652328491,-7.204789161682129,2.2301106452941895
1772698606932167200,16.397167236328126,1.2299108505249023,-6.594619274139404,1.3950155973434448
1772698606949513500,16.414513427734374,1.5074782371520996,-6.068198204040527,0.42352959513664246
1772698606966859800,16.43185986328125,1.7156537771224976,-5.831308841705322,-0.28235307335853577
1772698606984205800,16.449205810546875,1.5840486288070679,-5.819344520568848,-0.33738797903060913
1772698607001552100,16.46655224609375,1.2275179624557495,-5.424529075622559,0.3852444589138031
1772698607018898400,16.4838984375,1.0480563640594482,-4.453042984008789,1.0887342691421509
1772698607036244700,16.50124462890625,0.8422735929489136,-3.6059837341308594,2.0482561588287354
1772698607053591000,16.518591064453126,1.2897313833236694,-2.833101987838745,2.7589244842529297
1772698607070937300,16.535937255859373,1.2131611108779907,-2.4717857837677,2.266003131866455
1772698607088283600,16.55328369140625,1.00259268283844,-3.5820555686950684,1.0600204467773438
1772698607105630000,16.5706298828125,1.4333007335662842,-6.2668023109436035,-1.5792629718780518
1772698607122976000,16.58797607421875,3.1034910678863525,-9.834501266479492,-2.2636101245880127
1772698607140322300,16.605322265625,5.295316696166992,-9.89432144165039,0.9499505758285522
1772698607157668600,16.622668701171875,4.094119548797607,-6.912864685058594,2.9599215984344482
1772698607175015000,16.640014892578126,0.15553347766399384,-7.984848976135254,4.651647090911865
1772698607192361200,16.657361328125,-3.696911096572876,-13.629517555236816,6.86261510848999
1772698607209707500,16.67470751953125,-4.060619831085205,-24.41875457763672,5.2115678787231445
1772698607227053800,16.6920537109375,-1.7084753513336182,-29.434110641479492,-1.4261223077774048
1772698607244399900,16.70939990234375,1.9046868085861206,-17.87677764892578,-3.4241292476654053
1772698607261746200,16.72674609375,9.078369140625,-16.118053436279297,0.24646073579788208
1772698607279092500,16.744092529296875,7.133004188537598,-11.751152038574219,1.6654045581817627
1772698607296438800,16.761438720703126,5.388636589050293,-8.819944381713867,5.218746185302734
1772698607313785000,16.77878515625,1.9334007501602173,-11.68893814086914,4.7952165603637695
1772698607331131400,16.79613134765625,0.17706887423992157,-13.052847862243652,2.2085752487182617
1772698607348477400,16.8134775390625,-1.5002998113632202,-15.000605583190918,0.40677985548973083
1772698607365823700,16.83082373046875,2.589034080505371,-19.80299949645996,0.16031911969184875
1772698607383170000,16.848170166015624,4.206582069396973,-11.980862617492676,0.5312066078186035
1772698607400516400,16.865516357421875,2.7254250049591064,-7.75753116607666,1.6917256116867065
1772698607417862700,16.882862548828125,0.8614161610603333,-6.230910301208496,1.3351950645446777
1772698607435209000,16.900208984375,0.8015955686569214,-6.455835342407227,0.7369893789291382
1772698607452555300,16.91755517578125,1.5625132322311401,-6.963113784790039,0.43549370765686035
1772698607469901600,16.934901611328126,1.8137595653533936,-7.063612461090088,1.0217353105545044
1772698607487247600,16.95224755859375,1.6079767942428589,-6.403193473815918,2.337787628173828
1772698607504594000,16.969593994140624,2.1990039348602295,-5.735595703125,3.7256247997283936
1772698607521940200,16.986940185546874,2.1439690589904785,-5.606383323669434,4.185046672821045
1772698607539286500,17.00428662109375,2.2133610248565674,-6.116054534912109,3.809373617172241
1772698607556632800,17.0216328125,3.3475589752197266,-6.92482852935791,5.257031440734863
1772698607573979100,17.038979248046875,3.376272678375244,-4.383651256561279,4.275974273681641
1772698607591325400,17.056325439453126,3.25663161277771,-4.237689018249512,2.861815929412842
1772698607608671700,17.073671630859376,2.6273193359375,-5.350351333618164,2.9599215984344482
1772698607626017800,17.091017822265623,2.306680917739868,-6.197410583496094,1.2490534782409668
1772698607643364000,17.108364013671874,-0.062213387340307236,-6.649653911590576,-0.11485548317432404
1772698607660710400,17.12571044921875,-1.3567304611206055,-8.104490280151367,2.5124638080596924
1772698607678056700,17.143056640625,0.6604190468788147,-9.21715259552002,1.1341979503631592
1772698607695403000,17.160403076171875,3.2446675300598145,-8.779266357421875,0.5240281820297241
1772698607712749300,17.177749267578125,2.7900311946868896,-9.645467758178711,0.7824530005455017
1772698607730095400,17.195095458984376,2.526820659637451,-10.059426307678223,0.5790630578994751
1772698607747441700,17.212441650390623,1.8161523342132568,-10.8969144821167,-0.9068797826766968
1772698607764788000,17.2297880859375,2.021935224533081,-10.463813781738281,-1.2179467678070068
1772698607782134300,17.24713427734375,1.6630117893218994,-10.468599319458008,-1.9932212829589844
1772698607799480600,17.26448046875,0.41156548261642456,-12.473784446716309,-1.057627558708191
1772698607816827000,17.281826904296874,-0.13639089465141296,-14.68235969543457,3.2350962162017822
1772698607834173200,17.299173095703125,-1.6366907358169556,-17.800207138061523,7.314858913421631
1772698607851519500,17.31651953125,-2.3952155113220215,-19.95135498046875,7.463213920593262
1772698607868865800,17.33386572265625,-1.9956140518188477,-17.300107955932617,4.8574299812316895
1772698607886212000,17.351212158203126,0.13160525262355804,-16.699508666992188,3.6059837341308594
1772698607903558100,17.36855810546875,2.0745773315429688,-15.584453582763672,3.761517286300659
1772698607920904400,17.385904541015623,3.8572301864624023,-15.658631324768066,4.591826438903809
1772698607938250800,17.403250732421874,4.335794448852539,-13.304094314575195,3.2135608196258545
1772698607955597000,17.42059716796875,3.129812002182007,-10.511670112609863,0.6149554252624512
1772698607972943400,17.437943359375,1.4835500717163086,-7.427321434020996,-0.46899324655532837
1772698607990289700,17.45528955078125,0.42352959513664246,-6.869793891906738,-0.7680960893630981
1772698608007636000,17.472635986328125,0.6245267391204834,-7.70967435836792,-0.13639089465141296
1772698608024982000,17.48998193359375,1.7611174583435059,-8.47298526763916,0.5575276613235474
1772698608042328300,17.507328369140627,2.0817556381225586,-9.827322959899902,1.368694543838501
1772698608059674600,17.524674560546874,1.397408366203308,-10.990234375,0.7058826684951782
1772698608077021000,17.54202099609375,-0.8398807644844055,-11.765508651733398,-1.0001999139785767
1772698608094367200,17.5593671875,1.6414763927459717,-13.47159194946289,0.7178468108177185
1772698608111713500,17.576713623046874,3.6442689895629883,-11.676974296569824,-0.1052841991186142
1772698608129059800,17.594059814453125,5.536991596221924,-13.438092231750488,-1.1772687435150146
1772698608146406100,17.61140625,6.546762943267822,-13.342378616333008,4.34536600112915
1772698608163752400,17.62875244140625,4.515256404876709,-9.7005033493042,8.061419486999512
1772698608181098800,17.6460986328125,-8.437092781066895,-2.895315408706665,10.731809616088867
1772698608198445000,17.663445068359376,3.792623996734619,-0.7872386574745178,13.509876251220703
1772698608215791400,17.680791259765623,1.6965112686157227,-0.2153540402650833,14.007583618164062
1772698608233137700,17.6981376953125,4.244867324829102,-0.7393822073936462,14.861821174621582
1772698608250483700,17.715483642578125,7.389036178588867,0.20099709928035736,15.046069145202637
1772698608267830000,17.732830078125,9.432506561279297,0.2153540402650833,14.849857330322266
1772698608285176300,17.75017626953125,13.194024085998535,-0.40677985548973083,13.761122703552246
1772698608302522600,17.767522705078125,17.1469669342041,-1.9525432586669922,12.612567901611328
1772698608319869000,17.784868896484376,20.06620979309082,-3.78544545173645,10.418350219726562
1772698608337215200,17.80221533203125,20.059032440185547,-5.749952793121338,9.119047164916992
1772698608363234800,17.82823486328125,18.465412139892578,-8.96829891204834,6.597012042999268
1772698608380580900,17.845580810546874,16.752151489257812,-11.521441459655762,4.161118507385254
1772698608397927200,17.86292724609375,13.16530990600586,-10.554740905761719,0.9475577473640442
1772698608415273500,17.8802734375,10.636096954345703,-8.95394229888916,0.8566305041313171
1772698608432619800,17.897619873046875,13.100704193115234,-7.434499740600586,1.5433706045150757
1772698608449966000,17.914966064453125,11.842079162597656,-6.2428741455078125,2.778067111968994
1772698608467312400,17.9323125,10.528419494628906,-5.6685967445373535,2.830709218978882
1772698608484658700,17.94965869140625,8.652446746826172,-1.6223337650299072,2.9001009464263916
1772698608502005000,17.9670048828125,5.00578498840332,2.03629207611084,1.6247265338897705
1772698608519351300,17.984351318359376,1.8664016723632812,3.2231321334838867,-0.08853443711996078
1772698608536697600,18.001697509765624,7.020541667938232,6.872186660766602,0.33738797903060913
1772698608554044000,18.0190439453125,13.811372756958008,5.271388053894043,0.9212366938591003
1772698608571390000,18.036389892578125,14.538790702819824,5.697310924530029,1.3926228284835815
1772698608588736300,18.053736328125,11.724830627441406,5.840879917144775,2.746960401535034
1772698608606082600,18.07108251953125,7.29093074798584,6.999006271362305,1.9262222051620483
1772698608623428900,18.088428955078125,4.802394866943359,6.649653911590576,1.1126625537872314
1772698608640775200,18.105775146484376,5.515456199645996,6.5491557121276855,0.7537391185760498
1772698608658121500,18.12312158203125,4.579862594604492,5.3694939613342285,-0.1866401731967926
1772698608675467800,18.1404677734375,8.185846328735352,3.617947816848755,-1.3471591472625732
1772698608692814000,18.15781396484375,7.491927623748779,5.149354457855225,-2.2301106452941895
1772698608710160400,18.175160400390624,6.472585201263428,6.558726787567139,-1.919043779373169
1772698608727506700,18.192506591796874,4.938786029815674,4.898108005523682,-1.5696916580200195
1772698608744853000,18.20985302734375,6.118447303771973,3.421736478805542,-1.2897313833236694
1772698608762199300,18.22719921875,4.620540618896484,4.922036170959473,-1.6175481081008911
1772698608779545600,18.244545654296875,7.022934436798096,4.268795490264893,-1.5409778356552124
1772698608796891600,18.2618916015625,5.855237007141113,5.359922885894775,-1.2873386144638062
1772698608814238000,18.279238037109376,5.804987907409668,6.9344000816345215,0.07657032459974289
1772698608831584300,18.296584228515623,8.738588333129883,6.0777692794799805,2.00518536567688
1772698608848930600,18.3139306640625,12.220145225524902,3.5916268825531006,3.31884503364563
1772698608866276900,18.33127685546875,11.760723114013672,2.610569477081299,2.3808584213256836
1772698608883623200,18.348623046875,9.753145217895508,4.948357105255127,0.12921242415905
1772698608900969500,18.365969482421875,7.135396957397461,6.826723098754883,-0.729810893535614
1772698608918315800,18.383315673828125,6.522834300994873,6.628118515014648,-0.7058826684951782
1772698608935662000,18.400662109375,5.546562671661377,6.929614543914795,-0.1818545162677765
1772698608953008400,18.41800830078125,4.800002098083496,7.101897716522217,0.31106695532798767
1772698608970354700,18.435354736328126,4.292723655700684,7.539783954620361,-0.37088751792907715
1772698608987701000,18.452700927734377,4.579862594604492,8.087740898132324,-1.2634103298187256
1772698609005047300,18.47004736328125,5.338387489318848,7.999206066131592,-1.404586911201477
1772698609022393600,18.4873935546875,6.0466628074646,7.23589563369751,-0.9547362327575684
1772698609039740000,18.504739990234373,6.032305717468262,7.405786037445068,-0.4019941985607147
1772698609057086200,18.522086181640624,5.855237007141113,7.429714202880859,-0.2799602448940277
1772698609074432500,18.5394326171875,5.589633464813232,7.800601959228516,-0.33499518036842346
1772698609091778800,18.55677880859375,5.931807518005371,7.9250288009643555,-0.31106695532798767
1772698609109125000,18.574125,6.448657035827637,8.11406135559082,-0.1698904037475586
1772698609126471200,18.59147119140625,6.362515449523926,8.085348129272461,-0.07896314561367035
1772698609143817500,18.6088173828125,5.910272121429443,8.4562349319458,-0.09810572862625122
1772698609161163800,18.626163818359377,5.38624382019043,8.204988479614258,0.33738797903060913
1772698609178510000,18.643510009765624,4.838287353515625,8.477770805358887,-0.08374879509210587
1772698609195856400,18.6608564453125,5.769095420837402,9.980463027954102,-1.581655740737915
1772698609213202700,18.67820263671875,4.8813581466674805,8.731410026550293,-1.430907964706421
1772698609230549000,18.695549072265624,5.252245903015137,7.676175117492676,-1.1988041400909424
1772698609247895300,18.712895263671875,5.745167255401611,7.221538543701172,-1.3495519161224365
