time,seconds_elapsed,z,y,x
1773075334190255400,0.10225537109375,0,0,0
1773075334209016300,0.121016357421875,-0.4597458839416504,-0.43788862228393555,0.1306360960006714
1773075334227780000,0.139780029296875,-0.6647467613220215,-1.3762550354003906,0.13848018646240234
1773075334246542300,0.158542236328125,-0.17325162887573242,-0.49337339401245117,0.10248053073883057
1773075334265304800,0.177304931640625,0.6220850944519043,0.5532746315002441,-0.6382320523262024
1773075334284067300,0.1960673828125,0.00012111663818359375,1.6362576484680176,-1.5159504413604736
1773075334302829600,0.21482958984375,-0.8787612915039062,0.08491992950439453,-2.181467294692993
1773075334321591800,0.233591796875,0.5527396202087402,-0.694023609161377,-2.18572735786438
1773075334340354300,0.252354248046875,0.6511950492858887,0.6999115943908691,-1.4950692653656006
1773075334359116800,0.27111669921875,1.437342643737793,0.5049395561218262,-0.6292214393615723
1773075334377879000,0.289879150390625,-1.5591511726379395,-0.646794319152832,1.972110629081726
1773075334396641500,0.3086416015625,-2.1654086112976074,0.6106777191162109,0.7133059501647949
1773075334415403800,0.32740380859375,-2.9205498695373535,0.03399658203125,0.2698856592178345
1773075334434166300,0.346166259765625,-2.184861660003662,-0.024520397186279297,0.7555047273635864
1773075334452928800,0.3649287109375,0.07446098327636719,0.9332756996154785,0.13441796600818634
1773075334471691000,0.38369091796875,0.6474847793579102,1.0614895820617676,0.2774810791015625
1773075334490453500,0.40245361328125,1.1076984405517578,0.8667402267456055,0.30387750267982483
1773075334509215700,0.4212158203125,1.1621661186218262,0.6386480331420898,-0.4126760959625244
1773075334527978200,0.439978271484375,1.0445427894592285,0.4235372543334961,-2.0652191638946533
1773075334546740700,0.45874072265625,1.5831222534179688,0.5316452980041504,-1.1937503814697266
1773075334565503200,0.477503173828125,0.8823137283325195,0.8889493942260742,1.4892420768737793
1773075334584265500,0.496265380859375,-0.3083677291870117,0.9832634925842285,1.4738980531692505
1773075334603028000,0.515028076171875,-0.5852518081665039,0.6505928039550781,0.4926092326641083
1773075334621790500,0.53379052734375,0.5228042602539062,0.2726473808288574,-0.490879088640213
1773075334640552700,0.552552734375,1.1100811958312988,0.35453176498413086,0.17860400676727295
1773075334659315200,0.571315185546875,1.2132902145385742,0.908562183380127,0.7865596413612366
1773075334678077700,0.59007763671875,0.5824980735778809,0.5417404174804688,0.39798441529273987
1773075334696840200,0.608840087890625,0.3072476387023926,0.24824810028076172,0.08438650518655777
1773075334715602400,0.6276025390625,0.3283367156982422,0.1331024169921875,0.006563901901245117
1773075334734365000,0.646364990234375,0.8355731964111328,-0.04241132736206055,0.08672161400318146
1773075334753127400,0.66512744140625,0.8984270095825195,0.041174888610839844,0.2658536434173584
1773075334771890000,0.683889892578125,0.4452238082885742,0.08780097961425781,0.19050557911396027
1773075334790652400,0.70265234375,0.027060508728027344,-0.18418264389038086,-0.24930453300476074
1773075334809414700,0.72141455078125,-0.09635162353515625,-0.3106088638305664,-0.3666536211967468
1773075334828177200,0.74017724609375,-0.2326345443725586,-0.33142566680908203,-0.40282779932022095
1773075334846939600,0.758939697265625,-0.4849433898925781,-0.26422119140625,-0.30618685483932495
1773075334865702100,0.7777021484375,-0.3557400703430176,-0.4307990074157715,-0.33770495653152466
1773075334884464600,0.796464599609375,-0.5273938179016113,-0.8094334602355957,-0.40170592069625854
1773075334903227000,0.815226806640625,-0.5531458854675293,-0.9059498310089111,-1.038843035697937
1773075334921989400,0.8339892578125,0.13384342193603516,-0.16800355911254883,-0.049925148487091064
1773075334940752000,0.852751953125,0.5430088043212891,0.3937406539916992,0.33386701345443726
1773075334959514400,0.871514404296875,0.621516227722168,0.16214752197265625,0.3191189765930176
1773075334978276900,0.89027685546875,0.8283185958862305,-0.5220777988433838,-0.010669469833374023
1773075334997039400,0.909039306640625,1.1631584167480469,-0.8767533302307129,-0.11790698766708374
1773075335015801900,0.9278017578125,0.4943971633911133,-0.5217623710632324,0.17279964685440063
1773075335034564400,0.946564453125,-0.40415382385253906,-0.22190451622009277,0.11647939682006836
1773075335053326800,0.965326904296875,-0.42969417572021484,0.1360926628112793,0.8449208736419678
1773075335072089000,0.984089111328125,-1.2540168762207031,0.2774930000305176,0.5771944522857666
1773075335090851600,1.0028515625,-0.8605632781982422,-0.0655815601348877,0.5225600004196167
1773075335109614000,1.021614013671875,-0.5948019027709961,-0.28462910652160645,0.1525135040283203
1773075335128376600,1.04037646484375,-0.30942440032958984,-0.34537649154663086,0.07403987646102905
1773075335147139000,1.05913916015625,-0.3133993148803711,-0.02413487434387207,0.37027668952941895
1773075335165901600,1.077901611328125,-0.8127450942993164,0.3996274471282959,0.6509110927581787
1773075335184664000,1.0966640625,-0.779355525970459,0.018514633178710938,0.10554540157318115
1773075335203426600,1.115426513671875,-0.2091360092163086,-0.16880035400390625,-0.1339576244354248
1773075335222189000,1.13418896484375,0.4032144546508789,-0.2373495101928711,-0.17975294589996338
1773075335240951600,1.15295166015625,0.8893270492553711,-0.506310224533081,-0.46844810247421265
1773075335259714000,1.171714111328125,1.215627670288086,-0.3629157543182373,-0.4666977524757385
1773075335278476800,1.190476806640625,0.7928047180175781,0.0976095199584961,-0.1853652000427246
1773075335297239300,1.2092392578125,0.40044498443603516,0.016877412796020508,-0.3565826416015625
1773075335316001800,1.228001708984375,0.21136474609375,-0.0957176685333252,-0.2788320779800415
1773075335334764300,1.246764404296875,0.4691047668457031,-0.2902700901031494,-0.1916348934173584
1773075335353526800,1.26552685546875,0.27170276641845703,0.41663575172424316,0.6017330884933472
1773075335372289300,1.284289306640625,0.35567760467529297,0.5410239696502686,0.5109739303588867
1773075335391051800,1.3030517578125,0.5626697540283203,-0.36756300926208496,-0.3284670114517212
1773075335409814300,1.321814208984375,0.13457012176513672,-0.6471633911132812,-0.7189950942993164
1773075335428576800,1.34057666015625,-0.25179290771484375,-0.6809036731719971,-0.6565361022949219
1773075335447339300,1.35933935546875,0.6901617050170898,-0.25926172733306885,0.10176849365234375
1773075335466101800,1.378101806640625,2.08304500579834,0.13524019718170166,0.8478443622589111
1773075335484864300,1.3968642578125,1.4418306350708008,0.44428467750549316,0.7282044887542725
1773075335503626800,1.415626708984375,0.5884552001953125,0.16080915927886963,-0.10166311264038086
1773075335522389200,1.43438916015625,0.6620616912841797,-0.16803157329559326,-0.6173994541168213
1773075335541152000,1.453152099609375,0.6481685638427734,-0.24512040615081787,-0.7407944202423096
1773075335559914500,1.47191455078125,0.2580223083496094,0.023070454597473145,-0.982109785079956
1773075335578677000,1.490677001953125,0.5137224197387695,-0.14983916282653809,0.39748692512512207
1773075335597439500,1.509439453125,1.4085817337036133,-0.22599828243255615,0.5928261280059814
1773075335616202000,1.528201904296875,1.7497930526733398,-0.9290919899940491,0.012933492660522461
1773075335634964500,1.546964599609375,1.1717710494995117,-0.9239396452903748,-0.1794147491455078
1773075335653727000,1.56572705078125,-0.2150859832763672,-1.155367136001587,-1.0708250999450684
1773075335672489500,1.584489501953125,0.608149528503418,-1.4153958559036255,-1.8222017288208008
1773075335691252200,1.603252197265625,0.05186176300048828,-0.8423255681991577,-1.0490527153015137
1773075335710014700,1.6220146484375,-0.47658777236938477,-0.43146002292633057,-0.6892228126525879
1773075335728777200,1.640777099609375,-0.9445915222167969,-0.26067304611206055,-0.5817651748657227
1773075335747539700,1.659539794921875,-1.4016361236572266,-0.3302863836288452,-0.45733213424682617
1773075335766302500,1.678302490234375,-1.2975172996520996,-0.12340092658996582,0.08775901794433594
1773075335785065000,1.69706494140625,0.6091070175170898,0.3006913661956787,1.2403216361999512
1773075335803827500,1.715827392578125,0.6889448165893555,-0.040915489196777344,0.552945613861084
1773075335822590000,1.73458984375,-0.14296865463256836,-0.8502282500267029,-0.760767936706543
1773075335841352700,1.753352783203125,0.0842142105102539,-1.6438310146331787,-1.647681713104248
1773075335860115200,1.772115234375,0.4339022636413574,-2.082958459854126,-1.8370404243469238
1773075335878877700,1.790877685546875,1.8412718772888184,-1.5690466165542603,-0.665799617767334
1773075335897640400,1.809640380859375,2.3368582725524902,-0.6080601215362549,0.5931606292724609
1773075335916403000,1.82840283203125,1.6731295585632324,-0.8051113486289978,-0.016195297241210938
1773075335935165400,1.84716552734375,1.2831711769104004,-0.48646751046180725,0.26499080657958984
1773075335953928000,1.865927978515625,-1.0832085609436035,0.7022602558135986,0.11862564086914062
1773075335972690400,1.8846904296875,-0.17139482498168945,1.5616503953933716,3.379018783569336
1773075335991453200,1.903453125,0.8494818210601807,2.8785033226013184,3.0325937271118164
1773075336010215700,1.922215576171875,0.89747154712677,1.835390567779541,1.8856678009033203
1773075336028978200,1.940978271484375,0.23190999031066895,1.9418922662734985,2.4142398834228516
1773075336047741000,1.959740966796875,-0.9506901502609253,1.8210982084274292,1.4529857635498047
1773075336066503400,1.97850341796875,-1.3411014080047607,1.1277897357940674,0.5691556930541992
1773075336085266200,1.99726611328125,-0.19807790219783783,0.11877894401550293,-0.45569515228271484
1773075336104028700,2.016028564453125,-0.6717588305473328,0.31814146041870117,0.07895946502685547
1773075336122791200,2.034791259765625,-1.6091902256011963,1.1896374225616455,0.556879997253418
1773075336141553700,2.0535537109375,-1.639870285987854,0.5656888484954834,-0.21833229064941406
1773075336160316400,2.07231640625,-1.4657540321350098,-1.006288766860962,-2.3276071548461914
1773075336179079000,2.091078857421875,-1.6995304822921753,-1.9114749431610107,-3.7482709884643555
1773075336197841700,2.109841552734375,-3.092756748199463,-2.7250189781188965,-2.695432662963867
1773075336216604200,2.128604248046875,-6.741039276123047,1.0074114799499512,12.69591999053955
1773075336235367000,2.147366943359375,-0.06594610214233398,3.5054683685302734,5.987743377685547
1773075336254129400,2.16612939453125,-0.709625244140625,1.7301850318908691,0.36832618713378906
1773075336272892000,2.184891845703125,-2.61568021774292,-6.894949913024902,-7.050390720367432
1773075336291654400,2.203654296875,-1.4730029106140137,-2.6137118339538574,-5.121575355529785
1773075336310417200,2.222417236328125,1.0896388292312622,1.0232057571411133,1.007185935974121
1773075336359672000,2.271672119140625,0.41278719902038574,2.5290322303771973,0.8961672782897949
1773075336378434800,2.290434814453125,1.2761701345443726,1.382967472076416,0.3653559684753418
1773075336397197300,2.309197265625,0.4900021553039551,0.792579174041748,3.1071929931640625
1773075336415960000,2.3279599609375,-0.9246093034744263,-0.8422751426696777,4.620980262756348
1773075336434722600,2.34672265625,-0.20928680896759033,0.22195672988891602,4.539174556732178
1773075336453485000,2.365485107421875,-1.4174119234085083,-8.966798782348633,-12.702803611755371
1773075336472247800,2.384247802734375,-0.8327361345291138,-0.9411067962646484,-1.70577073097229
1773075336491010300,2.40301025390625,0.7855858206748962,-0.542323112487793,0.7127676010131836
1773075336509773000,2.42177294921875,-0.47499799728393555,-0.7364072799682617,1.1375174522399902
1773075336528535600,2.44053564453125,-0.9488226175308228,-2.7132883071899414,-3.01047945022583
1773075336547298300,2.45929833984375,-0.2819254398345947,-0.9185991287231445,2.2828264236450195
1773075336566060800,2.478060791015625,-0.3760824203491211,-0.836207389831543,4.001394271850586
1773075336584823600,2.496823486328125,0.5448681116104126,0.8862123489379883,-1.3487378358840942
1773075336603586000,2.5155859375,0.0913928747177124,0.12873363494873047,-0.5772479772567749
1773075336622348800,2.534348876953125,-0.33547306060791016,0.37888526916503906,-0.9605362415313721
1773075336650492700,2.56249267578125,-0.3809928894042969,9.49915599822998,-5.453089714050293
1773075336669255400,2.58125537109375,1.0995632410049438,11.030325889587402,-0.15567255020141602
1773075336688018000,2.600017822265625,2.5902533531188965,6.538662910461426,-0.9368395805358887
1773075336706780400,2.618780517578125,0.27997487783432007,-1.2468442916870117,-4.278908729553223
1773075336734924500,2.646924560546875,1.2792048454284668,2.827540397644043,-0.4134133458137512
1773075336753687000,2.66568701171875,0.2375618815422058,-0.786585807800293,-2.819788932800293
1773075336772449800,2.68444970703125,6.551328659057617,-1.8324861526489258,-1.5907081365585327
1773075336791212300,2.70321240234375,-3.0942201614379883,-0.2128133773803711,-1.1808253526687622
1773075336809975000,2.72197509765625,-1.1385867595672607,0.8660068511962891,0.7494651079177856
1773075336828737800,2.74073779296875,-1.4798697233200073,-8.265212059020996,-0.992350161075592
1773075336847500300,2.759500244140625,-0.24704261124134064,-24.378746032714844,9.628002166748047
1773075336885025500,2.797025634765625,-4.3180623054504395,0.37181949615478516,-3.97830867767334
1773075336903788300,2.815788330078125,-0.30148276686668396,-2.0378293991088867,-0.2408539056777954
1773075336922550800,2.83455078125,-1.448752760887146,-1.9191303253173828,-1.4685722589492798
1773075336941313500,2.8533134765625,-0.8461716175079346,-1.1237239837646484,-0.48124194145202637
1773075336960076000,2.872075927734375,-1.0773266553878784,0.05912303924560547,-0.1570965051651001
1773075336978838800,2.8908388671875,-0.6525194644927979,2.3695144653320312,0.32250499725341797
1773075336997601500,2.9096015625,-1.6755448579788208,-1.231583595275879,-0.2466030716896057
1773075337016364000,2.928364013671875,-0.7184727191925049,-1.526045799255371,-0.06366133689880371
1773075337035126800,2.947126708984375,-0.957531213760376,-1.1668453216552734,-0.47293591499328613
1773075337053889500,2.9658896484375,-1.1675617694854736,-0.8363370895385742,-0.8452357053756714
1773075337072652000,2.984652099609375,-0.4033684730529785,-0.6117372512817383,-1.4391273260116577
1773075337091414800,3.003414794921875,0.6445887088775635,-0.24842166900634766,-1.538903832435608
1773075337110177500,3.022177490234375,1.5527117252349854,-0.25771522521972656,-1.1746952533721924
1773075337128940000,3.04093994140625,1.409340739250183,-0.06731605529785156,-0.6619716882705688
1773075337147702800,3.059702880859375,0.6971569061279297,0.032265663146972656,0.04689648747444153
1773075337166465300,3.07846533203125,0.1601724624633789,0.025726318359375,0.1546495258808136
1773075337185228000,3.09722802734375,0.21725130081176758,0.249298095703125,-0.43089866638183594
1773075337203990800,3.11599072265625,0.41077208518981934,0.5103206634521484,-0.6124308109283447
1773075337222753300,3.134753173828125,0.4675939083099365,0.4904470443725586,-0.40539419651031494
1773075337241516000,3.15351611328125,0.38161611557006836,0.5883607864379883,-0.1408378779888153
1773075337260278800,3.17227880859375,0.30628371238708496,0.6127996444702148,-0.01863422989845276
1773075337279041300,3.191041259765625,0.26770925521850586,0.7522735595703125,0.032371751964092255
1773075337297804000,3.209803955078125,0.12480616569519043,0.9035844802856445,-0.058798372745513916
1773075337316566800,3.22856689453125,-0.0032978057861328125,1.063241958618164,-0.08531150966882706
1773075337335329300,3.247329345703125,-0.28122663497924805,1.0545873641967773,-0.21206222474575043
1773075337354092000,3.266092041015625,-0.6146142482757568,0.9646759033203125,-0.1824028193950653
1773075337372854800,3.284854736328125,-0.9508688449859619,0.7989988327026367,-0.1507127583026886
1773075337391617500,3.303617431640625,-1.2906184196472168,0.6584587097167969,-0.15689684450626373
1773075337410380000,3.322380126953125,-1.1772496700286865,0.48764896392822266,-0.28344619274139404
1773075337429142800,3.341142822265625,-1.236746072769165,0.09070873260498047,-0.3247549533843994
1773075337447905500,3.359905517578125,-1.780055284500122,-0.41112804412841797,-0.1429208517074585
1773075337466668000,3.37866796875,-1.809603214263916,-0.4623756408691406,0.06485122442245483
1773075337485430800,3.3974306640625,-1.4725611209869385,-0.2397747039794922,0.058604031801223755
1773075337504193500,3.416193603515625,-1.3536078929901123,-0.205169677734375,-0.11746226251125336
1773075337522956000,3.4349560546875,-1.2706103324890137,-0.06705951690673828,-0.3102073073387146
1773075337541718800,3.45371875,-1.318289041519165,0.1498861312866211,-0.47009050846099854
1773075337560481500,3.4724814453125,-1.007556438446045,0.20662498474121094,-0.5156177878379822
1773075337579244300,3.491244384765625,-0.7978944778442383,0.06700325012207031,-0.6311255693435669
1773075337598007000,3.510007080078125,-0.766730785369873,-0.6426534652709961,-0.7681682109832764
1773075337616769500,3.52876953125,-1.1276531219482422,-2.19997501373291,-1.3672462701797485
1773075337635532300,3.5475322265625,-1.0941228866577148,-3.795846939086914,-1.4871704578399658
1773075337654295000,3.566294921875,-0.3153114318847656,-2.7713775634765625,-0.6391083598136902
1773075337673057800,3.585057861328125,0.48471951484680176,-0.14995670318603516,-0.12090052664279938
1773075337691820500,3.603820556640625,1.8686926364898682,1.9555039405822754,0.3120947480201721
1773075337710583000,3.6225830078125,3.319730043411255,3.919288158416748,-1.0329546928405762
1773075337729345800,3.641345703125,2.7180585861206055,3.5807676315307617,-3.8849613666534424
1773075337748108500,3.660108642578125,0.7208815813064575,1.0037727355957031,-5.323505401611328
1773075337766871300,3.678871337890625,0.19993257522583008,-1.3370685577392578,-3.307587146759033
1773075337785633800,3.6976337890625,1.1901791095733643,-2.482844352722168,0.3288623094558716
1773075337804396500,3.716396484375,2.3969295024871826,-1.8720569610595703,2.0433924198150635
1773075337823159300,3.7351591796875,1.5136854648590088,-0.5239105224609375,2.1500415802001953
1773075337841922000,3.753922119140625,0.8895925283432007,0.4837217330932617,0.8960626125335693
1773075337860684800,3.772684814453125,0.48652780055999756,0.5665864944458008,0.3444001376628876
1773075337879447600,3.791447509765625,0.4807196259498596,0.017729759216308594,0.6468747854232788
1773075337898210300,3.810210205078125,1.0316038131713867,-0.34063243865966797,1.122406244277954
1773075337916973000,3.82897314453125,0.9153206944465637,-0.55523681640625,0.8941880464553833
1773075337935735600,3.847735595703125,0.33575984835624695,-0.6189508438110352,0.15768307447433472
1773075337954498300,3.866498291015625,0.2625199258327484,-0.2856330871582031,-0.723839282989502
1773075337973261000,3.885260986328125,0.23557798564434052,0.18098735809326172,-1.1411755084991455
1773075337992023800,3.90402392578125,0.2946400046348572,0.23235130310058594,-1.0496412515640259
1773075338010786600,3.92278662109375,0.6933578252792358,0.4474201202392578,-0.7993456125259399
1773075338029549300,3.94154931640625,0.5793927907943726,0.1644287109375,-0.2353670299053192
1773075338048312000,3.96031201171875,0.4636370539665222,0.2638063430786133,0.3003310561180115
1773075338067074800,3.97907470703125,0.32870036363601685,0.17578697204589844,0.25686338543891907
1773075338085837600,3.997837646484375,0.11485332250595093,-0.023599624633789062,0.27958446741104126
1773075338104600000,4.01660009765625,-0.2688319981098175,-0.1268634796142578,0.4562416970729828
1773075338123362800,4.03536279296875,-0.6608845591545105,-0.18333053588867188,0.24931170046329498
1773075338142125600,4.05412548828125,-0.5745890736579895,0.05049324035644531,-0.1348947435617447
1773075338160888300,4.072888427734375,-0.7328627705574036,-0.44791126251220703,-0.4437159597873688
1773075338179651000,4.091651123046875,-0.37902742624282837,-0.4412050247192383,-0.33239561319351196
1773075338198413800,4.110413818359375,-0.28536152839660645,-0.02225971221923828,-0.0008240640163421631
1773075338217176600,4.129176513671875,-0.39409196376800537,-0.030487060546875,0.26093393564224243
1773075338235939300,4.147939208984375,-0.5428913831710815,-0.37359142303466797,0.3497832417488098
1773075338254702000,4.1667021484375,-0.6587653160095215,-0.27789783477783203,0.3293878436088562
1773075338273464800,4.18546484375,-0.6212523579597473,-0.7040605545043945,0.5040213465690613
1773075338292227600,4.2042275390625,-0.24074852466583252,-0.8096799850463867,0.7758755683898926
1773075338310990300,4.222990234375,-0.5328232645988464,-0.9722890853881836,0.7909114360809326
1773075338329753000,4.241753173828125,-0.8605721592903137,-0.9005126953125,0.5393470525741577
1773075338348515800,4.260515869140625,-1.1224360466003418,-1.0630664825439453,0.7127854824066162
1773075338367278600,4.279278564453125,-1.242746353149414,-0.9531307220458984,1.245295524597168
1773075338386041300,4.298041259765625,-1.3430107831954956,-0.9480924606323242,1.9843578338623047
1773075338404804000,4.31680419921875,-1.469627857208252,-1.3095684051513672,2.3527536392211914
1773075338423566800,4.33556689453125,-1.3547109365463257,-2.075075149536133,2.3791139125823975
1773075338442329600,4.35432958984375,-1.2997479438781738,-2.491929054260254,1.6826543807983398
1773075338461092400,4.37309228515625,-1.68193781375885,-2.280398368835449,0.9036250114440918
1773075338479855000,4.391855224609375,-2.325108528137207,-2.37624454498291,0.6572643518447876
1773075338498617900,4.410617919921875,-2.1620073318481445,-2.400397300720215,0.5499370098114014
1773075338517380600,4.429380615234375,-2.0293047428131104,-1.2544822692871094,0.30485498905181885
1773075338536143400,4.448143310546875,-1.7978954315185547,-0.2110586166381836,-0.11286711692810059
1773075338554906000,4.466906005859375,-1.3470741510391235,0.9827699661254883,-0.35775017738342285
1773075338573668600,4.485668701171875,-0.9822770357131958,1.8894734382629395,-0.9351712465286255
1773075338592431600,4.504431640625,-0.828921377658844,1.2713556289672852,-1.51316499710083
1773075338611194400,4.5231943359375,0.5907571911811829,-1.3696727752685547,-2.4196460247039795
1773075338629957400,4.541957275390625,2.7661824226379395,-3.541642189025879,-2.933215856552124
1773075338648720100,4.56072021484375,2.7184410095214844,-2.981919288635254,-1.3880410194396973
1773075338667483000,4.57948291015625,2.0517754554748535,-1.1801033020019531,-0.4908544421195984
1773075338686245600,4.59824560546875,0.8411134481430054,-0.47902584075927734,-0.3145328462123871
1773075338705008400,4.61700830078125,0.35819804668426514,-0.0016155242919921875,-0.12194544076919556
1773075338723771100,4.635771240234375,0.9102002382278442,0.4039583206176758,-0.0981711596250534
1773075338742534000,4.654533935546875,1.0237385034561157,0.760218620300293,0.4975346028804779
1773075338761296600,4.673296630859375,1.8091754913330078,0.8600063323974609,0.5518617033958435
1773075338780059400,4.692059326171875,1.991676688194275,1.1747674942016602,0.20415890216827393
1773075338798822100,4.710822265625,2.178389072418213,1.1634950637817383,0.07699835300445557
1773075338817585200,4.729585205078125,2.0106890201568604,1.6807408332824707,-0.2151302993297577
1773075338836348000,4.748347900390625,1.9438508749008179,1.9822282791137695,-1.1105862855911255
1773075338855110700,4.767110595703125,2.00240421295166,2.2201762199401855,-1.7477309703826904
1773075338873873400,4.785873291015625,1.8780570030212402,2.287916660308838,-2.114950656890869
1773075338892636200,4.80463623046875,1.5846763849258423,2.0123491287231445,-2.2518768310546875
1773075338911399000,4.82339892578125,0.8816094398498535,1.446272373199463,-1.6301329135894775
1773075338930161700,4.84216162109375,-0.05608677864074707,0.8364400863647461,-0.631496787071228
1773075338948924700,4.860924560546875,-0.9840872287750244,0.24696063995361328,0.252568781375885
1773075338967687400,4.8796875,-1.900491714477539,-0.29297924041748047,0.4618157148361206
1773075338986450200,4.8984501953125,-3.5346803665161133,-0.7382545471191406,0.17922687530517578
1773075339005213000,4.917212890625,-4.3118109703063965,-1.3817319869995117,-0.14779484272003174
1773075339023975700,4.9359755859375,-3.791590929031372,-1.9925289154052734,0.7765973806381226
1773075339042738400,4.954738525390625,-2.7307839393615723,-1.6756982803344727,1.4982385635375977
1773075339061501400,4.97350146484375,-1.4959347248077393,-0.9848957061767578,0.5359712243080139
1773075339080264200,4.99226416015625,-0.658660888671875,-0.18967628479003906,-0.4435363709926605
1773075339099027000,5.01102685546875,0.0815889835357666,-0.1016836166381836,-1.2101670503616333
1773075339117789700,5.029789794921875,0.42818307876586914,-1.20758056640625,-1.2712732553482056
1773075339136552400,5.048552490234375,1.8048045635223389,-4.057190895080566,-0.28132492303848267
1773075339155315200,5.067315185546875,2.00850510597229,-5.04637336730957,0.9040096402168274
1773075339174078200,5.086078125,1.6582707166671753,-0.6652736663818359,-0.15767592191696167
1773075339192841000,5.104841064453125,1.5314228534698486,3.3522486686706543,-3.5645933151245117
1773075339211603700,5.123603759765625,2.2536025047302246,3.6843490600585938,-5.7923197746276855
1773075339230366500,5.142366455078125,2.2386586666107178,2.5612077713012695,-6.51348352432251
1773075339249129200,5.161129150390625,3.738100051879883,1.3929767608642578,-4.776599884033203
1773075339267892200,5.179892333984375,3.403353214263916,-0.6677627563476562,-1.2453696727752686
1773075339286655000,5.198655029296875,2.616255760192871,-3.2440710067749023,2.3305516242980957
1773075339305417700,5.217417724609375,1.5700690746307373,-2.9629669189453125,3.184570789337158
1773075339324180500,5.236180419921875,1.0551097393035889,-0.036640167236328125,2.150167465209961
1773075339342943200,5.254943115234375,0.6460543274879456,0.6341657638549805,-0.018993258476257324
1773075339361706200,5.273706298828125,0.6759036779403687,0.4690675735473633,-1.5928082466125488
1773075339380469000,5.292468994140625,1.0791881084442139,0.473175048828125,-2.0380547046661377
1773075339399231700,5.311231689453125,1.1284394264221191,0.2863330841064453,-1.934988021850586
1773075339417994500,5.329994384765625,1.0832180976867676,0.2373065948486328,-1.5502793788909912
1773075339436757500,5.348757568359375,0.7446122169494629,0.0879812240600586,-0.9835279583930969
1773075339455520300,5.367520263671875,0.8160908222198486,0.2655525207519531,-0.9058230519294739
1773075339474283000,5.386282958984375,0.7047683000564575,-0.003966331481933594,-0.945915937423706
1773075339493045800,5.405045654296875,0.3416685461997986,-0.06868839263916016,-0.5877134203910828
1773075339511808800,5.423808837890625,0.1293756365776062,-0.0674581527709961,-0.4820179045200348
1773075339530571500,5.442571533203125,-0.2814260721206665,0.26134586334228516,-0.049635887145996094
1773075339549334300,5.461334228515625,-0.3534475564956665,-0.05455493927001953,0.5457900762557983
1773075339568097000,5.480096923828125,-0.531632125377655,-0.7885560989379883,0.8762618899345398
1773075339586860000,5.498860107421875,-1.13252592086792,-0.8259992599487305,0.5992171168327332
1773075339605622800,5.517622802734375,-1.83230459690094,-0.6214332580566406,0.5769990682601929
1773075339624385500,5.536385498046875,-1.7761574983596802,-0.7928237915039062,0.8286030888557434
1773075339643148300,5.555148193359375,-1.6289883852005005,-0.9604377746582031,1.4111828804016113
1773075339661911000,5.5739111328125,-1.7108285427093506,-1.0916576385498047,2.0416970252990723
1773075339680674000,5.592674072265625,-1.818421483039856,-1.1847753524780273,2.1385934352874756
1773075339699436800,5.611436767578125,-1.688004732131958,-1.4216032028198242,1.3363001346588135
1773075339718199600,5.630199462890625,-1.7830455303192139,-1.5880327224731445,0.5102670192718506
1773075339736962600,5.648962646484375,-1.9703364372253418,-2.0039491653442383,0.3466217815876007
1773075339755725300,5.667725341796875,-2.161379337310791,-2.798696517944336,1.0355020761489868
1773075339774488000,5.686488037109375,-2.0661699771881104,-3.3398942947387695,1.711829423904419
1773075339793250800,5.705250732421875,-2.136852979660034,-2.3395156860351562,1.272132158279419
1773075339812013600,5.724013671875,-3.185004234313965,-1.787710189819336,0.6437891125679016
1773075339830776600,5.742776611328125,-2.9470415115356445,-1.0678396224975586,-0.022739708423614502
1773075339849539300,5.761539306640625,-2.3486037254333496,-0.14666175842285156,-0.46361082792282104
1773075339868302000,5.780302001953125,-1.663421392440796,0.6762542724609375,-0.9196681976318359
1773075339887065000,5.799065185546875,-1.2492536306381226,1.2178764343261719,-1.7093212604522705
1773075339905827800,5.817827880859375,-1.168915867805481,0.11011028289794922,-2.1992783546447754
1773075339924590600,5.836590576171875,1.1805673837661743,-2.9015626907348633,-2.424437999725342
1773075339943353600,5.855353515625,4.6437835693359375,-4.920840263366699,-3.1154673099517822
1773075339962116400,5.874116455078125,3.823396921157837,-3.352250099182129,-0.7904351353645325
1773075339980879000,5.892879150390625,2.1473388671875,-0.6227312088012695,0.569107711315155
1773075339999641900,5.911641845703125,0.8080096244812012,0.18754100799560547,0.41579580307006836
1773075340018404900,5.93040478515625,1.2454156875610352,0.6639394760131836,0.31987565755844116
1773075340037167600,5.949167724609375,1.3643094301223755,0.6918773651123047,0.17777585983276367
1773075340055930400,5.967930419921875,1.4382859468460083,0.5857677459716797,0.00517582893371582
1773075340074693000,5.986693115234375,2.285538673400879,0.968663215637207,-0.4681706130504608
1773075340093456100,6.0054560546875,2.4811692237854004,1.7814984321594238,-0.42528992891311646
1773075340112219000,6.024218994140625,2.740104913711548,2.7501397132873535,-0.12316887080669403
1773075340130981600,6.042981689453125,2.8833353519439697,3.3964972496032715,0.043058842420578
1773075340149744600,6.06174462890625,3.026869297027588,3.6941580772399902,-0.09687343239784241
1773075340168507400,6.08050732421875,3.036573648452759,3.770085334777832,-0.5751432776451111
1773075340187270100,6.099270263671875,2.3576807975769043,3.492197036743164,-0.5351443886756897
1773075340206033200,6.118033203125,1.2102456092834473,2.717721939086914,-0.5200635194778442
1773075340224796000,6.1367958984375,-0.2906978130340576,1.5819134712219238,-0.2654901146888733
1773075340243558700,6.15555859375,-2.3792355060577393,-0.41063404083251953,0.5646425485610962
1773075340262321400,6.1743212890625,-3.788944721221924,-3.862844467163086,0.6104522347450256
1773075340281084200,6.193084228515625,-6.542087554931641,-6.716526031494141,-0.6734607219696045
1773075340299847200,6.21184716796875,-8.093868255615234,-5.345953941345215,-1.324611783027649
1773075340318610000,6.23060986328125,-4.533252239227295,-1.7892427444458008,-0.7554832696914673
1773075340337372700,6.24937255859375,-1.5836918354034424,0.6866369247436523,-2.5349364280700684
1773075340356135700,6.2681357421875,-0.08679986000061035,0.41004276275634766,-3.7612011432647705
1773075340374898400,6.2868984375,0.6494076251983643,-1.122218132019043,-3.9407854080200195
1773075340393661200,6.3056611328125,1.4854769706726074,-3.845181465148926,-2.390427350997925
1773075340412424200,6.324424072265625,4.979739189147949,-3.3285818099975586,2.3683066368103027
1773075340431187000,6.34318701171875,5.498075008392334,1.8649239540100098,2.1377668380737305
1773075340449949700,6.36194970703125,3.1928765773773193,3.71506404876709,-2.1062428951263428
1773075340468712400,6.38071240234375,2.599506139755249,2.773247718811035,-3.4676618576049805
1773075340487475500,6.399475341796875,1.7351409196853638,1.0460376739501953,-4.8532233238220215
1773075340506238200,6.41823828125,2.5877363681793213,-0.36803245544433594,-3.4201653003692627
1773075340525001000,6.4370009765625,2.5062055587768555,-1.4960565567016602,0.770276665687561
1773075340543764000,6.455763916015625,2.609330892562866,-2.458104133605957,3.6224184036254883
1773075340562526700,6.474526611328125,1.900955319404602,-1.2818117141723633,3.6929712295532227
1773075340590670800,6.5026708984375,0.2900111675262451,0.5274763107299805,0.8398951292037964
1773075340609433900,6.521433837890625,0.38829725980758667,0.49730873107910156,-0.9328590035438538
1773075340628196600,6.540196533203125,0.2842397093772888,0.24605464935302734,-1.7474855184555054
1773075340646959400,6.55895947265625,0.9201043248176575,0.28954505920410156,-1.6527467966079712
1773075340665722000,6.57772216796875,0.8845316171646118,0.08113479614257812,-0.9874988198280334
1773075340684485000,6.596485107421875,0.7657644748687744,-0.01656055450439453,-0.5093285441398621
1773075340703248000,6.615247802734375,1.017764687538147,0.24897289276123047,-0.08392985910177231
1773075340722010600,6.6340107421875,0.7302120923995972,0.3849506378173828,0.24518847465515137
1773075340740773400,6.6527734375,0.3242741823196411,0.4408283233642578,0.5480038523674011
1773075340759536400,6.671536376953125,0.2716202437877655,0.33631038665771484,0.7082790732383728
1773075340778299100,6.690299072265625,0.2074894905090332,0.11451053619384766,0.5665572285652161
1773075340797062000,6.709061767578125,0.5719583034515381,-0.02876567840576172,0.1286812573671341
1773075340815825000,6.727824951171875,-0.08230304718017578,-0.15255165100097656,0.06372199952602386
1773075340834587600,6.746587646484375,-0.9443408846855164,-0.3714876174926758,0.2571741044521332
1773075340853350400,6.765350341796875,-1.8230628967285156,-0.7406339645385742,0.3649550676345825
1773075340872113400,6.784113525390625,-2.18890380859375,-1.0363779067993164,0.6377023458480835
1773075340890876200,6.802876220703125,-2.1248059272766113,-1.2085332870483398,1.170320987701416
1773075340909639000,6.821638916015625,-1.6527073383331299,-0.9656963348388672,1.712099313735962
1773075340928401700,6.840401611328125,-1.7569851875305176,-1.0915412902832031,2.271787643432617
1773075340947164700,6.85916455078125,-1.4622522592544556,-1.2983083724975586,2.3551084995269775
1773075340965927400,6.877927490234375,-1.311669111251831,-1.4063291549682617,1.8756506443023682
1773075340984690200,6.896690185546875,-1.3064115047454834,-1.360489845275879,1.330564260482788
1773075341003453000,6.915452880859375,-1.7654129266738892,-1.6244134902954102,1.6115168333053589
1773075341022216000,6.9342158203125,-2.1003835201263428,-2.097243309020996,2.0669169425964355
1773075341040978700,6.952978759765625,-2.2546920776367188,-2.0272445678710938,2.16194486618042
1773075341059741400,6.971741455078125,-2.418302536010742,-1.9409942626953125,1.818993091583252
1773075341078504200,6.990504150390625,-2.7920517921447754,-1.7847976684570312,1.2145460844039917
1773075341097267200,7.00926708984375,-2.364957332611084,-0.8416147232055664,0.7814130783081055
1773075341116030000,7.028030029296875,-1.8685836791992188,0.3999490737915039,0.1950245499610901
1773075341134792700,7.046792724609375,-1.950571060180664,0.9474983215332031,-0.43428224325180054
1773075341153555700,7.0655556640625,-1.4173082113265991,0.7618217468261719,-1.0588963031768799
1773075341172318500,7.084318359375,-0.8042464852333069,-0.10865306854248047,-1.3491634130477905
1773075341191081200,7.103081298828125,1.619714379310608,-2.8686399459838867,-1.7539037466049194
1773075341209844000,7.121843994140625,4.594393730163574,-4.959268569946289,-2.2938380241394043
1773075341228606700,7.140606689453125,3.880734920501709,-3.30352783203125,-0.29271605610847473
1773075341247369500,7.159369384765625,1.8273118734359741,-1.0057744979858398,0.511435866355896
1773075341266132500,7.178132568359375,0.8773428201675415,-0.1631488800048828,0.25618770718574524
1773075341284895200,7.196895263671875,0.7282745838165283,0.2346048355102539,0.35810554027557373
1773075341303658000,7.215657958984375,1.2496331930160522,0.7855405807495117,0.3744719326496124
1773075341322421000,7.2344208984375,1.675458312034607,1.0760135650634766,-0.2658427655696869
1773075341341183700,7.253183837890625,2.4409091472625732,1.402653694152832,-0.8605685234069824
1773075341359946500,7.271946533203125,2.905916929244995,1.9196362495422363,-0.9011238217353821
1773075341378709200,7.290709228515625,3.1321253776550293,2.5485525131225586,-0.8713065981864929
1773075341397472300,7.30947216796875,2.9691033363342285,3.0345592498779297,-0.9128671884536743
1773075341416235000,7.328235107421875,2.441448450088501,2.977064609527588,-1.3118500709533691
1773075341434997800,7.346997802734375,1.9565843343734741,2.683333396911621,-1.7999080419540405
1773075341453760500,7.365760498046875,1.685361385345459,2.4058194160461426,-1.7464299201965332
1773075341472523500,7.3845234375,1.2592804431915283,2.131652355194092,-1.4296786785125732
1773075341491286300,7.403286376953125,0.21395564079284668,0.5547637939453125,-1.0977251529693604
1773075341510049000,7.422049072265625,-1.7644460201263428,-1.1858196258544922,0.6801034808158875
1773075341528811800,7.440811767578125,-3.662752628326416,-2.789605140686035,1.5537974834442139
1773075341547574500,7.459574462890625,-5.641204833984375,-4.048664093017578,1.4354140758514404
1773075341566337500,7.478337646484375,-6.80128288269043,-3.602262496948242,1.06547212600708
1773075341585100300,7.497100341796875,-5.412287712097168,-1.5284490585327148,1.0302035808563232
1773075341603863000,7.515863037109375,-1.6581668853759766,0.18275928497314453,-0.5274317264556885
1773075341622625800,7.534625732421875,1.0069606304168701,0.930729866027832,-1.3803951740264893
1773075341641388500,7.553388427734375,1.4246926307678223,-0.6246547698974609,-1.9694721698760986
1773075341660151600,7.572151611328125,1.3550885915756226,-2.621095657348633,0.9582576751708984
1773075341678914300,7.590914306640625,2.806833505630493,-2.4018678665161133,2.476740598678589
1773075341697677000,7.609677001953125,1.2276268005371094,-1.266097068786621,0.3913043737411499
1773075341716439800,7.628439697265625,0.2242898941040039,-0.6994562149047852,-2.218688488006592
1773075341735202600,7.64720263671875,2.5778303146362305,0.8606595993041992,-5.1109490394592285
1773075341753965600,7.665965576171875,3.1612439155578613,1.9796419143676758,-6.10486364364624
1773075341772728300,7.684728271484375,3.606566905975342,2.038503646850586,-3.9162535667419434
1773075341791491000,7.703490966796875,3.7371418476104736,1.0135974884033203,-1.1117463111877441
1773075341810253800,7.72225390625,3.5521528720855713,-0.972930908203125,0.8935838937759399
1773075341829016600,7.7410166015625,1.8385252952575684,-1.350677490234375,2.598560094833374
1773075341847779600,7.759779541015625,0.8588279485702515,-0.8332118988037109,2.802279472351074
1773075341866542300,7.778542236328125,0.31908857822418213,-0.4423208236694336,1.7176557779312134
1773075341885305000,7.79730517578125,0.09148645401000977,-0.09904766082763672,0.34135502576828003
1773075341904067800,7.81606787109375,0.7737261652946472,0.30769920349121094,-0.4131530821323395
1773075341922830600,7.83483056640625,1.239014744758606,0.5100574493408203,-0.7935993075370789
1773075341941593600,7.853593505859375,1.1573596000671387,0.5933475494384766,-0.659842848777771
1773075341960356400,7.8723564453125,1.0775527954101562,0.4194049835205078,-0.49939000606536865
1773075341979119000,7.891119140625,0.7170765399932861,0.19545650482177734,-0.04942471534013748
1773075341997881900,7.9098818359375,0.26046791672706604,0.1223592758178711,0.3521101474761963
1773075342016644600,7.92864453125,0.16610606014728546,0.3137807846069336,0.4248594641685486
1773075342035407400,7.947407470703125,0.30799174308776855,0.06351947784423828,0.4709928035736084
1773075342054170400,7.96617041015625,0.24050740897655487,-0.04919242858886719,0.4659945070743561
1773075342072933000,7.98493310546875,0.12618914246559143,0.10804939270019531,0.645272970199585
1773075342091695900,8.00369580078125,-0.15198245644569397,0.07115364074707031,0.6639938354492188
1773075342110458600,8.022458740234375,-0.43724650144577026,-0.20680713653564453,0.6676586866378784
1773075342129221400,8.041221435546875,-0.8983983993530273,-0.42393016815185547,0.5675225853919983
1773075342147984100,8.059984130859375,-1.2105399370193481,-0.33656978607177734,0.7583796381950378
1773075342166747000,8.078746826171875,-1.4615552425384521,-0.46022701263427734,0.6679196953773499
1773075342185509600,8.097509521484374,-1.39592444896698,-0.6119585037231445,0.7930598258972168
1773075342204272600,8.116272705078124,-1.3095238208770752,-0.5666399002075195,1.1614868640899658
1773075342223035400,8.135035400390626,-1.5216649770736694,-0.6202306747436523,1.5019948482513428
1773075342241798100,8.153798095703126,-1.6950044631958008,-0.7284364700317383,1.7666431665420532
1773075342260561000,8.172560791015625,-1.5926659107208252,-0.9486474990844727,1.9830446243286133
1773075342279323600,8.19132373046875,-1.1329830884933472,-1.695526123046875,2.485785961151123
1773075342298086400,8.21008642578125,-0.9032812118530273,-1.9870424270629883,3.2521164417266846
1773075342316849400,8.228849365234375,-0.9916338920593262,-2.358734130859375,3.7377171516418457
1773075342335612200,8.247612060546874,-1.3600362539291382,-2.6362428665161133,3.1718811988830566
1773075342354375000,8.266375,-2.09233021736145,-2.0674562454223633,2.3601338863372803
1773075342373137700,8.2851376953125,-2.4489285945892334,-1.4207782745361328,1.9186623096466064
1773075342391900400,8.303900390625,-2.2300069332122803,-0.7177600860595703,1.5399870872497559
1773075342410663200,8.3226630859375,-2.2484514713287354,-0.31641578674316406,1.0878307819366455
1773075342429426000,8.341426025390625,-1.9848445653915405,-0.12123394012451172,0.613267183303833
1773075342448188700,8.360188720703125,-1.2198350429534912,0.3473081588745117,0.15179336071014404
1773075342466951400,8.378951416015624,-0.20480823516845703,0.8328790664672852,-0.13754117488861084
1773075342485714200,8.397714111328124,1.3894178867340088,-0.8023128509521484,0.18899953365325928
1773075342504477200,8.416477294921876,4.101969242095947,-3.7576169967651367,-0.18165969848632812
1773075342523240000,8.435239990234376,5.440124034881592,-4.267485618591309,1.1755433082580566
1773075342542002700,8.454002685546875,4.026878356933594,-2.0145721435546875,2.4882824420928955
1773075342560765400,8.472765380859375,2.2205862998962402,-0.8616676330566406,2.6146605014801025
1773075342579528200,8.491528076171875,2.1626362800598145,-0.47800445556640625,2.236175060272217
1773075342598291000,8.510291015625,2.1370046138763428,-0.0325927734375,1.8738584518432617
1773075342617053700,8.5290537109375,2.8121440410614014,0.3411684036254883,1.160772681236267
1773075342635816400,8.54781640625,3.3600008487701416,0.6883554458618164,0.27681848406791687
1773075342654579200,8.5665791015625,3.9786746501922607,1.0021638870239258,0.2281302809715271
1773075342673342000,8.585342041015625,4.208712577819824,1.5154328346252441,0.45246422290802
1773075342692104700,8.604104736328125,3.908712863922119,1.6401958465576172,0.3288456201553345
1773075342710867500,8.622867431640625,3.339691400527954,1.3886299133300781,0.2592352628707886
1773075342729630200,8.641630126953125,2.9644289016723633,0.8875494003295898,0.1336037516593933
1773075342748393000,8.66039306640625,2.6813273429870605,0.5397071838378906,-0.44584938883781433
1773075342767156000,8.679156005859374,2.5989291667938232,0.24324607849121094,-0.32559916377067566
1773075342785918700,8.697918701171876,2.4433090686798096,-0.46318531036376953,0.06281673908233643
1773075342804681500,8.716681396484375,1.8685212135314941,-1.2690467834472656,0.4004809856414795
1773075342823444200,8.7354443359375,0.9293838739395142,-2.3011255264282227,0.11314696073532104
1773075342842207000,8.75420703125,-0.653801679611206,-2.330428123474121,-0.8230372667312622
1773075342860969700,8.7729697265625,-1.7517945766448975,-1.5302724838256836,-1.3696110248565674
1773075342879732500,8.791732421875,-1.2964458465576172,-0.18382740020751953,-0.6625851392745972
1773075342898495200,8.8104951171875,0.46830272674560547,0.46763134002685547,-0.09024608135223389
1773075342917258000,8.829258056640626,2.3952503204345703,0.7542800903320312,0.3065716624259949
1773075342936020700,8.848020751953126,3.1613388061523438,0.6366100311279297,0.44898951053619385
1773075342954783500,8.866783447265625,2.7381203174591064,-0.0761871337890625,0.1089850664138794
1773075342973546200,8.885546142578125,1.7754840850830078,-1.107600212097168,-0.12379038333892822
1773075342992309000,8.90430908203125,0.8769744634628296,-2.06414794921875,-0.2846779525279999
1773075343011071700,8.92307177734375,0.5911887884140015,-2.8823423385620117,-0.20142707228660583
1773075343029834500,8.94183447265625,1.1317682266235352,-1.8559799194335938,0.11995673179626465
1773075343048597200,8.96059716796875,1.9834837913513184,-0.013301849365234375,-0.8675395846366882
1773075343067360000,8.979360107421876,1.7066466808319092,0.9288854598999023,-2.4137680530548096
1773075343086122800,8.998122802734375,1.3757973909378052,1.2228269577026367,-3.4796810150146484
1773075343104885500,9.016885498046875,1.7445471286773682,1.3774003982543945,-2.7214157581329346
1773075343123648300,9.035648193359375,1.8442970514297485,0.9573831558227539,-0.8650600910186768
1773075343142411000,9.054410888671875,1.2716329097747803,-0.4300355911254883,0.9656832218170166
1773075343161173800,9.073173828125,1.2940608263015747,-1.206589698791504,2.420175075531006
1773075343179936500,9.0919365234375,1.3866769075393677,-0.8881454467773438,2.4189159870147705
1773075343198699300,9.11069921875,0.8707264065742493,-0.25055885314941406,2.112339735031128
1773075343217462000,9.1294619140625,0.2892411947250366,0.11252689361572266,1.7362678050994873
1773075343236224800,9.148224853515625,0.4691668748855591,0.0740194320678711,1.4044746160507202
1773075343254987500,9.166987548828125,1.136789083480835,0.038127899169921875,1.499053955078125
1773075343273750300,9.185750244140625,1.3625521659851074,-0.07829761505126953,1.6352441310882568
1773075343292513000,9.204512939453124,1.152321696281433,-0.24549102783203125,1.5266278982162476
1773075343311275800,9.22327587890625,1.1018120050430298,-0.36280250549316406,1.2266011238098145
1773075343330038500,9.24203857421875,1.0860595703125,-0.4548826217651367,0.9228814840316772
1773075343348801300,9.26080126953125,1.160293698310852,-0.2836437225341797,0.7540590763092041
1773075343367564000,9.27956396484375,1.3995802402496338,-0.19893169403076172,0.49295613169670105
1773075343386326800,9.298326904296875,1.6546144485473633,-0.1813335418701172,0.6509212851524353
1773075343405089500,9.317089599609375,1.2331105470657349,-0.26378440856933594,0.5622833371162415
1773075343423852300,9.335852294921875,0.7910361289978027,0.024801254272460938,0.5941845178604126
1773075343442615000,9.354614990234374,0.600425124168396,0.07660198211669922,0.851215124130249
1773075343461377800,9.373377685546876,0.526814341545105,0.09806632995605469,1.102250576019287
1773075343480140500,9.392140625,0.4577542543411255,-0.010237693786621094,1.0552302598953247
1773075343498903000,9.410903076171875,0.5758906006813049,-0.089996337890625,1.017838716506958
1773075343517665800,9.429665771484375,0.7991721034049988,-0.09379863739013672,0.7747082710266113
1773075343536428500,9.448428466796875,0.764493465423584,0.10671615600585938,0.6768264770507812
1773075343555191300,9.46719140625,0.8486250042915344,0.13341999053955078,0.48250719904899597
1773075343573954000,9.4859541015625,0.9751200079917908,-0.09828376770019531,0.39543867111206055
1773075343592716800,9.504716796875,0.8803684115409851,-0.2869558334350586,0.3634817600250244
1773075343611479600,9.5234794921875,0.5553679466247559,-0.5238494873046875,0.11805635690689087
1773075343630242300,9.5422421875,0.08850845694541931,-0.44149303436279297,-0.08719825744628906
1773075343649005000,9.561005126953125,-0.4929320514202118,-0.59063720703125,0.11911636590957642
1773075343667767800,9.579767822265625,-0.5835360288619995,-1.0074634552001953,0.7374041080474854
1773075343686530600,9.598530517578125,-0.4751732051372528,-1.3273286819458008,1.6718990802764893
1773075343705293300,9.617293212890624,-0.33915436267852783,-1.3344249725341797,2.107494831085205
1773075343724056000,9.63605615234375,-0.6450403332710266,-0.9390811920166016,2.236063241958618
1773075343742818800,9.65481884765625,-1.3497827053070068,-1.1078710556030273,2.452078342437744
1773075343761581300,9.673581298828125,-1.6555628776550293,-1.384140968322754,2.3584625720977783
1773075343780344000,9.692343994140625,-1.8298976421356201,-1.3336620330810547,2.4239907264709473
1773075343799106800,9.71110693359375,-1.6009585857391357,-1.3759431838989258,2.693416118621826
1773075343817869600,9.72986962890625,-1.3690001964569092,-1.328782081604004,2.4498350620269775
1773075343836632300,9.74863232421875,-1.151061773300171,-0.7128686904907227,1.968478798866272
1773075343855395000,9.76739501953125,-0.8037905693054199,0.1033010482788086,1.6064457893371582
1773075343874157800,9.78615771484375,-0.2472323477268219,1.0049152374267578,1.457066297531128
1773075343892920600,9.804920654296875,0.2569993734359741,1.3041496276855469,1.181793451309204
1773075343911683300,9.823683349609375,0.7986323833465576,-0.38397216796875,1.2563759088516235
1773075343930445800,9.84244580078125,2.283247947692871,-3.6733694076538086,0.4516150653362274
1773075343949208600,9.86120849609375,3.476966381072998,-3.6646270751953125,-0.06953459978103638
1773075343967971300,9.879971435546874,3.022235155105591,-1.768712043762207,0.9231523275375366
1773075343986734000,9.898734130859374,2.696075916290283,-1.231424331665039,1.3379348516464233
1773075344005496800,9.917496826171876,2.433476448059082,-0.9777717590332031,1.3086869716644287
1773075344024259600,9.936259521484375,2.403989553451538,-0.46834659576416016,1.4826984405517578
1773075344052403700,9.96440380859375,2.6675541400909424,-0.00421905517578125,1.016676902770996
1773075344071166500,9.98316650390625,2.903993844985962,0.05867195129394531,0.2133355438709259
1773075344089929000,10.001928955078125,3.1751644611358643,0.18791675567626953,-0.4116249680519104
1773075344108691700,10.020691650390624,3.082624912261963,0.48274993896484375,-0.6969881057739258
1773075344127454500,10.039454345703126,2.8739068508148193,0.6045303344726562,-1.1077239513397217
1773075344146217200,10.05821728515625,2.4472036361694336,0.9546909332275391,-0.9866952300071716
1773075344164980000,10.07697998046875,2.190380096435547,0.8970298767089844,-1.0840280055999756
1773075344183742700,10.09574267578125,2.1096415519714355,1.0828495025634766,-1.1512095928192139
1773075344202505500,10.11450537109375,2.2105872631073,1.0131568908691406,-1.3941059112548828
1773075344221268000,10.13326806640625,2.271556854248047,1.204808235168457,-1.6384458541870117
1773075344240030700,10.15203076171875,1.9618867635726929,1.3586235046386719,-1.9038711786270142
1773075344258793500,10.17079345703125,1.1485528945922852,1.2454147338867188,-2.0380218029022217
1773075344277556200,10.18955615234375,0.018376588821411133,1.0506410598754883,-1.6810886859893799
1773075344296319000,10.208319091796875,-1.2612571716308594,0.42889976501464844,-1.1468031406402588
1773075344315081700,10.227081787109375,-2.5164287090301514,-0.586359977722168,-0.2990860641002655
1773075344333844200,10.24584423828125,-2.701328992843628,-1.230586051940918,1.0305500030517578
1773075344352607000,10.26460693359375,-2.4107422828674316,-1.6204795837402344,1.6951894760131836
1773075344371369700,10.28336962890625,-1.859637975692749,-0.9736557006835938,1.6773929595947266
1773075344390132500,10.302132568359376,-0.8134961128234863,0.13671398162841797,0.884766697883606
1773075344408895200,10.320895263671876,-0.1404407024383545,0.2337188720703125,-0.30477821826934814
1773075344427658000,10.339657958984375,-0.6724014282226562,-1.828385353088379,-0.002630949020385742
1773075344446420500,10.35842041015625,-0.8779103755950928,-4.3786420822143555,0.3229873776435852
1773075344465183200,10.377183349609375,-0.06123995780944824,-7.83892822265625,1.8044676780700684
1773075344483946000,10.395946044921875,1.1339969635009766,-4.097101211547852,2.477971315383911
1773075344502708700,10.414708740234374,3.980320930480957,2.660808563232422,-1.7154980897903442
1773075344521471500,10.433471435546876,3.8305282592773438,6.18704891204834,-6.053250312805176
1773075344540234000,10.45223388671875,2.4018845558166504,5.154627799987793,-8.617698669433594
1773075344558996700,10.470996826171875,3.8351473808288574,4.510436058044434,-7.943427085876465
1773075344577759500,10.489759521484375,3.292156219482422,1.611433506011963,-2.5704922676086426
1773075344596522200,10.508522216796875,3.430187463760376,-3.597126007080078,1.4779716730117798
1773075344615285000,10.527284912109375,2.4771647453308105,-6.026447296142578,6.2507758140563965
1773075344634047700,10.5460478515625,0.9625114798545837,-2.1502389907836914,5.917108535766602
1773075344652810200,10.564810302734376,0.5117356777191162,1.2282648086547852,2.3711133003234863
1773075344671573000,10.583572998046876,0.5044589042663574,0.8305025100708008,0.2008269876241684
1773075344690335700,10.602335693359375,1.2158983945846558,0.40967273712158203,-0.8548314571380615
1773075344709098500,10.621098388671875,2.1492695808410645,0.5156698226928711,-1.5895588397979736
1773075344727861000,10.639861083984375,1.882714033126831,0.5477218627929688,-1.4676225185394287
1773075344746623700,10.658623779296875,1.5394339561462402,-0.006749153137207031,-1.2301366329193115
1773075344765386500,10.677386474609374,1.0929052829742432,-0.5637540817260742,-0.794963002204895
1773075344784149200,10.696149169921876,0.7998552322387695,-0.30629444122314453,-0.717368483543396
1773075344802912000,10.714912109375,0.5258537530899048,0.085296630859375,-0.9477716088294983
1773075344821674500,10.733674560546875,0.5043660998344421,0.15360260009765625,-0.6400260329246521
1773075344840437200,10.752437255859375,0.7640957236289978,0.21495819091796875,-0.13926109671592712
1773075344859200000,10.771199951171875,0.8610789775848389,0.19313335418701172,0.09505964070558548
1773075344877962500,10.78996240234375,0.3904346525669098,0.2595844268798828,0.6209230422973633
1773075344896725200,10.808725341796874,-0.20668190717697144,0.25213146209716797,0.5334935188293457
1773075344915488000,10.827488037109376,-0.4220019578933716,0.08539772033691406,0.37897998094558716
1773075344934250800,10.846250732421876,-0.5368431806564331,-0.1684551239013672,0.26597830653190613
1773075344953013500,10.865013427734375,-0.6420607566833496,-0.32291507720947266,0.20551548898220062
1773075344971776000,10.88377587890625,-1.0032689571380615,-0.4932222366333008,0.3692761957645416
1773075344990538800,10.902538818359375,-0.9087929129600525,-0.606959342956543,0.6075223684310913
1773075345009301500,10.921301513671875,-1.1002229452133179,-0.7116889953613281,0.9773198366165161
1773075345028064300,10.940064208984374,-1.2980129718780518,-0.6200675964355469,1.1602699756622314
1773075345046826800,10.95882666015625,-1.5325614213943481,-0.6136226654052734,1.2574183940887451
1773075345065589500,10.977589599609376,-1.5869524478912354,-0.6867313385009766,1.239636778831482
1773075345084352300,10.996352294921875,-1.535787582397461,-0.7925567626953125,1.2977628707885742
1773075345103115000,11.015114990234375,-1.6292293071746826,-2.2588491439819336,1.7609809637069702
1773075345121877500,11.03387744140625,-1.2416491508483887,-2.96669864654541,2.252135992050171
1773075345140640300,11.05264013671875,-1.3087711334228516,-2.9529733657836914,3.019463062286377
1773075345159403000,11.071403076171874,-1.377596139907837,-2.977309226989746,2.818905830383301
1773075345178165800,11.090165771484376,-2.2750680446624756,-2.7893075942993164,1.7254316806793213
1773075345196928300,11.10892822265625,-2.656721591949463,-1.6372566223144531,0.6114495396614075
1773075345215691000,11.12769091796875,-2.452260971069336,-0.45545482635498047,-0.06286352872848511
1773075345234453800,11.146453857421875,-1.75423002243042,0.41173744201660156,-0.3233240842819214
1773075345253216500,11.165216552734375,-1.5174649953842163,1.0242805480957031,-1.1691781282424927
1773075345271979000,11.18397900390625,-0.976596474647522,1.0836057662963867,-1.0402791500091553
1773075345290741800,11.20274169921875,0.48867905139923096,-0.9085912704467773,-1.1593883037567139
1773075345309504500,11.22150439453125,3.2525742053985596,-2.935335159301758,-1.7487623691558838
1773075345328267300,11.240267333984375,4.174495697021484,-3.459239959716797,-0.984284520149231
1773075345347029800,11.25902978515625,2.6614413261413574,-1.4015913009643555,0.5252487659454346
1773075345365792500,11.27779248046875,1.1414029598236084,-0.16524982452392578,0.24478481709957123
1773075345384555300,11.29655517578125,1.266739010810852,0.1637420654296875,-0.6612614393234253
1773075345403317800,11.31531787109375,1.4161956310272217,0.3757944107055664,-0.35235482454299927
1773075345422080500,11.33408056640625,1.4990432262420654,0.5284204483032227,-0.1732194423675537
1773075345440843300,11.35284326171875,2.3086869716644287,0.6659317016601562,-0.2723312973976135
1773075345459606000,11.37160595703125,2.7538809776306152,1.1533517837524414,-0.5231375694274902
1773075345478368500,11.390368408203125,2.8076863288879395,1.6881179809570312,-0.48574116826057434
1773075345497131300,11.40913134765625,2.4596104621887207,2.1469998359680176,-0.22840666770935059
1773075345515894000,11.42789404296875,2.1297950744628906,2.324953556060791,-0.2683247923851013
1773075345534656500,11.446656494140624,1.9610525369644165,2.4231247901916504,-0.4467499554157257
1773075345553419300,11.465419189453126,1.8714033365249634,2.415992259979248,-0.7738877534866333
1773075345572182000,11.48418212890625,1.4851596355438232,2.4853997230529785,-1.0025513172149658
1773075345590944800,11.50294482421875,0.7818741798400879,2.1788864135742188,-0.9983278512954712
1773075345609707300,11.521707275390625,-0.12267541885375977,1.391547679901123,-0.5481786727905273
1773075345628470000,11.540469970703125,-1.3352079391479492,0.1515493392944336,0.4923279285430908
1773075345647232800,11.559232666015625,-2.647418737411499,-1.2946453094482422,1.1786117553710938
1773075345665995500,11.57799560546875,-3.6596028804779053,-2.75449275970459,0.9662461280822754
1773075345684758000,11.596758056640626,-4.426894187927246,-3.079050064086914,0.677507221698761
1773075345703520800,11.615520751953126,-3.7301273345947266,-1.9352922439575195,0.5898348093032837
1773075345722283500,11.634283447265625,-2.0889387130737305,-0.2327890396118164,-0.40625685453414917
1773075345741046300,11.65304638671875,-0.040386199951171875,1.4034404754638672,-1.0943634510040283
1773075345759808800,11.671808837890625,0.9807987213134766,1.3364920616149902,-1.8544548749923706
1773075345778571500,11.690571533203125,0.9023325443267822,-3.1226463317871094,-1.011479139328003
1773075345797334300,11.709334228515624,2.040095329284668,-6.216235160827637,1.4333274364471436
1773075345816096800,11.7280966796875,1.5158199071884155,-3.5257997512817383,1.3716386556625366
1773075345834859500,11.746859619140626,0.37816858291625977,-2.033102035522461,-2.0137667655944824
1773075345853622300,11.765622314453125,1.885909914970398,2.1241798400878906,-3.76981782913208
1773075345872385000,11.784385009765625,3.544445514678955,3.891552448272705,-6.5333123207092285
1773075345891147500,11.8031474609375,3.336179256439209,3.292839527130127,-6.169334888458252
1773075345909910300,11.82191015625,4.999319076538086,2.0239758491516113,-3.385281562805176
1773075345928673000,11.840673095703124,3.9769420623779297,-0.3967113494873047,-0.2623857855796814
1773075345947435800,11.859435791015626,3.195319414138794,-2.9527158737182617,1.8210508823394775
1773075345966198300,11.8781982421875,1.527367353439331,-2.225327491760254,3.129528045654297
1773075345984961000,11.8969609375,1.1104590892791748,-0.3468608856201172,2.6165084838867188
1773075346003723800,11.915723876953125,0.4798862338066101,0.20528888702392578,0.27487829327583313
1773075346022486500,11.934486572265625,0.3637336492538452,0.3513050079345703,-1.351891040802002
1773075346041249000,11.9532490234375,1.3357222080230713,0.5428915023803711,-2.0632879734039307
1773075346060011800,11.97201171875,1.918287992477417,0.6558799743652344,-2.0525989532470703
1773075346078774500,11.9907744140625,1.7614109516143799,0.2739295959472656,-1.5587100982666016
1773075346097537000,12.009537109375,1.2821086645126343,-0.13809680938720703,-0.8543977737426758
1773075346116299800,12.0282998046875,0.9501242637634277,-0.2601137161254883,-0.43739110231399536
1773075346135062500,12.0470625,0.6452231407165527,0.12141227722167969,-0.46076470613479614
1773075346153825300,12.0658251953125,0.5530726909637451,0.23230743408203125,-0.19268926978111267
1773075346172588000,12.084588134765625,0.799594521522522,0.0410308837890625,0.16101795434951782
1773075346191350500,12.1033505859375,0.4938412308692932,0.09292125701904297,0.2174450159072876
1773075346210113300,12.12211328125,0.2791252136230469,0.238037109375,0.4199102520942688
1773075346228876000,12.1408759765625,-0.1921273171901703,0.194366455078125,0.32159239053726196
1773075346247638800,12.159638671875,-0.684994637966156,-0.2183094024658203,0.2421131581068039
1773075346266401300,12.1784013671875,-0.8746407628059387,-0.4160280227661133,0.2893780469894409
1773075346285164000,12.1971640625,-0.8973407745361328,-0.23283958435058594,0.4856186509132385
1773075346303926800,12.2159267578125,-0.8119911551475525,-0.1952342987060547,0.8069931864738464
1773075346322689500,12.234689453125,-0.6819443702697754,-0.31579113006591797,1.2556729316711426
1773075346341452000,12.2534521484375,-0.6886143088340759,-0.6881198883056641,1.6818921566009521
1773075346360214800,12.27221484375,-1.0729647874832153,-1.0669183731079102,1.7034660577774048
1773075346378977500,12.2909775390625,-1.1476812362670898,-1.0370988845825195,0.8980091214179993
1773075346397740300,12.309740234375,-0.9761989116668701,-0.6969995498657227,-0.27769070863723755
1773075346416503000,12.3285029296875,-0.8934256434440613,-0.48241710662841797,-0.6858274936676025
1773075346435265500,12.347265625,-1.1126140356063843,-0.4506969451904297,-0.10689350962638855
1773075346454028300,12.3660283203125,-1.4860353469848633,-0.5625877380371094,0.7109256386756897
1773075346472791000,12.384791015625,-1.8821465969085693,-0.6264448165893555,1.4251095056533813
1773075346491553800,12.4035537109375,-1.9449877738952637,-0.6221866607666016,2.0600051879882812
1773075346510316500,12.422316650390625,-1.8734380006790161,-1.702005386352539,2.814767360687256
1773075346529079000,12.4410791015625,-1.5721546411514282,-2.1349220275878906,2.8350093364715576
1773075346547841800,12.459841796875,-1.4737844467163086,-1.6636028289794922,2.948054790496826
1773075346566604500,12.4786044921875,-2.195199966430664,-2.6022329330444336,2.2480711936950684
1773075346594748700,12.506748779296874,-1.7802391052246094,-2.4457340240478516,0.668530285358429
1773075346613511200,12.52551123046875,-1.6045756340026855,-0.7085838317871094,-0.19608157873153687
1773075346632274000,12.54427392578125,-1.3217949867248535,0.5071735382080078,-1.0677154064178467
1773075346651036700,12.56303662109375,-0.9324804544448853,0.7462005615234375,-1.693037509918213
1773075346669799400,12.58179931640625,-0.24986422061920166,-0.7021846771240234,-2.3280797004699707
1773075346688562200,12.600562255859375,2.6155080795288086,-2.1720457077026367,-3.042282819747925
1773075346707325000,12.619324951171874,4.319601058959961,-2.770113945007324,-2.6552810668945312
1773075346726087400,12.63808740234375,3.3841629028320312,-1.0978069305419922,-0.651814341545105
1773075346744850200,12.65685009765625,1.5127942562103271,-0.024397850036621094,0.6496583819389343
1773075346763613000,12.675613037109375,0.8958139419555664,0.3392496109008789,0.33095183968544006
1773075346782375700,12.694375732421875,1.3008238077163696,0.6839962005615234,0.262219101190567
1773075346801138200,12.71313818359375,1.4307637214660645,0.9081134796142578,0.4740305244922638
1773075346819901000,12.73190087890625,1.9418607950210571,1.0689659118652344,0.5786267518997192
1773075346838663700,12.75066357421875,2.7762339115142822,1.6530299186706543,0.2409561574459076
1773075346857426400,12.769426513671876,3.248248815536499,2.0106043815612793,0.2046355903148651
1773075346876189200,12.788189208984376,3.0720949172973633,2.3686184883117676,0.2119637429714203
1773075346894952000,12.806951904296875,2.432574987411499,2.3048624992370605,0.04295241832733154
1773075346913714400,12.82571435546875,1.888136625289917,1.9266924858093262,-0.31762877106666565
1773075346932477200,12.844477294921875,1.5441741943359375,1.769911766052246,-0.9039991497993469
1773075346951240000,12.863239990234375,1.1263757944107056,1.7884511947631836,-0.9746350646018982
1773075346970002700,12.882002685546874,0.602271318435669,1.7094225883483887,-1.0839588642120361
1773075346988765400,12.900765380859376,0.0442357063293457,1.4308185577392578,-0.9335169792175293
1773075347007528200,12.919528076171876,-0.9606575965881348,0.6142072677612305,-0.24270188808441162
1773075347026290700,12.938290771484375,-1.8014895915985107,-0.47475147247314453,0.6973247528076172
1773075347045053400,12.957053466796875,-2.4496724605560303,-1.7868404388427734,0.6995871067047119
1773075347063816200,12.975816162109375,-3.5702481269836426,-2.387277603149414,0.38457196950912476
1773075347082579000,12.994578857421875,-4.36101770401001,-2.023430824279785,0.11470311880111694
1773075347101341700,13.013341796875,-4.325295448303223,-1.1024236679077148,0.35269296169281006
1773075347120104400,13.0321044921875,-3.0483267307281494,-0.14362430572509766,-0.4641258716583252
1773075347138867000,13.050866943359376,-1.569183349609375,0.7471294403076172,-0.7749036550521851
1773075347157629700,13.069629638671875,0.15844988822937012,0.6827888488769531,-1.4229257106781006
1773075347176392400,13.088392333984375,1.0937459468841553,-3.790360450744629,-1.1101107597351074
1773075347195155200,13.1071552734375,2.257725477218628,-6.119443893432617,-0.11220100522041321
1773075347213918000,13.12591796875,1.044446587562561,-5.710222244262695,1.0590590238571167
1773075347232680700,13.1446806640625,1.5921140909194946,-1.0149650573730469,1.657043218612671
1773075347251443500,13.163443359375,3.10011887550354,4.323267459869385,-2.54184889793396
1773075347270206000,13.1822060546875,3.2188119888305664,5.322349548339844,-5.114834308624268
1773075347288968700,13.20096875,1.9166879653930664,3.4027652740478516,-6.705617904663086
1773075347307731500,13.2197314453125,4.941625595092773,2.124850273132324,-5.133209705352783
1773075347326494200,13.238494140625,3.5944833755493164,-0.7832021713256836,-1.321502923965454
1773075347345257000,13.257257080078125,1.808679223060608,-3.82736873626709,2.157503843307495
1773075347364019700,13.276019775390624,0.8126693964004517,-2.367447853088379,3.3174383640289307
1773075347382782500,13.294782470703124,1.3523794412612915,0.2594261169433594,3.148770570755005
1773075347401545000,13.313544921875,0.976922333240509,0.7700176239013672,1.4038282632827759
1773075347420307700,13.3323076171875,1.09414803981781,0.47984790802001953,0.12855908274650574
1773075347439070500,13.351070556640625,1.3713304996490479,0.4046659469604492,-0.9140132665634155
1773075347457833200,13.369833251953125,1.3910374641418457,0.3758668899536133,-1.537179946899414
1773075347476596000,13.388595947265625,1.1769649982452393,-0.032364845275878906,-1.5628331899642944
1773075347495358700,13.407358642578124,0.8869273662567139,-0.3411703109741211,-1.4379793405532837
1773075347514121500,13.42612158203125,0.5464967489242554,-0.06029796600341797,-1.1582903861999512
1773075347532884200,13.44488427734375,0.31572428345680237,0.17837047576904297,-0.7006896734237671
1773075347551646700,13.463646728515625,0.6695207357406616,0.3614530563354492,-0.12788116931915283
1773075347570409500,13.482409423828125,0.96728515625,0.3557300567626953,-0.12020525336265564
1773075347589172200,13.501172119140625,0.7144212126731873,0.19507694244384766,0.10569199919700623
1773075347607935000,13.51993505859375,0.6119180917739868,0.11853218078613281,0.5104360580444336
1773075347626697700,13.53869775390625,-0.20897871255874634,0.05946540832519531,0.7244389057159424
1773075347645460500,13.55746044921875,-0.6371449828147888,-0.0008363723754882812,0.709078848361969
1773075347664223200,13.57622314453125,-0.7989259362220764,0.014657020568847656,0.36236461997032166
1773075347682986000,13.594986083984375,-0.8014475703239441,-0.08074951171875,0.1911272406578064
1773075347701748500,13.61374853515625,-0.5752139091491699,-0.3440999984741211,0.32188695669174194
1773075347720511200,13.63251123046875,-0.40581822395324707,-0.30293750762939453,0.5891189575195312
1773075347739274000,13.65127392578125,-0.43004465103149414,-0.33029651641845703,0.9740414619445801
1773075347758036700,13.67003662109375,-0.6223693490028381,-0.3723783493041992,1.1932227611541748
1773075347776799500,13.688799560546874,-0.8975622057914734,-0.5140933990478516,1.4254813194274902
1773075347795562200,13.707562255859376,-1.2352840900421143,-0.8171873092651367,1.4077751636505127
1773075347814325000,13.726324951171875,-1.2635669708251953,-0.6413202285766602,1.4819135665893555
1773075347833087700,13.745087646484375,-1.5078554153442383,-0.7900581359863281,1.3873703479766846
1773075347851850500,13.7638505859375,-1.7685770988464355,-1.4790058135986328,1.4454333782196045
1773075347870613200,13.78261328125,-1.6911230087280273,-2.4063453674316406,1.4935028553009033
1773075347889375700,13.801375732421874,-1.4411979913711548,-2.682344436645508,1.5937690734863281
1773075347908138500,13.820138427734374,-1.6331336498260498,-2.6124706268310547,1.7597603797912598
1773075347926901200,13.8389013671875,-1.6599335670471191,-2.622486114501953,1.3769357204437256
1773075347945664000,13.8576640625,-2.267824649810791,-2.145514488220215,0.7333378791809082
1773075347964426800,13.8764267578125,-2.608609437942505,-1.5608100891113281,-0.11640220880508423
1773075347983189500,13.895189453125,-2.2411885261535645,-1.0007743835449219,-0.5350046157836914
1773075348001952300,13.9139521484375,-1.6790591478347778,-0.3170356750488281,-0.881577730178833
1773075348020715000,13.932715087890625,-1.2813829183578491,0.44002628326416016,-1.1224437952041626
1773075348039477500,13.9514775390625,-0.7952319383621216,0.9558744430541992,-1.51960289478302
1773075348058240300,13.970240234375,0.17932939529418945,0.5275669097900391,-1.9350059032440186
1773075348077003000,13.9890029296875,1.9391651153564453,-1.527766227722168,-2.6437878608703613
1773075348095765800,14.007765869140625,4.372176647186279,-3.1474504470825195,-3.7181546688079834
1773075348114528500,14.026528564453125,3.740206241607666,-2.0803985595703125,-1.9469294548034668
1773075348133291300,14.045291259765625,2.544125556945801,-0.3715848922729492,-0.9080551862716675
1773075348152054000,14.064053955078125,1.5341880321502686,0.2420215606689453,-0.38087743520736694
1773075348170816800,14.082816650390624,1.4189218282699585,0.43323802947998047,-0.0353526771068573
1773075348189579500,14.10157958984375,1.3618662357330322,0.5332193374633789,0.31860363483428955
1773075348208342300,14.12034228515625,1.675976037979126,0.6092567443847656,-0.05579322576522827
1773075348227105000,14.13910498046875,2.213895082473755,1.1130542755126953,-0.5065032839775085
1773075348245867500,14.157867431640625,2.768373489379883,1.9425768852233887,-0.6825590133666992
1773075348264630300,14.17663037109375,2.888031482696533,2.557490348815918,-0.4779139459133148
1773075348283393000,14.19539306640625,2.8049840927124023,2.750760078430176,-0.2497161328792572
1773075348302155800,14.21415576171875,2.5295310020446777,2.591559410095215,-0.46958309412002563
1773075348320918500,14.23291845703125,1.9532344341278076,2.3542251586914062,-0.8599927425384521
1773075348339681300,14.251681396484376,1.0893919467926025,1.9667763710021973,-1.0544031858444214
1773075348358444000,14.270444091796875,0.1549816131591797,1.2557754516601562,-1.03839111328125
1773075348377206800,14.289206787109375,-0.5107197761535645,0.48003101348876953,-0.6541517972946167
1773075348395969500,14.307969482421875,-1.3458287715911865,-0.2635669708251953,0.3165475130081177
1773075348414732300,14.326732177734375,-2.404355525970459,-0.8133354187011719,0.9225854873657227
1773075348433494800,14.345494873046874,-4.047978401184082,-1.469895362854004,0.7878735661506653
1773075348452257800,14.3642578125,-5.069390296936035,-2.30222225189209,0.4612767696380615
1773075348471020300,14.383020263671876,-4.142290115356445,-1.4880399703979492,0.5051032900810242
1773075348489783000,14.401782958984375,-3.0313265323638916,-0.4136505126953125,0.4180833697319031
1773075348508545800,14.4205458984375,-1.3432793617248535,-0.08480644226074219,-0.5861504077911377
1773075348527308500,14.43930859375,-0.3575708866119385,0.2263336181640625,-1.0151976346969604
1773075348546071300,14.4580712890625,-0.11303448677062988,0.31093883514404297,-1.374566912651062
1773075348564834000,14.476833984375,-0.48941588401794434,-1.645315170288086,-2.337388277053833
1773075348583596800,14.4955966796875,-0.2098865509033203,-3.6113033294677734,-0.9289997816085815
1773075348602359600,14.514359619140626,0.5162029266357422,-2.131686210632324,-0.571628987789154
1773075348621122300,14.533122314453125,1.2714407444000244,-0.8256044387817383,-0.0012505650520324707
1773075348639885000,14.551885009765625,2.168295383453369,0.8177604675292969,-0.38251498341560364
1773075348658647600,14.5706474609375,2.440847873687744,2.615739345550537,-3.130413055419922
1773075348677410300,14.589410400390625,2.1091034412384033,2.585848331451416,-4.939958572387695
1773075348696173000,14.608173095703124,3.0265352725982666,1.227813720703125,-5.02648401260376
1773075348714935800,14.626935791015624,3.425187826156616,-0.199615478515625,-2.9461400508880615
1773075348733698600,14.645698486328126,2.7979156970977783,-1.5357179641723633,-0.2549833059310913
1773075348752461300,14.66446142578125,1.8130356073379517,-1.6848030090332031,0.3674933910369873
1773075348771224000,14.68322412109375,1.8389930725097656,-0.53466796875,0.20226317644119263
1773075348789986800,14.70198681640625,1.4366317987442017,0.14353084564208984,0.5846461653709412
1773075348808749600,14.72074951171875,1.3834319114685059,0.007035255432128906,0.1023598313331604
1773075348827512300,14.73951220703125,1.3119980096817017,-0.12653541564941406,-0.6243715286254883
1773075348846275000,14.758275146484374,0.9368323087692261,0.2911367416381836,-1.3656641244888306
1773075348865037600,14.77703759765625,1.2397947311401367,0.24607181549072266,-1.8025102615356445
1773075348883800300,14.79580029296875,1.3840779066085815,-0.28321075439453125,-1.1617279052734375
1773075348902563000,14.81456298828125,1.0899181365966797,-0.3549823760986328,-0.4194697141647339
1773075348921325800,14.833325927734375,0.8016394376754761,-0.052608489990234375,-0.235612690448761
1773075348940088600,14.852088623046875,0.7728951573371887,0.22775936126708984,-0.17989253997802734
1773075348958851300,14.870851318359374,0.8464390635490417,0.22958755493164062,-0.2653713524341583
1773075348977614000,14.889614013671874,0.8320269584655762,0.2350320816040039,-0.10764479637145996
1773075348996376800,14.908376953125,0.9397960901260376,0.11487007141113281,0.6840543150901794
1773075349015139600,14.9271396484375,0.4501436948776245,0.007214546203613281,1.2224774360656738
1773075349033902300,14.94590234375,-0.2766384482383728,-0.05941486358642578,1.3226826190948486
1773075349052665000,14.9646650390625,-0.8729792833328247,0.030225753784179688,0.43352481722831726
1773075349071427800,14.983427734375,-0.9263308644294739,0.15688228607177734,-0.09598419070243835
1773075349090190600,15.002190673828125,-0.8032083511352539,-0.1421661376953125,0.14481094479560852
1773075349108953300,15.020953369140624,-0.7472056150436401,-0.2555103302001953,0.8494912981987
1773075349127715800,15.0397158203125,-0.7462103366851807,-0.39339256286621094,1.2703551054000854
1773075349146478600,15.058478515625,-0.6842700242996216,-0.27247142791748047,1.2112812995910645
1773075349165241300,15.077241455078125,-0.9597789645195007,0.0548858642578125,0.8213502764701843
1773075349184004000,15.096004150390625,-0.9620934724807739,-0.008815765380859375,0.5528770685195923
1773075349202766800,15.114766845703125,-0.8318255543708801,-0.5391397476196289,0.7280887961387634
1773075349221529600,15.133529541015625,-0.8159441351890564,-0.47146034240722656,0.9584541916847229
1773075349240292400,15.152292236328124,-0.8782620429992676,-0.7812309265136719,1.4758049249649048
1773075349259055000,15.17105517578125,-1.050186276435852,-1.132436752319336,1.7757017612457275
1773075349277817900,15.18981787109375,-1.1904810667037964,-1.1811485290527344,1.8066487312316895
1773075349296580600,15.20858056640625,-1.254280924797058,-1.5194740295410156,1.7855726480484009
1773075349315343400,15.22734326171875,-1.3278672695159912,-1.8920745849609375,1.632110595703125
1773075349334106000,15.246106201171875,-1.1901800632476807,-1.6502361297607422,1.5393812656402588
1773075349352868900,15.264868896484375,-1.3833346366882324,-1.5536069869995117,1.299965500831604
1773075349371631400,15.28363134765625,-1.9512248039245605,-1.7617530822753906,1.2590382099151611
1773075349390394000,15.30239404296875,-2.426748275756836,-1.728062629699707,1.1889796257019043
1773075349409156900,15.321156982421876,-2.5121350288391113,-1.2017784118652344,0.5695480704307556
1773075349427919600,15.339919677734375,-2.294727325439453,-0.5267601013183594,0.0026779770851135254
1773075349446682400,15.358682373046875,-1.7404429912567139,0.20978927612304688,-0.3863467574119568
1773075349465445000,15.377445068359375,-1.2426344156265259,0.822174072265625,-0.32208725810050964
1773075349484207900,15.396207763671875,-0.43641024827957153,0.9064006805419922,-0.8685542345046997
1773075349502970600,15.414970703125,0.6564921140670776,0.03241443634033203,-1.3589978218078613
1773075349521733400,15.4337333984375,2.7671780586242676,-1.8199958801269531,-1.5891742706298828
1773075349540496100,15.45249609375,3.6957874298095703,-3.1797361373901367,-2.181692361831665
1773075349559259000,15.4712587890625,2.799131155014038,-2.2143630981445312,-0.47409409284591675
1773075349578021600,15.490021728515625,1.206820011138916,-1.1323213577270508,-0.44168975949287415
1773075349596784400,15.508784423828125,0.46404170989990234,-0.42635536193847656,-0.9324958324432373
1773075349615547100,15.527547119140625,0.5700356960296631,0.1297597885131836,-1.2506738901138306
1773075349634309600,15.5463095703125,0.6496894359588623,0.5620841979980469,-0.5111371278762817
1773075349653072600,15.56507275390625,1.6879216432571411,0.7986640930175781,-0.5621664524078369
1773075349671835100,15.583835205078126,2.4853410720825195,1.2461862564086914,-0.23992562294006348
1773075349690598000,15.602597900390625,2.5079104900360107,1.8249731063842773,-0.07987779378890991
1773075349709360600,15.621360595703125,2.086822032928467,2.422837257385254,-0.37450486421585083
1773075349728123400,15.640123291015625,1.7644022703170776,2.7787179946899414,-0.8600508570671082
1773075349746886100,15.65888623046875,1.5829815864562988,2.8567371368408203,-1.1989320516586304
1773075349765649000,15.67764892578125,1.476641058921814,2.820716381072998,-1.216834545135498
1773075349784411600,15.69641162109375,1.1589856147766113,2.2796335220336914,-0.9645977020263672
1773075349803174400,15.71517431640625,0.7213475704193115,1.5911316871643066,-0.5294832587242126
1773075349821937200,15.733937255859376,-0.0258636474609375,1.055419921875,0.3281095623970032
1773075349840700000,15.752699951171875,-0.21308660507202148,0.4778146743774414,1.195902943611145
1773075349859462400,15.77146240234375,-0.854388952255249,0.022978782653808594,1.5875697135925293
1773075349878225200,15.79022509765625,-1.659639596939087,-1.0622234344482422,1.8053770065307617
1773075349896988200,15.80898828125,-2.7902462482452393,-1.9048843383789062,2.241712808609009
1773075349915750700,15.827750732421874,-3.260694742202759,-1.741307258605957,2.2474381923675537
1773075349934513400,15.846513427734376,-3.2936530113220215,-1.3765439987182617,1.0101723670959473
1773075349953276200,15.865276123046876,-3.233336925506592,-1.2210140228271484,-0.09237420558929443
1773075349972039000,15.884038818359375,-2.6852049827575684,-0.9201202392578125,-1.014739990234375
1773075349990801700,15.9028017578125,-2.0595295429229736,-0.25531959533691406,-1.4671683311462402
1773075350009564400,15.921564453125,-0.9753339290618896,0.9155731201171875,-1.2947869300842285
1773075350028327200,15.9403271484375,-0.04964780807495117,1.168539047241211,-1.3565030097961426
1773075350047090000,15.95908984375,0.9489097595214844,0.9149675369262695,-1.442643404006958
1773075350065852700,15.977852783203126,1.9062209129333496,-0.032753944396972656,-1.3741304874420166
1773075350084615400,15.996615478515626,2.416633367538452,-3.382009506225586,-1.620436429977417
1773075350103378200,16.015378173828125,1.6503862142562866,-7.515254974365234,-0.031623005867004395
1773075350122141000,16.034140869140625,-0.05432844161987305,-2.0217676162719727,0.9138950705528259
1773075350140903700,16.052903564453125,0.8105608224868774,2.7906579971313477,-1.7127130031585693
1773075350159666400,16.07166650390625,1.0641186237335205,4.4713029861450195,-3.905860185623169
1773075350178429000,16.090428955078124,1.2453168630599976,3.1713037490844727,-4.905284881591797
1773075350197191700,16.109191650390624,3.77176570892334,1.748326301574707,-4.34950065612793
1773075350215954400,16.127954345703124,4.559541702270508,-0.4010133743286133,-0.7911549806594849
1773075350234717200,16.14671728515625,3.6980535984039307,-2.8293075561523438,4.17690372467041
1773075350253480000,16.16547998046875,1.6654969453811646,-3.0450897216796875,3.8273940086364746
1773075350272242700,16.18424267578125,0.40469861030578613,-0.5424184799194336,-0.24548381567001343
1773075350291005400,16.20300537109375,0.2637421488761902,0.6826972961425781,-2.216458797454834
1773075350309768200,16.221768310546874,1.4379043579101562,0.9029636383056641,-2.779707431793213
1773075350328531000,16.240531005859374,1.77535080909729,0.3500661849975586,-2.5246291160583496
1773075350347293700,16.259293701171874,1.9156827926635742,-0.1439809799194336,-1.6078605651855469
1773075350366056400,16.278056396484374,1.7449281215667725,-0.17580509185791016,-1.0531213283538818
1773075350384819200,16.296819091796873,1.1768262386322021,-0.4581747055053711,-1.1995065212249756
1773075350403582000,16.31558203125,0.9874061346054077,-0.18879127502441406,-1.286665439605713
1773075350422344700,16.3343447265625,0.7435493469238281,-0.1602029800415039,-1.3548920154571533
1773075350441107200,16.353107177734376,0.8067651391029358,-0.1797037124633789,-0.772415816783905
1773075350459870000,16.371869873046876,0.9457265138626099,-0.16608715057373047,-0.15524929761886597
1773075350478632700,16.3906328125,1.0884041786193848,-0.08669757843017578,0.061786770820617676
1773075350497395500,16.4093955078125,0.8337764739990234,-0.11374855041503906,0.0901341438293457
1773075350516158200,16.428158203125,0.5329912304878235,-0.17952632904052734,0.21303659677505493
1773075350534921000,16.4469208984375,0.27452266216278076,-0.18296527862548828,0.2785252332687378
1773075350553683700,16.46568359375,0.25991135835647583,-0.110504150390625,0.37657564878463745
1773075350572446500,16.484446533203126,0.6039407253265381,-0.3244314193725586,0.5731490254402161
1773075350591209200,16.503209228515626,0.6478040218353271,-0.25139904022216797,0.6953344345092773
1773075350609972000,16.521971923828126,0.18461495637893677,-0.27869510650634766,0.48602187633514404
1773075350628734700,16.540734619140625,-0.19348567724227905,-0.3295450210571289,-0.01416042447090149
1773075350647497500,16.55949755859375,-0.5523164868354797,-0.3755807876586914,-0.2093193233013153
1773075350666260200,16.57826025390625,-0.184315025806427,-0.4161081314086914,0.04612624645233154
1773075350685023000,16.59702294921875,-0.0036038756370544434,-0.19932174682617188,0.3662845492362976
1773075350703785700,16.61578564453125,0.021053433418273926,-0.021944046020507812,0.5956308841705322
1773075350722548200,16.63454833984375,-0.16364634037017822,0.10234546661376953,0.5259178876876831
1773075350741311200,16.653311279296876,-0.25994861125946045,0.07359027862548828,0.6354925632476807
1773075350760073700,16.67207373046875,-0.3036136031150818,0.059917449951171875,0.6861178278923035
1773075350778836500,16.69083642578125,-0.20396456122398376,0.03251075744628906,0.8348698616027832
1773075350797599200,16.70959912109375,-0.2670383155345917,-0.037474632263183594,0.6131720542907715
1773075350816362000,16.728362060546875,-0.20028278231620789,-0.13797664642333984,0.2082533836364746
1773075350835124700,16.747124755859375,-0.37885576486587524,-0.36518001556396484,-0.04253627359867096
1773075350853887500,16.765887451171874,-0.4015278220176697,-0.5978403091430664,-0.4253697097301483
1773075350872650200,16.784650146484374,-0.01798689365386963,-0.8215055465698242,-0.9283632040023804
1773075350891413000,16.8034130859375,0.3838246464729309,-1.119771957397461,-1.7308101654052734
1773075350910175700,16.82217578125,0.31303879618644714,-1.3694486618041992,-2.4754531383514404
1773075350928938500,16.8409384765625,0.6205469369888306,-1.522456169128418,-2.783595323562622
1773075350947701200,16.859701171875,0.7292851805686951,-1.435347557067871,-2.927847146987915
1773075350966464000,16.878464111328125,1.5130075216293335,-1.1646614074707031,-3.0655744075775146
1773075350985226800,16.897226806640624,1.5872339010238647,-1.019923210144043,-2.546454906463623
1773075351003989500,16.915989501953124,2.180777072906494,-0.8601522445678711,-2.416928768157959
1773075351022752300,16.934752197265624,2.4359941482543945,-1.157881736755371,-2.267521619796753
1773075351041514800,16.9535146484375,2.443457841873169,-1.4311132431030273,-1.477943778038025
1773075351060277500,16.972277587890623,2.338186740875244,-0.9495077133178711,-1.2195478677749634
1773075351079040300,16.991040283203127,1.8390684127807617,-0.2662992477416992,-0.613676905632019
1773075351097803000,17.009802978515626,1.953542709350586,0.41826915740966797,-0.38396358489990234
1773075351116565800,17.028565673828126,2.1391220092773438,1.1476240158081055,0.02756524085998535
1773075351135328500,17.04732861328125,2.626272439956665,1.5372047424316406,0.23908671736717224
1773075351154091300,17.06609130859375,2.9229023456573486,1.711639404296875,0.40072351694107056
1773075351172854000,17.08485400390625,2.958387613296509,1.8336772918701172,0.37948131561279297
1773075351191616800,17.10361669921875,2.7030441761016846,1.811518669128418,0.5638502836227417
1773075351210379500,17.122379638671877,1.9674113988876343,1.980745792388916,0.9754374623298645
1773075351229142300,17.141142333984376,1.13890540599823,1.6514301300048828,1.1530545949935913
1773075351247905000,17.159905029296876,0.30502891540527344,1.1129264831542969,1.463350534439087
1773075351266667800,17.178667724609376,-0.7417478561401367,0.3268470764160156,1.4983413219451904
1773075351285430500,17.197430419921876,-1.7891349792480469,-0.2769155502319336,1.7334483861923218
1773075351304193300,17.216193359375,-2.2966079711914062,-0.50152587890625,2.1287143230438232
1773075351322955800,17.234955810546875,-1.9388320446014404,-0.43778514862060547,2.6135504245758057
1773075351341718800,17.25371875,-2.0602943897247314,-0.19495582580566406,2.7238898277282715
1773075351360481300,17.272481201171875,-2.8486599922180176,-0.13600635528564453,2.162815809249878
1773075351379244000,17.291244140625,-3.2324464321136475,0.38853931427001953,0.9732974767684937
1773075351398006800,17.3100068359375,-3.2483692169189453,0.9614906311035156,-0.06138467788696289
1773075351416769500,17.32876953125,-2.8272969722747803,1.0290803909301758,-0.8514034152030945
1773075351435532300,17.3475322265625,-1.9223299026489258,1.1428413391113281,-1.1407146453857422
1773075351454295000,17.366294921875,-0.4543619155883789,1.090102195739746,-1.3071495294570923
1773075351473057800,17.385057861328125,0.5760250091552734,-0.33760738372802734,-1.1015275716781616
1773075351491820500,17.403820556640625,1.0321789979934692,-2.506631851196289,-0.2461555004119873
1773075351510583300,17.422583251953125,0.29877185821533203,-1.6257648468017578,0.18505609035491943
1773075351529346000,17.441345947265624,-0.6755218505859375,-0.3145103454589844,-0.30993714928627014
1773075351548108800,17.46010888671875,-0.25176286697387695,0.30106067657470703,-1.9941927194595337
1773075351566871600,17.47887158203125,1.1356163024902344,0.7619543075561523,-4.019991397857666
1773075351585634300,17.49763427734375,3.410644054412842,1.269139289855957,-3.56829571723938
1773075351604397000,17.51639697265625,3.694674015045166,0.4694175720214844,-2.8657190799713135
1773075351623159800,17.535159912109375,3.2938392162323,-0.43030357360839844,-1.5175139904022217
1773075351641922600,17.553922607421875,2.9034526348114014,-1.4077606201171875,-0.2448490411043167
1773075351660685000,17.57268505859375,2.5830280780792236,-1.0952396392822266,0.06252314150333405
1773075351679447800,17.59144775390625,1.9599342346191406,-0.504094123840332,0.44839709997177124
1773075351698210600,17.61021044921875,1.2581816911697388,-0.44329357147216797,0.41915032267570496
1773075351716973300,17.628973388671874,1.0445458889007568,-0.28748416900634766,-0.15143579244613647
1773075351735736000,17.647736083984373,0.9406003952026367,0.04979705810546875,-0.3135012686252594
1773075351754498800,17.666498779296877,1.4537862539291382,0.16875171661376953,-0.6031214594841003
1773075351773261600,17.685261474609376,1.3220938444137573,0.013460159301757812,-0.5492361783981323
1773075351792024300,17.7040244140625,0.9549540877342224,-0.1629343032836914,-0.704439640045166
1773075351810787000,17.722787109375,0.7422347068786621,-0.2269420623779297,-0.49230319261550903
1773075351829549800,17.7415498046875,0.4733656048774719,-0.08251094818115234,-0.3106515109539032
1773075351848312600,17.7603125,0.30444616079330444,-0.0690469741821289,0.272987961769104
1773075351867075300,17.779075439453123,0.40639370679855347,0.0902700424194336,0.787377119064331
1773075351885838000,17.797838134765627,0.5771666169166565,0.11838436126708984,0.9731976389884949
1773075351904600800,17.816600830078126,0.6107643842697144,0.18814373016357422,0.9444940090179443
1773075351923363600,17.835363525390626,0.36302438378334045,0.10394954681396484,1.1273788213729858
1773075351942126300,17.854126220703126,0.1070212721824646,-0.004693031311035156,1.2892670631408691
1773075351960889000,17.87288916015625,-0.09286215156316757,-0.004715919494628906,1.1994242668151855
1773075351979651600,17.891651611328125,-0.49017947912216187,0.0846719741821289,0.9745332598686218
1773075351998414300,17.910414306640625,-0.549227237701416,0.22962474822998047,0.8664868474006653
1773075352017177000,17.929177001953125,-0.8247883319854736,0.2635364532470703,0.126059889793396
1773075352035939800,17.94793994140625,-0.7659504413604736,0.21185970306396484,0.074734628200531
1773075352054702600,17.96670263671875,-0.5097957253456116,0.08439064025878906,0.4243428111076355
1773075352073465300,17.98546533203125,-0.5747516751289368,0.019219398498535156,0.7107571363449097
1773075352092228000,18.00422802734375,-0.5433211326599121,0.1544208526611328,0.8488314151763916
1773075352110990800,18.022990966796876,-0.5259950757026672,0.21214866638183594,0.8953859806060791
1773075352129753600,18.041753662109375,-0.45576250553131104,-0.06914043426513672,0.9104766249656677
1773075352148516400,18.060516357421875,-0.6051753759384155,-0.23516082763671875,0.6255407929420471
1773075352167279000,18.079279052734375,-0.9321436882019043,-0.0961008071899414,0.1464901566505432
1773075352186041900,18.098041748046874,-0.6934229135513306,-0.27277374267578125,0.2008025348186493
1773075352204804600,18.1168046875,-0.44659680128097534,-0.6156654357910156,0.6423597931861877
1773075352223567400,18.1355673828125,-0.7218270301818848,-0.5232257843017578,0.5683255791664124
1773075352242330000,18.154330078125,-0.9795916080474854,-0.3499593734741211,0.4764818549156189
1773075352261092900,18.1730927734375,-1.3030359745025635,-0.5529928207397461,0.3168814480304718
1773075352279855400,18.19185546875,-1.207163691520691,-0.6334781646728516,0.2510008215904236
1773075352298618400,18.210618408203125,-1.2581499814987183,-1.1884183883666992,0.7050055265426636
1773075352317380900,18.229380859375,-0.9625218510627747,-1.9004583358764648,0.9384591579437256
1773075352336143600,18.2481435546875,-0.7143428921699524,-1.5389623641967773,0.6525559425354004
1773075352354906400,18.26690625,-1.153984546661377,-1.8103981018066406,0.5524413585662842
1773075352373669000,18.285669189453124,-1.3884645700454712,-2.2803125381469727,0.4077896475791931
1773075352392431900,18.304431884765624,-1.6583678722381592,-1.870279312133789,0.193365678191185
1773075352411194600,18.323194580078123,-2.0559329986572266,-0.5864238739013672,-0.2671915590763092
1773075352429957400,18.341957275390627,-1.8832687139511108,0.34004974365234375,-0.5189493298530579
1773075352448720100,18.36072021484375,-1.2667235136032104,1.152918815612793,-0.48760494589805603
1773075352467483000,18.37948291015625,-0.5997467637062073,1.2931928634643555,-0.014026924967765808
1773075352486245600,18.39824560546875,0.700360894203186,0.7787761688232422,-0.1706351935863495
1773075352505008400,18.41700830078125,1.5633691549301147,-0.02290821075439453,-0.6055581569671631
1773075352523771100,18.435771240234374,2.253732681274414,-1.0755290985107422,-0.990103006362915
1773075352542534000,18.454533935546873,2.180476188659668,-1.6712512969970703,-1.2094637155532837
1773075352561296600,18.473296630859377,1.6569050550460815,-0.8440399169921875,-0.27761590480804443
1773075352580059400,18.492059326171876,0.8809331059455872,-0.41463184356689453,-0.4336013197898865
1773075352598822000,18.51082177734375,0.7043123245239258,-0.21976661682128906,-1.0881427526474
1773075352617584600,18.529584716796876,0.5977787971496582,0.062468528747558594,-1.3447604179382324
1773075352636347400,18.548347412109376,0.7622066736221313,0.479888916015625,-1.3047820329666138
1773075352655110100,18.567110107421875,1.6275993585586548,0.976750373840332,-1.403502345085144
1773075352673873000,18.585872802734375,1.8685604333877563,1.3236045837402344,-0.9801552891731262
1773075352692635600,18.6046357421875,1.7497974634170532,1.6331901550292969,-0.5500191450119019
1773075352711398400,18.6233984375,1.3231961727142334,1.6494331359863281,-0.26734235882759094
1773075352730161200,18.6421611328125,0.9665580987930298,1.5520133972167969,0.14034438133239746
1773075352748924000,18.660923828125,0.730243444442749,1.7066822052001953,0.17682087421417236
1773075352767686700,18.679686767578126,0.3221151828765869,1.2588653564453125,-0.6149617433547974
1773075352786449400,18.698449462890625,0.5029208660125732,2.209662914276123,-0.5746883749961853
1773075352805212200,18.717212158203125,-0.19788908958435059,1.9361371994018555,-0.5799594521522522
1773075352823975000,18.735974853515625,-1.017852783203125,1.3130311965942383,-0.10363727807998657
1773075352842737400,18.7547373046875,-1.7931692600250244,0.5708551406860352,0.7377341985702515
1773075352861500200,18.773500244140624,-2.344601631164551,0.14474773406982422,1.3429656028747559
1773075352880263000,18.792262939453124,-2.65311336517334,-1.3650636672973633,1.5017096996307373
1773075352899025700,18.811025634765624,-3.075660228729248,-1.3342905044555664,1.8687584400177002
1773075352917788400,18.829788330078124,-3.2438762187957764,-1.1922721862792969,0.9277021288871765
1773075352936551200,18.84855126953125,-2.3039400577545166,0.37813377380371094,-0.3641170859336853
1773075352955314000,18.86731396484375,-1.136721134185791,-0.2829399108886719,-2.4389431476593018
1773075352974076700,18.88607666015625,-0.9296255111694336,-2.344548225402832,-2.024693012237549
1773075352992840200,18.904840087890626,1.3741546869277954,-4.01408576965332,-1.9087022542953491
1773075353011602200,18.923602294921874,3.2481555938720703,-2.7651453018188477,1.008110761642456
1773075353030365000,18.942364990234374,3.8961410522460938,-0.1650676727294922,0.06537359952926636
1773075353049127700,18.961127685546874,3.842437744140625,3.210587978363037,-3.277134656906128
1773075353067890400,18.979890380859374,3.7232818603515625,3.0346975326538086,-4.615360736846924
1773075353086653000,18.99865283203125,4.421566009521484,1.2921276092529297,-4.090637683868408
1773075353105415700,19.017415771484377,4.337611198425293,0.3768491744995117,-2.2717134952545166
1773075353124178400,19.036178466796876,2.3876147270202637,-0.9932994842529297,-1.0971884727478027
1773075353142941200,19.054941162109376,2.0674169063568115,-1.810816764831543,0.2767467200756073
1773075353161704000,19.073703857421876,1.1159226894378662,-0.9758729934692383,1.1103296279907227
1773075353180466700,19.092466796875,0.055536746978759766,-0.012226104736328125,1.5167276859283447
1773075353199229400,19.1112294921875,-0.08337664604187012,-0.2196369171142578,0.7633140683174133
1773075353217992200,19.1299921875,0.40906864404678345,0.16661453247070312,0.021776556968688965
1773075353236755000,19.1487548828125,0.6388422250747681,0.5182523727416992,-0.4966921806335449
1773075353255517700,19.167517578125,0.35398584604263306,0.7201194763183594,-0.7784380316734314
1773075353274280400,19.186280517578126,-0.0014632344245910645,0.22336959838867188,-0.5822662115097046
1773075353293043200,19.205043212890626,0.007478177547454834,0.05981159210205078,-0.5181871652603149
1773075353311806000,19.223805908203126,-0.3668611943721771,0.33702850341796875,-0.5174359083175659
1773075353330568400,19.242568359375,-0.539208710193634,0.1728038787841797,0.22291630506515503
1773075353349331200,19.261331298828125,-0.01151248812675476,0.3938570022583008,0.6444658637046814
1773075353368094000,19.280093994140625,0.3316768407821655,0.36089324951171875,0.7091618776321411
1773075353386856700,19.298856689453125,0.40853095054626465,0.17371749877929688,0.6883169412612915
1773075353405619500,19.317619384765624,0.3548618257045746,-0.07919883728027344,0.6317869424819946
1773075353424382200,19.33638232421875,-0.07900473475456238,0.25068092346191406,0.3514575660228729
1773075353443145000,19.35514501953125,-0.09945373982191086,-0.7404975891113281,-0.16461966931819916
1773075353461907700,19.37390771484375,-0.25471553206443787,0.1389942169189453,0.002005845308303833
1773075353480670500,19.39267041015625,-0.7386870980262756,0.2723722457885742,-0.8364328145980835
1773075353499433200,19.41143310546875,-0.7683030366897583,0.5692605972290039,-0.8388655781745911
1773075353518196000,19.430196044921875,-0.6470426321029663,0.21455955505371094,-0.5060813426971436
1773075353536958500,19.44895849609375,-0.12976151704788208,0.46494483947753906,0.2720569968223572
1773075353555721200,19.46772119140625,0.6345497369766235,0.5184402465820312,1.2291388511657715
1773075353574484000,19.48648388671875,0.005198419094085693,0.5160989761352539,1.396224021911621
1773075353593246700,19.505246826171874,-0.43498438596725464,0.3115701675415039,0.7121227979660034
1773075353612009500,19.524009521484373,-0.431706964969635,0.06967926025390625,0.7064112424850464
1773075353630772200,19.542772216796877,-0.7522777318954468,-0.5444021224975586,0.12511244416236877
1773075353649535000,19.561534912109376,0.08642232418060303,-0.922917366027832,-1.0218493938446045
1773075353668297700,19.580297607421876,-1.0669612884521484,-2.849384307861328,0.6988493800163269
1773075353687060500,19.599060546875,-0.19529420137405396,-2.785323143005371,2.455756902694702
1773075353705823200,19.6178232421875,0.18341869115829468,-4.067380905151367,1.3813103437423706
1773075353724585700,19.636585693359375,-1.0825872421264648,-6.431316375732422,1.6012893915176392
1773075353743348500,19.655348388671875,-1.3727914094924927,-5.584074020385742,1.7008824348449707
1773075353762111200,19.674111328125,-0.04030221700668335,-3.752470016479492,0.24880853295326233
1773075353780874000,19.6928740234375,-1.4759759902954102,-3.392134666442871,-1.138615608215332
1773075353799636700,19.71163671875,-0.9945746064186096,-6.053954124450684,0.7550433278083801
1773075353818399500,19.7303994140625,2.096158027648926,-10.007590293884277,1.2677245140075684
1773075353837162200,19.749162353515626,1.990195870399475,-3.720911979675293,-0.7880092859268188
1773075353855925000,19.767925048828126,3.9061594009399414,1.5793733596801758,-0.15468335151672363
1773075353874687700,19.786687744140625,7.2315778732299805,-6.964405059814453,-1.1701750755310059
1773075353893450500,19.805450439453125,5.568892002105713,-4.228096961975098,-1.732513666152954
1773075353912213000,19.824212890625,2.527916193008423,-0.9187774658203125,-4.621625900268555
1773075353930975700,19.842975830078124,-2.2429122924804688,1.3504638671875,-6.331779479980469
1773075353949738500,19.861738525390624,1.3435370922088623,-0.0778055191040039,-3.900759220123291
1773075353968501200,19.880501220703124,6.040799140930176,1.9264979362487793,-0.0657048225402832
1773075353987264000,19.899263916015624,-0.7497062087059021,0.15129852294921875,0.8908007144927979
1773075354006026800,19.91802685546875,1.377732276916504,-2.062070846557617,-4.002432823181152
1773075354024789500,19.93678955078125,-6.463701248168945,-0.8222856521606445,1.6434136629104614
1773075354043552300,19.95555224609375,1.3627805709838867,-3.3843393325805664,12.677749633789062
1773075354062315000,19.97431494140625,1.8714802265167236,0.46028614044189453,18.623374938964844
1773075354081077500,19.993077392578126,5.2750630378723145,3.2049384117126465,22.501798629760742
1773075354099840300,20.01184033203125,3.733755588531494,-2.3147459030151367,16.788679122924805
1773075354118603000,20.03060302734375,1.330775260925293,-6.510181427001953,9.591635704040527
1773075354137365800,20.04936572265625,-0.3338022232055664,-6.086330413818359,5.2475409507751465
1773075354156128500,20.06812841796875,-1.88700532913208,-3.812819480895996,2.0818443298339844
1773075354174891300,20.086891357421877,-5.3133625984191895,-1.6713271141052246,0.3772389888763428
1773075354193654000,20.105654052734376,-7.722052097320557,-1.7179491519927979,-1.4691541194915771
1773075354212416800,20.124416748046876,-7.875378608703613,-3.559018850326538,-3.842261552810669
1773075354231179500,20.143179443359376,-8.867573738098145,-7.261900901794434,-5.258180618286133
1773075354249942000,20.16194189453125,-5.494689464569092,-10.725574493408203,-5.511183261871338
1773075354268704800,20.180704833984375,-3.2693114280700684,-11.388204574584961,-5.100480079650879
1773075354287467500,20.199467529296875,-4.680386066436768,-10.96882438659668,-5.353796482086182
1773075354306230300,20.218230224609375,-7.613862037658691,-8.197221755981445,-6.196868896484375
1773075354324993000,20.236992919921875,-8.160346031188965,-6.041007041931152,-6.232501029968262
1773075354343755800,20.255755859375,-8.311914443969727,-5.1631975173950195,-5.887818336486816
1773075354362518500,20.2745185546875,-8.400520324707031,-4.466142177581787,-5.157164096832275
1773075354381281300,20.29328125,-8.313759803771973,-4.285538673400879,-4.005291938781738
1773075354400044000,20.3120439453125,-8.805018424987793,-3.8655407428741455,-2.7810792922973633
1773075354418806500,20.330806640625,61.50163269042969,7.86524772644043,23.270587921142578
1773075354437569300,20.3495693359375,2.0310277938842773,-0.850205659866333,7.134059906005859
1773075354456332000,20.36833203125,-6.752724647521973,-5.844200134277344,-2.3379480838775635
1773075354475094800,20.3870947265625,-4.114490032196045,-4.325129985809326,-1.8103322982788086
1773075354493857500,20.405857421875,-7.3726420402526855,0.5432262420654297,0.6515383720397949
1773075354512620300,20.424620361328124,-3.308420181274414,-0.7606673240661621,0.06870722770690918
1773075354531383000,20.443383056640624,1.6274785995483398,-0.9949774742126465,-0.6325783729553223
1773075354550145500,20.4621455078125,4.189013481140137,-0.8149032592773438,-1.2126775979995728
1773075354568908300,20.480908203125,4.597062110900879,-0.1882781982421875,-0.28292298316955566
1773075354587671000,20.499671142578126,2.7977190017700195,-0.13741111755371094,0.9585992097854614
1773075354606433800,20.518433837890626,1.009037971496582,-0.2716951370239258,1.6226778030395508
1773075354625196500,20.537196533203126,1.1091814041137695,-0.18089866638183594,1.5101649761199951
1773075354643959300,20.555959228515626,1.370218276977539,0.2986886501312256,0.04520213603973389
1773075354662722000,20.57472216796875,1.0668516159057617,0.4071357250213623,-0.007390260696411133
1773075354681484500,20.593484619140625,-0.3888578414916992,-0.2911088466644287,-0.3617425262928009
1773075354700247300,20.612247314453125,-1.4118757247924805,-0.5163142681121826,-0.5329686999320984
1773075354719010000,20.631010009765625,-1.3912076950073242,-0.9141414165496826,-0.08178529143333435
1773075354737772800,20.649772705078124,-0.2710275650024414,-0.9416966438293457,-0.35763418674468994
1773075354756535600,20.66853564453125,0.6469860076904297,-0.8729801177978516,-0.8037897944450378
1773075354775298300,20.68729833984375,0.07372570037841797,-0.8776657581329346,-1.137210726737976
1773075354794061000,20.70606103515625,-0.8580083847045898,-0.715752363204956,-0.33717525005340576
1773075354812823600,20.724823486328123,-0.3273582458496094,-0.7216510772705078,-0.2567080855369568
1773075354831586300,20.74358642578125,0.004456520080566406,-0.6722404956817627,-0.351215124130249
1773075354850349000,20.76234912109375,-0.08555984497070312,-0.7360653877258301,-0.24259696900844574
1773075354869111800,20.78111181640625,-0.2904520034790039,-0.8023624420166016,-0.2863672077655792
1773075354887874600,20.79987451171875,-0.33547210693359375,-0.6105241775512695,0.3940567970275879
1773075354906637300,20.81863720703125,-0.13080501556396484,-0.5275866985321045,0.2396346628665924
1773075354925399300,20.8373994140625,0.42459964752197266,-0.4068131446838379,-0.054724156856536865
1773075354955886000,20.867885986328126,0.6074857711791992,-0.4961085319519043,-0.07287655770778656
1773075354984030200,20.8960302734375,0.5895442962646484,-0.49909424781799316,0.02237812802195549
1773075355002793000,20.91479296875,0.09631729125976562,-0.3906588554382324,0.2773384749889374
1773075355021555700,20.9335556640625,-0.40523338317871094,-0.5058498382568359,0.025101162493228912
1773075355040318500,20.952318359375,-0.4888420104980469,-0.5216178894042969,0.046565987169742584
1773075355059081200,20.971081298828125,-0.580265998840332,-0.6015222072601318,-0.2187059074640274
1773075355077843200,20.98984326171875,-0.7882251739501953,-0.4696781635284424,-0.17827771604061127
1773075355096606000,21.00860595703125,-0.9757175445556641,-0.4737565517425537,0.013864688575267792
1773075355115368700,21.02736865234375,-0.9145803451538086,-0.41513919830322266,0.14276230335235596
1773075355134131500,21.04613134765625,-0.7954177856445312,-0.42569613456726074,0.24335211515426636
1773075355152894000,21.06489404296875,-0.48772716522216797,-0.42577385902404785,0.08087718486785889
1773075355171656700,21.08365673828125,-0.1057729721069336,-0.3991868495941162,0.0656849667429924
1773075355190419500,21.10241943359375,-0.15338802337646484,-0.3772456645965576,0.04199173301458359
1773075355209182200,21.12118212890625,-0.4277305603027344,-0.37126779556274414,0.04173918813467026
1773075355227945000,21.139945068359374,-0.6374788284301758,-0.21732115745544434,-0.25193336606025696
1773075355246707700,21.158707763671874,-0.24960708618164062,-0.1141209602355957,-0.33585888147354126
1773075355265470200,21.17747021484375,0.20204734802246094,-0.06292366981506348,-0.4889269471168518
1773075355284233000,21.19623291015625,0.3971261978149414,-0.02192211151123047,-0.5082932710647583
1773075355302995700,21.21499560546875,0.2157430648803711,-0.020182371139526367,-0.2195071280002594
1773075355321758500,21.233758544921876,-0.005374908447265625,-0.04165196418762207,-0.14225558936595917
1773075355340521200,21.252521240234376,0.042328834533691406,-0.060884714126586914,-0.3594827651977539
1773075355359284000,21.271283935546876,-0.11899375915527344,-0.13301944732666016,-0.3312574326992035
1773075355378046500,21.29004638671875,-0.4965629577636719,-0.14537644386291504,-0.3036045432090759
1773075355396809200,21.308809326171875,-0.6523981094360352,-0.17793035507202148,-0.2172217071056366
1773075355415572000,21.327572021484375,-0.3670978546142578,-0.2333526611328125,-0.20604175329208374
1773075355434334700,21.346334716796875,0.057158470153808594,-0.3379640579223633,-0.1576557457447052
1773075355462478800,21.374478759765626,0.06913948059082031,-0.34720706939697266,-0.14558129012584686
1773075355481241300,21.393241455078126,-0.11588096618652344,-0.2239844799041748,-0.10431842505931854
1773075355500004000,21.412004150390626,-0.05921363830566406,-0.18512344360351562,-0.11439915001392365
1773075355528148200,21.440148193359374,0.03129386901855469,-0.05979609489440918,-0.12202320247888565
1773075355546911000,21.458910888671873,-0.042412757873535156,-0.018942832946777344,-0.05941563844680786
1773075355565673700,21.477673828125,-0.010989189147949219,-0.020201921463012695,-0.12252670526504517
1773075355584436500,21.4964365234375,0.09824371337890625,-0.08910250663757324,-0.11884424835443497
1773075355603199000,21.515198974609376,0.10832595825195312,-0.08530688285827637,-0.15472762286663055
1773075355621961700,21.533961669921876,-0.06958389282226562,-0.10948443412780762,-0.16301146149635315
1773075355640724500,21.552724365234376,-0.1774139404296875,-0.09624886512756348,-0.09196404367685318
1773075355659487000,21.571487060546875,-0.16485214233398438,-0.08820343017578125,-0.06158939003944397
1773075355678249700,21.590249755859375,-0.056267738342285156,-0.08670306205749512,-0.11434675008058548
1773075355697012500,21.609012451171875,-0.08145523071289062,-0.043639421463012695,-0.10216020792722702
1773075355715775200,21.627775146484375,-0.03018951416015625,-0.03207898139953613,-0.0910879522562027
1773075355734538000,21.6465380859375,0.03234672546386719,-0.10034537315368652,-0.036088474094867706
1773075355753300700,21.66530078125,0.1911945343017578,-0.010210514068603516,-0.015174023807048798
1773075355772063200,21.684063232421874,0.027790069580078125,-0.03780484199523926,0.052551619708538055
1773075355790826000,21.702825927734374,-0.16435909271240234,0.012377262115478516,-0.01893286406993866
1773075355809588700,21.721588623046873,-0.25209617614746094,0.1103510856628418,-0.11778324097394943
1773075355828351500,21.7403515625,-0.2367410659790039,0.0801234245300293,-0.1139724850654602
1773075355847114200,21.7591142578125,-0.07343101501464844,0.021703720092773438,-0.05284857749938965
1773075355865877000,21.777876953125,-0.04242134094238281,-0.022806406021118164,-0.08670109510421753
1773075355884639500,21.796639404296876,-0.16852855682373047,-0.009534597396850586,-0.13486364483833313
1773075355903402200,21.81540234375,-0.162872314453125,-0.040148258209228516,-0.08643144369125366
1773075355922165000,21.8341650390625,0.06643104553222656,-0.08866238594055176,0.02934245765209198
1773075355940927700,21.852927734375,-0.07573890686035156,-0.0024437904357910156,-0.11985723674297333
1773075355959690500,21.8716904296875,-0.19987869262695312,-0.03430485725402832,-0.10997366160154343
1773075355978453200,21.890453369140626,-0.2893714904785156,0.05464529991149902,-0.06446625292301178
1773075355997215700,21.9092158203125,-0.15688514709472656,0.1113591194152832,-0.09965604543685913
1773075356015978500,21.927978515625,-0.2293720245361328,0.12796735763549805,-0.23495396971702576
1773075356034741200,21.9467412109375,-0.08140277862548828,0.20705676078796387,-0.22097593545913696
1773075356053504000,21.96550390625,-0.014265060424804688,0.15650272369384766,-0.13860076665878296
1773075356072266800,21.984266845703125,-0.049640655517578125,0.16563725471496582,0.02262066677212715
1773075356091029500,22.003029541015625,-0.1661977767944336,0.08947467803955078,-0.03812793642282486
1773075356109792000,22.0217919921875,-0.06585979461669922,0.010879993438720703,-0.17256085574626923
1773075356128554800,22.0405546875,-0.0034122467041015625,-0.005889177322387695,-0.031135577708482742
1773075356147317500,22.0593173828125,-0.041721343994140625,0.002044677734375,0.026438284665346146
1773075356166080300,22.078080322265624,0.03411579132080078,0.032688140869140625,0.013189733028411865
1773075356184843000,22.096843017578124,-0.12340545654296875,0.10608410835266113,0.009699754416942596
1773075356203605500,22.11560546875,-0.18305587768554688,0.1205902099609375,0.03362485021352768
1773075356222368300,22.1343681640625,-0.15526771545410156,0.07584786415100098,0.07128983736038208
1773075356241131000,22.153131103515626,-0.097137451171875,0.016910076141357422,0.04958121478557587
1773075356259893800,22.171893798828126,0.030173301696777344,0.04019618034362793,-0.11679138243198395
1773075356278656500,22.190656494140626,-0.14846229553222656,0.0488886833190918,-0.18976852297782898
1773075356297419300,22.209419189453126,-0.06035423278808594,0.0463404655456543,0.08082617819309235
1773075356316181800,22.228181640625,0.014058113098144531,0.04269123077392578,0.14790278673171997
1773075356334944500,22.246944580078125,0.04564952850341797,0.04599714279174805,0.10116785019636154
1773075356353707300,22.265707275390625,-0.027851104736328125,0.03853297233581543,0.07551692426204681
1773075356372470000,22.284469970703125,-0.08266448974609375,0.0431828498840332,0.018804118037223816
1773075356391232800,22.303232666015624,-0.13238525390625,0.0191957950592041,0.029325395822525024
1773075356409995500,22.32199560546875,0.020506858825683594,0.0554196834564209,-0.005308963358402252
1773075356428758300,22.34075830078125,-0.040917396545410156,0.023476839065551758,0.00195399671792984
1773075356447521000,22.35952099609375,0.03010272979736328,-0.015705347061157227,0.03853600472211838
1773075356466283500,22.378283447265623,0.026674270629882812,-0.05082583427429199,0.11773207038640976
1773075356485046300,22.39704638671875,-0.02158355712890625,-0.025017738342285156,-0.014214284718036652
1773075356503809000,22.41580908203125,0.03825664520263672,-0.03275465965270996,-0.03350898623466492
1773075356522571800,22.43457177734375,0.07038116455078125,-0.02409529685974121,-0.005290918052196503
1773075356541334500,22.45333447265625,0.0857381820678711,-0.02642822265625,0.03225543349981308
1773075356560097300,22.47209716796875,0.031500816345214844,-0.015041828155517578,0.0028583556413650513
1773075356578860000,22.490860107421874,-0.012322425842285156,-0.009628772735595703,0.0392647385597229
1773075356597622800,22.509622802734373,-0.14586734771728516,-0.01248025894165039,0.0695008635520935
1773075356616385500,22.528385498046877,0.0388641357421875,-0.13291716575622559,0.052690401673316956
1773075356635148000,22.54714794921875,0.22670555114746094,-0.12180137634277344,0.33770978450775146
1773075356653910800,22.565910888671876,0.9125967025756836,0.021806955337524414,0.624920129776001
1773075356672673500,22.584673583984376,-1.1707229614257812,-0.18612170219421387,-0.23001253604888916
1773075356691436300,22.603436279296876,-0.7817497253417969,0.2946748733520508,-0.44216588139533997
1773075356710199000,22.622198974609375,-0.10511970520019531,0.09076595306396484,-0.020262405276298523
1773075356728961800,22.6409619140625,0.5560598373413086,-0.0643007755279541,0.21339021623134613
