time,seconds_elapsed,z,y,x
1772698665806621200,0.06362109375,7.012670993804932,6.517569065093994,2.1246485710144043
1772698665816621000,0.07362109375,6.769918918609619,6.720359802246094,2.274937152862549
1772698665826621200,0.08362109375,6.465089321136475,6.9477858543396,2.4700753688812256
1772698665836621000,0.09362109375,6.274339199066162,7.06984281539917,2.6115846633911133
1772698665846621200,0.10362109375,6.2922043800354,6.9120564460754395,2.966820478439331
1772698665856621000,0.11362109375,5.966474533081055,6.989991664886475,3.4222183227539062
1772698665866621200,0.12362109375,5.514141082763672,7.407964706420898,3.2994980812072754
1772698665876621000,0.13362109375,5.201468467712402,7.791318893432617,2.900078535079956
1772698665886621200,0.14362109375,5.136871337890625,7.9338059425354,2.6148924827575684
1772698665896621000,0.15362109375,5.313570499420166,7.861631393432617,2.4761085510253906
1772698665906621200,0.16362109375,5.8276519775390625,7.534749984741211,2.3316097259521484
1772698665916621000,0.17362109375,6.422971248626709,7.079200267791748,2.1910667419433594
1772698665926621200,0.18362109375,7.043150424957275,6.455308437347412,2.2121033668518066
1772698665936621000,0.19362109375,7.572592735290527,5.734642028808594,2.4372308254241943
1772698665946621200,0.20362109375,7.969418048858643,4.969376087188721,2.8220672607421875
1772698665956621000,0.21362109375,8.24748706817627,4.1762237548828125,3.2723844051361084
1772698665966621200,0.22362109375,8.430459976196289,3.299710750579834,3.7695677280426025
1772698665976621000,0.23362109375,8.495558738708496,2.24350905418396,4.3546013832092285
1772698665986621200,0.24362109375,8.392814636230469,0.9117735624313354,4.98996114730835
1772698665996621000,0.25362109375,8.02922534942627,-0.7797326445579529,5.576193809509277
1772698666006621200,0.26362109375,7.302566051483154,-2.805825710296631,5.913565158843994
1772698666016621000,0.27362109375,6.222972393035889,-4.868472576141357,5.8088698387146
1772698666026621200,0.28362109375,4.99147367477417,-6.572283744812012,5.297231197357178
1772698666036621000,0.29362109375,3.8513100147247314,-7.759423732757568,4.596646785736084
1772698666046621200,0.30362109375,2.9418559074401855,-8.5078763961792,3.889976739883423
1772698666056621000,0.31362109375,2.244797945022583,-8.966132164001465,3.2771546840667725
1772698666066621200,0.32362109375,1.6939947605133057,-9.260445594787598,2.7468011379241943
1772698666076621000,0.33362109375,1.2545697689056396,-9.457931518554688,2.2680370807647705
1772698666086621200,0.34362109375,0.9260823726654053,-9.590134620666504,1.8281359672546387
1772698666096621000,0.35362109375,0.6924762725830078,-9.679344177246094,1.4146275520324707
1772698666106621200,0.36362109375,0.5191961526870728,-9.741300582885742,1.003945231437683
1772698666116621000,0.37362109375,0.4125833511352539,-9.780925750732422,0.5776216983795166
1772698666126621200,0.38362109375,0.35762593150138855,-9.799263954162598,0.13007831573486328
1772698666136621000,0.39362109375,0.3514292240142822,-9.795100212097168,-0.32078349590301514
1772698666146621200,0.40362109375,0.38318774104118347,-9.769808769226074,-0.757890522480011
1772698666156621000,0.41362109375,0.4438200294971466,-9.726009368896484,-1.173948049545288
1772698666166621200,0.42362109375,0.548401415348053,-9.664822578430176,-1.5687028169631958
1772698666176621000,0.43362109375,0.709436297416687,-9.588790893554688,-1.929290771484375
1772698666186621200,0.44362109375,0.9151008129119873,-9.501861572265625,-2.2466881275177
1772698666196621000,0.45362109375,1.1644681692123413,-9.401691436767578,-2.5342824459075928
1772698666206621200,0.46362109375,1.4427474737167358,-9.2866792678833,-2.8011527061462402
1772698666216621000,0.47362109375,1.723441243171692,-9.157979965209961,-3.0547571182250977
1772698666226621200,0.48362109375,1.996100902557373,-9.018988609313965,-3.2929954528808594
1772698666236621000,0.49362109375,2.2716867923736572,-8.87138557434082,-3.5083248615264893
1772698666246621200,0.50362109375,2.5582239627838135,-8.715326309204102,-3.697154998779297
1772698666256621000,0.51362109375,2.8351991176605225,-8.562634468078613,-3.848808526992798
1772698666266621200,0.52362109375,3.0643980503082275,-8.433606147766113,-3.9565303325653076
1772698666276621000,0.53362109375,3.244729995727539,-8.337154388427734,-4.016711711883545
1772698666286621200,0.54362109375,3.389187812805176,-8.273088455200195,-4.0298638343811035
1772698666296621000,0.55362109375,3.5142946243286133,-8.234002113342285,-4.002665042877197
1772698666306621200,0.56362109375,3.6238863468170166,-8.212031364440918,-3.9497323036193848
1772698666316621000,0.57362109375,3.7291958332061768,-8.20332145690918,-3.86897873878479
1772698666326621200,0.58362109375,3.854658365249634,-8.189004898071289,-3.77521014213562
1772698666336621000,0.59362109375,4.00317907333374,-8.169356346130371,-3.6614973545074463
1772698666346621200,0.60362109375,4.157844543457031,-8.159475326538086,-3.5079450607299805
1772698666356621000,0.61362109375,4.2979960441589355,-8.170035362243652,-3.3087973594665527
1772698666366621200,0.62362109375,4.148185729980469,-8.300480842590332,-3.1725358963012695
1772698666376621000,0.63362109375,3.703511953353882,-8.483119010925293,-3.2389934062957764
1772698666386621200,0.64362109375,3.498220205307007,-8.582980155944824,-3.2039499282836914
1772698666396621000,0.65362109375,3.4744656085968018,-8.64769172668457,-3.052198886871338
1772698666406621200,0.66362109375,3.433608293533325,-8.683671951293945,-2.995758056640625
1772698666416621000,0.67362109375,3.350836753845215,-8.707406044006348,-3.0204923152923584
1772698666426621200,0.68362109375,3.225964307785034,-8.744524002075195,-3.0490710735321045
1772698666436621000,0.69362109375,3.0713002681732178,-8.793049812316895,-3.0691657066345215
1772698666446621200,0.70362109375,2.9435765743255615,-8.841787338256836,-3.0542662143707275
1772698666456621000,0.71362109375,2.8613908290863037,-8.895485877990723,-2.9754276275634766
1772698666466621200,0.72362109375,2.816927671432495,-8.968637466430664,-2.7926411628723145
1772698666476621000,0.73362109375,2.791421413421631,-9.054885864257812,-2.5273325443267822
1772698666486621200,0.74362109375,2.7643489837646484,-9.14537525177002,-2.2115345001220703
1772698666496621000,0.75362109375,2.7446043491363525,-9.228736877441406,-1.862243413925171
1772698666506621200,0.76362109375,2.7590267658233643,-9.28912353515625,-1.5067620277404785
1772698666516621000,0.77362109375,2.7954983711242676,-9.320839881896973,-1.215531587600708
1772698666526621200,0.78362109375,2.846066474914551,-9.330513000488281,-1.0058953762054443
1772698666536621000,0.79362109375,2.891984701156616,-9.33031940460205,-0.8671517372131348
1772698666546621200,0.80362109375,2.9145922660827637,-9.328946113586426,-0.8039343357086182
1772698666556621000,0.81362109375,2.943511724472046,-9.318177223205566,-0.8232242465019226
1772698666566621200,0.82362109375,2.962268590927124,-9.301464080810547,-0.9370759129524231
1772698666576621000,0.83362109375,2.933781147003174,-9.290986061096191,-1.1139551401138306
1772698666586621200,0.84362109375,2.891538381576538,-9.278242111206055,-1.3128652572631836
1772698666596621000,0.85362109375,2.8435330390930176,-9.269821166992188,-1.4680306911468506
1772698666606621200,0.86362109375,2.788451910018921,-9.271089553833008,-1.5626318454742432
1772698666616621000,0.87362109375,2.7311012744903564,-9.279372215270996,-1.6139169931411743
1772698666626621200,0.88362109375,2.668581008911133,-9.296125411987305,-1.6220728158950806
1772698666636621000,0.89362109375,2.6002423763275146,-9.32120418548584,-1.5887972116470337
1772698666646621200,0.90362109375,2.5350425243377686,-9.347203254699707,-1.5406945943832397
1772698666656621000,0.91362109375,2.474144458770752,-9.370137214660645,-1.4998425245285034
1772698666666621200,0.92362109375,2.4091649055480957,-9.391253471374512,-1.4733192920684814
1772698666676621000,0.93362109375,2.3607559204101562,-9.405797958374023,-1.4588327407836914
1772698666686621200,0.94362109375,2.3464958667755127,-9.409937858581543,-1.4551335573196411
1772698666696621000,0.95362109375,2.300471782684326,-9.417163848876953,-1.4816347360610962
1772698666706621200,0.96362109375,2.2263333797454834,-9.431144714355469,-1.5057636499404907
1772698666716621000,0.97362109375,2.1537742614746094,-9.453591346740723,-1.4701192378997803
1772698666726621200,0.98362109375,2.107267379760742,-9.482318878173828,-1.3473806381225586
1772698666736621000,0.99362109375,2.0730884075164795,-9.51530647277832,-1.1539638042449951
1772698666746621200,1.00362109375,2.042668342590332,-9.548678398132324,-0.9058873057365417
1772698666756621000,1.01362109375,2.037332057952881,-9.570950508117676,-0.6454354524612427
1772698666766621200,1.02362109375,2.046536445617676,-9.58327579498291,-0.3780321478843689
1772698666776621000,1.03362109375,2.048067331314087,-9.5900297164917,-0.08450142294168472
1772698666786621200,1.04362109375,2.028719425201416,-9.591633796691895,0.2350483536720276
1772698666796621000,1.05362109375,1.9854854345321655,-9.586749076843262,0.5678670406341553
1772698666806621200,1.06362109375,1.9074504375457764,-9.57709789276123,0.9006729125976562
1772698666816621000,1.07362109375,1.798707127571106,-9.564718246459961,1.2046687602996826
1772698666826621200,1.08362109375,1.6781574487686157,-9.55202579498291,1.4536052942276
1772698666836621000,1.09362109375,1.5664520263671875,-9.541122436523438,1.6381713151931763
1772698666846621200,1.10362109375,1.4613713026046753,-9.55045223236084,1.6803689002990723
1772698666856621000,1.11362109375,1.3783479928970337,-9.566003799438477,1.6619601249694824
1772698666866621200,1.12362109375,1.3370741605758667,-9.570538520812988,1.6695557832717896
1772698666876621000,1.13362109375,1.315233588218689,-9.563435554504395,1.7266292572021484
1772698666886621200,1.14362109375,1.3076095581054688,-9.55296802520752,1.789233922958374
1772698666896621000,1.15362109375,1.2361935377120972,-9.552331924438477,1.842594861984253
1772698666906621200,1.16362109375,1.2779200077056885,-9.55463981628418,1.8017140626907349
1772698666916621000,1.17362109375,1.4734452962875366,-9.552213668823242,1.6596872806549072
1772698666926621200,1.18362109375,1.6575697660446167,-9.55249309539795,1.4740211963653564
1772698666936621000,1.19362109375,1.8290660381317139,-9.5548734664917,1.2366405725479126
1772698666946621200,1.20362109375,1.95637047290802,-9.562159538269043,0.9529380798339844
1772698666956621000,1.21362109375,2.0001919269561768,-9.575709342956543,0.6895012259483337
1772698666966621200,1.22362109375,1.9427064657211304,-9.598058700561523,0.5230139493942261
1772698666976621000,1.23362109375,1.7521172761917114,-9.6354398727417,0.5087006092071533
1772698666986621200,1.24362109375,1.4775928258895874,-9.673564910888672,0.6397179961204529
1772698666996621000,1.25362109375,1.3160001039505005,-9.687423706054688,0.769652783870697
1772698667006621200,1.26362109375,1.2217949628829956,-9.69502067565918,0.8271592259407043
1772698667016621000,1.27362109375,1.1428614854812622,-9.704964637756348,0.8233534097671509
1772698667026621200,1.28362109375,1.0907942056655884,-9.713294982910156,0.7952730655670166
1772698667036621000,1.29362109375,1.0200389623641968,-9.724919319152832,0.7455571889877319
1772698667046621200,1.30362109375,0.9329037666320801,-9.738790512084961,0.6753119826316833
1772698667056621000,1.31362109375,0.8544135689735413,-9.750669479370117,0.6040076613426208
1772698667066621200,1.32362109375,0.797350287437439,-9.7588529586792,0.547173798084259
1772698667076621000,1.33362109375,0.75897616147995,-9.76447582244873,0.4993439316749573
1772698667086621200,1.34362109375,0.7306112051010132,-9.769010543823242,0.4505808651447296
1772698667096621000,1.35362109375,0.7014707922935486,-9.77371597290039,0.39090803265571594
1772698667106621200,1.36362109375,0.6677050590515137,-9.778752326965332,0.31709539890289307
1772698667116621000,1.37362109375,0.629950761795044,-9.783638954162598,0.23228783905506134
1772698667126621200,1.38362109375,0.590059757232666,-9.78786563873291,0.1411099135875702
1772698667136621000,1.39362109375,0.550961971282959,-9.791041374206543,0.04839947447180748
1772698667146621200,1.40362109375,0.5155327320098877,-9.792999267578125,-0.04225749894976616
1772698667156621000,1.41362109375,0.48468807339668274,-9.79379653930664,-0.1304730325937271
1772698667166621200,1.42362109375,0.4583580791950226,-9.79360580444336,-0.21351206302642822
1772698667176621000,1.43362109375,0.4363575577735901,-9.792664527893066,-0.28930091857910156
1772698667186621200,1.44362109375,0.4138420522212982,-9.791407585144043,-0.3570301830768585
1772698667196621000,1.45362109375,0.3915331959724426,-9.790220260620117,-0.4107080101966858
1772698667206621200,1.46362109375,0.36789870262145996,-9.789398193359375,-0.4502367377281189
1772698667216621000,1.47362109375,0.3448548913002014,-9.789189338684082,-0.4724816679954529
1772698667226621200,1.48362109375,0.31770119071006775,-9.789714813232422,-0.48056089878082275
1772698667236621000,1.49362109375,0.28859829902648926,-9.791020393371582,-0.4722524881362915
1772698667246621200,1.50362109375,0.2584521770477295,-9.793143272399902,-0.4449140429496765
1772698667256621000,1.51362109375,0.22653062641620636,-9.796036720275879,-0.3959130048751831
1772698667266621200,1.52362109375,0.1912958025932312,-9.799442291259766,-0.32360756397247314
1772698667276621000,1.53362109375,0.15398842096328735,-9.802787780761719,-0.22810877859592438
1772698667286621200,1.54362109375,0.1136363074183464,-9.805298805236816,-0.11657315492630005
1772698667296621000,1.55362109375,0.06588806957006454,-9.806428909301758,-0.00015753744810353965
1772698667306621200,1.56362109375,0.009378413669764996,-9.805998802185059,0.11261998862028122
1772698667316621000,1.57362109375,-0.05910135433077812,-9.804123878479004,0.21460828185081482
1772698667326621200,1.58362109375,-0.14087384939193726,-9.801102638244629,0.29821187257766724
1772698667336621000,1.59362109375,-0.22728922963142395,-9.797446250915527,0.3588492274284363
1772698667346621200,1.60362109375,-0.30866366624832153,-9.793874740600586,0.39385560154914856
1772698667356621000,1.61362109375,-0.38387373089790344,-9.79092025756836,0.40113648772239685
1772698667366621200,1.62362109375,-0.45277172327041626,-9.788549423217773,0.3868960440158844
1772698667376621000,1.63362109375,-0.5142216682434082,-9.786361694335938,0.36481401324272156
1772698667386621200,1.64362109375,-0.5504356622695923,-9.784873962402344,0.35166123509407043
1772698667396621000,1.65362109375,-0.5339361429214478,-9.785593032836914,0.35703715682029724
1772698667406621200,1.66362109375,-0.4487943947315216,-9.7890043258667,0.37995511293411255
1772698667416621000,1.67362109375,-0.3127356767654419,-9.793253898620605,0.4059188663959503
1772698667426621200,1.68362109375,-0.16666410863399506,-9.796526908874512,0.41311460733413696
1772698667436621000,1.69362109375,-0.04531801864504814,-9.798911094665527,0.3868764340877533
1772698667446621200,1.70362109375,0.032486483454704285,-9.801068305969238,0.3292388617992401
1772698667456621000,1.71362109375,0.058955635875463486,-9.803275108337402,0.2504076361656189
1772698667466621200,1.72362109375,0.05413857102394104,-9.805060386657715,0.168059304356575
1772698667476621000,1.73362109375,0.04236332327127457,-9.806042671203613,0.1004999428987503
1772698667486621200,1.74362109375,0.04630406200885773,-9.80627727508545,0.07190704345703125
1772698667496621000,1.75362109375,0.06440749019384384,-9.805902481079102,0.10253311693668365
1772698667506621200,1.76362109375,0.07203274965286255,-9.804582595825195,0.1880086064338684
1772698667516621000,1.77362109375,0.062286391854286194,-9.801998138427734,0.29553309082984924
1772698667526621200,1.78362109375,0.05790156498551369,-9.798896789550781,0.38556358218193054
1772698667536621000,1.79362109375,0.07890822738409042,-9.797135353088379,0.4246182143688202
1772698667546621200,1.80362109375,0.11506801098585129,-9.797964096069336,0.39629268646240234
1772698667556621000,1.81362109375,0.15031073987483978,-9.80093002319336,0.2992604076862335
1772698667566621200,1.82362109375,0.17853040993213654,-9.804064750671387,0.1372418850660324
1772698667576621000,1.83362109375,0.20808911323547363,-9.80418586730957,-0.07101380079984665
1772698667586621200,1.84362109375,0.23877893388271332,-9.799137115478516,-0.3004731833934784
1772698667596621000,1.85362109375,0.26475611329078674,-9.78862476348877,-0.5320730209350586
1772698667606621200,1.86362109375,0.2855486571788788,-9.773801803588867,-0.7494240999221802
1772698667616621000,1.87362109375,0.31261175870895386,-9.756697654724121,-0.9378220438957214
1772698667626621200,1.88362109375,0.3572470247745514,-9.739767074584961,-1.086150050163269
1772698667636621000,1.89362109375,0.4478227496147156,-9.723302841186523,-1.1946625709533691
1772698667646621200,1.90362109375,0.5990265607833862,-9.705493927001953,-1.2708027362823486
1772698667656621000,1.91362109375,0.7908502221107483,-9.685144424438477,-1.3201940059661865
1772698667666621200,1.92362109375,0.9868540167808533,-9.663787841796875,-1.34451162815094
1772698667676621000,1.93362109375,1.1607385873794556,-9.643994331359863,-1.3477555513381958
1772698667686621200,1.94362109375,1.3026740550994873,-9.62807559967041,-1.3317625522613525
1772698667696621000,1.95362109375,1.41775381565094,-9.616669654846191,-1.2961583137512207
1772698667706621200,1.96362109375,1.5159204006195068,-9.609404563903809,-1.237621784210205
1772698667716621000,1.97362109375,1.6078304052352905,-9.60541820526123,-1.1494358777999878
1772698667726621200,1.98362109375,1.6973587274551392,-9.604095458984375,-1.0250483751296997
1772698667736621000,1.99362109375,1.7789112329483032,-9.604330062866211,-0.8733282685279846
1772698667746621200,2.00362109375,1.8388315439224243,-9.60611629486084,-0.7152820229530334
1772698667756621000,2.01362109375,1.8809788227081299,-9.6082124710083,-0.5608689785003662
1772698667766621200,2.02362109375,1.918275237083435,-9.608235359191895,-0.4152261018753052
1772698667776621000,2.03362109375,1.9541486501693726,-9.605748176574707,-0.2851361930370331
1772698667786621200,2.04362109375,1.9920940399169922,-9.600669860839844,-0.17054545879364014
1772698667796621000,2.05362109375,2.0360629558563232,-9.59273910522461,-0.0648418515920639
1772698667806621200,2.06362109375,2.0903589725494385,-9.581199645996094,0.03755483031272888
1772698667816621000,2.07362109375,2.151404857635498,-9.566696166992188,0.14199350774288177
1772698667826621200,2.08362109375,2.2105772495269775,-9.551056861877441,0.2470872402191162
1772698667836621000,2.09362109375,2.2565836906433105,-9.537227630615234,0.3456917405128479
1772698667846621200,2.10362109375,2.287122964859009,-9.526556968688965,0.4291467070579529
1772698667856621000,2.11362109375,2.302429437637329,-9.519530296325684,0.49773600697517395
1772698667866621200,2.12362109375,2.3040010929107666,-9.515884399414062,0.5566874742507935
1772698667876621000,2.13362109375,2.291527032852173,-9.51564884185791,0.6096977591514587
1772698667886621200,2.14362109375,2.265855312347412,-9.518658638000488,0.6568349003791809
1772698667896621000,2.15362109375,2.2311055660247803,-9.524003028869629,0.6970736980438232
1772698667906621200,2.16362109375,2.191585063934326,-9.53076457977295,0.7292946577072144
1772698667916621000,2.17362109375,2.1489527225494385,-9.538565635681152,0.7537595629692078
1772698667926621200,2.18362109375,2.1038894653320312,-9.54719066619873,0.7714747786521912
1772698667936621000,2.19362109375,2.057274341583252,-9.556356430053711,0.7836284041404724
1772698667946621200,2.20362109375,2.014409303665161,-9.564866065979004,0.7911301255226135
1772698667956621000,2.21362109375,1.9866299629211426,-9.570147514343262,0.7974722981452942
1772698667966621200,2.22362109375,1.9827793836593628,-9.570638656616211,0.801152229309082
1772698667976621000,2.23362109375,2.004382371902466,-9.566555976867676,0.7961499691009521
1772698667986621200,2.24362109375,2.0453085899353027,-9.559330940246582,0.7786555886268616
1772698667996621000,2.25362109375,2.097756862640381,-9.550071716308594,0.7522900104522705
1772698668006621200,2.26362109375,2.156424045562744,-9.539087295532227,0.7252774238586426
1772698668016621000,2.27362109375,2.214639186859131,-9.527198791503906,0.705873966217041
1772698668026621200,2.28362109375,2.2629122734069824,-9.516027450561523,0.7034422159194946
1772698668036621000,2.29362109375,2.286944627761841,-9.508740425109863,0.7239636778831482
1772698668046621200,2.30362109375,2.2872180938720703,-9.505370140075684,0.766142725944519
1772698668056621000,2.31362109375,2.283505439758301,-9.501882553100586,0.8186708092689514
1772698668066621200,2.32362109375,2.2795894145965576,-9.500100135803223,0.8496792316436768
1772698668076621000,2.33362109375,2.24019193649292,-9.510881423950195,0.8337058424949646
1772698668086621200,2.34362109375,2.143036365509033,-9.537948608398438,0.7780244946479797
1772698668096621000,2.35362109375,2.024074077606201,-9.567516326904297,0.732215404510498
1772698668106621200,2.36362109375,1.9007025957107544,-9.592198371887207,0.7399051189422607
1772698668116621000,2.37362109375,1.8336504697799683,-9.60191535949707,0.7818781733512878
1772698668126621200,2.38362109375,1.7937334775924683,-9.60360050201416,0.8507399559020996
1772698668136621000,2.39362109375,1.738677978515625,-9.602632522583008,0.9679075479507446
1772698668146621200,2.40362109375,1.668534517288208,-9.596603393554688,1.136488437652588
1772698668156621000,2.41362109375,1.586754322052002,-9.588120460510254,1.3116939067840576
1772698668166621200,2.42362109375,1.4807889461517334,-9.58503246307373,1.4507908821105957
1772698668176621000,2.43362109375,1.3546346426010132,-9.590723991394043,1.5340676307678223
1772698668186621200,2.44362109375,1.2179532051086426,-9.605908393859863,1.5535460710525513
1772698668196621000,2.45362109375,1.0778563022613525,-9.627238273620605,1.524760127067566
1772698668206621200,2.46362109375,0.9496897459030151,-9.648959159851074,1.471758246421814
1772698668216621000,2.47362109375,0.8425646424293518,-9.668313026428223,1.40861976146698
1772698668226621200,2.48362109375,0.7515688538551331,-9.68538761138916,1.3411973714828491
1772698668236621000,2.49362109375,0.6735654473304749,-9.700135231018066,1.274387001991272
1772698668246621200,2.50362109375,0.6042128801345825,-9.7138090133667,1.2030051946640015
1772698668256621000,2.51362109375,0.5374511480331421,-9.727644920349121,1.120021104812622
1772698668266621200,2.52362109375,0.47817716002464294,-9.741455078125,1.0226290225982666
1772698668276621000,2.53362109375,0.4331757724285126,-9.75426197052002,0.9149436354637146
1772698668286621200,2.54362109375,0.38904279470443726,-9.765539169311523,0.8082541823387146
1772698668296621000,2.55362109375,0.3390291929244995,-9.77469253540039,0.7147394418716431
1772698668306621200,2.56362109375,0.28583022952079773,-9.781303405761719,0.64404296875
1772698668316621000,2.57362109375,0.23077058792114258,-9.785574913024902,0.5997277498245239
1772698668326621200,2.58362109375,0.17631560564041138,-9.788036346435547,0.5776301622390747
1772698668336621000,2.59362109375,0.13094739615917206,-9.789307594299316,0.5680634379386902
1772698668346621200,2.60362109375,0.10222747176885605,-9.789920806884766,0.5633758306503296
1772698668356621000,2.61362109375,0.08910173177719116,-9.79011344909668,0.5622509717941284
1772698668366621200,2.62362109375,0.08384988456964493,-9.790077209472656,0.5636937022209167
1772698668376621000,2.63362109375,0.08001556247472763,-9.789776802062988,0.5694267153739929
1772698668386621200,2.64362109375,0.07040736079216003,-9.789275169372559,0.5792287588119507
1772698668396621000,2.65362109375,0.0490121953189373,-9.788567543029785,0.5932303667068481
1772698668406621200,2.66362109375,0.01552639715373516,-9.78753662109375,0.6117769479751587
1772698668416621000,2.67362109375,-0.024816831573843956,-9.785941123962402,0.6365041136741638
1772698668426621200,2.68362109375,-0.06831923127174377,-9.783632278442383,0.6680307984352112
1772698668436621000,2.69362109375,-0.11593359708786011,-9.780555725097656,0.705459713935852
1772698668446621200,2.70362109375,-0.16939270496368408,-9.776776313781738,0.745876133441925
1772698668456621000,2.71362109375,-0.23054954409599304,-9.772381782531738,0.7859888672828674
1772698668466621200,2.72362109375,-0.3005862236022949,-9.76740550994873,0.8233139514923096
1772698668476621000,2.73362109375,-0.37891900539398193,-9.761846542358398,0.8562436103820801
1772698668486621200,2.74362109375,-0.4608066976070404,-9.755867004394531,0.8838074803352356
1772698668496621000,2.75362109375,-0.5381466150283813,-9.750203132629395,0.9024018049240112
1772698668506621200,2.76362109375,-0.6011282205581665,-9.746066093444824,0.907312273979187
1772698668516621000,2.77362109375,-0.6395145058631897,-9.744572639465332,0.8970624804496765
1772698668526621200,2.78362109375,-0.6432152390480042,-9.74634075164795,0.8749362230300903
1772698668536621000,2.79362109375,-0.6097996234893799,-9.750743865966797,0.8494289517402649
1772698668546621200,2.80362109375,-0.5468435883522034,-9.756047248840332,0.83119797706604
1772698668556621000,2.81362109375,-0.46558552980422974,-9.760571479797363,0.8275634050369263
1772698668566621200,2.82362109375,-0.3777042031288147,-9.763391494750977,0.8389962911605835
1772698668576621000,2.83362109375,-0.298193097114563,-9.764531135559082,0.8575476408004761
1772698668586621200,2.84362109375,-0.24782368540763855,-9.764912605285645,0.8691737055778503
1772698668596621000,2.85362109375,-0.23933058977127075,-9.765727043151855,0.8623755574226379
1772698668606621200,2.86362109375,-0.26933297514915466,-9.767578125,0.8320183157920837
1772698668616621000,2.87362109375,-0.32020947337150574,-9.770479202270508,0.7781893610954285
1772698668626621200,2.88362109375,-0.3655467629432678,-9.77426815032959,0.7074238061904907
1772698668636621000,2.89362109375,-0.38142991065979004,-9.7783842086792,0.6388259530067444
1772698668646621200,2.90362109375,-0.3719211518764496,-9.78121566772461,0.5999038815498352
1772698668656621000,2.91362109375,-0.3628252446651459,-9.781646728515625,0.5984472632408142
1772698668666621200,2.92362109375,-0.3712176978588104,-9.780052185058594,0.6190052032470703
1772698668676621000,2.93362109375,-0.395717978477478,-9.778177261352539,0.6332709193229675
1772698668686621200,2.94362109375,-0.42545461654663086,-9.77864933013916,0.6061254143714905
1772698668696621000,2.95362109375,-0.45062288641929626,-9.782450675964355,0.5205727219581604
1772698668706621200,2.96362109375,-0.4635764956474304,-9.788086891174316,0.38580846786499023
1772698668716621000,2.97362109375,-0.4612099826335907,-9.793355941772461,0.21871128678321838
1772698668726621200,2.98362109375,-0.43848729133605957,-9.796810150146484,0.025135470554232597
1772698668736621000,2.99362109375,-0.39060601592063904,-9.797039031982422,-0.189329594373703
1772698668746621200,3.00362109375,-0.31916093826293945,-9.793031692504883,-0.4062657654285431
1772698668756621000,3.01362109375,-0.22436337172985077,-9.785632133483887,-0.6012083292007446
1772698668766621200,3.02362109375,-0.10048825293779373,-9.776948928833008,-0.7560141086578369
1772698668776621000,3.03362109375,0.05190643295645714,-9.768393516540527,-0.863818883895874
1772698668786621200,3.04362109375,0.219404399394989,-9.76014232635498,-0.9283665418624878
1772698668796621000,3.05362109375,0.39120233058929443,-9.751852035522461,-0.9584954977035522
1772698668806621200,3.06362109375,0.5487790703773499,-9.744301795959473,-0.9580291509628296
1772698668816621000,3.07362109375,0.6720626354217529,-9.739028930664062,-0.9327572584152222
1772698668826621200,3.08362109375,0.7663984298706055,-9.735809326171875,-0.8927710652351379
1772698668836621000,3.09362109375,0.8459576368331909,-9.733658790588379,-0.8429790735244751
1772698668846621200,3.10362109375,0.9238232970237732,-9.732068061828613,-0.7770341038703918
1772698668856621000,3.11362109375,1.0111075639724731,-9.73017406463623,-0.686856210231781
1772698668866621200,3.12362109375,1.109170913696289,-9.727022171020508,-0.5702396035194397
1772698668876621000,3.13362109375,1.2083009481430054,-9.72243881225586,-0.42963555455207825
1772698668886621200,3.14362109375,1.296702265739441,-9.716632843017578,-0.2756439745426178
1772698668896621000,3.15362109375,1.3707128763198853,-9.709650039672852,-0.11931610107421875
1772698668906621200,3.16362109375,1.4292895793914795,-9.70188045501709,0.032252535223960876
1772698668916621000,3.17362109375,1.4711507558822632,-9.69418716430664,0.16979922354221344
1772698668926621200,3.18362109375,1.5000600814819336,-9.686999320983887,0.2868095934391022
1772698668936621000,3.19362109375,1.5256257057189941,-9.679670333862305,0.38317418098449707
1772698668946621200,3.20362109375,1.5597072839736938,-9.670737266540527,0.4631870985031128
1772698668956621000,3.21362109375,1.6078040599822998,-9.65921688079834,0.5337432026863098
1772698668966621200,3.22362109375,1.6708719730377197,-9.644453048706055,0.6025652885437012
1772698668976621000,3.23362109375,1.7433600425720215,-9.627114295959473,0.6706278324127197
1772698668986621200,3.24362109375,1.8151026964187622,-9.60946273803711,0.730761706829071
1772698668996621000,3.25362109375,1.8782851696014404,-9.593469619750977,0.7795931696891785
1772698669006621200,3.26362109375,1.92763090133667,-9.580473899841309,0.8180071115493774
1772698669016621000,3.27362109375,1.9629851579666138,-9.570734977722168,0.8474034667015076
1772698669026621200,3.28362109375,1.9856280088424683,-9.564217567443848,0.8679972887039185
1772698669036621000,3.29362109375,1.9985682964324951,-9.560373306274414,0.8805556893348694
1772698669046621200,3.30362109375,2.004343271255493,-9.558472633361816,0.8880264759063721
1772698669056621000,3.31362109375,2.0071988105773926,-9.557365417480469,0.8934678435325623
1772698669066621200,3.32362109375,2.011491537094116,-9.556199073791504,0.896293044090271
1772698669076621000,3.33362109375,2.018894672393799,-9.554885864257812,0.8936452269554138
1772698669086621200,3.34362109375,2.0297627449035645,-9.553234100341797,0.8866517543792725
1772698669096621000,3.35362109375,2.0458459854125977,-9.550455093383789,0.8796106576919556
1772698669106621200,3.36362109375,2.069748878479004,-9.545753479003906,0.8747156858444214
1772698669116621000,3.37362109375,2.1010665893554688,-9.539108276367188,0.8725367188453674
1772698669126621200,3.38362109375,2.1351706981658936,-9.531550407409668,0.8723433017730713
1772698669136621000,3.39362109375,2.164738178253174,-9.524755477905273,0.8736892938613892
1772698669146621200,3.40362109375,2.1823959350585938,-9.520256042480469,0.8787781000137329
1772698669156621000,3.41362109375,2.184900999069214,-9.518535614013672,0.8911072611808777
1772698669166621200,3.42362109375,2.174706220626831,-9.518891334533691,0.9119996428489685
1772698669176621000,3.43362109375,2.1598923206329346,-9.519537925720215,0.9400261044502258
1772698669186621200,3.44362109375,2.1463935375213623,-9.519013404846191,0.9755890369415283
1772698669196621000,3.45362109375,2.135878086090088,-9.516756057739258,1.0196962356567383
1772698669206621200,3.46362109375,2.119717597961426,-9.515344619750977,1.0655611753463745
1772698669216621000,3.47362109375,2.089069128036499,-9.518166542053223,1.1003154516220093
1772698669226621200,3.48362109375,2.038119316101074,-9.52801513671875,1.1105762720108032
1772698669236621000,3.49362109375,1.9661654233932495,-9.544174194335938,1.1015090942382812
1772698669246621200,3.50362109375,1.8883153200149536,-9.562671661376953,1.077016830444336
1772698669256621000,3.51362109375,1.806139349937439,-9.580756187438965,1.057051181793213
1772698669266621200,3.52362109375,1.7099806070327759,-9.597160339355469,1.068113088607788
1772698669276621000,3.53362109375,1.639775276184082,-9.602359771728516,1.1296970844268799
1772698669286621200,3.54362109375,1.5777555704116821,-9.59831714630127,1.2463505268096924
1772698669296621000,3.55362109375,1.484538197517395,-9.592766761779785,1.3947582244873047
1772698669306621200,3.56362109375,1.3949828147888184,-9.581130981445312,1.5576709508895874
1772698669316621000,3.57362109375,1.3161320686340332,-9.563056945800781,1.7280371189117432
1772698669326621200,3.58362109375,1.2269086837768555,-9.546294212341309,1.8797224760055542
1772698669336621000,3.59362109375,1.1271047592163086,-9.537374496459961,1.984567403793335
1772698669346621200,3.60362109375,1.0203787088394165,-9.540057182312012,2.0289230346679688
1772698669356621000,3.61362109375,0.9180111885070801,-9.552263259887695,2.020369291305542
1772698669366621200,3.62362109375,0.8353148102760315,-9.568757057189941,1.97775399684906
1772698669376621000,3.63362109375,0.7797448635101318,-9.587008476257324,1.9109318256378174
1772698669386621200,3.64362109375,0.7438988089561462,-9.606450080871582,1.8256826400756836
1772698669396621000,3.65362109375,0.71187824010849,-9.626934051513672,1.727934718132019
1772698669406621200,3.66362109375,0.6709034442901611,-9.648154258728027,1.6227751970291138
1772698669416621000,3.67362109375,0.6214733123779297,-9.668606758117676,1.5173002481460571
1772698669426621200,3.68362109375,0.5750798583030701,-9.685833930969238,1.4227689504623413
1772698669436621000,3.69362109375,0.5375573039054871,-9.698027610778809,1.3526619672775269
1772698669446621200,3.70362109375,0.5024010539054871,-9.70569896697998,1.3104863166809082
1772698669456621000,3.71362109375,0.46116897463798523,-9.710583686828613,1.2892884016036987
1772698669466621200,3.72362109375,0.4168979227542877,-9.713425636291504,1.2829458713531494
1772698669476621000,3.73362109375,0.36313652992248535,-9.715509414672852,1.2835054397583008
1772698669486621200,3.74362109375,0.29930049180984497,-9.718017578125,1.2809958457946777
1772698669496621000,3.75362109375,0.23950962722301483,-9.721405029296875,1.2677901983261108
1772698669506621200,3.76362109375,0.19231529533863068,-9.725550651550293,1.2438080310821533
1772698669516621000,3.77362109375,0.1591063290834427,-9.730147361755371,1.2121456861495972
1772698669526621200,3.78362109375,0.13899701833724976,-9.735034942626953,1.174800157546997
1772698669536621000,3.79362109375,0.12091641873121262,-9.739534378051758,1.138963222503662
1772698669546621200,3.80362109375,0.08845770359039307,-9.743074417114258,1.1113345623016357
1772698669556621000,3.81362109375,0.035260338336229324,-9.744833946228027,1.0987920761108398
1772698669566621200,3.82362109375,-0.030287761241197586,-9.744363784790039,1.1030997037887573
1772698669576621000,3.83362109375,-0.09266743808984756,-9.742127418518066,1.1192625761032104
1772698669586621200,3.84362109375,-0.1445927768945694,-9.739178657531738,1.1392455101013184
1772698669596621000,3.85362109375,-0.19038179516792297,-9.736554145812988,1.1548429727554321
1772698669606621200,3.86362109375,-0.23591601848602295,-9.734930992126465,1.160106897354126
1772698669616621000,3.87362109375,-0.2808613181114197,-9.734694480895996,1.152050495147705
1772698669626621200,3.88362109375,-0.31591796875,-9.73613166809082,1.130628228187561
1772698669636621000,3.89362109375,-0.3275439441204071,-9.73939323425293,1.098786473274231
1772698669646621200,3.90362109375,-0.3088741600513458,-9.744463920593262,1.058491826057434
1772698669656621000,3.91362109375,-0.26214346289634705,-9.75065803527832,1.0130846500396729
1772698669666621200,3.92362109375,-0.20049889385700226,-9.756604194641113,0.9689469933509827
1772698669676621000,3.93362109375,-0.14414092898368835,-9.760651588439941,0.9377080202102661
1772698669686621200,3.94362109375,-0.10575542598962784,-9.761420249938965,0.9348201751708984
1772698669696621000,3.95362109375,-0.08039747923612595,-9.757986068725586,0.972445547580719
1772698669706621200,3.96362109375,-0.054895881563425064,-9.750059127807617,1.0505845546722412
1772698669716621000,3.97362109375,-0.02897869236767292,-9.738372802734375,1.1548277139663696
1772698669726621200,3.98362109375,-0.018562076613307,-9.724482536315918,1.2666789293289185
1772698669736621000,3.99362109375,-0.03597332164645195,-9.710323333740234,1.370660662651062
1772698669746621200,4.00362109375,-0.07074292749166489,-9.698081970214844,1.4534766674041748
1772698669756621000,4.01362109375,-0.09080296754837036,-9.690241813659668,1.5037798881530762
1772698669766621200,4.02362109375,-0.06817577034235,-9.687922477722168,1.5198307037353516
1772698669776621000,4.03362109375,-0.019648591056466103,-9.6900053024292,1.5079084634780884
1772698669786621200,4.04362109375,0.003287866711616516,-9.695741653442383,1.4707049131393433
1772698669796621000,4.05362109375,-0.02995251677930355,-9.704837799072266,1.4091169834136963
1772698669806621200,4.06362109375,-0.11268637329339981,-9.715864181518555,1.3265292644500732
1772698669816621000,4.07362109375,-0.20999328792095184,-9.727704048156738,1.2239598035812378
1772698669826621200,4.08362109375,-0.28559330105781555,-9.740478515625,1.1008692979812622
1772698669836621000,4.09362109375,-0.3324623703956604,-9.753671646118164,0.9621588587760925
1772698669846621200,4.10362109375,-0.3570486605167389,-9.766189575195312,0.8151482343673706
1772698669856621000,4.11362109375,-0.36190515756607056,-9.777066230773926,0.6696081161499023
1772698669866621200,4.12362109375,-0.34174150228500366,-9.786150932312012,0.5337173938751221
1772698669876621000,4.13362109375,-0.29811891913414,-9.793655395507812,0.40722066164016724
1772698669886621200,4.14362109375,-0.2405041605234146,-9.799688339233398,0.28045931458473206
1772698669896621000,4.15362109375,-0.16987848281860352,-9.80422306060791,0.13690082728862762
1772698669906621200,4.16362109375,-0.07353782653808594,-9.806314468383789,-0.03429717570543289
1772698669916621000,4.17362109375,0.06442991644144058,-9.803764343261719,-0.22897015511989594
1772698669926621200,4.18362109375,0.25743022561073303,-9.794072151184082,-0.424561083316803
1772698669936621000,4.19362109375,0.5018971562385559,-9.77606201171875,-0.58914715051651
1772698669946621200,4.20362109375,0.7547947764396667,-9.751981735229492,-0.7067797780036926
1772698669956621000,4.21362109375,0.9708833694458008,-9.727211952209473,-0.7804650664329529
1772698669966621200,4.22362109375,1.139909267425537,-9.706071853637695,-0.8143481016159058
1772698669976621000,4.23362109375,1.2679495811462402,-9.690617561340332,-0.8090834021568298
1772698669986621200,4.24362109375,1.3641555309295654,-9.681164741516113,-0.7645312547683716
1772698669996621000,4.25362109375,1.440469741821289,-9.676528930664062,-0.6783997416496277
1772698670006621200,4.26362109375,1.5054645538330078,-9.674566268920898,-0.5538240671157837
1772698670016621000,4.27362109375,1.559796690940857,-9.673590660095215,-0.39883485436439514
1772698670026621200,4.28362109375,1.6014951467514038,-9.67206859588623,-0.23807364702224731
1772698670036621000,4.29362109375,1.635103464126587,-9.668964385986328,-0.08915799111127853
1772698670046621200,4.30362109375,1.6634925603866577,-9.66441822052002,0.0468175895512104
1772698670056621000,4.31362109375,1.6901087760925293,-9.658411979675293,0.17027659714221954
1772698670066621200,4.32362109375,1.7209995985031128,-9.650437355041504,0.27856647968292236
1772698670076621000,4.33362109375,1.7599865198135376,-9.640368461608887,0.3689436614513397
1772698670086621200,4.34362109375,1.8083548545837402,-9.627989768981934,0.4495109021663666
1772698670096621000,4.35362109375,1.8658511638641357,-9.612427711486816,0.5387198328971863
1772698670106621200,4.36362109375,1.9257580041885376,-9.594535827636719,0.6377490162849426
1772698670116621000,4.37362109375,1.9815452098846436,-9.576935768127441,0.7253674268722534
1772698670126621200,4.38362109375,2.0286500453948975,-9.562108993530273,0.7880586981773376
1772698670136621000,4.39362109375,2.06803560256958,-9.550570487976074,0.8247606158256531
1772698670146621200,4.40362109375,2.1006131172180176,-9.541933059692383,0.8422176837921143
1772698670156621000,4.41362109375,2.124007225036621,-9.535707473754883,0.8539648056030273
1772698670166621200,4.42362109375,2.1358582973480225,-9.531844139099121,0.8674275875091553
1772698670176621000,4.43362109375,2.135531187057495,-9.530258178710938,0.8854901790618896
1772698670186621200,4.44362109375,2.126086473464966,-9.530061721801758,0.9099798202514648
1772698670196621000,4.45362109375,2.1114771366119385,-9.530574798583984,0.938194751739502
1772698670206621200,4.46362109375,2.0951032638549805,-9.53196907043457,0.9604700803756714
1772698670216621000,4.47362109375,2.0782580375671387,-9.534723281860352,0.9696764945983887
1772698670226621200,4.48362109375,2.0601189136505127,-9.5389986038208,0.9663354754447937
1772698670236621000,4.49362109375,2.0398595333099365,-9.544665336608887,0.9532666802406311
1772698670246621200,4.50362109375,2.017080545425415,-9.551555633544922,0.9324955940246582
1772698670256621000,4.51362109375,1.9932868480682373,-9.559356689453125,0.903268575668335
1772698670266621200,4.52362109375,1.9700006246566772,-9.56783390045166,0.8637399077415466
1772698670276621000,4.53362109375,1.9488499164581299,-9.57640552520752,0.8153737783432007
1772698670286621200,4.54362109375,1.9300092458724976,-9.584428787231445,0.764319896697998
1772698670296621000,4.55362109375,1.915246605873108,-9.590885162353516,0.719130277633667
1772698670306621200,4.56362109375,1.9103411436080933,-9.594304084777832,0.6857869625091553
1772698670316621000,4.57362109375,1.9222561120986938,-9.593344688415527,0.6656144857406616
1772698670326621200,4.58362109375,1.9553478956222534,-9.587169647216797,0.6581767201423645
1772698670336621000,4.59362109375,2.006983757019043,-9.575902938842773,0.666692852973938
1772698670346621200,4.60362109375,2.0648107528686523,-9.561607360839844,0.6946980953216553
1772698670356621000,4.61362109375,2.1103131771087646,-9.548148155212402,0.7415134906768799
1772698670366621200,4.62362109375,2.13028621673584,-9.53880500793457,0.802167534828186
1772698670376621000,4.63362109375,2.1187586784362793,-9.536112785339355,0.8624448776245117
1772698670386621200,4.64362109375,2.0690507888793945,-9.54341983795166,0.9014091491699219
1772698670396621000,4.65362109375,1.9654964208602905,-9.564790725708008,0.9066348075866699
1772698670406621200,4.66362109375,1.830946922302246,-9.59253215789795,0.89517742395401
1772698670416621000,4.67362109375,1.716634750366211,-9.613724708557129,0.8943439722061157
1772698670426621200,4.68362109375,1.6292846202850342,-9.6279935836792,0.9041785597801208
1772698670436621000,4.69362109375,1.5480393171310425,-9.638669967651367,0.9327369332313538
1772698670446621200,4.70362109375,1.4591894149780273,-9.645112037658691,1.0064605474472046
1772698670456621000,4.71362109375,1.3713855743408203,-9.645569801330566,1.1192333698272705
1772698670466621200,4.72362109375,1.284775733947754,-9.641634941101074,1.248447060585022
1772698670476621000,4.73362109375,1.1852452754974365,-9.634623527526855,1.3927042484283447
1772698670486621200,4.74362109375,1.0855071544647217,-9.623247146606445,1.5443975925445557
1772698670496621000,4.75362109375,0.9812319874763489,-9.610454559326172,1.6872262954711914
1772698670506621200,4.76362109375,0.858771562576294,-9.600008964538574,1.8090674877166748
1772698670516621000,4.77362109375,0.7255477905273438,-9.593764305114746,1.898333191871643
1772698670526621200,4.78362109375,0.5963367223739624,-9.593000411987305,1.9465640783309937
1772698670536621000,4.79362109375,0.4840809106826782,-9.598604202270508,1.9500881433486938
1772698670546621200,4.80362109375,0.39518019556999207,-9.608013153076172,1.9236180782318115
1772698670556621000,4.81362109375,0.32545456290245056,-9.618266105651855,1.8850542306900024
1772698670566621200,4.82362109375,0.2641352415084839,-9.628244400024414,1.8432389497756958
1772698670576621000,4.83362109375,0.20583488047122955,-9.637848854064941,1.7999666929244995
1772698670586621200,4.84362109375,0.15390564501285553,-9.647021293640137,1.7554699182510376
1772698670596621000,4.85362109375,0.11699573695659637,-9.656108856201172,1.7077057361602783
1772698670606621200,4.86362109375,0.09415782988071442,-9.665518760681152,1.6550788879394531
1772698670616621000,4.87362109375,0.07585383951663971,-9.674379348754883,1.6034355163574219
1772698670626621200,4.88362109375,0.055095408111810684,-9.682618141174316,1.5537822246551514
1772698670636621000,4.89362109375,0.02942686900496483,-9.689858436584473,1.5087007284164429
1772698670646621200,4.90362109375,0.0019418357405811548,-9.694883346557617,1.4763544797897339
1772698670656621000,4.91362109375,-0.02189018204808235,-9.697455406188965,1.4591999053955078
1772698670666621200,4.92362109375,-0.03808818385004997,-9.698269844055176,1.453441858291626
1772698670676621000,4.93362109375,-0.045623525977134705,-9.698506355285645,1.4516475200653076
1772698670686621200,4.94362109375,-0.0470145158469677,-9.699267387390137,1.4465103149414062
1772698670696621000,4.95362109375,-0.050358232110738754,-9.701347351074219,1.4323772192001343
1772698670706621200,4.96362109375,-0.06069481000304222,-9.705086708068848,1.4064124822616577
1772698670716621000,4.97362109375,-0.07490427047014236,-9.710010528564453,1.371304988861084
1772698670726621200,4.98362109375,-0.09157481789588928,-9.715449333190918,1.3311803340911865
1772698670736621000,4.99362109375,-0.10869800299406052,-9.720629692077637,1.2914851903915405
1772698670746621200,5.00362109375,-0.12433727830648422,-9.724777221679688,1.2584222555160522
1772698670756621000,5.01362109375,-0.1401926726102829,-9.727459907531738,1.235824704170227
1772698670766621200,5.02362109375,-0.16035518050193787,-9.728517532348633,1.2250020503997803
1772698670776621000,5.03362109375,-0.18977661430835724,-9.728074073791504,1.224312663078308
1772698670786621200,5.04362109375,-0.23080183565616608,-9.726446151733398,1.230188012123108
1772698670796621000,5.05362109375,-0.28250131011009216,-9.723945617675781,1.2391384840011597
1772698670806621200,5.06362109375,-0.3409159779548645,-9.720962524414062,1.2478286027908325
1772698670816621000,5.07362109375,-0.3998808264732361,-9.717944145202637,1.2538068294525146
1772698670826621200,5.08362109375,-0.451002299785614,-9.71528434753418,1.2570737600326538
1772698670836621000,5.09362109375,-0.4833328127861023,-9.713354110717773,1.259971261024475
1772698670846621200,5.10362109375,-0.48650282621383667,-9.712151527404785,1.2679955959320068
1772698670856621000,5.11362109375,-0.4552183151245117,-9.711091995239258,1.2875795364379883
1772698670866621200,5.12362109375,-0.39083537459373474,-9.709553718566895,1.3199268579483032
1772698670876621000,5.13362109375,-0.30108577013015747,-9.70788288116455,1.3552671670913696
1772698670886621200,5.14362109375,-0.20024754106998444,-9.7073974609375,1.3772194385528564
1772698670896621000,5.15362109375,-0.10689319670200348,-9.708975791931152,1.3765037059783936
1772698670906621200,5.16362109375,-0.03748959302902222,-9.712331771850586,1.3563095331192017
1772698670916621000,5.17362109375,-0.001375379040837288,-9.716118812561035,1.3294488191604614
1772698670926621200,5.18362109375,-0.002928380621597171,-9.718940734863281,1.3086562156677246
1772698670936621000,5.19362109375,-0.038705237209796906,-9.72032642364502,1.2977426052093506
1772698670946621200,5.20362109375,-0.09453930705785751,-9.72046947479248,1.2938005924224854
1772698670956621000,5.21362109375,-0.15081118047237396,-9.719669342041016,1.2944738864898682
1772698670966621200,5.22362109375,-0.18876142799854279,-9.718372344970703,1.299228310585022
1772698670976621000,5.23362109375,-0.20426613092422485,-9.716833114624023,1.3083598613739014
1772698670986621200,5.24362109375,-0.21739095449447632,-9.715316772460938,1.3174744844436646
1772698670996621000,5.25362109375,-0.2553442716598511,-9.715129852294922,1.312040090560913
1772698671006621200,5.26362109375,-0.31724682450294495,-9.718344688415527,1.274168610572815
1772698671016621000,5.27362109375,-0.3729294240474701,-9.725737571716309,1.200560450553894
1772698671026621200,5.28362109375,-0.3985538184642792,-9.736319541931152,1.1025532484054565
1772698671036621000,5.29362109375,-0.3979680836200714,-9.748332023620605,0.9909772276878357
1772698671046621200,5.30362109375,-0.38176020979881287,-9.760802268981934,0.8668228387832642
1772698671056621000,5.31362109375,-0.3518935441970825,-9.773271560668945,0.7278174161911011
1772698671066621200,5.32362109375,-0.30400893092155457,-9.785327911376953,0.5703734755516052
1772698671076621000,5.33362109375,-0.23323558270931244,-9.79605484008789,0.3915446400642395
1772698671086621200,5.34362109375,-0.13803035020828247,-9.803794860839844,0.19221308827400208
1772698671096621000,5.35362109375,-0.020068950951099396,-9.806617736816406,-0.015309044159948826
1772698671106621200,5.36362109375,0.11433785408735275,-9.80378246307373,-0.2077486664056778
1772698671116621000,5.37362109375,0.2632772922515869,-9.796300888061523,-0.3654707074165344
1772698671126621200,5.38362109375,0.42401576042175293,-9.785836219787598,-0.47750821709632874
1772698671136621000,5.39362109375,0.5821763873100281,-9.774012565612793,-0.5478397607803345
1772698671146621200,5.40362109375,0.7276614308357239,-9.761687278747559,-0.5918974280357361
1772698671156621000,5.41362109375,0.8561682105064392,-9.749655723571777,-0.6177291870117188
1772698671166621200,5.42362109375,0.9721965193748474,-9.738547325134277,-0.6212164759635925
1772698671176621000,5.43362109375,1.0760560035705566,-9.729333877563477,-0.5937521457672119
1772698671186621200,5.44362109375,1.170059323310852,-9.721993446350098,-0.533096194267273
1772698671196621000,5.45362109375,1.2545452117919922,-9.71586799621582,-0.4454525113105774
1772698671206621200,5.46362109375,1.3326972723007202,-9.709758758544922,-0.3389585316181183
1772698671216621000,5.47362109375,1.4057557582855225,-9.702807426452637,-0.22311469912528992
1772698671226621200,5.48362109375,1.4726624488830566,-9.694863319396973,-0.1061970442533493
1772698671236621000,5.49362109375,1.5353155136108398,-9.68571662902832,0.0084338104352355
1772698671246621200,5.50362109375,1.595672845840454,-9.675217628479004,0.11985522508621216
1772698671256621000,5.51362109375,1.6549420356750488,-9.663409233093262,0.22374752163887024
1772698671266621200,5.52362109375,1.7160629034042358,-9.650190353393555,0.31518810987472534
1772698671276621000,5.53362109375,1.780906081199646,-9.635482788085938,0.3952659070491791
1772698671286621200,5.54362109375,1.8487094640731812,-9.619318008422852,0.47049352526664734
1772698671296621000,5.55362109375,1.9146302938461304,-9.602450370788574,0.54547119140625
1772698671306621200,5.56362109375,1.9725751876831055,-9.586194038391113,0.6198409795761108
1772698671316621000,5.57362109375,2.0174407958984375,-9.572083473205566,0.689585268497467
1772698671326621200,5.58362109375,2.0489823818206787,-9.560729026794434,0.751348614692688
1772698671336621000,5.59362109375,2.06996750831604,-9.551902770996094,0.804230272769928
1772698671346621200,5.60362109375,2.0841267108917236,-9.544999122619629,0.848412811756134
1772698671356621000,5.61362109375,2.0952138900756836,-9.539386749267578,0.8834952116012573
1772698671366621200,5.62362109375,2.102912664413452,-9.535313606262207,0.9088085889816284
1772698671376621000,5.63362109375,2.1060867309570312,-9.532951354980469,0.926082193851471
1772698671386621200,5.64362109375,2.104541063308716,-9.53227424621582,0.9365161657333374
1772698671396621000,5.65362109375,2.098667621612549,-9.53325366973877,0.9397129416465759
1772698671406621200,5.66362109375,2.0899884700775146,-9.535650253295898,0.9347250461578369
1772698671416621000,5.67362109375,2.080244779586792,-9.539119720458984,0.9209622144699097
1772698671426621200,5.68362109375,2.0702786445617676,-9.543376922607422,0.8990478515625
1772698671436621000,5.69362109375,2.0599896907806396,-9.548168182373047,0.8713715672492981
1772698671446621200,5.70362109375,2.0468571186065674,-9.553772926330566,0.8403438329696655
1772698671456621000,5.71362109375,2.0272767543792725,-9.560698509216309,0.8084503412246704
1772698671466621200,5.72362109375,2.000702381134033,-9.568683624267578,0.7796701788902283
1772698671476621000,5.73362109375,1.9724386930465698,-9.57633113861084,0.7574594020843506
1772698671486621200,5.74362109375,1.9478850364685059,-9.582425117492676,0.7437978386878967
1772698671496621000,5.75362109375,1.930580496788025,-9.586211204528809,0.7401365041732788
1772698671506621200,5.76362109375,1.923640489578247,-9.587042808532715,0.7473964691162109
1772698671516621000,5.77362109375,1.9296976327896118,-9.58443546295166,0.7650125622749329
1772698671526621200,5.78362109375,1.9499045610427856,-9.578043937683105,0.7933159470558167
1772698671536621000,5.79362109375,1.983091115951538,-9.568074226379395,0.830473005771637
1772698671546621200,5.80362109375,2.0240063667297363,-9.555610656738281,0.8741269111633301
1772698671556621000,5.81362109375,2.063498020172119,-9.54238224029541,0.9248294830322266
1772698671566621200,5.82362109375,2.092268228530884,-9.530837059020996,0.9777256846427917
1772698671576621000,5.83362109375,2.10355544090271,-9.523682594299316,1.0222069025039673
1772698671586621200,5.84362109375,2.083526134490967,-9.524748802185059,1.0528351068496704
1772698671596621000,5.85362109375,2.0136494636535645,-9.538793563842773,1.061617136001587
1772698671606621200,5.86362109375,1.8842154741287231,-9.566900253295898,1.0461933612823486
1772698671616621000,5.87362109375,1.7282581329345703,-9.598172187805176,1.0288865566253662
1772698671626621200,5.88362109375,1.6015862226486206,-9.62004566192627,1.0295747518539429
1772698671636621000,5.89362109375,1.5021800994873047,-9.634121894836426,1.0476315021514893
1772698671646621200,5.90362109375,1.40994393825531,-9.642704963684082,1.095761775970459
1772698671656621000,5.91362109375,1.329506754875183,-9.643765449523926,1.1834635734558105
1772698671666621200,5.92362109375,1.2577732801437378,-9.63895320892334,1.295756220817566
1772698671676621000,5.93362109375,1.1649361848831177,-9.63247299194336,1.4243477582931519
1772698671686621200,5.94362109375,1.0516538619995117,-9.622781753540039,1.5705018043518066
1772698671696621000,5.95362109375,0.9309331178665161,-9.609074592590332,1.7232091426849365
1772698671706621200,5.96362109375,0.798958420753479,-9.59375,1.8686937093734741
1772698671716621000,5.97362109375,0.6510008573532104,-9.580206871032715,1.9915343523025513
1772698671726621200,5.98362109375,0.4942937195301056,-9.571919441223145,2.074708938598633
1772698671736621000,5.99362109375,0.3432851731777191,-9.571537971496582,2.106703519821167
1772698671746621200,6.00362109375,0.21366780996322632,-9.581018447875977,2.0805857181549072
1772698671756621000,6.01362109375,0.11913799494504929,-9.596742630004883,2.0146260261535645
1772698671766621200,6.02362109375,0.05745038390159607,-9.613150596618652,1.9376312494277954
1772698671776621000,6.03362109375,0.009158920496702194,-9.628448486328125,1.860991358757019
1772698671786621200,6.04362109375,-0.04464568942785263,-9.642976760864258,1.7836458683013916
1772698671796621000,6.05362109375,-0.10491006821393967,-9.656838417053223,1.704359531402588
1772698671806621200,6.06362109375,-0.16597510874271393,-9.668807983398438,1.6300256252288818
1772698671816621000,6.07362109375,-0.2227781116962433,-9.677716255187988,1.5692518949508667
1772698671826621200,6.08362109375,-0.2784905433654785,-9.683741569519043,1.522491455078125
1772698671836621000,6.09362109375,-0.34103405475616455,-9.687122344970703,1.4878638982772827
1772698671846621200,6.10362109375,-0.4144023060798645,-9.68681812286377,1.471131682395935
1772698671856621000,6.11362109375,-0.49414825439453125,-9.682781219482422,1.4730768203735352
1772698671866621200,6.12362109375,-0.5670518279075623,-9.676639556884766,1.4871082305908203
1772698671876621000,6.13362109375,-0.6194103360176086,-9.670948028564453,1.5031530857086182
1772698671886621200,6.14362109375,-0.6476412415504456,-9.66805648803711,1.5098459720611572
1772698671896621000,6.15362109375,-0.651581883430481,-9.668693542480469,1.5040595531463623
1772698671906621200,6.16362109375,-0.6389716267585754,-9.672210693359375,1.486755609512329
1772698671916621000,6.17362109375,-0.6220186948776245,-9.677422523498535,1.4597868919372559
1772698671926621200,6.18362109375,-0.6088985800743103,-9.682660102844238,1.430287480354309
1772698671936621000,6.19362109375,-0.6041486859321594,-9.685893058776855,1.4102716445922852
1772698671946621200,6.20362109375,-0.6058182120323181,-9.68551254272461,1.4121687412261963
1772698671956621000,6.21362109375,-0.6075609922409058,-9.681313514709473,1.4399369955062866
1772698671966621200,6.22362109375,-0.6030904054641724,-9.674383163452148,1.4876103401184082
1772698671976621000,6.23362109375,-0.5918831825256348,-9.666303634643555,1.5435742139816284
1772698671986621200,6.24362109375,-0.5839252471923828,-9.658501625061035,1.5946100950241089
1772698671996621000,6.25362109375,-0.5889987945556641,-9.652435302734375,1.629102110862732
1772698672006621200,6.26362109375,-0.6108560562133789,-9.649445533752441,1.6387311220169067
1772698672016621000,6.27362109375,-0.6477458477020264,-9.650099754333496,1.6206125020980835
1772698672026621200,6.28362109375,-0.6960791349411011,-9.653374671936035,1.5805716514587402
1772698672036621000,6.29362109375,-0.7497256398200989,-9.657529830932617,1.5298402309417725
1772698672046621200,6.30362109375,-0.8007051944732666,-9.661332130432129,1.4791607856750488
1772698672056621000,6.31362109375,-0.8403769731521606,-9.664341926574707,1.4368914365768433
1772698672066621200,6.32362109375,-0.8604303002357483,-9.666656494140625,1.4091814756393433
1772698672076621000,6.33362109375,-0.8526515364646912,-9.668825149536133,1.398995280265808
1772698672086621200,6.34362109375,-0.8092238306999207,-9.67175006866455,1.4045612812042236
1772698672096621000,6.35362109375,-0.7344521284103394,-9.67653751373291,1.412657380104065
1772698672106621200,6.36362109375,-0.6471993923187256,-9.68336009979248,1.4085677862167358
1772698672116621000,6.37362109375,-0.5723724961280823,-9.691254615783691,1.3864922523498535
1772698672126621200,6.38362109375,-0.5262719392776489,-9.69862174987793,1.3528387546539307
1772698672136621000,6.39362109375,-0.5130624771118164,-9.70389175415039,1.319710373878479
1772698672146621200,6.40362109375,-0.5278452634811401,-9.706376075744629,1.2953852415084839
1772698672156621000,6.41362109375,-0.5623624920845032,-9.706247329711914,1.281752109527588
1772698672166621200,6.42362109375,-0.604810357093811,-9.704038619995117,1.279151439666748
1772698672176621000,6.43362109375,-0.641649067401886,-9.700660705566406,1.2868024110794067
1772698672186621200,6.44362109375,-0.6676777005195618,-9.69650936126709,1.3047215938568115
1772698672196621000,6.45362109375,-0.6922279596328735,-9.69150161743164,1.3289133310317993
1772698672206621200,6.46362109375,-0.7258214354515076,-9.68679141998291,1.345231533050537
1772698672216621000,6.47362109375,-0.7598726749420166,-9.685813903808594,1.3334150314331055
1772698672226621200,6.48362109375,-0.7754557728767395,-9.691841125488281,1.2795648574829102
1772698672236621000,6.49362109375,-0.7652344107627869,-9.705259323120117,1.1801457405090332
1772698672246621200,6.50362109375,-0.735832691192627,-9.723115921020508,1.0440059900283813
1772698672256621000,6.51362109375,-0.69709712266922,-9.741508483886719,0.8873875141143799
1772698672266621200,6.52362109375,-0.6545790433883667,-9.757942199707031,0.7242100834846497
1772698672276621000,6.53362109375,-0.6091261506080627,-9.771756172180176,0.5586837530136108
1772698672286621200,6.54362109375,-0.5564549565315247,-9.783053398132324,0.39064136147499084
1772698672296621000,6.55362109375,-0.4908396899700165,-9.791823387145996,0.22283977270126343
1772698672306621200,6.56362109375,-0.40172889828681946,-9.798211097717285,0.0637545958161354
1772698672316621000,6.57362109375,-0.277582585811615,-9.802435874938965,-0.0746600404381752
1772698672326621200,6.58362109375,-0.12422594428062439,-9.804091453552246,-0.18640069663524628
1772698672336621000,6.59362109375,0.04560600593686104,-9.802850723266602,-0.2690984606742859
1772698672346621200,6.60362109375,0.21291284263134003,-9.799065589904785,-0.32152584195137024
1772698672356621000,6.61362109375,0.35847675800323486,-9.793842315673828,-0.3500404357910156
1772698672366621200,6.62362109375,0.475179523229599,-9.788177490234375,-0.36900532245635986
1772698672376621000,6.63362109375,0.5678260922431946,-9.782712936401367,-0.3827565610408783
1772698672386621200,6.64362109375,0.6475551724433899,-9.777667999267578,-0.3850506544113159
1772698672396621000,6.65362109375,0.7285534143447876,-9.772716522216797,-0.3655290901660919
1772698672406621200,6.66362109375,0.8223341703414917,-9.76693344116211,-0.3180430829524994
1772698672416621000,6.67362109375,0.9307140707969666,-9.759065628051758,-0.254580557346344
1772698672426621200,6.68362109375,1.0450201034545898,-9.748969078063965,-0.1895500123500824
1772698672436621000,6.69362109375,1.1521388292312622,-9.737988471984863,-0.12056691944599152
1772698672446621200,6.70362109375,1.2437403202056885,-9.72739028930664,-0.037010308355093
1772698672456621000,6.71362109375,1.3173999786376953,-9.717596054077148,0.05637027695775032
1772698672466621200,6.72362109375,1.373659372329712,-9.708822250366211,0.14902494847774506
1772698672476621000,6.73362109375,1.4179340600967407,-9.700764656066895,0.23458048701286316
1772698672486621200,6.74362109375,1.459093689918518,-9.69247055053711,0.3121717870235443
1772698672496621000,6.75362109375,1.5030115842819214,-9.683231353759766,0.3826025724411011
1772698672506621200,6.76362109375,1.5527057647705078,-9.6725435256958,0.44876304268836975
1772698672516621000,6.77362109375,1.6089385747909546,-9.660114288330078,0.5137119293212891
1772698672526621200,6.78362109375,1.6673495769500732,-9.646550178527832,0.5782861113548279
1772698672536621000,6.79362109375,1.7210352420806885,-9.633280754089355,0.6390036344528198
1772698672546621200,6.80362109375,1.7656853199005127,-9.621467590332031,0.6929003596305847
1772698672556621000,6.81362109375,1.8024251461029053,-9.611183166503906,0.7394742965698242
1772698672566621200,6.82362109375,1.834479570388794,-9.601884841918945,0.7803083658218384
1772698672576621000,6.83362109375,1.8636983633041382,-9.593284606933594,0.8160305023193359
1772698672586621200,6.84362109375,1.8898537158966064,-9.585655212402344,0.8450151085853577
1772698672596621000,6.85362109375,1.9116328954696655,-9.579460144042969,0.8660159707069397
1772698672606621200,6.86362109375,1.9272775650024414,-9.575244903564453,0.8778781890869141
1772698672616621000,6.87362109375,1.9362807273864746,-9.573270797729492,0.8795937895774841
1772698672626621200,6.88362109375,1.938351035118103,-9.57364559173584,0.870922863483429
1772698672636621000,6.89362109375,1.9331881999969482,-9.57631778717041,0.8528233766555786
1772698672646621200,6.90362109375,1.9211300611495972,-9.581005096435547,0.8270377516746521
1772698672656621000,6.91362109375,1.9034007787704468,-9.587188720703125,0.7957836389541626
1772698672666621200,6.92362109375,1.8807793855667114,-9.59433364868164,0.7627671957015991
1772698672676621000,6.93362109375,1.8544198274612427,-9.601900100708008,0.7314563989639282
1772698672686621200,6.94362109375,1.825796365737915,-9.60932731628418,0.7054721117019653
1772698672696621000,6.95362109375,1.8001694679260254,-9.615440368652344,0.6878243088722229
1772698672706621200,6.96362109375,1.7831661701202393,-9.619169235229492,0.6799160838127136
1772698672716621000,6.97362109375,1.7766613960266113,-9.620454788208008,0.678764820098877
1772698672726621200,6.98362109375,1.7779765129089355,-9.620109558105469,0.6802008152008057
1772698672736621000,6.99362109375,1.7851569652557373,-9.618745803833008,0.6806800961494446
1772698672746621200,7.00362109375,1.7996643781661987,-9.616228103637695,0.6780423521995544
1772698672756621000,7.01362109375,1.8228121995925903,-9.612410545349121,0.67030268907547
1772698672766621200,7.02362109375,1.8539166450500488,-9.607378959655762,0.6569966673851013
1772698672776621000,7.03362109375,1.8876183032989502,-9.60172176361084,0.6435987949371338
1772698672786621200,7.04362109375,1.912941575050354,-9.597179412841797,0.6365343332290649
1772698672796621000,7.05362109375,1.9173120260238647,-9.596397399902344,0.6351794004440308
1772698672806621200,7.06362109375,1.8855299949645996,-9.60289478302002,0.6321158409118652
1772698672816621000,7.07362109375,1.8025131225585938,-9.619296073913574,0.6248775124549866
1772698672826621200,7.08362109375,1.6863042116165161,-9.64010238647461,0.6286415457725525
1772698672836621000,7.09362109375,1.5737061500549316,-9.656822204589844,0.6630362868309021
1772698672846621200,7.10362109375,1.4769432544708252,-9.667787551879883,0.723120927810669
1772698672856621000,7.11362109375,1.3942619562149048,-9.673521041870117,0.8058609962463379
1772698672866621200,7.12362109375,1.3328845500946045,-9.672430038452148,0.9153732061386108
1772698672876621000,7.13362109375,1.2799729108810425,-9.666385650634766,1.0454806089401245
1772698672886621200,7.14362109375,1.2118881940841675,-9.658886909484863,1.186432123184204
1772698672896621000,7.15362109375,1.1358860731124878,-9.649121284484863,1.3321434259414673
1772698672906621200,7.16362109375,1.0562543869018555,-9.636367797851562,1.4815917015075684
1772698672916621000,7.17362109375,0.9743446111679077,-9.622941970825195,1.6186498403549194
1772698672926621200,7.18362109375,0.8879421353340149,-9.613845825195312,1.7192798852920532
1772698672936621000,7.19362109375,0.8003087639808655,-9.61339282989502,1.7642467021942139
1772698672946621200,7.20362109375,0.7142427563667297,-9.621607780456543,1.756385087966919
1772698672956621000,7.21362109375,0.6370250582695007,-9.634034156799316,1.7175493240356445
1772698672966621200,7.22362109375,0.5767683982849121,-9.647826194763184,1.660478949546814
1772698672976621000,7.23362109375,0.5322078466415405,-9.662056922912598,1.5911623239517212
1772698672986621200,7.24362109375,0.4936858117580414,-9.67524242401123,1.5219477415084839
1772698672996621000,7.25362109375,0.45029932260513306,-9.686156272888184,1.4649207592010498
1772698673006621200,7.26362109375,0.4015650451183319,-9.694561004638672,1.4228912591934204
1772698673016621000,7.27362109375,0.3558822572231293,-9.70127010345459,1.3889237642288208
1772698673026621200,7.28362109375,0.3179498016834259,-9.707586288452148,1.353535532951355
1772698673036621000,7.29362109375,0.28609898686408997,-9.71357536315918,1.3171870708465576
1772698673046621200,7.30362109375,0.25369763374328613,-9.718295097351074,1.2887002229690552
1772698673056621000,7.31362109375,0.21867580711841583,-9.720864295959473,1.2756861448287964
1772698673066621200,7.32362109375,0.183322012424469,-9.721848487854004,1.2737557888031006
1772698673076621000,7.33362109375,0.15093958377838135,-9.722384452819824,1.273911952972412
1772698673086621200,7.34362109375,0.12340372055768967,-9.723296165466309,1.2699083089828491
1772698673096621000,7.35362109375,0.10068702697753906,-9.724872589111328,1.259800672531128
1772698673106621200,7.36362109375,0.08276737481355667,-9.726982116699219,1.244730830192566
1772698673116621000,7.37362109375,0.071214459836483,-9.729328155517578,1.2269854545593262
1772698673126621200,7.38362109375,0.06661172956228256,-9.731757164001465,1.2078282833099365
1772698673136621000,7.39362109375,0.06412728875875473,-9.734245300292969,1.1877471208572388
1772698673146621200,7.40362109375,0.05521535500884056,-9.736883163452148,1.1663763523101807
1772698673156621000,7.41362109375,0.033737581223249435,-9.739471435546875,1.1454092264175415
1772698673166621200,7.42362109375,-0.0012459646677598357,-9.741487503051758,1.128637671470642
1772698673176621000,7.43362109375,-0.046634379774332047,-9.742493629455566,1.11893892288208
1772698673186621200,7.44362109375,-0.09908711165189743,-9.74244499206543,1.1159378290176392
1772698673196621000,7.45362109375,-0.15703314542770386,-9.741684913635254,1.1159284114837646
1772698673206621200,7.46362109375,-0.22002075612545013,-9.74063491821289,1.1144533157348633
1772698673216621000,7.47362109375,-0.28780505061149597,-9.73951244354248,1.1087982654571533
1772698673226621200,7.48362109375,-0.3592221736907959,-9.73840618133545,1.097629427909851
1772698673236621000,7.49362109375,-0.43251311779022217,-9.737289428710938,1.0809764862060547
1772698673246621200,7.50362109375,-0.5043379664421082,-9.736310958862305,1.0584288835525513
1772698673256621000,7.51362109375,-0.5699208378791809,-9.735747337341309,1.0299586057662964
1772698673266621200,7.52362109375,-0.6245363354682922,-9.735819816589355,0.9970703125
1772698673276621000,7.53362109375,-0.664762020111084,-9.736525535583496,0.9636129140853882
1772698673286621200,7.54362109375,-0.6908528208732605,-9.737611770629883,0.9338299632072449
1772698673296621000,7.55362109375,-0.7087286114692688,-9.738388061523438,0.9120911359786987
1772698673306621200,7.56362109375,-0.7260662317276001,-9.738166809082031,0.9007286429405212
1772698673316621000,7.57362109375,-0.7500045895576477,-9.73636245727539,0.90062415599823
1772698673326621200,7.58362109375,-0.7788612842559814,-9.733011245727539,0.9122764468193054
1772698673336621000,7.59362109375,-0.7986695170402527,-9.7287015914917,0.9406824111938477
1772698673346621200,7.60362109375,-0.7966733574867249,-9.723697662353516,0.9926789402961731
1772698673356621000,7.61362109375,-0.7749123573303223,-9.717873573303223,1.0643421411514282
1772698673366621200,7.62362109375,-0.7471972703933716,-9.711238861083984,1.1418896913528442
1772698673376621000,7.63362109375,-0.724842369556427,-9.70432186126709,1.2129024267196655
1772698673386621200,7.64362109375,-0.7075550556182861,-9.698159217834473,1.2710081338882446
1772698673396621000,7.65362109375,-0.6882665753364563,-9.693772315979004,1.3143306970596313
1772698673406621200,7.66362109375,-0.6696637272834778,-9.690979957580566,1.344188928604126
1772698673416621000,7.67362109375,-0.6653479337692261,-9.688873291015625,1.3614168167114258
1772698673426621200,7.68362109375,-0.6853830218315125,-9.687010765075684,1.3647148609161377
1772698673436621000,7.69362109375,-0.7200889587402344,-9.687018394470215,1.3466826677322388
1772698673446621200,7.70362109375,-0.7477880120277405,-9.691656112670898,1.2972970008850098
1772698673456621000,7.71362109375,-0.7489609718322754,-9.701887130737305,1.217714548110962
1772698673466621200,7.72362109375,-0.723443329334259,-9.715649604797363,1.1194483041763306
1772698673476621000,7.73362109375,-0.6810575723648071,-9.730605125427246,1.0108898878097534
1772698673486621200,7.74362109375,-0.6231388449668884,-9.74557113647461,0.8977293968200684
1772698673496621000,7.75362109375,-0.5447515845298767,-9.760054588317871,0.784196138381958
1772698673506621200,7.76362109375,-0.44432562589645386,-9.773621559143066,0.670294463634491
1772698673516621000,7.77362109375,-0.3256472945213318,-9.785914421081543,0.5479241013526917
1772698673526621200,7.78362109375,-0.1875714808702469,-9.7964506149292,0.4058821499347687
1772698673536621000,7.79362109375,-0.030130896717309952,-9.803587913513184,0.24318304657936096
1772698673546621200,7.80362109375,0.14334532618522644,-9.80530834197998,0.07591373473405838
1772698673556621000,7.81362109375,0.3311861455440521,-9.800796508789062,-0.07134821265935898
1772698673566621200,7.82362109375,0.5235216617584229,-9.790915489196777,-0.18512628972530365
1772698673576621000,7.83362109375,0.706145703792572,-9.77745246887207,-0.270488440990448
1772698673586621200,7.84362109375,0.8693720698356628,-9.762307167053223,-0.33460479974746704
1772698673596621000,7.85362109375,1.0142968893051147,-9.746822357177734,-0.3755553960800171
1772698673606621200,7.86362109375,1.1459053754806519,-9.732024192810059,-0.380795419216156
1772698673616621000,7.87362109375,1.2625635862350464,-9.7190523147583,-0.34106409549713135
1772698673626621200,7.88362109375,1.3624058961868286,-9.708117485046387,-0.25828245282173157
1772698673636621000,7.89362109375,1.4469152688980103,-9.698264122009277,-0.14315634965896606
1772698673646621200,7.90362109375,1.5127507448196411,-9.689263343811035,-0.011298627592623234
1772698673656621000,7.91362109375,1.5578811168670654,-9.681356430053711,0.12137357145547867
1772698673666621200,7.92362109375,1.5879502296447754,-9.674091339111328,0.24645531177520752
1772698673676621000,7.93362109375,1.6074739694595337,-9.667326927185059,0.35946083068847656
1772698673686621200,7.94362109375,1.6254146099090576,-9.660240173339844,0.45626363158226013
1772698673696621000,7.95362109375,1.6519545316696167,-9.65166187286377,0.5355846285820007
1772698673706621200,7.96362109375,1.695773720741272,-9.640154838562012,0.601775586605072
1772698673716621000,7.97362109375,1.7606892585754395,-9.624372482299805,0.6646879315376282
1772698673726621200,7.98362109375,1.8394324779510498,-9.604713439941406,0.7323608994483948
1772698673736621000,7.99362109375,1.9155765771865845,-9.583911895751953,0.8059643507003784
1772698673746621200,8.00362109375,1.9723293781280518,-9.565757751464844,0.8812425136566162
1772698673756621000,8.01362109375,2.001634359359741,-9.553092002868652,0.9498907327651978
1772698673766621200,8.02362109375,2.005807399749756,-9.5466890335083,1.0039182901382446
1772698673776621000,8.03362109375,1.9958070516586304,-9.544707298278809,1.0419721603393555
1772698673786621200,8.04362109375,1.984192967414856,-9.544271469116211,1.0678205490112305
1772698673796621000,8.05362109375,1.9762721061706543,-9.544039726257324,1.0844498872756958
1772698673806621200,8.06362109375,1.9717583656311035,-9.544282913208008,1.0905135869979858
1772698673816621000,8.07362109375,1.9684278964996338,-9.545465469360352,1.0861754417419434
1772698673826621200,8.08362109375,1.964036226272583,-9.547886848449707,1.0727581977844238
1772698673836621000,8.09362109375,1.957148551940918,-9.551855087280273,1.0497770309448242
1772698673846621200,8.10362109375,1.9477840662002563,-9.557441711425781,1.0157878398895264
1772698673856621000,8.11362109375,1.9364680051803589,-9.564264297485352,0.972272515296936
1772698673866621200,8.12362109375,1.9230461120605469,-9.571900367736816,0.9224979877471924
1772698673876621000,8.13362109375,1.9067790508270264,-9.580012321472168,0.8706085085868835
1772698673886621200,8.14362109375,1.8856122493743896,-9.588605880737305,0.8206600546836853
1772698673896621000,8.15362109375,1.856934666633606,-9.597895622253418,0.7762570977210999
1772698673906621200,8.16362109375,1.8201498985290527,-9.607696533203125,0.7413660883903503
1772698673916621000,8.17362109375,1.7801388502120972,-9.616711616516113,0.721346378326416
1772698673926621200,8.18362109375,1.74442458152771,-9.623350143432617,0.7200695872306824
1772698673936621000,8.19362109375,1.7198290824890137,-9.6265287399292,0.7365514039993286
1772698673946621200,8.20362109375,1.7103474140167236,-9.62597942352295,0.7652729749679565
1772698673956621000,8.21362109375,1.7198911905288696,-9.621618270874023,0.7980217933654785
1772698673966621200,8.22362109375,1.7513142824172974,-9.613616943359375,0.8256300091743469
1772698673976621000,8.23362109375,1.8019367456436157,-9.602876663208008,0.84153813123703
1772698673986621200,8.24362109375,1.8622299432754517,-9.59111499786377,0.8443913459777832
1772698673996621000,8.25362109375,1.917273759841919,-9.58039665222168,0.8428782224655151
1772698674006621200,8.26362109375,1.9492686986923218,-9.573552131652832,0.8472479581832886
1772698674016621000,8.27362109375,1.9456188678741455,-9.573978424072266,0.8508196473121643
1772698674026621200,8.28362109375,1.8994849920272827,-9.58380126953125,0.8444585204124451
1772698674036621000,8.29362109375,1.8323551416397095,-9.597631454467773,0.8356713056564331
1772698674046621200,8.30362109375,1.7786568403244019,-9.60724925994873,0.8411528468132019
1772698674056621000,8.31362109375,1.7408976554870605,-9.611859321594238,0.8670741319656372
1772698674066621200,8.32362109375,1.691278338432312,-9.615684509277344,0.9211717844009399
1772698674076621000,8.33362109375,1.6184065341949463,-9.618670463562012,1.016028881072998
1772698674086621200,8.34362109375,1.5431994199752808,-9.616150856018066,1.1482787132263184
1772698674096621000,8.35362109375,1.4689265489578247,-9.60937213897705,1.293292760848999
1772698674106621200,8.36362109375,1.38380765914917,-9.60192584991455,1.434740662574768
1772698674116621000,8.37362109375,1.2963520288467407,-9.592599868774414,1.572220802307129
1772698674126621200,8.38362109375,1.204475998878479,-9.581594467163086,1.706656575202942
1772698674136621000,8.39362109375,1.0925724506378174,-9.572933197021484,1.8263686895370483
1772698674146621200,8.40362109375,0.9612888097763062,-9.569944381713867,1.9137566089630127
1772698674156621000,8.41362109375,0.8170480728149414,-9.573763847351074,1.9610834121704102
1772698674166621200,8.42362109375,0.6821956038475037,-9.580780029296875,1.9782938957214355
1772698674176621000,8.43362109375,0.5774675011634827,-9.588650703430176,1.973502516746521
1772698674186621200,8.44362109375,0.5093193650245667,-9.597175598144531,1.9506926536560059
1772698674196621000,8.45362109375,0.4682764708995819,-9.605866432189941,1.917920708656311
1772698674206621200,8.46362109375,0.43456313014030457,-9.615318298339844,1.8780803680419922
1772698674216621000,8.47362109375,0.3997540771961212,-9.627073287963867,1.8248392343521118
1772698674226621200,8.48362109375,0.3621182143688202,-9.640542030334473,1.760453701019287
1772698674236621000,8.49362109375,0.3243333697319031,-9.652883529663086,1.6991283893585205
1772698674246621200,8.50362109375,0.28914761543273926,-9.662278175354004,1.6514129638671875
1772698674256621000,8.51362109375,0.25495076179504395,-9.668632507324219,1.6195486783981323
1772698674266621200,8.52362109375,0.21714003384113312,-9.672835350036621,1.5998471975326538
1772698674276621000,8.53362109375,0.1742722988128662,-9.676432609558105,1.5832493305206299
1772698674286621200,8.54362109375,0.1280795931816101,-9.680273056030273,1.564060926437378
1772698674296621000,8.55362109375,0.08367852866649628,-9.68444538116455,1.5410735607147217
1772698674306621200,8.56362109375,0.045463625341653824,-9.689258575439453,1.5121493339538574
1772698674316621000,8.57362109375,0.01498283352702856,-9.69514274597168,1.4745765924453735
1772698674326621200,8.58362109375,-0.006663126405328512,-9.701899528503418,1.429505705833435
1772698674336621000,8.59362109375,-0.02023826539516449,-9.708984375,1.3804377317428589
1772698674346621200,8.60362109375,-0.03048691526055336,-9.715567588806152,1.333114743232727
1772698674356621000,8.61362109375,-0.04309195280075073,-9.720810890197754,1.2939765453338623
1772698674366621200,8.62362109375,-0.061409126967191696,-9.724217414855957,1.267364501953125
1772698674376621000,8.63362109375,-0.08581502735614777,-9.725521087646484,1.2558913230895996
1772698674386621200,8.64362109375,-0.11438659578561783,-9.7247314453125,1.2597218751907349
1772698674396621000,8.65362109375,-0.1454267054796219,-9.722219467163086,1.2758078575134277
1772698674406621200,8.66362109375,-0.17976561188697815,-9.718782424926758,1.2974424362182617
1772698674416621000,8.67362109375,-0.21857233345508575,-9.715579986572266,1.3153388500213623
1772698674426621200,8.68362109375,-0.2599332928657532,-9.713736534118652,1.3214130401611328
1772698674436621000,8.69362109375,-0.3010408282279968,-9.713869094848633,1.3116850852966309
1772698674446621200,8.70362109375,-0.338727742433548,-9.71606159210205,1.2859976291656494
1772698674456621000,8.71362109375,-0.3689430356025696,-9.71998119354248,1.2474876642227173
1772698674466621200,8.72362109375,-0.3878343105316162,-9.724935531616211,1.2023276090621948
1772698674476621000,8.73362109375,-0.39273422956466675,-9.730151176452637,1.1577118635177612
1772698674486621200,8.74362109375,-0.38512319326400757,-9.735005378723145,1.1188071966171265
1772698674496621000,8.75362109375,-0.36884450912475586,-9.738933563232422,1.0897341966629028
1772698674506621200,8.76362109375,-0.3493993580341339,-9.741523742675781,1.072858214378357
1772698674516621000,8.77362109375,-0.33330973982810974,-9.742597579956055,1.0682141780853271
1772698674526621200,8.78362109375,-0.3251236081123352,-9.742144584655762,1.074847936630249
1772698674536621000,8.79362109375,-0.3236141800880432,-9.740219116210938,1.0926096439361572
1772698674546621200,8.80362109375,-0.32581743597984314,-9.736695289611816,1.122947335243225
1772698674556621000,8.81362109375,-0.3314727246761322,-9.7315673828125,1.1649553775787354
1772698674566621200,8.82362109375,-0.3417394757270813,-9.725159645080566,1.21443772315979
1772698674576621000,8.83362109375,-0.3548717498779297,-9.718310356140137,1.2644691467285156
1772698674586621200,8.84362109375,-0.3642348349094391,-9.712268829345703,1.3074924945831299
1772698674596621000,8.85362109375,-0.3651536703109741,-9.708224296569824,1.3369464874267578
1772698674606621200,8.86362109375,-0.3616048991680145,-9.706818580627441,1.348073124885559
1772698674616621000,8.87362109375,-0.36802926659584045,-9.707624435424805,1.3405096530914307
1772698674626621200,8.88362109375,-0.39626386761665344,-9.709793090820312,1.316537857055664
1772698674636621000,8.89362109375,-0.442184180021286,-9.712900161743164,1.2784452438354492
1772698674646621200,8.90362109375,-0.486391544342041,-9.717303276062012,1.2279386520385742
1772698674656621000,8.91362109375,-0.5104206204414368,-9.723494529724121,1.1676932573318481
1772698674666621200,8.92362109375,-0.5116255283355713,-9.731172561645508,1.1013249158859253
1772698674676621000,8.93362109375,-0.4944417178630829,-9.740248680114746,1.0263768434524536
1772698674686621200,8.94362109375,-0.460557222366333,-9.75106143951416,0.935456395149231
1772698674696621000,8.95362109375,-0.40712904930114746,-9.76354694366455,0.8232739567756653
1772698674706621200,8.96362109375,-0.3298305869102478,-9.776873588562012,0.6887304782867432
1772698674716621000,8.97362109375,-0.22669751942157745,-9.78943920135498,0.5346879363059998
1772698674726621200,8.98362109375,-0.10796639323234558,-9.799175262451172,0.3672710657119751
1772698674736621000,8.99362109375,0.015186332166194916,-9.804702758789062,0.1948319524526596
1772698674746621200,9.00362109375,0.14298312366008759,-9.805571556091309,0.026846349239349365
1772698674756621000,9.01362109375,0.2816406488418579,-9.801796913146973,-0.1258714348077774
1772698674766621200,9.02362109375,0.4337683916091919,-9.793853759765625,-0.2503287196159363
1772698674776621000,9.03362109375,0.6028066277503967,-9.782246589660645,-0.33863478899002075
1772698674786621200,9.04362109375,0.7762141227722168,-9.767904281616211,-0.3948816955089569
1772698674796621000,9.05362109375,0.9346728920936584,-9.752614974975586,-0.4281027019023895
1772698674806621200,9.06362109375,1.0739524364471436,-9.737641334533691,-0.44200238585472107
1772698674816621000,9.07362109375,1.1957544088363647,-9.723904609680176,-0.4315672516822815
1772698674826621200,9.08362109375,1.3028628826141357,-9.711941719055176,-0.38873761892318726
1772698674836621000,9.09362109375,1.3966412544250488,-9.701567649841309,-0.3152240216732025
1772698674846621200,9.10362109375,1.4791218042373657,-9.692073822021484,-0.21517404913902283
1772698674856621000,9.11362109375,1.5469337701797485,-9.68337631225586,-0.09801282733678818
1772698674866621200,9.12362109375,1.5959193706512451,-9.675884246826172,0.026202457025647163
1772698674876621000,9.13362109375,1.6271206140518188,-9.669576644897461,0.1488007754087448
1772698674886621200,9.14362109375,1.6482568979263306,-9.663511276245117,0.26492562890052795
1772698674896621000,9.15362109375,1.6673756837844849,-9.656719207763672,0.37150999903678894
1772698674906621200,9.16362109375,1.6928731203079224,-9.648191452026367,0.4657939374446869
1772698674916621000,9.17362109375,1.7320401668548584,-9.636957168579102,0.5472490191459656
1772698674926621200,9.18362109375,1.7853312492370605,-9.622607231140137,0.6232344508171082
1772698674936621000,9.19362109375,1.8468317985534668,-9.605522155761719,0.7025169730186462
1772698674946621200,9.20362109375,1.9031999111175537,-9.587796211242676,0.7889103293418884
1772698674956621000,9.21362109375,1.94339919090271,-9.571976661682129,0.8779831528663635
1772698674966621200,9.22362109375,1.9632196426391602,-9.56004524230957,0.9600509405136108
1772698674976621000,9.23362109375,1.9673234224319458,-9.551993370056152,1.0292978286743164
1772698674986621200,9.24362109375,1.9658706188201904,-9.545833587646484,1.087571144104004
1772698674996621000,9.25362109375,1.9659721851348877,-9.539872169494629,1.1384938955307007
1772698675006621200,9.26362109375,1.9685338735580444,-9.534002304077148,1.1823921203613281
1772698675016621000,9.27362109375,1.9704538583755493,-9.529128074645996,1.217958688735962
1772698675026621200,9.28362109375,1.9689366817474365,-9.525835990905762,1.2458393573760986
1772698675036621000,9.29362109375,1.9622892141342163,-9.52467155456543,1.2650948762893677
1772698675046621200,9.30362109375,1.951022982597351,-9.525983810424805,1.2726129293441772
1772698675056621000,9.31362109375,1.9362223148345947,-9.529827117919922,1.266430139541626
1772698675066621200,9.32362109375,1.9187268018722534,-9.535877227783203,1.247361660003662
1772698675076621000,9.33362109375,1.8989201784133911,-9.543590545654297,1.21834397315979
1772698675086621200,9.34362109375,1.8761316537857056,-9.552538871765137,1.1830240488052368
1772698675096621000,9.35362109375,1.8477654457092285,-9.562716484069824,1.1448233127593994
1772698675106621200,9.36362109375,1.8121237754821777,-9.574044227600098,1.1064677238464355
1772698675116621000,9.37362109375,1.7684078216552734,-9.586124420166016,1.07207190990448
1772698675126621200,9.38362109375,1.7203811407089233,-9.59754467010498,1.0477759838104248
1772698675136621000,9.39362109375,1.6764469146728516,-9.606443405151367,1.037374496459961
1772698675146621200,9.40362109375,1.6455527544021606,-9.611063957214355,1.044022560119629
1772698675156621000,9.41362109375,1.6325721740722656,-9.610621452331543,1.0682014226913452
1772698675166621200,9.42362109375,1.635208249092102,-9.606307029724121,1.102432370185852
1772698675176621000,9.43362109375,1.6498106718063354,-9.600090980529785,1.1343562602996826
1772698675186621200,9.44362109375,1.672381043434143,-9.593663215637207,1.155489444732666
1772698675196621000,9.45362109375,1.6988433599472046,-9.588292121887207,1.1614534854888916
1772698675206621200,9.46362109375,1.7253475189208984,-9.58454418182373,1.153289794921875
1772698675216621000,9.47362109375,1.7468693256378174,-9.582380294799805,1.138784646987915
1772698675226621200,9.48362109375,1.7499456405639648,-9.58346939086914,1.124812364578247
1772698675236621000,9.49362109375,1.7184983491897583,-9.59000015258789,1.1176064014434814
1772698675246621200,9.50362109375,1.6490999460220337,-9.601269721984863,1.1253842115402222
1772698675256621000,9.51362109375,1.5662604570388794,-9.611372947692871,1.1570287942886353
1772698675266621200,9.52362109375,1.5013611316680908,-9.615184783935547,1.2101749181747437
1772698675276621000,9.53362109375,1.4515738487243652,-9.613450050354004,1.282529592514038
1772698675286621200,9.54362109375,1.4003722667694092,-9.608358383178711,1.3743349313735962
1772698675296621000,9.55362109375,1.3374707698822021,-9.600560188293457,1.4868797063827515
1772698675306621200,9.56362109375,1.260878324508667,-9.589150428771973,1.6213501691818237
1772698675316621000,9.57362109375,1.17116117477417,-9.574235916137695,1.769968032836914
1772698675326621200,9.58362109375,1.0706149339675903,-9.55759334564209,1.9174392223358154
1772698675336621000,9.59362109375,0.9642612338066101,-9.540642738342285,2.05346417427063
1772698675346621200,9.60362109375,0.8451982736587524,-9.526899337768555,2.166614532470703
1772698675356621000,9.61362109375,0.7145296335220337,-9.521060943603516,2.2381327152252197
1772698675366621200,9.62362109375,0.5788779258728027,-9.525489807128906,2.2583961486816406
1772698675376621000,9.63362109375,0.4540170133113861,-9.537945747375488,2.2342443466186523
1772698675386621200,9.64362109375,0.3520207107067108,-9.553967475891113,2.183614492416382
1772698675396621000,9.65362109375,0.2707976996898651,-9.570976257324219,2.1197798252105713
1772698675406621200,9.66362109375,0.20081830024719238,-9.587783813476562,2.050482749938965
1772698675416621000,9.67362109375,0.13492003083229065,-9.603407859802246,1.9815996885299683
1772698675426621200,9.68362109375,0.07677934318780899,-9.617125511169434,1.9171327352523804
1772698675436621000,9.69362109375,0.03303755819797516,-9.629334449768066,1.8561317920684814
1772698675446621200,9.70362109375,0.003250892274081707,-9.640923500061035,1.7952630519866943
1772698675456621000,9.71362109375,-0.019793998450040817,-9.65176010131836,1.735950231552124
1772698675466621200,9.72362109375,-0.0412551611661911,-9.660627365112305,1.6855159997940063
1772698675476621000,9.73362109375,-0.06485503911972046,-9.667534828186035,1.6446757316589355
1772698675486621200,9.74362109375,-0.09143871068954468,-9.67340087890625,1.6085165739059448
1772698675496621000,9.75362109375,-0.11684238165616989,-9.678926467895508,1.5732516050338745
1772698675506621200,9.76362109375,-0.1349138766527176,-9.684402465820312,1.5377041101455688
1772698675516621000,9.77362109375,-0.14071187376976013,-9.689962387084961,1.501741647720337
1772698675526621200,9.78362109375,-0.1358993500471115,-9.695640563964844,1.4650832414627075
1772698675536621000,9.79362109375,-0.12337011843919754,-9.701545715332031,1.4265961647033691
1772698675546621200,9.80362109375,-0.10811780393123627,-9.707672119140625,1.38557767868042
1772698675556621000,9.81362109375,-0.09507309645414352,-9.713543891906738,1.3447761535644531
1772698675566621200,9.82362109375,-0.09009260684251785,-9.718711853027344,1.3072516918182373
1772698675576621000,9.83362109375,-0.09616851806640625,-9.722843170166016,1.2757222652435303
1772698675586621200,9.84362109375,-0.11157111078500748,-9.725528717041016,1.253805160522461
1772698675596621000,9.85362109375,-0.13283129036426544,-9.726476669311523,1.2443406581878662
1772698675606621200,9.86362109375,-0.15873466432094574,-9.725662231445312,1.2476682662963867
1772698675616621000,9.87362109375,-0.1911320835351944,-9.7234468460083,1.2603310346603394
1772698675626621200,9.88362109375,-0.23192647099494934,-9.720410346984863,1.2767937183380127
1772698675636621000,9.89362109375,-0.27965834736824036,-9.717130661010742,1.2921103239059448
1772698675646621200,9.90362109375,-0.32935479283332825,-9.714160919189453,1.3026808500289917
1772698675656621000,9.91362109375,-0.3746390640735626,-9.711836814880371,1.3077677488327026
1772698675666621200,9.92362109375,-0.4069034159183502,-9.710354804992676,1.30913507938385
1772698675676621000,9.93362109375,-0.41738730669021606,-9.70964527130127,1.3110893964767456
1772698675686621200,9.94362109375,-0.3995380401611328,-9.709416389465332,1.3183305263519287
1772698675696621000,9.95362109375,-0.35195139050483704,-9.709545135498047,1.3308817148208618
1772698675706621200,9.96362109375,-0.2841219902038574,-9.710508346557617,1.3400321006774902
1772698675716621000,9.97362109375,-0.21698136627674103,-9.713276863098145,1.3324987888336182
1772698675726621200,9.98362109375,-0.17497679591178894,-9.71849250793457,1.3002597093582153
1772698675736621000,9.99362109375,-0.16982048749923706,-9.725180625915527,1.2499665021896362
1772698675746621200,10.00362109375,-0.1920347809791565,-9.730710983276367,1.2028100490570068
1772698675756621000,10.01362109375,-0.23147839307785034,-9.733375549316406,1.1739776134490967
1772698675766621200,10.02362109375,-0.2825157940387726,-9.73380184173584,1.159175157546997
1772698675776621000,10.03362109375,-0.3311053514480591,-9.732834815979004,1.1544212102890015
1772698675786621200,10.04362109375,-0.35682353377342224,-9.730745315551758,1.164334774017334
1772698675796621000,10.05362109375,-0.35120123624801636,-9.727864265441895,1.1898255348205566
1772698675806621200,10.06362109375,-0.3231689929962158,-9.724532127380371,1.2245045900344849
1772698675816621000,10.07362109375,-0.29910749197006226,-9.721189498901367,1.2567408084869385
1772698675826621200,10.08362109375,-0.307017982006073,-9.718742370605469,1.273642897605896
1772698675836621000,10.09362109375,-0.3525550961494446,-9.718146324157715,1.2663795948028564
1772698675846621200,10.10362109375,-0.4136413037776947,-9.720829010009766,1.226689338684082
1772698675856621000,10.11362109375,-0.46352332830429077,-9.728141784667969,1.148391842842102
1772698675866621200,10.12362109375,-0.4845176041126251,-9.73965072631836,1.036746859550476
1772698675876621000,10.13362109375,-0.47297441959381104,-9.753584861755371,0.9023699164390564
1772698675886621200,10.14362109375,-0.43195319175720215,-9.767812728881836,0.7573897838592529
1772698675896621000,10.15362109375,-0.3664618134498596,-9.780533790588379,0.6142059564590454
1772698675906621200,10.16362109375,-0.28118279576301575,-9.790653228759766,0.48419031500816345
1772698675916621000,10.17362109375,-0.18007689714431763,-9.798123359680176,0.36707133054733276
1772698675926621200,10.18362109375,-0.06805577874183655,-9.803300857543945,0.24707481265068054
1772698675936621000,10.19362109375,0.05677982047200203,-9.805889129638672,0.10823187232017517
1772698675946621200,10.20362109375,0.20094968378543854,-9.804457664489746,-0.05121319368481636
1772698675956621000,10.21362109375,0.3676861822605133,-9.797422409057617,-0.21383392810821533
1772698675966621200,10.22362109375,0.5474896430969238,-9.785004615783691,-0.35259783267974854
1772698675976621000,10.23362109375,0.7246960997581482,-9.769329071044922,-0.4532397985458374
1772698675986621200,10.24362109375,0.8885790109634399,-9.752774238586426,-0.5140267014503479
1772698675996621000,10.25362109375,1.0364092588424683,-9.73713493347168,-0.5333336591720581
1772698676006621200,10.26362109375,1.1689651012420654,-9.72361946105957,-0.505113422870636
1772698676016621000,10.27362109375,1.2859731912612915,-9.712667465209961,-0.4251389503479004
1772698676026621200,10.28362109375,1.3894572257995605,-9.703057289123535,-0.30079638957977295
1772698676036621000,10.29362109375,1.4787417650222778,-9.693327903747559,-0.15199974179267883
1772698676046621200,10.30362109375,1.550870418548584,-9.683241844177246,-0.0025561589282006025
1772698676056621000,10.31362109375,1.6084656715393066,-9.672935485839844,0.1324438750743866
1772698676066621200,10.32362109375,1.658658504486084,-9.662132263183594,0.24990981817245483
1772698676076621000,10.33362109375,1.7060514688491821,-9.650843620300293,0.34785008430480957
1772698676086621200,10.34362109375,1.7540322542190552,-9.639175415039062,0.424331396818161
1772698676096621000,10.35362109375,1.804063081741333,-9.627142906188965,0.483598917722702
1772698676106621200,10.36362109375,1.8613134622573853,-9.613348960876465,0.5379801392555237
1772698676116621000,10.37362109375,1.9276760816574097,-9.596506118774414,0.6012687087059021
1772698676126621200,10.38362109375,1.9971028566360474,-9.576944351196289,0.6812430024147034
1772698676136621000,10.39362109375,2.0585830211639404,-9.556943893432617,0.7729607820510864
1772698676146621200,10.40362109375,2.104339838027954,-9.539457321166992,0.8607571125030518
1772698676156621000,10.41362109375,2.135150909423828,-9.526131629943848,0.9296907186508179
1772698676166621200,10.42362109375,2.1593778133392334,-9.516118049621582,0.9751773476600647
1772698676176621000,10.43362109375,2.18581485748291,-9.50735855102539,1.001366376876831
1772698676186621200,10.44362109375,2.2179434299468994,-9.498226165771484,1.0172595977783203
1772698676196621000,10.45362109375,2.2514209747314453,-9.48900032043457,1.029742956161499
1772698676206621200,10.46362109375,2.278397798538208,-9.481322288513184,1.0410645008087158
1772698676216621000,10.47362109375,2.2907960414886475,-9.476941108703613,1.0536704063415527
1772698676226621200,10.48362109375,2.2835941314697266,-9.477010726928711,1.0685702562332153
1772698676236621000,10.49362109375,2.2577505111694336,-9.481310844421387,1.0852184295654297
1772698676246621200,10.50362109375,2.2190871238708496,-9.488654136657715,1.1006731986999512
1772698676256621000,10.51362109375,2.175185203552246,-9.497565269470215,1.111403226852417
1772698676266621200,10.52362109375,2.1323351860046387,-9.506791114807129,1.1155548095703125
1772698676276621000,10.53362109375,2.093647003173828,-9.515724182128906,1.1126629114151
1772698676286621200,10.54362109375,2.0586202144622803,-9.524503707885742,1.1028648614883423
1772698676296621000,10.55362109375,2.0238654613494873,-9.533705711364746,1.0875658988952637
1772698676306621200,10.56362109375,1.985998272895813,-9.543811798095703,1.068574070930481
1772698676316621000,10.57362109375,1.9444172382354736,-9.554573059082031,1.048696756362915
1772698676326621200,10.58362109375,1.903037428855896,-9.564859390258789,1.0306766033172607
1772698676336621000,10.59362109375,1.8679335117340088,-9.573294639587402,1.016485571861267
1772698676346621200,10.60362109375,1.841557502746582,-9.579222679138184,1.0087263584136963
1772698676356621000,10.61362109375,1.822759985923767,-9.582682609558105,1.0100104808807373
1772698676366621200,10.62362109375,1.812153697013855,-9.583463668823242,1.021613597869873
1772698676376621000,10.63362109375,1.8138294219970703,-9.581399917602539,1.0378761291503906
1772698676386621200,10.64362109375,1.8260877132415771,-9.578115463256836,1.0466585159301758
1772698676396621000,10.65362109375,1.8417255878448486,-9.575765609741211,1.0407389402389526
1772698676406621200,10.66362109375,1.8546853065490723,-9.574676513671875,1.0276658535003662
1772698676416621000,10.67362109375,1.8551644086837769,-9.575971603393555,1.0146515369415283
1772698676426621200,10.68362109375,1.8376847505569458,-9.58047103881836,1.003933072090149
1772698676436621000,10.69362109375,1.7982605695724487,-9.588284492492676,1.0007233619689941
1772698676446621200,10.70362109375,1.7383376359939575,-9.598176002502441,1.0117213726043701
1772698676456621000,10.71362109375,1.6735224723815918,-9.606389045715332,1.0425910949707031
1772698676466621200,10.72362109375,1.6119916439056396,-9.611115455627441,1.0946779251098633
1772698676476621000,10.73362109375,1.5481563806533813,-9.612622261047363,1.1709381341934204
1772698676486621200,10.74362109375,1.4904096126556396,-9.60942268371582,1.268091082572937
1772698676496621000,10.75362109375,1.4255255460739136,-9.603774070739746,1.3805066347122192
1772698676506621200,10.76362109375,1.333211064338684,-9.597216606140137,1.5120670795440674
1772698676516621000,10.77362109375,1.232959508895874,-9.586067199707031,1.6605790853500366
1772698676526621200,10.78362109375,1.131659746170044,-9.571670532226562,1.8091007471084595
1772698676536621000,10.79362109375,1.0216928720474243,-9.556323051452637,1.9501824378967285
1772698676546621200,10.80362109375,0.8972652554512024,-9.543022155761719,2.0726888179779053
1772698676556621000,10.81362109375,0.7615355253219604,-9.535612106323242,2.1592934131622314
1772698676566621200,10.82362109375,0.6207533478736877,-9.538514137268066,2.1913018226623535
1772698676576621000,10.83362109375,0.4910084903240204,-9.550199508666992,2.1732442378997803
1772698676586621200,10.84362109375,0.3871988356113434,-9.565264701843262,2.127480983734131
1772698676596621000,10.85362109375,0.3098544180393219,-9.580337524414062,2.0716001987457275
1772698676606621200,10.86362109375,0.2516060769557953,-9.595332145690918,2.0091497898101807
1772698676616621000,10.87362109375,0.20290860533714294,-9.610454559326172,1.9412357807159424
1772698676626621200,10.88362109375,0.15955069661140442,-9.62503719329834,1.8717873096466064
1772698676636621000,10.89362109375,0.11980362981557846,-9.637192726135254,1.811231017112732
1772698676646621200,10.90362109375,0.0813884437084198,-9.645265579223633,1.7699154615402222
1772698676656621000,10.91362109375,0.04069977253675461,-9.650506019592285,1.7425415515899658
1772698676666621200,10.92362109375,-0.004283002112060785,-9.653616905212402,1.7257009744644165
1772698676676621000,10.93362109375,-0.0521475151181221,-9.654324531555176,1.7209523916244507
1772698676686621200,10.94362109375,-0.09858695417642593,-9.653526306152344,1.7233948707580566
1772698676696621000,10.95362109375,-0.1394791603088379,-9.65282917022705,1.72447669506073
1772698676706621200,10.96362109375,-0.17301413416862488,-9.653387069702148,1.7183035612106323
1772698676716621000,10.97362109375,-0.1988563984632492,-9.655476570129395,1.7037028074264526
1772698676726621200,10.98362109375,-0.2175021469593048,-9.658769607543945,1.6826257705688477
1772698676736621000,10.99362109375,-0.22957611083984375,-9.66306209564209,1.6561799049377441
1772698676746621200,11.00362109375,-0.23511022329330444,-9.66789722442627,1.6269205808639526
1772698676756621000,11.01362109375,-0.23735953867435455,-9.672760009765625,1.5974189043045044
1772698676766621200,11.02362109375,-0.24134622514247894,-9.677099227905273,1.5703084468841553
1772698676776621000,11.03362109375,-0.2510775029659271,-9.680445671081543,1.5480046272277832
1772698676786621200,11.04362109375,-0.2677733600139618,-9.682507514953613,1.5322325229644775
1772698676796621000,11.05362109375,-0.2876904606819153,-9.683309555053711,1.5235296487808228
1772698676806621200,11.06362109375,-0.30750665068626404,-9.683377265930176,1.5192204713821411
1772698676816621000,11.07362109375,-0.32839635014533997,-9.683456420898438,1.5143386125564575
1772698676826621200,11.08362109375,-0.3537816107273102,-9.684182167053223,1.5039451122283936
1772698676836621000,11.09362109375,-0.38750600814819336,-9.685715675354004,1.4856410026550293
1772698676846621200,11.10362109375,-0.43150439858436584,-9.687664985656738,1.4605923891067505
1772698676856621000,11.11362109375,-0.48327508568763733,-9.689183235168457,1.4340773820877075
1772698676866621200,11.12362109375,-0.5372860431671143,-9.689385414123535,1.4133293628692627
1772698676876621000,11.13362109375,-0.5861352682113647,-9.687764167785645,1.4050099849700928
1772698676886621200,11.14362109375,-0.6206097602844238,-9.684393882751465,1.4134159088134766
1772698676896621000,11.15362109375,-0.6306537389755249,-9.67983341217041,1.4399646520614624
1772698676906621200,11.16362109375,-0.6090049147605896,-9.674825668334961,1.4823092222213745
1772698676916621000,11.17362109375,-0.5536171793937683,-9.67029094696045,1.5327577590942383
1772698676926621200,11.18362109375,-0.4713636040687561,-9.667322158813477,1.578323245048523
1772698676936621000,11.19362109375,-0.379876971244812,-9.66712474822998,1.603990912437439
1772698676946621200,11.20362109375,-0.3011828064918518,-9.670720100402832,1.5990099906921387
1772698676956621000,11.21362109375,-0.250041127204895,-9.678133964538574,1.5625603199005127
1772698676966621200,11.22362109375,-0.2284807562828064,-9.687685012817383,1.5056363344192505
1772698676976621000,11.23362109375,-0.23080343008041382,-9.69638729095459,1.4481682777404785
1772698676986621200,11.24362109375,-0.2507854700088501,-9.701920509338379,1.4072020053863525
1772698676996621000,11.25362109375,-0.2782566249370575,-9.704354286193848,1.3850793838500977
1772698677006621200,11.26362109375,-0.3019389808177948,-9.704483032226562,1.3792121410369873
1772698677016621000,11.27362109375,-0.3162083029747009,-9.703211784362793,1.3849480152130127
1772698677026621200,11.28362109375,-0.3232678472995758,-9.701738357543945,1.3936163187026978
1772698677036621000,11.29362109375,-0.32685357332229614,-9.701653480529785,1.3933706283569336
1772698677046621200,11.30362109375,-0.32822248339653015,-9.704346656799316,1.374163269996643
1772698677056621000,11.31362109375,-0.327858030796051,-9.710269927978516,1.3317509889602661
1772698677066621200,11.32362109375,-0.3243917226791382,-9.718927383422852,1.2679119110107422
1772698677076621000,11.33362109375,-0.3187308609485626,-9.729140281677246,1.1885368824005127
1772698677086621200,11.34362109375,-0.3121970295906067,-9.740036010742188,1.0975536108016968
1772698677096621000,11.35362109375,-0.30059289932250977,-9.751312255859375,0.9959696531295776
1772698677106621200,11.36362109375,-0.2772662937641144,-9.76283073425293,0.8835371732711792
1772698677116621000,11.37362109375,-0.23753847181797028,-9.774219512939453,0.7606549859046936
1772698677126621200,11.38362109375,-0.18236176669597626,-9.784852981567383,0.6275134682655334
1772698677136621000,11.39362109375,-0.11667214334011078,-9.794084548950195,0.4823938310146332
1772698677146621200,11.40362109375,-0.04414892569184303,-9.801239013671875,0.32270118594169617
1772698677156621000,11.41362109375,0.03490195795893669,-9.805419921875,0.1513577401638031
1772698677166621200,11.42362109375,0.12929965555667877,-9.805773735046387,-0.021648816764354706
1772698677176621000,11.43362109375,0.2486821413040161,-9.801812171936035,-0.18168051540851593
1772698677186621200,11.44362109375,0.3918878436088562,-9.793865203857422,-0.3114704191684723
1772698677196621000,11.45362109375,0.5477520227432251,-9.78320598602295,-0.39905232191085815
1772698677206621200,11.46362109375,0.7001243233680725,-9.771546363830566,-0.4439680874347687
1772698677216621000,11.47362109375,0.8358292579650879,-9.760275840759277,-0.4569154381752014
1772698677226621200,11.48362109375,0.9544558525085449,-9.749711036682129,-0.450032114982605
1772698677236621000,11.49362109375,1.0630943775177002,-9.739591598510742,-0.42493557929992676
1772698677246621200,11.50362109375,1.1647542715072632,-9.730005264282227,-0.3751407861709595
1772698677256621000,11.51362109375,1.26030695438385,-9.720745086669922,-0.29854047298431396
1772698677266621200,11.52362109375,1.3494304418563843,-9.71131420135498,-0.19949010014533997
1772698677276621000,11.53362109375,1.427347183227539,-9.701838493347168,-0.08602853119373322
1772698677286621200,11.54362109375,1.4894664287567139,-9.692819595336914,0.03370962664484978
1772698677296621000,11.55362109375,1.5366004705429077,-9.684271812438965,0.15529926121234894
1772698677306621200,11.56362109375,1.5728044509887695,-9.67579460144043,0.2750529646873474
1772698677316621000,11.57362109375,1.5992435216903687,-9.667563438415527,0.38861680030822754
1772698677326621200,11.58362109375,1.6206356287002563,-9.65907096862793,0.49626073241233826
1772698677336621000,11.59362109375,1.644983172416687,-9.64901065826416,0.6008527278900146
1772698677346621200,11.60362109375,1.6772807836532593,-9.636378288269043,0.705215334892273
1772698677356621000,11.61362109375,1.717690110206604,-9.621047019958496,0.8095583319664001
1772698677366621200,11.62362109375,1.764018177986145,-9.603615760803223,0.9106014966964722
1772698677376621000,11.63362109375,1.8151042461395264,-9.585440635681152,0.9975540041923523
1772698677386621200,11.64362109375,1.869112491607666,-9.567916870117188,1.063846468925476
1772698677396621000,11.65362109375,1.9236637353897095,-9.551766395568848,1.1107057332992554
1772698677406621200,11.66362109375,1.9765293598175049,-9.536931037902832,1.1448371410369873
1772698677416621000,11.67362109375,2.0236363410949707,-9.523396492004395,1.1748191118240356
1772698677426621200,11.68362109375,2.060485363006592,-9.511971473693848,1.2029874324798584
1772698677436621000,11.69362109375,2.0831551551818848,-9.503464698791504,1.2308647632598877
1772698677446621200,11.70362109375,2.0906496047973633,-9.49826717376709,1.2579741477966309
1772698677456621000,11.71362109375,2.085866689682007,-9.496243476867676,1.2809771299362183
1772698677466621200,11.72362109375,2.072892189025879,-9.497031211853027,1.2961134910583496
1772698677476621000,11.73362109375,2.0554347038269043,-9.49997329711914,1.3023388385772705
1772698677486621200,11.74362109375,2.0356080532073975,-9.504416465759277,1.301061749458313
1772698677496621000,11.75362109375,2.0142767429351807,-9.509881973266602,1.2943041324615479
1772698677506621200,11.76362109375,1.9913992881774902,-9.516397476196289,1.281754732131958
1772698677516621000,11.77362109375,1.9658101797103882,-9.524118423461914,1.2637790441513062
1772698677526621200,11.78362109375,1.9359309673309326,-9.532970428466797,1.2429953813552856
1772698677536621000,11.79362109375,1.8997231721878052,-9.542928695678711,1.2222692966461182
1772698677546621200,11.80362109375,1.8583447933197021,-9.553162574768066,1.2058228254318237
1772698677556621000,11.81362109375,1.8170342445373535,-9.562119483947754,1.1977720260620117
1772698677566621200,11.82362109375,1.779850721359253,-9.568832397460938,1.1999881267547607
1772698677576621000,11.83362109375,1.7459709644317627,-9.573671340942383,1.2111176252365112
1772698677586621200,11.84362109375,1.7141880989074707,-9.577249526977539,1.2281056642532349
1772698677596621000,11.85362109375,1.6885404586791992,-9.580154418945312,1.2409113645553589
1772698677606621200,11.86362109375,1.6739845275878906,-9.583271980285645,1.2365524768829346
1772698677616621000,11.87362109375,1.6711903810501099,-9.587390899658203,1.208078145980835
1772698677626621200,11.88362109375,1.6786413192749023,-9.591784477233887,1.1619924306869507
1772698677636621000,11.89362109375,1.6895445585250854,-9.595674514770508,1.1130410432815552
1772698677646621200,11.90362109375,1.6945205926895142,-9.59919261932373,1.0744651556015015
1772698677656621000,11.91362109375,1.6873699426651,-9.602940559387207,1.0519938468933105
1772698677666621200,11.92362109375,1.6616195440292358,-9.607898712158203,1.047709584236145
1772698677676621000,11.93362109375,1.6252872943878174,-9.612066268920898,1.06631338596344
1772698677686621200,11.94362109375,1.593614101409912,-9.612601280212402,1.1084529161453247
1772698677696621000,11.95362109375,1.5522737503051758,-9.611262321472168,1.1766307353973389
1772698677706621200,11.96362109375,1.4947277307510376,-9.60801887512207,1.2736355066299438
1772698677716621000,11.97362109375,1.4240695238113403,-9.601479530334473,1.3978592157363892
1772698677726621200,11.98362109375,1.320895791053772,-9.593448638916016,1.5463958978652954
1772698677736621000,11.99362109375,1.1972874402999878,-9.583248138427734,1.7024214267730713
1772698677746621200,12.00362109375,1.0821878910064697,-9.569234848022461,1.8517608642578125
1772698677756621000,12.01362109375,0.9658080339431763,-9.554656028747559,1.9864883422851562
1772698677766621200,12.02362109375,0.837610125541687,-9.543652534484863,2.0946340560913086
1772698677776621000,12.03362109375,0.6995646357536316,-9.540458679199219,2.158851146697998
1772698677786621200,12.04362109375,0.5558770895004272,-9.54790210723877,2.167703866958618
1772698677796621000,12.05362109375,0.4199748635292053,-9.564165115356445,2.1262052059173584
1772698677806621200,12.06362109375,0.30950838327407837,-9.583693504333496,2.056062936782837
1772698677816621000,12.07362109375,0.2291221022605896,-9.603544235229492,1.9722652435302734
1772698677826621200,12.08362109375,0.17345896363258362,-9.623379707336426,1.8790595531463623
1772698677836621000,12.09362109375,0.1291671097278595,-9.642321586608887,1.7830713987350464
1772698677846621200,12.10362109375,0.08793449401855469,-9.65880012512207,1.6941808462142944
1772698677856621000,12.11362109375,0.04863301292061806,-9.67113971710205,1.6239149570465088
1772698677866621200,12.12362109375,0.011994278989732265,-9.679003715515137,1.577064871788025
1772698677876621000,12.13362109375,-0.024121221154928207,-9.684152603149414,1.544991135597229
1772698677886621200,12.14362109375,-0.0633208230137825,-9.686829566955566,1.5269917249679565
1772698677896621000,12.15362109375,-0.10683713853359222,-9.686962127685547,1.5237202644348145
1772698677906621200,12.16362109375,-0.1519661247730255,-9.685595512390137,1.5285714864730835
1772698677916621000,12.17362109375,-0.19579942524433136,-9.684242248535156,1.532157063484192
1772698677926621200,12.18362109375,-0.23537592589855194,-9.684101104736328,1.5274744033813477
1772698677936621000,12.19362109375,-0.26640406250953674,-9.685446739196777,1.5137789249420166
1772698677946621200,12.20362109375,-0.2875012159347534,-9.688095092773438,1.4928312301635742
1772698677956621000,12.21362109375,-0.2994626760482788,-9.691853523254395,1.4658403396606445
1772698677966621200,12.22362109375,-0.30290648341178894,-9.696197509765625,1.43610680103302
1772698677976621000,12.23362109375,-0.3008081316947937,-9.700491905212402,1.4072558879852295
1772698677986621200,12.24362109375,-0.29715943336486816,-9.704277992248535,1.3816972970962524
1772698677996621000,12.25362109375,-0.2958502471446991,-9.707119941711426,1.3618724346160889
1772698678006621200,12.26362109375,-0.29944515228271484,-9.708637237548828,1.3502148389816284
1772698678016621000,12.27362109375,-0.3072212040424347,-9.708621978759766,1.3485850095748901
1772698678026621200,12.28362109375,-0.31804558634757996,-9.707338333129883,1.3552950620651245
1772698678036621000,12.29362109375,-0.33269768953323364,-9.705395698547363,1.3656435012817383
1772698678046621200,12.30362109375,-0.35307666659355164,-9.703577995300293,1.3734228610992432
1772698678056621000,12.31362109375,-0.3793957829475403,-9.702588081359863,1.373403787612915
1772698678066621200,12.32362109375,-0.4103052020072937,-9.70276927947998,1.3631916046142578
1772698678076621000,12.33362109375,-0.44371795654296875,-9.703927040100098,1.3443603515625
1772698678086621200,12.34362109375,-0.4756467342376709,-9.705488204956055,1.3219895362854004
1772698678096621000,12.35362109375,-0.4998020827770233,-9.70670223236084,1.3040342330932617
1772698678106621200,12.36362109375,-0.5078105926513672,-9.706865310668945,1.299722671508789
1772698678116621000,12.37362109375,-0.49125009775161743,-9.705327033996582,1.3174575567245483
1772698678126621200,12.38362109375,-0.44429004192352295,-9.70177936553955,1.359582781791687
1772698678136621000,12.39362109375,-0.3701557517051697,-9.696503639221191,1.4181612730026245
1772698678146621200,12.40362109375,-0.28383690118789673,-9.690654754638672,1.476828932762146
1772698678156621000,12.41362109375,-0.20748168230056763,-9.686503410339355,1.5162341594696045
1772698678166621200,12.42362109375,-0.16024169325828552,-9.686358451843262,1.5228824615478516
1772698678176621000,12.43362109375,-0.14949285984039307,-9.690579414367676,1.4968969821929932
1772698678186621200,12.44362109375,-0.17126265168190002,-9.697368621826172,1.4498621225357056
1772698678196621000,12.45362109375,-0.21284253895282745,-9.704277038574219,1.397169828414917
1772698678206621200,12.46362109375,-0.2543054223060608,-9.709741592407227,1.3515360355377197
1772698678216621000,12.47362109375,-0.2763652503490448,-9.713005065917969,1.3234589099884033
1772698678226621200,12.48362109375,-0.27524465322494507,-9.713061332702637,1.323278784751892
1772698678236621000,12.49362109375,-0.2667904496192932,-9.709527015686035,1.350672721862793
1772698678246621200,12.50362109375,-0.26808157563209534,-9.704073905944824,1.3890529870986938
1772698678256621000,12.51362109375,-0.2806094288825989,-9.699667930603027,1.4170717000961304
1772698678266621200,12.52362109375,-0.29543015360832214,-9.69890308380127,1.419293761253357
1772698678276621000,12.53362109375,-0.30372217297554016,-9.702767372131348,1.3908486366271973
1772698678286621200,12.54362109375,-0.30463215708732605,-9.710180282592773,1.337906837463379
1772698678296621000,12.55362109375,-0.3067129850387573,-9.719656944274902,1.2667222023010254
1772698678306621200,12.56362109375,-0.3122865557670593,-9.730894088745117,1.1758286952972412
1772698678316621000,12.57362109375,-0.308170884847641,-9.744319915771484,1.0600285530090332
1772698678326621200,12.58362109375,-0.27731651067733765,-9.759445190429688,0.9201629161834717
1772698678336621000,12.59362109375,-0.21091915667057037,-9.77413272857666,0.7695636749267578
1772698678346621200,12.60362109375,-0.11051630973815918,-9.785911560058594,0.6277871131896973
1772698678356621000,12.61362109375,0.025866856798529625,-9.793286323547363,0.5111410617828369
1772698678366621200,12.62362109375,0.19670256972312927,-9.795499801635742,0.4241228699684143
1772698678376621000,12.63362109375,0.3819095194339752,-9.79247760772705,0.3631807565689087
1772698678386621200,12.64362109375,0.5582572817802429,-9.785222053527832,0.3289075195789337
1772698678396621000,12.65362109375,0.7056509256362915,-9.776032447814941,0.3188098669052124
1772698678406621200,12.66362109375,0.8137361407279968,-9.767472267150879,0.3235839903354645
1772698678416621000,12.67362109375,0.8867074251174927,-9.760612487792969,0.3384902775287628
1772698678426621200,12.68362109375,0.9388107657432556,-9.754955291748047,0.36039841175079346
1772698678436621000,12.69362109375,0.9904797673225403,-9.7488374710083,0.386676549911499
1772698678446621200,12.70362109375,1.0618515014648438,-9.740023612976074,0.4180905222892761
1772698678456621000,12.71362109375,1.155867576599121,-9.727540969848633,0.45750126242637634
1772698678466621200,12.72362109375,1.2569892406463623,-9.71235179901123,0.5104767680168152
1772698678476621000,12.73362109375,1.3493857383728027,-9.695956230163574,0.5813561081886292
1772698678486621200,12.74362109375,1.4217766523361206,-9.68022346496582,0.6649855375289917
1772698678496621000,12.75362109375,1.4675887823104858,-9.666967391967773,0.752536416053772
1772698678506621200,12.76362109375,1.4883694648742676,-9.656889915466309,0.8364356160163879
1772698678516621000,12.77362109375,1.4957822561264038,-9.64908504486084,0.9100472331047058
1772698678526621200,12.78362109375,1.5042235851287842,-9.642048835754395,0.9688045382499695
1772698678536621000,12.79362109375,1.5230770111083984,-9.634243965148926,1.0158560276031494
1772698678546621200,12.80362109375,1.5565874576568604,-9.624335289001465,1.0581079721450806
1772698678556621000,12.81362109375,1.600956916809082,-9.61225414276123,1.1008577346801758
1772698678566621200,12.82362109375,1.6491755247116089,-9.59876823425293,1.1464040279388428
1772698678576621000,12.83362109375,1.6922534704208374,-9.585477828979492,1.1938486099243164
1772698678586621200,12.84362109375,1.723231554031372,-9.573840141296387,1.2419520616531372
1772698678596621000,12.85362109375,1.7385340929031372,-9.564929962158203,1.288411021232605
1772698678606621200,12.86362109375,1.7384122610092163,-9.559056282043457,1.331452488899231
1772698678616621000,12.87362109375,1.7266420125961304,-9.555618286132812,1.370854377746582
1772698678626621200,12.88362109375,1.7087376117706299,-9.553956031799316,1.4044620990753174
1772698678636621000,12.89362109375,1.6885156631469727,-9.55391788482666,1.4289655685424805
1772698678646621200,12.90362109375,1.668795108795166,-9.55541706085205,1.4420506954193115
1772698678656621000,12.91362109375,1.6517744064331055,-9.55799388885498,1.4445675611495972
1772698678666621200,12.92362109375,1.6383674144744873,-9.561300277709961,1.43794584274292
1772698678676621000,12.93362109375,1.62783944606781,-9.565375328063965,1.4227136373519897
1772698678686621200,12.94362109375,1.6184840202331543,-9.57040786743164,1.3993535041809082
1772698678696621000,12.95362109375,1.6082693338394165,-9.576563835144043,1.3686810731887817
1772698678706621200,12.96362109375,1.5946344137191772,-9.584038734436035,1.331812858581543
1772698678716621000,12.97362109375,1.5734444856643677,-9.593198776245117,1.2904239892959595
1772698678726621200,12.98362109375,1.5435346364974976,-9.603782653808594,1.2470910549163818
1772698678736621000,12.99362109375,1.5073293447494507,-9.614859580993652,1.205325722694397
1772698678746621200,13.00362109375,1.4732431173324585,-9.624496459960938,1.170050024986267
1772698678756621000,13.01362109375,1.450903296470642,-9.630777359008789,1.1460306644439697
1772698678766621200,13.02362109375,1.4453808069229126,-9.63303279876709,1.1339821815490723
1772698678776621000,13.03362109375,1.4574177265167236,-9.631707191467285,1.1298402547836304
1772698678786621200,13.04362109375,1.4850318431854248,-9.627802848815918,1.1271592378616333
1772698678796621000,13.05362109375,1.521611213684082,-9.622220039367676,1.1260497570037842
1772698678806621200,13.06362109375,1.5586576461791992,-9.615839004516602,1.129873275756836
1772698678816621000,13.07362109375,1.5893937349319458,-9.609603881835938,1.1400600671768188
1772698678826621200,13.08362109375,1.6133798360824585,-9.603736877441406,1.1556960344314575
1772698678836621000,13.09362109375,1.6347533464431763,-9.597864151000977,1.1743050813674927
1772698678846621200,13.10362109375,1.6543035507202148,-9.592101097106934,1.193838119506836
1772698678856621000,13.11362109375,1.6619876623153687,-9.588308334350586,1.2134771347045898
1772698678866621200,13.12362109375,1.6476848125457764,-9.588227272033691,1.233454942703247
1772698678876621000,13.13362109375,1.6137992143630981,-9.592155456542969,1.247627854347229
1772698678886621200,13.14362109375,1.5810037851333618,-9.59705638885498,1.251921534538269
1772698678896621000,13.15362109375,1.5520343780517578,-9.600404739379883,1.2624552249908447
1772698678906621200,13.16362109375,1.5162456035614014,-9.601297378540039,1.2986431121826172
1772698678916621000,13.17362109375,1.4586999416351318,-9.600077629089355,1.3715273141860962
