time,seconds_elapsed,z,y,x
1772541033100667000,0.2176669921875,10.01400089263916,0.6060000061988831,-0.5100000500679016
1772541033110576600,0.22757666015625,9.751049995422363,0.5770500302314758,-0.33000001311302185
1772541033120486400,0.237486328125,9.502050399780273,0.5959500074386597,-0.4639500081539154
1772541033130396400,0.247396484375,9.439949989318848,0.7210500240325928,-0.6940500140190125
1772541033140306200,0.25730615234375,9.769950866699219,1.0750499963760376,-0.8689500689506531
1772541033150216200,0.26721630859375,10.207950592041016,0.9820500612258911,-0.7489500641822815
1772541033160126000,0.2771259765625,10.468950271606445,0.8050500154495239,-0.8880000710487366
1772541033170035700,0.28703564453125,10.503000259399414,0.559950053691864,-1.0309500694274902
1772541033179945700,0.29694580078125,10.405050277709961,0.5490000247955322,-0.7609500288963318
1772541033189855500,0.30685546875,10.24905014038086,0.6319500207901001,-0.505050003528595
1772541033199765200,0.31676513671875,10.00200080871582,0.6420000195503235,-0.41100001335144043
1772541033209675300,0.32667529296875,9.796050071716309,0.7300500273704529,-0.28395000100135803
1772541033219585300,0.336585205078125,10.00200080871582,0.9120000600814819,-0.31995001435279846
1772541033229495000,0.3464951171875,10.378050804138184,1.168950080871582,-0.5140500068664551
1772541033239404800,0.35640478515625,10.588950157165527,1.1929500102996826,-0.8809500336647034
1772541033249314800,0.366314697265625,10.15095043182373,0.7540500164031982,-1.221000075340271
1772541033259224600,0.376224609375,9.492000579833984,0.49605002999305725,-1.3950001001358032
1772541033269134600,0.386134521484375,9.093000411987305,0.7380000352859497,-1.921950101852417
1772541033279044400,0.39604443359375,8.949000358581543,1.2690000534057617,-2.5879502296447754
1772541033288954000,0.4059541015625,9.219000816345215,1.8919501304626465,-3.390000104904175
1772541033298864000,0.415864013671875,9.327000617980957,2.55495023727417,-3.5239500999450684
1772541033308774100,0.425774169921875,9.286050796508789,2.7559502124786377,-3.201000213623047
1772541033318684000,0.435683837890625,9.013050079345703,2.442000150680542,-2.86995005607605
1772541033328593700,0.44559375,8.781000137329102,2.143050193786621,-2.8630502223968506
1772541033338503700,0.455503662109375,8.07705020904541,2.2009501457214355,-3.4999501705169678
1772541033348413400,0.465413330078125,7.684950351715088,2.3899500370025635,-3.8110501766204834
1772541033358323500,0.475323486328125,7.773000240325928,2.4690001010894775,-3.8209502696990967
1772541033368233200,0.485233154296875,7.8670501708984375,2.4210000038146973,-3.864000082015991
1772541033378143000,0.49514306640625,7.713000297546387,2.344050168991089,-4.005000114440918
1772541033388053000,0.505052978515625,8.062950134277344,2.2080001831054688,-3.9499502182006836
1772541033397962800,0.514962646484375,8.57295036315918,2.2579500675201416,-3.9930002689361572
1772541033407872800,0.524872802734375,8.470050811767578,2.4469501972198486,-4.246950149536133
1772541033417782800,0.53478271484375,8.06100082397461,2.551950216293335,-4.599000453948975
1772541033437602300,0.554602294921875,6.748950481414795,2.7460501194000244,-5.4150004386901855
1772541033447512300,0.56451220703125,6.8520002365112305,2.3080501556396484,-4.7470502853393555
1772541033457422000,0.574422119140625,7.462050437927246,2.076000213623047,-4.35705041885376
1772541033467332000,0.58433203125,8.805000305175781,3.261000156402588,-3.1740002632141113
1772541033477241900,0.594241943359375,7.4760003089904785,4.14900016784668,-2.8440001010894775
1772541033487151600,0.604151611328125,5.962950229644775,3.460050106048584,-3.864000082015991
1772541033497061600,0.6140615234375,5.439000129699707,2.221950054168701,-4.378950119018555
1772541033506971400,0.623971435546875,5.755050182342529,1.4080500602722168,-3.925950288772583
1772541033516881200,0.633881103515625,6.343950271606445,1.3669500350952148,-3.9190502166748047
1772541033526791400,0.64379150390625,7.110000133514404,1.5660001039505005,-4.422000408172607
1772541033536701200,0.653701171875,7.90500020980835,1.5349500179290771,-4.8670501708984375
1772541033546611000,0.66361083984375,8.06505012512207,1.606950044631958,-4.549050331115723
1772541033556520700,0.673520751953125,8.020050048828125,2.350950002670288,-2.857950210571289
1772541033566430700,0.6834306640625,7.036050319671631,2.674950122833252,-2.86995005607605
1772541033576340500,0.693340576171875,5.844000339508057,2.3269500732421875,-3.049950122833252
1772541033586250200,0.703250244140625,5.094000339508057,1.9729501008987427,-3.4330501556396484
1772541033596160500,0.713160400390625,5.407950401306152,1.5829501152038574,-4.314000129699707
1772541033606070300,0.7230703125,6.085050106048584,1.1470500230789185,-4.944000244140625
1772541033615980000,0.73297998046875,6.745950222015381,0.6349500417709351,-4.429050445556641
1772541033625889800,0.742889892578125,7.4599504470825195,0.13199999928474426,-3.636000156402588
1772541033635799800,0.7527998046875,7.783050537109375,0.18495000898838043,-3.418950080871582
1772541033645709800,0.762709716796875,7.678050518035889,0.2659500241279602,-3.409050226211548
1772541033655619600,0.77261962890625,7.708950519561768,-0.07304999977350235,-3.2820000648498535
1772541033665529300,0.782529296875,7.819050312042236,-0.42000001668930054,-2.8030500411987305
1772541033675439000,0.792439208984375,8.161050796508789,-0.28395000100135803,-1.540950059890747
1772541033685349000,0.80234912109375,8.098950386047363,-0.23805001378059387,0.10500000417232513
1772541033695259000,0.8122587890625,6.658050537109375,-0.3910500109195709,1.0290000438690186
1772541033705169000,0.8221689453125,5.161050319671631,-0.3720000088214874,0.9589500427246094
1772541033715078700,0.83207861328125,6.13800048828125,-0.48705002665519714,0.8089500665664673
1772541033724988700,0.84198876953125,7.9170002937316895,-0.9490500688552856,-0.046950001269578934
1772541033734898400,0.8518984375,9.660000801086426,-1.6789500713348389,-1.7569501399993896
1772541033744808200,0.86180810546875,11.10105037689209,-2.1700501441955566,-3.567000150680542
1772541033754718500,0.871718505859375,11.965950965881348,-1.7080501317977905,-5.00100040435791
1772541033764628200,0.881628173828125,12.552000999450684,-1.7389501333236694,-5.347950458526611
1772541033774538200,0.891538330078125,11.829000473022461,-2.1540000438690186,-4.888950347900391
1772541033784448000,0.901447998046875,10.266000747680664,-1.711050033569336,-4.719000339508057
1772541033794357800,0.911357666015625,9.367950439453125,-1.1260499954223633,-4.0980000495910645
1772541033804267800,0.921267822265625,9.700950622558594,-0.8340000510215759,-2.9880001544952393
1772541033814177500,0.931177490234375,10.16295051574707,-0.8269500136375427,-2.2260000705718994
1772541033824087300,0.94108740234375,10.146000862121582,-0.8770500421524048,-2.1570000648498535
1772541033833997300,0.950997314453125,9.817950248718262,-0.9829500317573547,-2.431950092315674
1772541033843907000,0.960906982421875,10.206000328063965,-0.8530500531196594,-2.7310500144958496
1772541033853816800,0.97081689453125,10.974000930786133,-0.8389500379562378,-2.9059500694274902
1772541033863726800,0.980726806640625,11.377050399780273,-0.934950053691864,-3.4450502395629883
1772541033873636900,0.990636962890625,11.556000709533691,-1.1460000276565552,-4.039050102233887
1772541033883546600,1.000546630859375,11.326050758361816,-1.2199500799179077,-4.282950401306152
1772541033893456600,1.01045654296875,11.302050590515137,-1.0090500116348267,-4.285050392150879
1772541033903366400,1.020366455078125,11.757000923156738,-0.8149500489234924,-4.194000244140625
1772541033913276200,1.030276123046875,12.16200065612793,-0.7429500222206116,-3.925950288772583
1772541033923186200,1.040186279296875,12.223950386047363,-0.7909500598907471,-3.885000228881836
1772541033933096000,1.050095947265625,11.688000679016113,-0.9559500217437744,-4.089000225067139
1772541033943006000,1.060005859375,10.879050254821777,-0.9799500703811646,-4.045950412750244
1772541033952915700,1.069915771484375,10.2610502243042,-1.0399500131607056,-3.607950210571289
1772541033962825500,1.079825439453125,9.601950645446777,-1.2079501152038574,-3.109950065612793
1772541033972735500,1.089735595703125,9.076050758361816,-1.3950001001358032,-3.177000045776367
1772541033982645200,1.099645263671875,9.550050735473633,-1.5840001106262207,-3.0979502201080322
1772541033992555300,1.10955517578125,10.59795093536377,-1.5049500465393066,-2.860950231552124
1772541034002465300,1.11946533203125,11.59695053100586,-1.2079501152038574,-3.418950080871582
1772541034012375000,1.129375,12.195000648498535,-1.2990000247955322,-4.144050121307373
1772541034022284800,1.139284912109375,12.010951042175293,-1.5259500741958618,-4.44795036315918
1772541034032194800,1.14919482421875,11.269050598144531,-1.6990500688552856,-4.546050071716309
1772541034042104600,1.1591044921875,10.31100082397461,-1.9210500717163086,-4.543950080871582
1772541034052014300,1.169014404296875,9.640950202941895,-2.1940500736236572,-4.405050277709961
1772541034061924400,1.17892431640625,9.234000205993652,-2.473950147628784,-4.017000198364258
1772541034071834000,1.188834228515625,8.956050872802734,-2.593950033187866,-3.3610501289367676
1772541034081744100,1.198744140625,9.295950889587402,-2.5009500980377197,-3.0330002307891846
1772541034091654000,1.20865380859375,9.847050666809082,-2.6040000915527344,-2.920950174331665
1772541034101564000,1.21856396484375,10.026000022888184,-2.809950113296509,-2.9659502506256104
1772541034111473700,1.2284736328125,9.768000602722168,-2.934000253677368,-3.1620001792907715
1772541034121383700,1.2383837890625,9.234000205993652,-3.0829501152038574,-3.136050224304199
1772541034131293400,1.24829345703125,8.736000061035156,-3.424950122833252,-2.7430500984191895
1772541034141203500,1.258203369140625,8.368950843811035,-3.7480502128601074,-2.230950117111206
1772541034151113200,1.26811328125,8.266950607299805,-3.885000228881836,-1.7860500812530518
1772541034161023000,1.27802294921875,8.314050674438477,-4.035000324249268,-1.6320000886917114
1772541034170933000,1.28793310546875,8.235000610351562,-4.207950115203857,-1.6180500984191895
1772541034180842800,1.2978427734375,8.005949974060059,-4.435050010681152,-1.64205002784729
1772541034190752500,1.30775244140625,7.615050315856934,-4.699050426483154,-1.4839500188827515
1772541034200662500,1.31766259765625,7.069050312042236,-4.888050079345703,-1.3980001211166382
1772541034210572300,1.327572265625,6.615000247955322,-5.134050369262695,-1.5679501295089722
1772541034220482300,1.337482421875,6.217050075531006,-5.568000316619873,-1.7860500812530518
1772541034230392000,1.34739208984375,5.6260504722595215,-5.953050136566162,-1.8409501314163208
1772541034240301800,1.3573017578125,5.322000026702881,-6.166050434112549,-1.8480000495910645
1772541034250211800,1.3672119140625,5.283000469207764,-6.300000190734863,-1.6780500411987305
1772541034260121900,1.377121826171875,5.635050296783447,-6.448950290679932,-0.9859500527381897
1772541034270031600,1.387031494140625,6.199950218200684,-6.505950450897217,-0.6390000581741333
1772541034279941600,1.396941650390625,6.703050136566162,-6.457950115203857,-0.8830500245094299
1772541034289851400,1.406851318359375,7.1770501136779785,-6.343050479888916,-1.3039500713348389
1772541034299761200,1.41676123046875,8.245050430297852,-6.163950443267822,-1.7040001153945923
1772541034309671200,1.426671142578125,8.779050827026367,-6.439050197601318,-2.118000030517578
1772541034319581000,1.436580810546875,8.302050590515137,-6.721950531005859,-2.8819501399993896
1772541034329490700,1.44649072265625,7.326000213623047,-6.9970502853393555,-3.684000253677368
1772541034339400700,1.456400634765625,6.334050178527832,-7.452000141143799,-4.22504997253418
1772541034349310500,1.466310546875,5.386050224304199,-7.878000259399414,-4.539000034332275
1772541034359220200,1.47622021484375,4.692000389099121,-8.07705020904541,-4.63200044631958
1772541034369130500,1.486130615234375,4.32105016708374,-8.163000106811523,-4.62000036239624
1772541034379040000,1.4960400390625,4.560000419616699,-8.419050216674805,-4.314000129699707
1772541034388950000,1.505949951171875,4.98900032043457,-8.476950645446777,-4.063050270080566
1772541034398860000,1.515860107421875,5.629950046539307,-8.569950103759766,-3.9790501594543457
1772541034408769800,1.525769775390625,5.7430500984191895,-8.284950256347656,-4.35705041885376
1772541034418679600,1.535679443359375,5.868000507354736,-8.377950668334961,-4.876950263977051
1772541034428589600,1.545589599609375,6.160050392150879,-8.476950645446777,-5.571000099182129
1772541034438499300,1.555499267578125,5.937000274658203,-8.740050315856934,-6.31095027923584
1772541034448409000,1.5654091796875,5.305050373077393,-9.364950180053711,-6.7819504737854
1772541034458319000,1.575319091796875,4.2109503746032715,-9.565950393676758,-6.985950469970703
1772541034468228900,1.585228759765625,3.186000108718872,-9.45300006866455,-6.909000396728516
1772541034478138600,1.595138671875,2.688000202178955,-9.157050132751465,-7.009950160980225
1772541034488048600,1.605048583984375,3.325050115585327,-9.1399507522583,-7.768950462341309
1772541034497958400,1.61495849609375,4.074000358581543,-9.22095012664795,-8.793000221252441
1772541034507868200,1.6248681640625,4.897950172424316,-8.89995002746582,-10.480950355529785
1772541034517778400,1.6347783203125,5.125050067901611,-8.910000801086426,-11.467950820922852
1772541034527688200,1.644688232421875,5.109000205993652,-9.082050323486328,-9.961950302124023
1772541034537598000,1.654597900390625,4.873950004577637,-9.121050834655762,-7.929000377655029
1772541034547508000,1.664508056640625,5.772000312805176,-8.36400032043457,-5.542050361633301
1772541034557417700,1.674417724609375,7.780050277709961,-7.243950366973877,-2.959050178527832
1772541034567327500,1.684327392578125,11.27595043182373,-5.529000282287598,-0.8059500455856323
1772541034577237500,1.694237548828125,12.636000633239746,-4.156949996948242,-1.1010000705718994
1772541034587147300,1.704147216796875,9.841950416564941,-3.949050188064575,-3.3730502128601074
1772541034597057300,1.714057373046875,5.9509501457214355,-4.861050128936768,-4.5610504150390625
1772541034606967000,1.723967041015625,3.2290501594543457,-6.183000087738037,-4.564949989318848
1772541034616876800,1.733876708984375,2.2950000762939453,-7.192950248718262,-3.925950288772583
1772541034626786800,1.743786865234375,1.3590000867843628,-7.833000183105469,-2.619000196456909
1772541034636696800,1.75369677734375,0.25095000863075256,-7.627050399780273,-1.2490500211715698
1772541034646606600,1.763606689453125,-0.4830000102519989,-7.300950527191162,0.09495000541210175
1772541034656516600,1.7735166015625,0.22005000710487366,-6.573000431060791,0.9520500302314758
1772541034666426400,1.78342626953125,1.4740500450134277,-6.418050289154053,-0.05505000427365303
1772541034676336400,1.79333642578125,2.590050220489502,-6.942000389099121,-1.9030500650405884
1772541034686246100,1.80324609375,3.0520501136779785,-7.648050308227539,-4.3309502601623535
1772541034696156200,1.81315625,2.350050210952759,-8.437950134277344,-6.106950283050537
1772541034706066200,1.823066162109375,0.2939999997615814,-9.013050079345703,-5.94195032119751
1772541034715975700,1.8329755859375,-1.9320000410079956,-9.1399507522583,-4.335000038146973
1772541034725885400,1.842885498046875,-2.1880500316619873,-9.42495059967041,-4.089000225067139
1772541034735795700,1.852795654296875,-0.9930000305175781,-9.68595027923584,-5.026950359344482
1772541034745705200,1.862705322265625,-0.05205000191926956,-9.66195011138916,-6.936000347137451
1772541034755615200,1.872615234375,0.547950029373169,-9.640050888061523,-8.913000106811523
1772541034765525200,1.882525146484375,1.2780001163482666,-9.463050842285156,-10.24905014038086
1772541034775435000,1.89243505859375,2.230950117111206,-9.670950889587402,-9.94005012512207
1772541034785344800,1.9023447265625,2.7930002212524414,-10.003950119018555,-8.32395076751709
1772541034795254800,1.9122548828125,2.8650002479553223,-9.808050155639648,-6.631950378417969
1772541034805164500,1.92216455078125,2.499000072479248,-10.183950424194336,-6.294000148773193
1772541034815074300,1.93207421875,1.9270501136779785,-10.318050384521484,-4.723050117492676
1772541034824984300,1.941984375,1.4650501012802124,-9.883950233459473,-2.7550501823425293
1772541034834894000,1.95189404296875,1.8499500751495361,-9.5110502243042,-1.9650001525878906
1772541034844803800,1.961803955078125,2.6040000915527344,-9.111000061035156,-2.949000120162964
1772541034854713900,1.9717138671875,3.1879501342773438,-9.031949996948242,-5.047050476074219
1772541034864623600,1.98162353515625,3.7699501514434814,-8.568000793457031,-6.736950397491455
1772541034874533600,1.99153369140625,3.0019500255584717,-8.51294994354248,-6.361050128936768
1772541034884443400,2.001443359375,2.7690000534057617,-8.457000732421875,-7.434000492095947
1772541034894353400,2.011353515625,3.412950277328491,-8.138999938964844,-9.496950149536133
1772541034904263200,2.02126318359375,4.504950046539307,-7.36305046081543,-11.094000816345215
1772541034914173200,2.031173095703125,4.3060503005981445,-7.6050004959106445,-9.427950859069824
1772541034924083000,2.0410830078125,2.719050168991089,-7.981050491333008,-6.955050468444824
1772541034933992700,2.05099267578125,-1.0720500946044922,-8.134050369262695,-3.1810500621795654
1772541034943902700,2.06090283203125,-2.940000057220459,-6.730950355529785,-2.9539501667022705
1772541034953812500,2.0708125,-0.33000001311302185,-5.974950313568115,-4.006950378417969
1772541034963722500,2.080722412109375,2.0940001010894775,-5.983950138092041,-4.438050270080566
1772541034973632300,2.09063232421875,1.7809500694274902,-6.037050247192383,-4.342950344085693
1772541034983542000,2.1005419921875,0.7750500440597534,-4.323000431060791,-4.98900032043457
1772541034993452000,2.1104521484375,-0.7680000066757202,-4.639050006866455,-5.503950119018555
1772541035003361800,2.12036181640625,0.21195000410079956,-5.5219502449035645,-5.509050369262695
1772541035013271800,2.130271728515625,-0.7780500650405884,-5.4810004234313965,-5.695050239562988
1772541035023181800,2.140181884765625,0.13305000960826874,-5.84505033493042,-5.362950325012207
1772541035033091600,2.150091552734375,1.5750000476837158,-5.10105037689209,-6.033000469207764
1772541035043001600,2.160001708984375,2.7960002422332764,-4.210050106048584,-6.624000549316406
1772541035052911400,2.169911376953125,1.9429501295089722,-3.3100502490997314,-7.335000514984131
1772541035062821000,2.179821044921875,2.6140501499176025,-4.605000019073486,-7.893000602722168
1772541035072731100,2.189731201171875,2.722050189971924,-6.279000282287598,-7.44795036315918
1772541035082641000,2.199640869140625,0.934950053691864,-8.93595027923584,-5.029950141906738
1772541035092550700,2.209550537109375,-0.0690000057220459,-7.9830002784729,-4.69005012512207
1772541035102461000,2.2194609375,-0.8620500564575195,-6.89400053024292,-3.5410501956939697
1772541035112370400,2.229370361328125,-0.4639500081539154,-6.849000453948975,-2.461050033569336
1772541035122280400,2.239280517578125,-0.7660500407218933,-6.925050258636475,-2.0179500579833984
1772541035132190500,2.2491904296875,-1.2450000047683716,-9.328950881958008,-1.0549499988555908
1772541035142100200,2.259100341796875,-1.3090500831604004,-10.423050880432129,-1.582050085067749
1772541035152010000,2.269010009765625,0.12600000202655792,-10.58595085144043,-2.940000057220459
1772541035161920000,2.278919921875,1.9270501136779785,-10.966950416564941,-4.507950305938721
1772541035171829800,2.288829833984375,2.680950164794922,-12.207000732421875,-5.209050178527832
1772541035181739800,2.29873974609375,2.451000213623047,-12.628050804138184,-6.307950496673584
1772541035191649500,2.3086494140625,1.6230000257492065,-13.188000679016113,-7.0600504875183105
1772541035201559300,2.318559326171875,1.1290500164031982,-13.480950355529785,-7.351950168609619
1772541035211469300,2.32846923828125,1.102950096130371,-13.003951072692871,-7.282950401306152
1772541035221379300,2.33837939453125,1.2799500226974487,-12.40095043182373,-6.454050540924072
1772541035231289000,2.3482890625,1.1890500783920288,-11.701951026916504,-4.945950031280518
1772541035241199000,2.35819921875,1.0770000219345093,-11.368950843811035,-3.556950092315674
1772541035251108900,2.36810888671875,0.7770000100135803,-11.32800006866455,-2.8729500770568848
1772541035261018600,2.3780185546875,0.3079500198364258,-11.212950706481934,-2.5849502086639404
1772541035270928600,2.3879287109375,-0.07395000010728836,-11.314050674438477,-2.797950029373169
1772541035280838400,2.39783837890625,-0.6720000505447388,-11.320950508117676,-3.457050085067749
1772541035290748400,2.40774853515625,-0.9550500512123108,-11.230050086975098,-4.708950042724609
1772541035300658200,2.417658203125,-1.3210500478744507,-10.954950332641602,-5.410050392150879
1772541035310568000,2.42756787109375,-1.1970000267028809,-10.672050476074219,-6.189000129699707
1772541035320477700,2.437477783203125,0.09000000357627869,-10.258050918579102,-6.217050075531006
1772541035330387700,2.4473876953125,0.4729500114917755,-9.433950424194336,-5.296050071716309
1772541035340297700,2.457297607421875,0.922950029373169,-8.805000305175781,-4.339950084686279
1772541035350207500,2.46720751953125,0.4900500178337097,-8.242050170898438,-3.579000234603882
1772541035360117500,2.477117431640625,-0.07905000448226929,-7.993050575256348,-3.427950143814087
1772541035370027300,2.48702734375,0.7630500197410583,-7.780050277709961,-4.498050212860107
1772541035379937300,2.496937255859375,0.5879999995231628,-7.722000598907471,-5.928000450134277
1772541035389847000,2.506846923828125,1.6609500646591187,-7.8160505294799805,-6.873000144958496
1772541035399757000,2.516757080078125,0.8089500665664673,-7.725000381469727,-6.909000396728516
1772541035409666800,2.526666748046875,-2.6430001258850098,-7.890000343322754,-6.684000492095947
1772541035419576600,2.53657666015625,-1.8889501094818115,-8.446050643920898,-6.511950492858887
1772541035429486800,2.54648681640625,-0.7129500508308411,-8.278050422668457,-6.639000415802002
1772541035439396600,2.556396728515625,-1.7740501165390015,-7.6870503425598145,-6.652950286865234
1772541035449306400,2.566306396484375,-0.7159500122070312,-7.335000514984131,-6.778050422668457
1772541035459216400,2.57621630859375,1.6470000743865967,-7.059000492095947,-7.465050220489502
1772541035469126100,2.586126220703125,2.7810001373291016,-6.973050117492676,-8.098950386047363
1772541035479036200,2.5960361328125,2.5950000286102295,-6.837000370025635,-8.986950874328613
1772541035488946000,2.60594580078125,2.7240002155303955,-7.438050270080566,-9.676950454711914
1772541035498855700,2.615855712890625,0.9550500512123108,-8.094000816345215,-9.643050193786621
1772541035508765700,2.625765625,-0.9379500150680542,-8.211000442504883,-9.028050422668457
1772541035518675500,2.635675537109375,-1.6879501342773438,-8.242050170898438,-8.620950698852539
1772541035528585500,2.64558544921875,-4.318950176239014,-7.91895055770874,-8.817000389099121
1772541035538495500,2.65549560546875,-1.0840500593185425,-7.8760504722595215,-9.361050605773926
1772541035548405200,2.6654052734375,3.7320001125335693,-7.648050308227539,-7.759050369262695
1772541035558315000,2.67531494140625,3.865950107574463,-6.276000499725342,-6.009000301361084
1772541035568225000,2.68522509765625,3.1810500621795654,-5.7330002784729,-4.932000160217285
1772541035578134800,2.695134765625,3.4609501361846924,-5.8309502601623535,-5.4340500831604
1772541035588044800,2.705044921875,4.723050117492676,-6.298050403594971,-6.339000225067139
1772541035597954600,2.71495458984375,4.1010003089904785,-6.394050121307373,-7.126950263977051
1772541035607864300,2.7248642578125,3.7080001831054688,-6.493950366973877,-7.422000408172607
1772541035617774300,2.7347744140625,3.7219502925872803,-6.679050445556641,-6.993000507354736
1772541035627684400,2.744684326171875,3.526050090789795,-6.111000061035156,-6.4830002784729
1772541035637594000,2.754593994140625,3.6889500617980957,-6.010950088500977,-6.28695011138916
1772541035647504100,2.764504150390625,4.669950008392334,-6.28095006942749,-7.297050476074219
1772541035657414000,2.774413818359375,4.468950271606445,-6.568050384521484,-7.242000579833984
1772541035667323600,2.78432373046875,4.206000328063965,-6.7699503898620605,-8.86500072479248
1772541035677233700,2.794233642578125,2.179949998855591,-7.183950424194336,-9.781949996948242
1772541035687143400,2.804143310546875,-0.9310500621795654,-8.304000854492188,-7.266000270843506
1772541035697053200,2.81405322265625,-1.9890000820159912,-7.954950332641602,-5.611950397491455
1772541035706963500,2.82396337890625,-1.7860500812530518,-7.308000564575195,-5.209050178527832
1772541035716873000,2.833873046875,-1.7790000438690186,-7.081050395965576,-4.840950012207031
1772541035726783000,2.843782958984375,-0.04305000230669975,-6.825000286102295,-4.4070000648498535
1772541035736693000,2.85369287109375,0.9469500184059143,-6.499050140380859,-3.6720001697540283
1772541035746602800,2.863602783203125,1.3159500360488892,-6.12600040435791,-3.2220001220703125
1772541035756512500,2.873512451171875,1.8379501104354858,-6.178050518035889,-3.658050060272217
1772541035766422500,2.883422607421875,1.672950029373169,-6.808050155639648,-5.305050373077393
1772541035776332300,2.893332275390625,0.7849500179290771,-7.9860005378723145,-6.375000476837158
1772541035786242300,2.9032421875,-1.0840500593185425,-8.764050483703613,-5.4559502601623535
1772541035796152300,2.91315234375,-2.9950501918792725,-8.746950149536133,-4.462050437927246
1772541035806062000,2.92306201171875,-3.280050039291382,-8.701950073242188,-3.129000186920166
1772541035815971800,2.932971923828125,-1.7020500898361206,-8.347050666809082,-2.4439501762390137
1772541035825881900,2.9428818359375,0.25995001196861267,-7.746000289916992,-3.4620001316070557
1772541035835791600,2.95279150390625,1.0890001058578491,-7.426050186157227,-4.194000244140625
1772541035845701600,2.96270166015625,0.7249500155448914,-7.591050148010254,-4.711050033569336
1772541035855611400,2.972611328125,0.8130000233650208,-7.990950584411621,-5.5159502029418945
1772541035865521200,2.982521240234375,0.6340500116348267,-8.09595012664795,-6.2989501953125
1772541035875431200,2.99243115234375,0.6510000228881836,-8.254050254821777,-6.7420501708984375
1772541035885341000,3.0023408203125,0.6340500116348267,-8.497950553894043,-6.847050189971924
1772541035895251000,3.0122509765625,0.7510500550270081,-8.970000267028809,-6.567000389099121
1772541035905161000,3.022160888671875,0.6529500484466553,-9.22095012664795,-6.160050392150879
1772541035915070500,3.032070556640625,0.6840000152587891,-9.147000312805176,-5.724000453948975
1772541035924980500,3.04198046875,0.6600000262260437,-9.010950088500977,-5.662050247192383
1772541035934890500,3.051890380859375,0.6630000472068787,-8.806950569152832,-6.190950393676758
1772541035944800300,3.06180029296875,0.5020500421524048,-8.737950325012207,-6.937950134277344
1772541035954710300,3.071710205078125,0.42795002460479736,-9.111000061035156,-7.354950428009033
1772541035964620000,3.0816201171875,0.45705002546310425,-9.451050758361816,-7.696950435638428
1772541035974529800,3.09152978515625,0.5760000348091125,-9.334050178527832,-8.086950302124023
1772541035984439800,3.101439697265625,0.7750500440597534,-9.669000625610352,-10.302000045776367
1772541035994349800,3.111349853515625,0.853950023651123,-10.045050621032715,-12.90000057220459
1772541036004259600,3.121259521484375,1.1700000762939453,-9.480000495910645,-13.386000633239746
1772541036014169300,3.13116943359375,3.0640501976013184,-8.304000854492188,-12.17400074005127
1772541036024079400,3.141079345703125,7.2109503746032715,-6.298050403594971,-13.918951034545898
1772541036033989000,3.150989013671875,7.012050151824951,-6.391050338745117,-15.066000938415527
1772541036043899100,3.160899169921875,-2.1349501609802246,-7.198050498962402,-13.065000534057617
1772541036053809000,3.170808837890625,-2.9920501708984375,-7.189050197601318,-6.6820502281188965
1772541036063719000,3.180718994140625,-1.7760001420974731,-6.324000358581543,-0.9570000171661377
1772541036073629000,3.19062890625,-0.47895002365112305,-4.450050354003906,2.7430500984191895
1772541036083538700,3.20053857421875,0.6840000152587891,-3.094050168991089,2.7910501956939697
1772541036093448700,3.21044873046875,1.0669500827789307,-2.209050178527832,1.6900501251220703
1772541036103358500,3.2203583984375,1.5940500497817993,-2.328000068664551,1.8930001258850098
1772541036113268500,3.2302685546875,2.190000057220459,-2.287950038909912,2.539950132369995
1772541036123178200,3.24017822265625,2.1559500694274902,-2.3740501403808594,2.620950222015381
1772541036133088000,3.250087890625,2.0869500637054443,-3.712050199508667,1.7419500350952148
1772541036142998000,3.259998046875,2.080049991607666,-4.636050224304199,0.5329500436782837
1772541036152908000,3.269907958984375,0.5689499974250793,-4.927950382232666,-1.5490500926971436
1772541036162817800,3.27981787109375,-0.06000000238418579,-7.5450005531311035,-2.2260000705718994
1772541036172727800,3.289727783203125,1.6110000610351562,-9.025050163269043,-3.5310001373291016
1772541036182637600,3.299637451171875,2.389050006866455,-8.635050773620605,-5.580000400543213
1772541036192547300,3.30954736328125,2.4079501628875732,-7.845000267028809,-7.615950584411621
1772541036202457300,3.319457275390625,1.5460500717163086,-8.505000114440918,-10.006950378417969
1772541036212367000,3.3293671875,0.4930500090122223,-10.507050514221191,-12.222000122070312
1772541036222277000,3.339277099609375,0.05400000140070915,-11.119950294494629,-12.636000633239746
1772541036232187000,3.349186767578125,0.5910000205039978,-8.517000198364258,-9.148050308227539
1772541036242097000,3.359096923828125,1.2610501050949097,-7.959000587463379,-7.105950355529785
1772541036252006700,3.369006591796875,2.1280500888824463,-8.814000129699707,-7.327950477600098
1772541036261916700,3.378916748046875,2.77905011177063,-9.339000701904297,-8.521050453186035
1772541036271826400,3.388826416015625,3.1050002574920654,-9.379050254821777,-8.443950653076172
1772541036281736400,3.398736328125,2.700000047683716,-9.348000526428223,-7.8259501457214355
1772541036291646200,3.408646240234375,1.6180500984191895,-9.147000312805176,-6.631950378417969
1772541036301556000,3.418555908203125,0.49500003457069397,-8.37405014038086,-4.963050365447998
1772541036311466000,3.428466064453125,0.27900001406669617,-7.897050380706787,-4.057950019836426
1772541036321376000,3.4383759765625,1.162950038909912,-8.062050819396973,-3.186000108718872
1772541036331285800,3.44828564453125,2.3530499935150146,-8.158050537109375,-3.366000175476074
1772541036341195500,3.458195556640625,3.0330002307891846,-7.639050483703613,-3.2340002059936523
1772541036351105500,3.46810546875,2.511000156402588,-6.874950408935547,-2.782050132751465
1772541036370925300,3.48792529296875,2.001000165939331,-6.68595027923584,-3.415950059890747
1772541036380835000,3.4978349609375,2.1880500316619873,-7.32705020904541,-4.8070502281188965
1772541036390744800,3.507744873046875,2.6620500087738037,-8.866950035095215,-6.544950485229492
1772541036400654800,3.51765478515625,2.1760501861572266,-8.97195053100586,-5.937000274658203
1772541036410564900,3.52756494140625,1.960050106048584,-8.02695083618164,-4.170000076293945
1772541036420474600,3.537474609375,1.8979500532150269,-7.722000598907471,-4.35705041885376
1772541036430384600,3.547384521484375,1.6750500202178955,-8.094000816345215,-4.872000217437744
1772541036440294400,3.55729443359375,1.0500000715255737,-9.157050132751465,-4.999050140380859
1772541036450204400,3.567204345703125,1.0069500207901,-8.461950302124023,-3.3130502700805664
1772541036460114200,3.5771142578125,1.1560500860214233,-8.320950508117676,-2.956050157546997
1772541036470024000,3.58702392578125,1.5840001106262207,-7.926000595092773,-2.739000082015991
1772541036479933700,3.59693359375,2.038950204849243,-7.6080002784729,-2.260050058364868
1772541036489844000,3.606843994140625,1.4650501012802124,-6.007950305938721,-0.895050048828125
1772541036499753700,3.616753662109375,2.3479502201080322,-6.148950099945068,-1.4530500173568726
1772541036509663500,3.62666357421875,2.200050115585327,-6.207000255584717,-1.6110000610351562
1772541036519573500,3.636573486328125,1.3420500755310059,-6.23805046081543,-1.8310500383377075
1772541036529483300,3.646483154296875,1.117050051689148,-6.244950294494629,-1.8960001468658447
1772541036539393300,3.656393310546875,0.9690000414848328,-6.172950267791748,-1.7779500484466553
1772541036549303000,3.666302978515625,1.180050015449524,-5.908050060272217,-1.6609500646591187
1772541036559212800,3.676212890625,1.6060501337051392,-5.584050178527832,-1.9800001382827759
1772541036569122800,3.686122802734375,1.4599500894546509,-5.493000030517578,-2.0470499992370605
1772541036579032800,3.69603271484375,1.38795006275177,-5.617950439453125,-2.0710501670837402
1772541036588942600,3.705942626953125,0.9070500135421753,-6.219000339508057,-2.1280500888824463
1772541036598852600,3.7158525390625,0.7699500322341919,-14.235000610351562,-3.5119502544403076
1772541036608762400,3.725762451171875,3.1620001792907715,-30.592050552368164,-2.9110500812530518
1772541036618672000,3.735672119140625,3.3109500408172607,-32.75400161743164,-2.91795015335083
1772541036628582100,3.74558203125,1.0770000219345093,-19.423051834106445,-6.226950168609619
1772541036638492200,3.7554921875,-0.013950000517070293,-11.010000228881836,-6.2820000648498535
1772541036648402200,3.765402099609375,1.1700000762939453,-7.231950283050537,-4.366950035095215
1772541036658312000,3.77531201171875,1.9890000820159912,-6.298050403594971,-1.7860500812530518
1772541036678131700,3.795131591796875,1.963050127029419,-8.194050788879395,2.038950204849243
1772541036688041500,3.80504150390625,1.543950080871582,-9.267000198364258,2.6640000343322754
1772541036697951500,3.814951416015625,1.141050100326538,-9.901050567626953,1.8330000638961792
1772541036707861200,3.824861328125,1.0699501037597656,-9.643050193786621,0.7609500288963318
1772541036717771000,3.83477099609375,1.366050124168396,-9.41295051574707,-0.09495000541210175
1772541036727681000,3.844680908203125,1.527000069618225,-9.223950386047363,-0.9520500302314758
1772541036737591000,3.854591064453125,1.6660500764846802,-9.061050415039062,-1.264050006866455
1772541036747500800,3.864500732421875,1.7260501384735107,-8.962950706481934,-1.3549500703811646
1772541036757410800,3.874410888671875,1.6699501276016235,-9.049050331115723,-1.1820000410079956
1772541036767320600,3.884320556640625,1.6320000886917114,-9.061050415039062,-0.5890500545501709
1772541036777230300,3.894230224609375,1.5289500951766968,-9.075000762939453,-0.37800002098083496
1772541036787140400,3.904140380859375,1.3780500888824463,-9.067950248718262,-0.3079500198364258
1772541036797050000,3.914050048828125,1.3380000591278076,-9.031949996948242,-0.34200000762939453
1772541036806960400,3.92396044921875,1.456950068473816,-8.95995044708252,-0.47805002331733704
1772541036816870100,3.9338701171875,1.456950068473816,-8.96505069732666,-0.6130500435829163
1772541036826780000,3.94377978515625,1.4070000648498535,-8.97705078125,-0.6840000152587891
1772541036836690000,3.95368994140625,1.3980001211166382,-9.019950866699219,-0.6649500131607056
1772541036846599700,3.963599609375,1.4740500450134277,-9.043950080871582,-0.6720000505447388
1772541036856509700,3.973509765625,1.5580500364303589,-9.025050163269043,-0.6130500435829163
1772541036866419500,3.98341943359375,1.5940500497817993,-9.034049987792969,-0.5719500184059143
1772541036876329200,3.9933291015625,1.612950086593628,-9.085050582885742,-0.4540500342845917
1772541036886239500,4.003239501953125,1.5580500364303589,-9.136950492858887,-0.4639500081539154
1772541036896149200,4.013149169921875,1.4860501289367676,-9.160950660705566,-0.4900500178337097
1772541036906059300,4.023059326171875,1.4449501037597656,-9.127950668334961,-0.5740500092506409
1772541036915969000,4.032968994140625,1.4449501037597656,-9.085050582885742,-0.6630000472068787
1772541036925878800,4.042878662109375,1.4959501028060913,-9.111000061035156,-0.6100500226020813
1772541036935789000,4.0527890625,1.4689500331878662,-9.109050750732422,-0.5809500217437744
1772541036945698600,4.062698486328125,1.4860501289367676,-9.079950332641602,-0.6319500207901001
1772541036955608600,4.072608642578125,1.4860501289367676,-9.070050239562988,-0.6360000371932983
1772541036965518600,4.0825185546875,1.4929500818252563,-9.037050247192383,-0.6700500249862671
1772541036975428400,4.092428466796875,1.4839500188827515,-9.031949996948242,-0.7300500273704529
1772541036985338000,4.102338134765625,1.4140501022338867,-9.055950164794922,-0.7630500197410583
1772541036995248000,4.112248046875,1.333050012588501,-9.073050498962402,-0.742050051689148
1772541037015068000,4.13206787109375,1.4209500551223755,-8.9839506149292,-0.6600000262260437
1772541037024977700,4.141977783203125,1.5100500583648682,-9.015000343322754,-0.544950008392334
1772541037034887400,4.151887451171875,1.4839500188827515,-9.085050582885742,-0.5839500427246094
1772541037044797400,4.16179736328125,1.4190000295639038,-9.09000015258789,-0.6700500249862671
1772541037054707500,4.17170751953125,1.4550000429153442,-9.136950492858887,-0.7750500440597534
1772541037064617200,4.1816171875,1.489050030708313,-9.196950912475586,-0.8659500479698181
1772541037074527000,4.19152685546875,1.5169501304626465,-9.22605037689209,-0.8730000257492065
1772541037084437000,4.20143701171875,1.5319501161575317,-9.17805004119873,-0.742050051689148
1772541037094346800,4.2113466796875,1.540950059890747,-9.148950576782227,-0.7230000495910645
1772541037104256800,4.2212568359375,1.543950080871582,-9.097050666809082,-0.5620500445365906
1772541037114166500,4.23116650390625,1.5940500497817993,-9.061050415039062,-0.5140500068664551
1772541037124076300,4.241076171875,1.6009501218795776,-9.058050155639648,-0.45900002121925354
1772541037133986600,4.250986572265625,1.6030501127243042,-9.043950080871582,-0.4759500324726105
1772541037143896000,4.26089599609375,1.612950086593628,-9.006000518798828,-0.4930500090122223
1772541037153806000,4.27080615234375,1.5750000476837158,-9.049050331115723,-0.6700500249862671
1772541037163715800,4.2807158203125,1.5240000486373901,-9.147000312805176,-0.7710000276565552
1772541037173625900,4.2906259765625,1.429050087928772,-9.094050407409668,-0.8590500354766846
1772541037183535900,4.300535888671875,1.4689500331878662,-9.136950492858887,-0.8730000257492065
1772541037193445600,4.310445556640625,1.4449501037597656,-9.169050216674805,-0.8299500346183777
1772541037203355400,4.32035546875,1.4410500526428223,-9.037050247192383,-0.7660500407218933
1772541037213265400,4.330265380859375,1.4100000858306885,-8.946000099182129,-0.7200000286102295
1772541037223175400,4.340175537109375,1.4050500392913818,-8.944050788879395,-0.7350000143051147
1772541037233085200,4.350085205078125,1.4140501022338867,-8.98905086517334,-0.7710000276565552
1772541037242995200,4.3599951171875,1.4170501232147217,-9.061050415039062,-0.8640000224113464
1772541037252905000,4.369905029296875,1.4689500331878662,-9.034049987792969,-0.8899500370025635
1772541037262815000,4.37981494140625,1.5100500583648682,-9.079950332641602,-0.8089500665664673
1772541037272724700,4.389724853515625,1.5390000343322754,-9.09000015258789,-0.8089500665664673
1772541037282634800,4.399634765625,1.582050085067749,-9.106050491333008,-0.8689500689506531
1772541037292544500,4.40954443359375,1.5910500288009644,-9.091950416564941,-0.7590000629425049
1772541037302454300,4.419454345703125,1.6009501218795776,-9.111000061035156,-0.7200000286102295
1772541037312364300,4.4293642578125,1.5559500455856323,-9.098999977111816,-0.6580500602722168
1772541037322274000,4.439274169921875,1.5600000619888306,-9.112950325012207,-0.6990000605583191
1772541037332184000,4.44918408203125,1.519950032234192,-9.058050155639648,-0.5740500092506409
1772541037342094000,4.459093994140625,1.480950117111206,-9.039000511169434,-0.5359500050544739
1772541037352003800,4.46900390625,1.4550000429153442,-8.938950538635254,-0.5430000424385071
1772541037361913900,4.478913818359375,1.4530500173568726,-8.848050117492676,-0.6199500560760498
1772541037371823600,4.48882373046875,1.371000051498413,-8.860050201416016,-0.687000036239624
1772541037381733400,4.4987333984375,1.3210500478744507,-8.905050277709961,-0.7230000495910645
1772541037391643400,4.508643310546875,1.3039500713348389,-8.994000434875488,-0.7150500416755676
1772541037401553200,4.51855322265625,1.2799500226974487,-9.046050071716309,-0.687000036239624
1772541037411463200,4.528463134765625,1.2469500303268433,-9.103950500488281,-0.6940500140190125
1772541037421373200,4.538373291015625,1.218000054359436,-9.142050743103027,-0.7030500173568726
1772541037431283000,4.548282958984375,1.2300000190734863,-9.160950660705566,-0.6840000152587891
1772541037441192700,4.558192626953125,1.3450500965118408,-9.127950668334961,-0.6100500226020813
1772541037451102700,4.568102783203125,1.503000020980835,-9.111000061035156,-0.45705002546310425
1772541037461012500,4.578012451171875,1.672950029373169,-9.103950500488281,-0.3160500228404999
1772541037470922500,4.587922607421875,1.7809500694274902,-9.106050491333008,-0.2650500237941742
1772541037480832300,4.597832275390625,1.7710500955581665,-9.109050750732422,-0.2580000162124634
1772541037490742300,4.6077421875,1.7089500427246094,-9.124950408935547,-0.3439500033855438
1772541037500652000,4.617652099609375,1.6440000534057617,-9.169050216674805,-0.41895002126693726
1772541037510562000,4.62756201171875,1.6249500513076782,-9.136950492858887,-0.41100001335144043
1772541037520471800,4.637471923828125,1.6200001239776611,-9.085050582885742,-0.49500003457069397
1772541037530381800,4.6473818359375,1.5600000619888306,-9.054000854492188,-0.6769500374794006
1772541037540291600,4.65729150390625,1.5319501161575317,-9.015000343322754,-0.814050018787384
1772541037550201300,4.667201416015625,1.5580500364303589,-8.995950698852539,-0.8380500674247742
1772541037560111400,4.677111328125,1.6200001239776611,-8.97705078125,-0.7870500087738037
1772541037570021400,4.687021484375,1.6440000534057617,-8.946000099182129,-0.7369500398635864
1772541037579931100,4.69693115234375,1.596000075340271,-8.914950370788574,-0.7609500288963318
1772541037589841000,4.7068408203125,1.489050030708313,-8.94795036315918,-0.8299500346183777
1772541037599751000,4.7167509765625,1.4170501232147217,-9.006000518798828,-0.9310500621795654
1772541037609660700,4.72666064453125,1.371000051498413,-9.046050071716309,-1.0080000162124634
1772541037619570700,4.73657080078125,1.3540500402450562,-9.065999984741211,-1.081950068473816
1772541037629480400,4.74648046875,1.350000023841858,-9.061050415039062,-1.1490000486373901
1772541037639390500,4.756390380859375,1.3639500141143799,-9.065999984741211,-1.180050015449524
1772541037649300200,4.76630029296875,1.38795006275177,-9.065999984741211,-1.1920500993728638
1772541037659210200,4.776210205078125,1.4100000858306885,-9.082050323486328,-1.1539500951766968
1772541037669120000,4.7861201171875,1.4050500392913818,-9.098999977111816,-1.1130000352859497
1772541037679030000,4.796030029296875,1.3810501098632812,-9.103950500488281,-1.0360500812530518
1772541037688939800,4.805939697265625,1.3470001220703125,-9.070050239562988,-0.9910500645637512
1772541037698849500,4.815849609375,1.374000072479248,-9.037050247192383,-0.9570000171661377
1772541037708759600,4.825759521484375,1.4050500392913818,-9.018000602722168,-0.8470500111579895
1772541037718669300,4.83566943359375,1.4239500761032104,-8.986950874328613,-0.8449500203132629
1772541037728579300,4.845579345703125,1.4310001134872437,-8.970000267028809,-0.7630500197410583
1772541037738489000,4.855489013671875,1.4620500802993774,-8.955000877380371,-0.8329500555992126
1772541037748399000,4.865399169921875,1.443000078201294,-8.950950622558594,-0.8520000576972961
1772541037758308900,4.875308837890625,1.4209500551223755,-8.97705078125,-0.8850000500679016
1772541037768219000,4.885218994140625,1.3830000162124634,-9.027000427246094,-0.8850000500679016
1772541037778128600,4.895128662109375,1.3420500755310059,-9.067950248718262,-0.8779500126838684
1772541037788038700,4.90503857421875,1.327950119972229,-9.085050582885742,-0.9070500135421753
1772541037797948400,4.914948486328125,1.3230000734329224,-9.087000846862793,-0.9139500260353088
1772541037807858400,4.9248583984375,1.3090500831604004,-9.085050582885742,-0.8760000467300415
1772541037817768400,4.9347685546875,1.27305006980896,-9.055950164794922,-0.7270500063896179
1772541037827678200,4.94467822265625,1.3380000591278076,-9.010950088500977,-0.8089500665664673
1772541037837588200,4.954588134765625,1.366050124168396,-9.027000427246094,-0.6700500249862671
1772541037847498000,4.964498046875,1.443000078201294,-9.027000427246094,-0.5839500427246094
1772541037857407700,4.97440771484375,1.5220500230789185,-9.015000343322754,-0.5220000147819519
1772541037867317800,4.98431787109375,1.5580500364303589,-9.001049995422363,-0.5119500160217285
1772541037877227800,4.994227783203125,1.5510001182556152,-9.013050079345703,-0.5119500160217285
1772541037887137500,5.004137451171875,1.5529500246047974,-9.037050247192383,-0.544950008392334
1772541037897047600,5.014047607421875,1.5870001316070557,-9.065999984741211,-0.5719500184059143
1772541037906957300,5.023957275390625,1.6110000610351562,-9.079950332641602,-0.5890500545501709
1772541037916867300,5.033867431640625,1.6060501337051392,-9.070050239562988,-0.6340500116348267
1772541037926777000,5.043777099609375,1.6110000610351562,-9.079950332641602,-0.675000011920929
1772541037936687000,5.05368701171875,1.579050064086914,-9.094050407409668,-0.7129500508308411
1772541037946596900,5.063596923828125,1.5390000343322754,-9.123000144958496,-0.7249500155448914
1772541037956507000,5.0735068359375,1.5079500675201416,-9.133049964904785,-0.7540500164031982
1772541037966416600,5.083416748046875,1.4599500894546509,-9.145050048828125,-0.7900500297546387
1772541037976326700,5.09332666015625,1.4530500173568726,-9.118050575256348,-0.8209500312805176
1772541037986236700,5.103236572265625,1.4790000915527344,-9.075000762939453,-0.8380500674247742
1772541037996146400,5.113146484375,1.5240000486373901,-9.043950080871582,-0.8449500203132629
1772541038006056400,5.123056396484375,1.5390000343322754,-9.046050071716309,-0.8329500555992126
1772541038015966200,5.13296630859375,1.5319501161575317,-9.061050415039062,-0.7939500212669373
1772541038025876200,5.142876220703125,1.5079500675201416,-9.07800006866455,-0.7710000276565552
1772541038035786000,5.152785888671875,1.4689500331878662,-9.091950416564941,-0.742050051689148
1772541038045696000,5.162696044921875,1.426050066947937,-9.103950500488281,-0.7080000042915344
1772541038055605800,5.172605712890625,1.3620001077651978,-9.121050834655762,-0.6679500341415405
1772541038065515800,5.182515869140625,1.3300501108169556,-9.136950492858887,-0.6289500594139099
1772541038075425500,5.192425537109375,1.311000108718872,-9.147000312805176,-0.6030000448226929
1772541038085335600,5.20233544921875,1.3260000944137573,-9.1399507522583,-0.5790000557899475
1772541038095245300,5.212245361328125,1.3470001220703125,-9.130050659179688,-0.547950029373169
1772541038105155300,5.2221552734375,1.3590000867843628,-9.106050491333008,-0.5190000534057617
1772541038115065300,5.2320654296875,1.350000023841858,-9.133049964904785,-0.4900500178337097
1772541038124975000,5.24197509765625,1.3159500360488892,-9.181050300598145,-0.4759500324726105
1772541038134885000,5.251885009765625,1.29705011844635,-9.211950302124023,-0.5070000290870667
1772541038144795000,5.261794921875,1.2780001163482666,-9.199950218200684,-0.5500500202178955
1772541038154705000,5.271704833984375,1.2559500932693481,-9.154050827026367,-0.6130500435829163
1772541038164615000,5.281614990234375,1.2559500932693481,-9.121050834655762,-0.6580500602722168
1772541038174524700,5.291524658203125,1.2490500211715698,-9.106050491333008,-0.6529500484466553
1772541038184434700,5.3014345703125,1.2420001029968262,-9.070050239562988,-0.6360000371932983
1772541038194344400,5.311344482421875,1.2660000324249268,-9.027000427246094,-0.6169500350952148
1772541038204254200,5.321254150390625,1.2850500345230103,-9.006000518798828,-0.6049500107765198
1772541038214164200,5.331164306640625,1.3039500713348389,-9.025050163269043,-0.5689499974250793
1772541038224074200,5.34107421875,1.3420500755310059,-9.065999984741211,-0.547950029373169
1772541038233984300,5.350984375,1.3780500888824463,-9.109050750732422,-0.544950008392334
1772541038243894000,5.36089404296875,1.4070000648498535,-9.163949966430664,-0.5550000071525574
1772541038253803800,5.3708037109375,1.4310001134872437,-9.195000648498535,-0.598050057888031
1772541038263713800,5.3807138671875,1.4479501247406006,-9.2160005569458,-0.6580500602722168
1772541038273623800,5.390623779296875,1.456950068473816,-9.20895004272461,-0.6840000152587891
1772541038283533600,5.400533447265625,1.4190000295639038,-9.175950050354004,-0.7150500416755676
1772541038293443600,5.410443603515625,1.3980001211166382,-9.112950325012207,-0.7110000252723694
1772541038303353300,5.420353271484375,1.3759500980377197,-9.073050498962402,-0.6990000605583191
1772541038313263400,5.430263427734375,1.3860000371932983,-9.073050498962402,-0.6919500231742859
1772541038323173400,5.44017333984375,1.4239500761032104,-9.097050666809082,-0.6820500493049622
1772541038333083100,5.450083251953125,1.4770500659942627,-9.103950500488281,-0.6700500249862671
1772541038342993200,5.4599931640625,1.5390000343322754,-9.073050498962402,-0.6700500249862671
1772541038352903000,5.46990283203125,1.5529500246047974,-9.027000427246094,-0.6840000152587891
1772541038362813000,5.47981298828125,1.5480000972747803,-8.998950004577637,-0.7110000252723694
1772541038372723000,5.489722900390625,1.5000001192092896,-8.994000434875488,-0.7350000143051147
1772541038382632700,5.4996328125,1.4479501247406006,-8.974950790405273,-0.7270500063896179
1772541038392542700,5.509542724609375,1.4329500198364258,-8.958000183105469,-0.7320000529289246
1772541038402452500,5.519452392578125,1.4449501037597656,-8.94795036315918,-0.7129500508308411
1772541038412362500,5.529362548828125,1.467000126838684,-8.944050788879395,-0.6990000605583191
1772541038422272500,5.5392724609375,1.480950117111206,-8.96505069732666,-0.6960000395774841
1772541038432182300,5.549182373046875,1.4740500450134277,-8.979000091552734,-0.6840000152587891
1772541038442092300,5.55909228515625,1.4620500802993774,-8.967000007629395,-0.6649500131607056
1772541038452002300,5.569002197265625,1.4380500316619873,-8.96505069732666,-0.6480000019073486
1772541038461912000,5.578912109375,1.4209500551223755,-8.98905086517334,-0.6439500451087952
1772541038471822000,5.588822021484375,1.4100000858306885,-9.027000427246094,-0.6439500451087952
1772541038481731800,5.59873193359375,1.426050066947937,-9.051000595092773,-0.6480000019073486
1772541038491641900,5.608641845703125,1.4310001134872437,-9.027000427246094,-0.6480000019073486
1772541038501551900,5.6185517578125,1.4449501037597656,-8.98905086517334,-0.6360000371932983
1772541038511462000,5.6284619140625,1.456950068473816,-8.94795036315918,-0.6100500226020813
1772541038521371600,5.63837158203125,1.4359500408172607,-8.95305061340332,-0.6030000448226929
1772541038531281700,5.64828173828125,1.4359500408172607,-9.022950172424316,-0.6169500350952148
1772541038541191700,5.658191650390625,1.4380500316619873,-9.087000846862793,-0.6100500226020813
1772541038551101400,5.668101318359375,1.4479501247406006,-9.112950325012207,-0.6289500594139099
1772541038561011200,5.67801123046875,1.456950068473816,-9.103950500488281,-0.6580500602722168
1772541038570921200,5.687921142578125,1.4410500526428223,-9.091950416564941,-0.6820500493049622
1772541038580831200,5.697831298828125,1.4119501113891602,-9.091950416564941,-0.7150500416755676
1772541038590741200,5.7077412109375,1.38795006275177,-9.085050582885742,-0.7470000386238098
1772541038600651000,5.717651123046875,1.4020500183105469,-9.051000595092773,-0.7560000419616699
1772541038610561000,5.72756103515625,1.4449501037597656,-9.019950866699219,-0.742050051689148
1772541038620470800,5.737470703125,1.489050030708313,-9.027000427246094,-0.6960000395774841
1772541038630380800,5.747380859375,1.5150001049041748,-9.09000015258789,-0.6700500249862671
1772541038640290800,5.757290771484375,1.5240000486373901,-9.145050048828125,-0.6439500451087952
1772541038650200800,5.767200927734375,1.519950032234192,-9.166050910949707,-0.6270000338554382
1772541038660110600,5.777110595703125,1.5079500675201416,-9.157050132751465,-0.6049500107765198
1772541038670020400,5.787020263671875,1.4929500818252563,-9.154050827026367,-0.6079500317573547
1772541038679930400,5.796930419921875,1.4620500802993774,-9.183000564575195,-0.5959500074386597
1772541038689840400,5.80684033203125,1.4530500173568726,-9.199950218200684,-0.6010500192642212
1772541038699750400,5.81675048828125,1.4620500802993774,-9.183000564575195,-0.6049500107765198
1772541038709660200,5.82666015625,1.4599500894546509,-9.159000396728516,-0.6130500435829163
1772541038719570200,5.836570068359375,1.467000126838684,-9.15195083618164,-0.6100500226020813
1772541038729480200,5.846480224609375,1.4310001134872437,-9.15195083618164,-0.5959500074386597
1772541038739390000,5.856389892578125,1.4170501232147217,-9.130050659179688,-0.5910000205039978
1772541038749300000,5.866300048828125,1.4100000858306885,-9.127950668334961,-0.5890500545501709
1772541038759210000,5.8762099609375,1.3980001211166382,-9.1399507522583,-0.5770500302314758
1772541038769120000,5.8861201171875,1.4310001134872437,-9.163949966430664,-0.547950029373169
1772541038779029800,5.89602978515625,1.4380500316619873,-9.169050216674805,-0.5410500168800354
1772541038788939800,5.905939697265625,1.426050066947937,-9.183000564575195,-0.5430000424385071
1772541038798849800,5.915849853515625,1.4140501022338867,-9.183000564575195,-0.5530500411987305
1772541038808759600,5.925759521484375,1.4190000295639038,-9.211950302124023,-0.5890500545501709
1772541038818669600,5.935669677734375,1.4140501022338867,-9.256950378417969,-0.6409500241279602
1772541038828579600,5.94557958984375,1.4239500761032104,-9.316950798034668,-0.6919500231742859
1772541038838489300,5.9554892578125,1.4500501155853271,-9.300000190734863,-0.7270500063896179
1772541038848399400,5.9653994140625,1.4620500802993774,-9.304950714111328,-0.7609500288963318
1772541038858309400,5.975309326171875,1.4550000429153442,-9.322050094604492,-0.7560000419616699
1772541038868219400,5.985219482421875,1.4500501155853271,-9.372000694274902,-0.7300500273704529
1772541038878129200,5.995129150390625,1.4620500802993774,-9.367050170898438,-0.7030500173568726
1772541038888039200,6.0050390625,1.5240000486373901,-9.328950881958008,-0.6960000395774841
1772541038897949200,6.01494921875,1.5289500951766968,-9.279000282287598,-0.7030500173568726
1772541038907859200,6.024859130859375,1.4959501028060913,-9.244950294494629,-0.6940500140190125
1772541038917769000,6.03476904296875,1.480950117111206,-9.20895004272461,-0.6940500140190125
1772541038927679000,6.044678955078125,1.4410500526428223,-9.175950050354004,-0.6960000395774841
1772541038937589000,6.054589111328125,1.426050066947937,-9.19005012512207,-0.687000036239624
1772541038947499000,6.0644990234375,1.426050066947937,-9.255000114440918,-0.6769500374794006
1772541038957408800,6.07440869140625,1.4530500173568726,-9.327000617980957,-0.675000011920929
1772541038967318800,6.08431884765625,1.4959501028060913,-9.370050430297852,-0.6720000505447388
1772541038977228800,6.094228759765625,1.5220500230789185,-9.37695026397705,-0.6889500617980957
1772541038987138600,6.104138671875,1.5169501304626465,-9.384000778198242,-0.7129500508308411
1772541038997048600,6.114048583984375,1.5240000486373901,-9.37695026397705,-0.7440000176429749
1772541039006958600,6.12395849609375,1.4839500188827515,-9.334050178527832,-0.7680000066757202
1772541039016868400,6.133868408203125,1.4209500551223755,-9.315000534057617,-0.7800000309944153
1772541039026778400,6.1437783203125,1.3980001211166382,-9.331050872802734,-0.7510500550270081
1772541039036688400,6.1536884765625,1.3780500888824463,-9.346050262451172,-0.6889500617980957
1772541039046598400,6.163598388671875,1.3900500535964966,-9.334050178527832,-0.6510000228881836
1772541039056508400,6.17350830078125,1.4239500761032104,-9.303000450134277,-0.6460500359535217
1772541039066418400,6.18341845703125,1.4599500894546509,-9.279000282287598,-0.6460500359535217
1772541039076328200,6.193328125,1.4860501289367676,-9.26400089263916,-0.6480000019073486
1772541039086238200,6.20323828125,1.5120000839233398,-9.276000022888184,-0.6480000019073486
1772541039096148200,6.213148193359375,1.519950032234192,-9.291000366210938,-0.6720000505447388
1772541039106058000,6.22305810546875,1.5169501304626465,-9.340950012207031,-0.675000011920929
1772541039115968000,6.232968017578125,1.4959501028060913,-9.394050598144531,-0.6720000505447388
1772541039125878000,6.2428779296875,1.489050030708313,-9.46500015258789,-0.6820500493049622
1772541039135788000,6.2527880859375,1.480950117111206,-9.493950843811035,-0.700950026512146
1772541039145697800,6.26269775390625,1.5220500230789185,-9.51300048828125,-0.7300500273704529
1772541039155607800,6.27260791015625,1.5460500717163086,-9.484950065612793,-0.7560000419616699
1772541039165517800,6.282517822265625,1.5240000486373901,-9.439050674438477,-0.781950056552887
1772541039175427800,6.292427734375,1.4770500659942627,-9.397950172424316,-0.7780500650405884
1772541039185337900,6.302337890625,1.4500501155853271,-9.38895034790039,-0.7609500288963318
1772541039195247900,6.312247802734375,1.426050066947937,-9.409950256347656,-0.7200000286102295
1772541039205157600,6.32215771484375,1.467000126838684,-9.45300006866455,-0.7150500416755676
1772541039215067600,6.332067626953125,1.503000020980835,-9.47700023651123,-0.6960000395774841
1772541039224977700,6.341977783203125,1.5360000133514404,-9.51300048828125,-0.700950026512146
1772541039234887700,6.3518876953125,1.5679501295089722,-9.559050559997559,-0.6940500140190125
1772541039244797400,6.36179736328125,1.582050085067749,-9.592050552368164,-0.6889500617980957
1772541039254707500,6.37170751953125,1.579050064086914,-9.609000205993652,-0.6889500617980957
1772541039264617500,6.381617431640625,1.5870001316070557,-9.621000289916992,-0.7060500383377075
1772541039274527500,6.391527587890625,1.5679501295089722,-9.622950553894043,-0.6820500493049622
1772541039284437200,6.401437255859375,1.5360000133514404,-9.600000381469727,-0.6679500341415405
1772541039294347300,6.41134716796875,1.5169501304626465,-9.565950393676758,-0.6360000371932983
1772541039304257300,6.42125732421875,1.4790000915527344,-9.5110502243042,-0.6100500226020813
1772541039314167300,6.431167236328125,1.4620500802993774,-9.46095085144043,-0.5839500427246094
1772541039324077300,6.441077392578125,1.4599500894546509,-9.43005084991455,-0.5770500302314758
1772541039333987000,6.450987060546875,1.456950068473816,-9.463050842285156,-0.5890500545501709
1772541039343897300,6.4608974609375,1.4650501012802124,-9.54900074005127,-0.6289500594139099
1772541039353807000,6.47080712890625,1.4650501012802124,-9.621000289916992,-0.6799500584602356
1772541039363717000,6.480717041015625,1.4620500802993774,-9.6670503616333,-0.6990000605583191
1772541039373627100,6.490627197265625,1.467000126838684,-9.658950805664062,-0.6990000605583191
1772541039383537200,6.500537109375,1.4839500188827515,-9.66195011138916,-0.7060500383377075
1772541039393447200,6.510447265625,1.4839500188827515,-9.643050193786621,-0.739050030708313
1772541039403357200,6.520357177734375,1.4620500802993774,-9.619050025939941,-0.7540500164031982
1772541039413267200,6.53026708984375,1.467000126838684,-9.564000129699707,-0.7510500550270081
1772541039423177000,6.540177001953125,1.4620500802993774,-9.505950927734375,-0.7369500398635864
1772541039433087000,6.5500869140625,1.4359500408172607,-9.484950065612793,-0.7129500508308411
1772541039442997000,6.5599970703125,1.4070000648498535,-9.505950927734375,-0.7080000042915344
1772541039452907000,6.569906982421875,1.4140501022338867,-9.559050559997559,-0.7270500063896179
1772541039462817000,6.579817138671875,1.4410500526428223,-9.645000457763672,-0.7849500179290771
1772541039472727000,6.58972705078125,1.5120000839233398,-9.754950523376465,-0.8329500555992126
1772541039482637000,6.599636962890625,1.5649501085281372,-9.882000923156738,-0.8380500674247742
1772541039492546800,6.609546875,1.6060501337051392,-9.963000297546387,-0.8590500354766846
1772541039502456800,6.619456787109375,1.64205002784729,-9.999000549316406,-0.856950044631958
1772541039512366800,6.629366943359375,1.6560001373291016,-9.95895004272461,-0.8500500321388245
1772541039522276900,6.63927685546875,1.651050090789795,-9.906000137329102,-0.8230500221252441
1772541039532187000,6.649186767578125,1.672950029373169,-9.832050323486328,-0.7630500197410583
1772541039542097000,6.659096923828125,1.6900501251220703,-9.702000617980957,-0.700950026512146
1772541039552007000,6.6690068359375,1.6870501041412354,-9.556050300598145,-0.6600000262260437
1772541039561916700,6.678916748046875,1.6320000886917114,-9.468000411987305,-0.6480000019073486
1772541039571826700,6.68882666015625,1.5889500379562378,-9.42495059967041,-0.6460500359535217
1772541039581736700,6.69873681640625,1.5360000133514404,-9.43695068359375,-0.6319500207901001
1772541039591646700,6.708646728515625,1.5120000839233398,-9.468000411987305,-0.6409500241279602
1772541039601556700,6.718556640625,1.5169501304626465,-9.52500057220459,-0.6409500241279602
1772541039611466800,6.728466796875,1.5390000343322754,-9.588000297546387,-0.6439500451087952
1772541039621376800,6.738376708984375,1.5700501203536987,-9.646950721740723,-0.6289500594139099
1772541039631286800,6.748286865234375,1.6060501337051392,-9.75,-0.5890500545501709
1772541039641196800,6.75819677734375,1.6630500555038452,-9.834000587463379,-0.544950008392334
1772541039651106800,6.76810693359375,1.6819500923156738,-9.871950149536133,-0.5220000147819519
1772541039661016800,6.778016845703125,1.6680001020431519,-9.849000930786133,-0.559950053691864
1772541039670926800,6.7879267578125,1.5870001316070557,-9.778950691223145,-0.6319500207901001
1772541039680836900,6.7978369140625,1.4719500541687012,-9.6739501953125,-0.6720000505447388
1772541039690746600,6.80774658203125,1.366050124168396,-9.529950141906738,-0.6679500341415405
1772541039700656600,6.81765673828125,1.3189500570297241,-9.391050338745117,-0.6169500350952148
1772541039710566700,6.827566650390625,1.3380000591278076,-9.319050788879395,-0.559950053691864
1772541039720476700,6.8374765625,1.3780500888824463,-9.298050880432129,-0.4900500178337097
1772541039730386700,6.84738671875,1.467000126838684,-9.304950714111328,-0.44700002670288086
1772541039740296700,6.857296630859375,1.5529500246047974,-9.312000274658203,-0.4429500102996826
1772541039750206500,6.86720654296875,1.6150500774383545,-9.315000534057617,-0.51705002784729
1772541039760116500,6.877116455078125,1.5580500364303589,-9.396000862121582,-0.6270000338554382
1772541039770026500,6.887026611328125,1.4599500894546509,-9.576000213623047,-0.6720000505447388
1772541039779936500,6.8969365234375,1.4100000858306885,-9.757950782775879,-0.6769500374794006
1772541039789846500,6.906846435546875,1.4689500331878662,-9.868050575256348,-0.6510000228881836
1772541039799756500,6.916756591796875,1.5910500288009644,-9.883950233459473,-0.6439500451087952
1772541039809666600,6.92666650390625,1.6800000667572021,-9.849000930786133,-0.6720000505447388
1772541039819576300,6.936576416015625,1.6900501251220703,-9.789000511169434,-0.742050051689148
1772541039829486600,6.946486572265625,1.6200001239776611,-9.718950271606445,-0.7939500212669373
1772541039839396600,6.956396728515625,1.5120000839233398,-9.64995002746582,-0.8400000333786011
1772541039849306600,6.966306640625,1.4310001134872437,-9.625950813293457,-0.8059500455856323
1772541039859216600,6.976216552734375,1.3930500745773315,-9.658950805664062,-0.7369500398635864
1772541039869126700,6.986126708984375,1.3999500274658203,-9.702000617980957,-0.6480000019073486
1772541039879036700,6.99603662109375,1.489050030708313,-9.688050270080566,-0.6079500317573547
1772541039888946400,7.005946533203125,1.5700501203536987,-9.601950645446777,-0.5929500460624695
1772541039898856400,7.0158564453125,1.6300500631332397,-9.52500057220459,-0.6049500107765198
1772541039908766500,7.025766357421875,1.599000096321106,-9.5110502243042,-0.6439500451087952
1772541039918676500,7.035676513671875,1.519950032234192,-9.610950469970703,-0.7110000252723694
1772541039928586500,7.04558642578125,1.4770500659942627,-9.753000259399414,-0.7800000309944153
1772541039938496500,7.05549658203125,1.4599500894546509,-9.849000930786133,-0.8260500431060791
1772541039948406500,7.065406494140625,1.5049500465393066,-9.898950576782227,-0.8470500111579895
1772541039958316500,7.075316650390625,1.5529500246047974,-9.934950828552246,-0.8449500203132629
1772541039968226600,7.0852265625,1.6030501127243042,-9.955950736999512,-0.8299500346183777
1772541039978136600,7.095136474609375,1.6560001373291016,-9.955950736999512,-0.814050018787384
1772541039988046600,7.105046630859375,1.6900501251220703,-9.951000213623047,-0.8160000443458557
1772541039997956600,7.11495654296875,1.6920000314712524,-9.882000923156738,-0.7939500212669373
1772541040007866600,7.12486669921875,1.6800000667572021,-9.730950355529785,-0.7270500063896179
1772541040017776600,7.134776611328125,1.6440000534057617,-9.607050895690918,-0.6480000019073486
1772541040027686700,7.144686767578125,1.5769500732421875,-9.547050476074219,-0.6030000448226929
1772541040037596700,7.1545966796875,1.5000001192092896,-9.559050559997559,-0.6010500192642212
1772541040047506700,7.164506591796875,1.4740500450134277,-9.646950721740723,-0.6100500226020813
1772541040057416700,7.174416748046875,1.519950032234192,-9.754950523376465,-0.6390000581741333
1772541040067326500,7.184326416015625,1.5649501085281372,-9.850950241088867,-0.6169500350952148
1772541040077236500,7.194236572265625,1.5720000267028809,-9.919950485229492,-0.5910000205039978
1772541040087146500,7.204146484375,1.5889500379562378,-9.961050033569336,-0.5790000557899475
1772541040097056500,7.214056396484375,1.5840001106262207,-9.907950401306152,-0.5929500460624695
1772541040106966500,7.223966552734375,1.596000075340271,-9.796050071716309,-0.6360000371932983
1772541040116876500,7.23387646484375,1.582050085067749,-9.669000625610352,-0.6460500359535217
1772541040126786600,7.24378662109375,1.5360000133514404,-9.565950393676758,-0.6649500131607056
1772541040136696600,7.253696533203125,1.4839500188827515,-9.5110502243042,-0.675000011920929
1772541040146606600,7.263606689453125,1.4190000295639038,-9.48705005645752,-0.6630000472068787
1772541040156516600,7.2735166015625,1.374000072479248,-9.516000747680664,-0.6409500241279602
1772541040166426600,7.283426513671875,1.4050500392913818,-9.583050727844238,-0.6240000128746033
1772541040176336600,7.293336669921875,1.5000001192092896,-9.664050102233887,-0.6319500207901001
1772541040186246700,7.30324658203125,1.5910500288009644,-9.730950355529785,-0.6580500602722168
1772541040196156700,7.31315673828125,1.6609500646591187,-9.790950775146484,-0.687000036239624
1772541040206066700,7.323066650390625,1.7059500217437744,-9.829050064086914,-0.7129500508308411
1772541040215976700,7.332976806640625,1.7059500217437744,-9.778950691223145,-0.7440000176429749
1772541040225886700,7.34288671875,1.651050090789795,-9.646950721740723,-0.7630500197410583
1772541040235796700,7.352796630859375,1.599000096321106,-9.504000663757324,-0.7660500407218933
1772541040245706800,7.362706787109375,1.5580500364303589,-9.385950088500977,-0.7440000176429749
1772541040255616800,7.37261669921875,1.5100500583648682,-9.328950881958008,-0.7350000143051147
1772541040265526800,7.38252685546875,1.5079500675201416,-9.292950630187988,-0.742050051689148
1772541040275436800,7.392436767578125,1.5529500246047974,-9.295050621032715,-0.7129500508308411
1772541040285346800,7.402346923828125,1.6110000610351562,-9.352950096130371,-0.6529500484466553
1772541040295256800,7.4122568359375,1.6230000257492065,-9.442049980163574,-0.5860500335693359
1772541040305166800,7.422166748046875,1.6150500774383545,-9.559050559997559,-0.5689499974250793
1772541040315076900,7.432076904296875,1.5840001106262207,-9.658950805664062,-0.5740500092506409
1772541040324987000,7.44198681640625,1.5529500246047974,-9.753000259399414,-0.6030000448226929
1772541040334896600,7.451896728515625,1.5460500717163086,-9.81705093383789,-0.6409500241279602
1772541040344806700,7.461806640625,1.5150001049041748,-9.841050148010254,-0.6580500602722168
1772541040354716700,7.471716552734375,1.480950117111206,-9.793050765991211,-0.6600000262260437
1772541040364626700,7.481626708984375,1.4380500316619873,-9.693000793457031,-0.6580500602722168
1772541040374537000,7.491536865234375,1.4119501113891602,-9.571050643920898,-0.6460500359535217
1772541040384446700,7.50144677734375,1.374000072479248,-9.433950424194336,-0.6460500359535217
1772541040394356700,7.511356689453125,1.3780500888824463,-9.339000701904297,-0.6360000371932983
1772541040404266800,7.521266845703125,1.3980001211166382,-9.312000274658203,-0.6480000019073486
1772541040414177000,7.531177001953125,1.4359500408172607,-9.355050086975098,-0.6340500116348267
1772541040424086800,7.541086669921875,1.5150001049041748,-9.46500015258789,-0.6150000095367432
1772541040433996800,7.550996826171875,1.579050064086914,-9.625950813293457,-0.6169500350952148
1772541040443906800,7.56090673828125,1.596000075340271,-9.801000595092773,-0.6240000128746033
1772541040453816800,7.57081689453125,1.6080000400543213,-9.987000465393066,-0.6460500359535217
1772541040463726800,7.580726806640625,1.6390501260757446,-10.10205078125,-0.6960000395774841
1772541040473636900,7.590636962890625,1.6780500411987305,-10.159950256347656,-0.7540500164031982
1772541040483547000,7.600546875,1.672950029373169,-10.09005069732666,-0.814050018787384
1772541040493457000,7.610456787109375,1.6110000610351562,-9.898950576782227,-0.8179500102996826
1772541040503367000,7.620366943359375,1.503000020980835,-9.702000617980957,-0.7939500212669373
1772541040513277000,7.63027685546875,1.4410500526428223,-9.528000831604004,-0.7630500197410583
1772541040523187000,7.64018701171875,1.3999500274658203,-9.385950088500977,-0.7270500063896179
1772541040533097000,7.650096923828125,1.4050500392913818,-9.298050880432129,-0.6840000152587891
1772541040543007000,7.660007080078125,1.4599500894546509,-9.23805046081543,-0.6439500451087952
1772541040552917000,7.6699169921875,1.5390000343322754,-9.279000282287598,-0.5910000205039978
1772541040562827000,7.679826904296875,1.5840001106262207,-9.439050674438477,-0.5839500427246094
1772541040572737000,7.689737060546875,1.6249500513076782,-9.64995002746582,-0.6150000095367432
1772541040582647000,7.69964697265625,1.6270500421524048,-9.868050575256348,-0.6510000228881836
1772541040592557000,7.70955712890625,1.6440000534057617,-10.05405044555664,-0.6990000605583191
1772541040602467000,7.719467041015625,1.6489500999450684,-10.165050506591797,-0.742050051689148
1772541040612377000,7.729377197265625,1.6270500421524048,-10.174050331115723,-0.8110500574111938
1772541040622287000,7.739287109375,1.5750000476837158,-10.026000022888184,-0.8730000257492065
1772541040632197000,7.749197021484375,1.4910000562667847,-9.793050765991211,-0.8929500579833984
1772541040642107100,7.759107177734375,1.429050087928772,-9.589950561523438,-0.8659500479698181
1772541040652017200,7.76901708984375,1.3900500535964966,-9.444000244140625,-0.8110500574111938
1772541040661927200,7.77892724609375,1.3780500888824463,-9.372000694274902,-0.7489500641822815
1772541040671837200,7.788837158203125,1.4380500316619873,-9.340950012207031,-0.6769500374794006
1772541040681747200,7.798747314453125,1.5480000972747803,-9.382050514221191,-0.6049500107765198
1772541040691657200,7.8086572265625,1.6470000743865967,-9.468000411987305,-0.5620500445365906
1772541040701567200,7.818567138671875,1.7160000801086426,-9.597000122070312,-0.5650500059127808
1772541040711477200,7.828477294921875,1.752000093460083,-9.772050857543945,-0.6199500560760498
1772541040721387300,7.83838720703125,1.7640000581741333,-9.925050735473633,-0.687000036239624
1772541040731297300,7.84829736328125,1.7640000581741333,-10.021050453186035,-0.7590000629425049
1772541040741207300,7.858207275390625,1.7280000448226929,-10.011000633239746,-0.8329500555992126
1772541040751117300,7.868117431640625,1.6390501260757446,-9.904050827026367,-0.8809500336647034
1772541040761027300,7.87802734375,1.5150001049041748,-9.75,-0.9000000357627869
1772541040770937000,7.88793701171875,1.4410500526428223,-9.604050636291504,-0.8659500479698181
1772541040780847400,7.897847412109375,1.3950001001358032,-9.48900032043457,-0.814050018787384
1772541040790757400,7.90775732421875,1.4100000858306885,-9.382050514221191,-0.7660500407218933
1772541040800667100,7.917667236328125,1.4530500173568726,-9.327000617980957,-0.7129500508308411
1772541040810577200,7.9275771484375,1.5169501304626465,-9.351000785827637,-0.6630000472068787
1772541040820487200,7.937487060546875,1.5750000476837158,-9.427050590515137,-0.6169500350952148
1772541040830397200,7.947397216796875,1.6470000743865967,-9.553950309753418,-0.6199500560760498
1772541040840307500,7.957307373046875,1.696950078010559,-9.669000625610352,-0.6390000581741333
1772541040850217200,7.96721728515625,1.714050054550171,-9.772050857543945,-0.6720000505447388
1772541040860127200,7.977127197265625,1.6660500764846802,-9.844050407409668,-0.6769500374794006
1772541040870037200,7.987037353515625,1.5889500379562378,-9.882000923156738,-0.675000011920929
1772541040879947300,7.996947265625,1.5220500230789185,-9.904050827026367,-0.6679500341415405
1772541040889857500,8.006857421875,1.4860501289367676,-9.870000839233398,-0.687000036239624
1772541040899767600,8.016767578125,1.4790000915527344,-9.784050941467285,-0.7129500508308411
1772541040909677300,8.02667724609375,1.4740500450134277,-9.6670503616333,-0.7230000495910645
1772541040919587300,8.03658740234375,1.4329500198364258,-9.556050300598145,-0.7350000143051147
1772541040929497300,8.046497314453125,1.4329500198364258,-9.508950233459473,-0.7320000529289246
1772541040939407400,8.056407470703125,1.4530500173568726,-9.493950843811035,-0.7080000042915344
1772541040949317600,8.066317626953126,1.4929500818252563,-9.508950233459473,-0.6529500484466553
1772541040959227600,8.0762275390625,1.5840001106262207,-9.53700065612793,-0.5670000314712524
1772541040969137700,8.0861376953125,1.6489500999450684,-9.601950645446777,-0.51705002784729
1772541040979047700,8.096047607421875,1.6849501132965088,-9.69795036315918,-0.5020500421524048
1772541040988957700,8.105957763671874,1.6699501276016235,-9.80505084991455,-0.5359500050544739
1772541040998867500,8.115867431640625,1.6320000886917114,-9.880050659179688,-0.6010500192642212
1772541041008777500,8.125777587890624,1.579050064086914,-9.886950492858887,-0.6820500493049622
1772541041018687500,8.1356875,1.5079500675201416,-9.868050575256348,-0.742050051689148
1772541041028597500,8.145597412109375,1.4550000429153442,-9.832050323486328,-0.7560000419616699
1772541041038507500,8.155507568359376,1.4070000648498535,-9.754950523376465,-0.7320000529289246
1772541041048417500,8.16541748046875,1.4359500408172607,-9.6670503616333,-0.6990000605583191
1772541041058327600,8.17532763671875,1.4839500188827515,-9.544050216674805,-0.6630000472068787
1772541041068237600,8.185237548828125,1.5390000343322754,-9.457950592041016,-0.6649500131607056
1772541041078147600,8.195147705078124,1.5769500732421875,-9.406050682067871,-0.6480000019073486
1772541041088057600,8.2050576171875,1.579050064086914,-9.43695068359375,-0.6319500207901001
1772541041097967600,8.214967529296874,1.5630000829696655,-9.51300048828125,-0.6079500317573547
1772541041107877600,8.224877685546875,1.540950059890747,-9.609000205993652,-0.5959500074386597
1772541041117787600,8.23478759765625,1.5480000972747803,-9.702000617980957,-0.6030000448226929
1772541041127697700,8.24469775390625,1.5580500364303589,-9.76200008392334,-0.6010500192642212
1772541041137607700,8.254607666015625,1.5630000829696655,-9.760050773620605,-0.6289500594139099
1772541041147517700,8.264517578125,1.5889500379562378,-9.717000007629395,-0.6600000262260437
1772541041157427700,8.274427734375,1.6110000610351562,-9.625950813293457,-0.7300500273704529
1772541041167337500,8.28433740234375,1.579050064086914,-9.568050384521484,-0.7920000553131104
1772541041177247500,8.29424755859375,1.527000069618225,-9.508950233459473,-0.8020500540733337
1772541041187157500,8.304157470703124,1.4959501028060913,-9.496950149536133,-0.7939500212669373
1772541041197067500,8.314067626953126,1.4959501028060913,-9.520950317382812,-0.7849500179290771
1772541041206977500,8.3239775390625,1.527000069618225,-9.589950561523438,-0.742050051689148
1772541041216887600,8.333887451171876,1.579050064086914,-9.655050277709961,-0.7060500383377075
1772541041226797800,8.3437978515625,1.6470000743865967,-9.700050354003906,-0.6919500231742859
1772541041236707600,8.35370751953125,1.6750500202178955,-9.72195053100586,-0.6820500493049622
1772541041246617600,8.36361767578125,1.6680001020431519,-9.7339506149292,-0.6600000262260437
1772541041256527600,8.373527587890624,1.6750500202178955,-9.736050605773926,-0.6559500098228455
1772541041266437600,8.383437744140625,1.6350001096725464,-9.702000617980957,-0.6700500249862671
1772541041276347600,8.39334765625,1.5580500364303589,-9.610950469970703,-0.6769500374794006
1772541041286257700,8.403257568359376,1.5240000486373901,-9.564000129699707,-0.6840000152587891
1772541041296167700,8.413167724609375,1.4910000562667847,-9.576000213623047,-0.7180500626564026
1772541041306077700,8.42307763671875,1.4689500331878662,-9.610950469970703,-0.7300500273704529
1772541041315987700,8.43298779296875,1.489050030708313,-9.640050888061523,-0.7440000176429749
1772541041325897700,8.442897705078124,1.5480000972747803,-9.652050018310547,-0.7489500641822815
1772541041335807700,8.452807861328125,1.5720000267028809,-9.664050102233887,-0.7369500398635864
1772541041345717800,8.4627177734375,1.5840001106262207,-9.669000625610352,-0.7320000529289246
1772541041355627800,8.472627685546875,1.5870001316070557,-9.688050270080566,-0.7080000042915344
1772541041365537800,8.482537841796875,1.5910500288009644,-9.681000709533691,-0.7030500173568726
1772541041375447800,8.49244775390625,1.5910500288009644,-9.68595027923584,-0.7150500416755676
1772541041395267800,8.512267822265626,1.5649501085281372,-9.658950805664062,-0.6960000395774841
1772541041405177900,8.522177734375,1.5360000133514404,-9.6739501953125,-0.6720000505447388
1772541041415087600,8.532087646484374,1.5220500230789185,-9.68595027923584,-0.6480000019073486
1772541041424998000,8.541997802734375,1.5529500246047974,-9.702000617980957,-0.6510000228881836
1772541041434908000,8.551907958984375,1.5720000267028809,-9.67905044555664,-0.6769500374794006
1772541041444818000,8.56181787109375,1.599000096321106,-9.67905044555664,-0.700950026512146
1772541041454727700,8.571727783203125,1.599000096321106,-9.681000709533691,-0.6840000152587891
1772541041464637700,8.5816376953125,1.6009501218795776,-9.64995002746582,-0.6649500131607056
1772541041474547700,8.591547607421875,1.5910500288009644,-9.637950897216797,-0.6360000371932983
1772541041484457700,8.601457763671876,1.5750000476837158,-9.640050888061523,-0.6169500350952148
1772541041494368000,8.611367919921875,1.5529500246047974,-9.6670503616333,-0.6030000448226929
1772541041504278000,8.621278076171874,1.527000069618225,-9.68595027923584,-0.6169500350952148
1772541041514188000,8.63118798828125,1.4980500936508179,-9.67905044555664,-0.6150000095367432
1772541041524097800,8.641097900390625,1.4650501012802124,-9.69795036315918,-0.6079500317573547
1772541041534008000,8.651008056640626,1.4599500894546509,-9.718950271606445,-0.6079500317573547
1772541041543917800,8.660917724609375,1.4910000562667847,-9.694950103759766,-0.6360000371932983
1772541041553827800,8.670827880859376,1.5390000343322754,-9.604050636291504,-0.6600000262260437
1772541041563737900,8.68073779296875,1.5679501295089722,-9.544050216674805,-0.7129500508308411
1772541041573648000,8.69064794921875,1.5480000972747803,-9.54900074005127,-0.739050030708313
1772541041583558000,8.700557861328125,1.5319501161575317,-9.56100082397461,-0.7320000529289246
1772541041593468000,8.710468017578124,1.519950032234192,-9.547050476074219,-0.6990000605583191
1772541041603378000,8.7203779296875,1.5169501304626465,-9.54900074005127,-0.6960000395774841
1772541041613288000,8.730287841796875,1.5319501161575317,-9.595050811767578,-0.6990000605583191
1772541041623198000,8.740197998046876,1.5220500230789185,-9.657000541687012,-0.7150500416755676
1772541041633108000,8.75010791015625,1.5559500455856323,-9.712050437927246,-0.7270500063896179
1772541041643018000,8.76001806640625,1.5870001316070557,-9.745950698852539,-0.742050051689148
1772541041652928000,8.769927978515625,1.579050064086914,-9.76200008392334,-0.7369500398635864
1772541041662837800,8.779837646484374,1.596000075340271,-9.769950866699219,-0.7350000143051147
1772541041672747800,8.789747802734375,1.612950086593628,-9.730950355529785,-0.7249500155448914
1772541041682657800,8.79965771484375,1.6110000610351562,-9.64995002746582,-0.7489500641822815
1772541041692567800,8.80956787109375,1.6150500774383545,-9.589950561523438,-0.7920000553131104
1772541041702477800,8.819477783203125,1.5940500497817993,-9.571050643920898,-0.814050018787384
1772541041712387800,8.829387939453126,1.5870001316070557,-9.576000213623047,-0.7939500212669373
1772541041722297900,8.8392978515625,1.5769500732421875,-9.57300090789795,-0.7849500179290771
1772541041732207900,8.849207763671876,1.5910500288009644,-9.613950729370117,-0.7849500179290771
1772541041742118000,8.859117919921875,1.5870001316070557,-9.6739501953125,-0.7849500179290771
1772541041752028000,8.86902783203125,1.612950086593628,-9.718950271606445,-0.7969500422477722
1772541041761938000,8.87893798828125,1.6009501218795776,-9.742950439453125,-0.8040000200271606
1772541041771848000,8.888847900390624,1.6080000400543213,-9.753000259399414,-0.7990500330924988
1772541041781758000,8.898758056640625,1.6080000400543213,-9.736050605773926,-0.7920000553131104
1772541041791668000,8.90866796875,1.5889500379562378,-9.693000793457031,-0.7990500330924988
1772541041801578000,8.918577880859376,1.5600000619888306,-9.621000289916992,-0.7969500422477722
1772541041811488000,8.928488037109375,1.5600000619888306,-9.576000213623047,-0.7630500197410583
1772541041821397800,8.938397705078126,1.5390000343322754,-9.576000213623047,-0.7350000143051147
1772541041831308000,8.94830810546875,1.5580500364303589,-9.576000213623047,-0.7180500626564026
1772541041841218000,8.958218017578124,1.5600000619888306,-9.585000038146973,-0.7320000529289246
1772541041851128000,8.968128173828125,1.5769500732421875,-9.609000205993652,-0.7230000495910645
1772541041861037800,8.978037841796874,1.5840001106262207,-9.633000373840332,-0.7030500173568726
1772541041870947800,8.98794775390625,1.5940500497817993,-9.67905044555664,-0.6580500602722168
1772541041880857900,8.99785791015625,1.596000075340271,-9.712050437927246,-0.6460500359535217
1772541041890768000,9.007767822265626,1.596000075340271,-9.724050521850586,-0.6529500484466553
1772541041900678000,9.017677978515625,1.5720000267028809,-9.717000007629395,-0.6679500341415405
1772541041910588000,9.027587890625,1.5510001182556152,-9.669000625610352,-0.6889500617980957
1772541041920498000,9.037497802734375,1.5360000133514404,-9.640050888061523,-0.6940500140190125
1772541041930408000,9.047407958984374,1.5150001049041748,-9.622950553894043,-0.6769500374794006
1772541041940318000,9.05731787109375,1.4980500936508179,-9.595050811767578,-0.6510000228881836
1772541041950228000,9.06722802734375,1.4929500818252563,-9.552000045776367,-0.6360000371932983
1772541041960138000,9.077137939453126,1.4860501289367676,-9.517950057983398,-0.6169500350952148
1772541041970048000,9.087048095703125,1.5049500465393066,-9.54900074005127,-0.6340500116348267
1772541041979957800,9.096957763671876,1.5220500230789185,-9.607050895690918,-0.6460500359535217
1772541041989868000,9.106867919921875,1.5390000343322754,-9.600000381469727,-0.6820500493049622
1772541041999778000,9.116778076171874,1.5360000133514404,-9.57300090789795,-0.6940500140190125
1772541042009687800,9.126687744140625,1.5340501070022583,-9.576000213623047,-0.6720000505447388
1772541042019597800,9.136597900390624,1.5360000133514404,-9.622950553894043,-0.6439500451087952
1772541042029507800,9.1465078125,1.5460500717163086,-9.67905044555664,-0.6289500594139099
1772541042039417900,9.15641796875,1.5510001182556152,-9.706950187683105,-0.6460500359535217
1772541042049327900,9.166327880859376,1.6009501218795776,-9.742950439453125,-0.687000036239624
1772541042059238000,9.17623779296875,1.6060501337051392,-9.76200008392334,-0.7060500383377075
1772541042069147600,9.186147705078126,1.6009501218795776,-9.77400016784668,-0.7110000252723694
1772541042079057700,9.1960576171875,1.5840001106262207,-9.766950607299805,-0.700950026512146
1772541042088967700,9.2059677734375,1.5769500732421875,-9.769950866699219,-0.700950026512146
1772541042098877700,9.215877685546875,1.5750000476837158,-9.736050605773926,-0.7110000252723694
1772541042108787700,9.22578759765625,1.5910500288009644,-9.664050102233887,-0.7150500416755676
1772541042118697700,9.23569775390625,1.5840001106262207,-9.583050727844238,-0.7030500173568726
1772541042128607700,9.245607666015625,1.5630000829696655,-9.540000915527344,-0.687000036239624
1772541042138517800,9.255517822265626,1.5319501161575317,-9.520950317382812,-0.6630000472068787
1772541042148427800,9.265427734375,1.5289500951766968,-9.520950317382812,-0.6720000505447388
1772541042158337800,9.275337890625,1.5319501161575317,-9.535050392150879,-0.6919500231742859
1772541042168247800,9.285247802734375,1.540950059890747,-9.607050895690918,-0.6919500231742859
1772541042178157600,9.295157470703124,1.5580500364303589,-9.688050270080566,-0.6799500584602356
1772541042188067600,9.305067626953125,1.5649501085281372,-9.753000259399414,-0.6529500484466553
1772541042197977900,9.314977783203124,1.5769500732421875,-9.789000511169434,-0.6460500359535217
1772541042207888000,9.324887939453125,1.5940500497817993,-9.826950073242188,-0.6289500594139099
1772541042217797600,9.334797607421875,1.6200001239776611,-9.865050315856934,-0.6439500451087952
1772541042227707600,9.344707763671876,1.6320000886917114,-9.865050315856934,-0.6990000605583191
1772541042237617700,9.35461767578125,1.612950086593628,-9.813000679016113,-0.7560000419616699
1772541042247527700,9.364527587890626,1.5679501295089722,-9.745950698852539,-0.7800000309944153
1772541042257437700,9.374437744140625,1.5120000839233398,-9.669000625610352,-0.7440000176429749
1772541042267347700,9.38434765625,1.503000020980835,-9.588000297546387,-0.7150500416755676
1772541042277257700,9.3942578125,1.503000020980835,-9.517950057983398,-0.6769500374794006
1772541042287167700,9.404167724609374,1.5240000486373901,-9.475050926208496,-0.6409500241279602
1772541042297077800,9.414077880859375,1.5580500364303589,-9.48900032043457,-0.6240000128746033
1772541042306987800,9.42398779296875,1.6080000400543213,-9.564000129699707,-0.6409500241279602
1772541042316897800,9.433897705078126,1.651050090789795,-9.645000457763672,-0.6480000019073486
1772541042326807600,9.4438076171875,1.6660500764846802,-9.714000701904297,-0.675000011920929
1772541042336717600,9.453717529296876,1.659000039100647,-9.766950607299805,-0.6990000605583191
1772541042346627600,9.463627685546875,1.6270500421524048,-9.793050765991211,-0.7110000252723694
1772541042356537600,9.47353759765625,1.6030501127243042,-9.784050941467285,-0.7110000252723694
1772541042366447600,9.483447509765625,1.5720000267028809,-9.760050773620605,-0.742050051689148
1772541042376357600,9.493357666015624,1.5700501203536987,-9.70995044708252,-0.7630500197410583
1772541042386267400,9.503267333984375,1.5630000829696655,-9.657000541687012,-0.7590000629425049
1772541042396177400,9.513177490234375,1.579050064086914,-9.589950561523438,-0.7300500273704529
1772541042406087400,9.52308740234375,1.5529500246047974,-9.559050559997559,-0.6919500231742859
1772541042415997400,9.53299755859375,1.5480000972747803,-9.57300090789795,-0.6480000019073486
1772541042425907500,9.542907470703126,1.5480000972747803,-9.613950729370117,-0.6100500226020813
1772541042435817500,9.5528173828125,1.5840001106262207,-9.655050277709961,-0.5719500184059143
1772541042445727500,9.5627275390625,1.6110000610351562,-9.712050437927246,-0.556950032711029
1772541042455637500,9.572637451171875,1.6320000886917114,-9.78600025177002,-0.5719500184059143
1772541042465547300,9.58254736328125,1.6489500999450684,-9.856050491333008,-0.5959500074386597
1772541042475457500,9.59245751953125,1.651050090789795,-9.870000839233398,-0.6360000371932983
1772541042485367300,9.6023671875,1.6440000534057617,-9.849000930786133,-0.6919500231742859
1772541042495277300,9.61227734375,1.6030501127243042,-9.793050765991211,-0.7440000176429749
1772541042505187300,9.622187255859375,1.5510001182556152,-9.7339506149292,-0.7680000066757202
1772541042515097300,9.632097412109376,1.5049500465393066,-9.681000709533691,-0.7560000419616699
1772541042525007400,9.64200732421875,1.4860501289367676,-9.637950897216797,-0.7320000529289246
1772541042534917400,9.65191748046875,1.4929500818252563,-9.585000038146973,-0.7060500383377075
1772541042544827400,9.661827392578125,1.5240000486373901,-9.564000129699707,-0.7060500383377075
1772541042554737400,9.6717373046875,1.5559500455856323,-9.553950309753418,-0.700950026512146
1772541042564647200,9.681647216796875,1.5679501295089722,-9.577950477600098,-0.7030500173568726
1772541042574557200,9.69155712890625,1.5679501295089722,-9.64995002746582,-0.6889500617980957
1772541042584467200,9.70146728515625,1.5910500288009644,-9.724050521850586,-0.6649500131607056
1772541042594377200,9.711377197265625,1.6030501127243042,-9.769950866699219,-0.6720000505447388
1772541042604287200,9.721287353515624,1.6060501337051392,-9.814950942993164,-0.687000036239624
1772541042614197200,9.731197265625,1.5940500497817993,-9.849000930786133,-0.6919500231742859
1772541042624107300,9.741107177734374,1.5870001316070557,-9.838950157165527,-0.7110000252723694
1772541042634017300,9.751017333984375,1.5510001182556152,-9.738000869750977,-0.7270500063896179
1772541042643927300,9.76092724609375,1.540950059890747,-9.583050727844238,-0.7470000386238098
1772541042653837300,9.77083740234375,1.4910000562667847,-9.47700023651123,-0.7510500550270081
1772541042663747000,9.7807470703125,1.467000126838684,-9.420000076293945,-0.7440000176429749
1772541042673657000,9.790656982421876,1.480950117111206,-9.384000778198242,-0.7489500641822815
1772541042683567000,9.800567138671875,1.4929500818252563,-9.370050430297852,-0.7200000286102295
1772541042693477000,9.81047705078125,1.5240000486373901,-9.445950508117676,-0.6720000505447388
1772541042703387100,9.82038720703125,1.596000075340271,-9.601950645446777,-0.6169500350952148
1772541042713297000,9.830296875,1.6320000886917114,-9.75,-0.6010500192642212
1772541042723207000,9.84020703125,1.6680001020431519,-9.853050231933594,-0.6409500241279602
1772541042733117000,9.850116943359374,1.6900501251220703,-9.886950492858887,-0.687000036239624
1772541042743027000,9.86002685546875,1.6849501132965088,-9.880050659179688,-0.739050030708313
1772541042752937000,9.86993701171875,1.6350001096725464,-9.820050239562988,-0.7609500288963318
1772541042762847000,9.879846923828126,1.5889500379562378,-9.68595027923584,-0.7710000276565552
1772541042772757000,9.889757080078125,1.5319501161575317,-9.535050392150879,-0.7660500407218933
1772541042782667000,9.8996669921875,1.4910000562667847,-9.418050765991211,-0.7470000386238098
1772541042792577000,9.909576904296875,1.4479501247406006,-9.351000785827637,-0.6919500231742859
1772541042802486800,9.91948681640625,1.4550000429153442,-9.324000358581543,-0.6510000228881836
1772541042812396800,9.929396728515625,1.489050030708313,-9.361950874328613,-0.6199500560760498
1772541042822306800,9.939306884765625,1.543950080871582,-9.46500015258789,-0.6199500560760498
1772541042832216800,9.949216796875,1.596000075340271,-9.610950469970703,-0.6319500207901001
1772541042842126800,9.959126953125,1.6470000743865967,-9.742950439453125,-0.6720000505447388
1772541042852036600,9.96903662109375,1.6609500646591187,-9.859950065612793,-0.6960000395774841
1772541042861947000,9.97894677734375,1.6750500202178955,-9.954000473022461,-0.7060500383377075
1772541042871856600,9.988856689453126,1.6540501117706299,-9.999000549316406,-0.7350000143051147
1772541042881766700,9.9987666015625,1.6320000886917114,-9.95895004272461,-0.781950056552887
1772541042891676700,10.0086767578125,1.5940500497817993,-9.837000846862793,-0.853950023651123
1772541042901586700,10.018586669921875,1.5559500455856323,-9.714000701904297,-0.8620500564575195
1772541042911496700,10.02849658203125,1.5079500675201416,-9.588000297546387,-0.8160000443458557
1772541042921406500,10.038406494140625,1.480950117111206,-9.493950843811035,-0.7750500440597534
1772541042931316500,10.04831640625,1.4959501028060913,-9.427050590515137,-0.7230000495910645
1772541042941226500,10.0582265625,1.5390000343322754,-9.37695026397705,-0.6919500231742859
1772541042951136500,10.068136474609375,1.5720000267028809,-9.394050598144531,-0.6630000472068787
1772541042961046500,10.078046630859374,1.6030501127243042,-9.469950675964355,-0.6199500560760498
1772541042970956300,10.087956298828125,1.6390501260757446,-9.622950553894043,-0.5959500074386597
1772541042980866600,10.097866455078124,1.6630500555038452,-9.784050941467285,-0.6010500192642212
1772541042990776300,10.1077763671875,1.6819500923156738,-9.904050827026367,-0.6289500594139099
1772541043000686300,10.117686279296874,1.6630500555038452,-9.942000389099121,-0.6630000472068787
1772541043010596400,10.127596435546875,1.6350001096725464,-9.907950401306152,-0.6889500617980957
1772541043020506400,10.13750634765625,1.5679501295089722,-9.846000671386719,-0.6960000395774841
1772541043030416400,10.14741650390625,1.489050030708313,-9.76200008392334,-0.7110000252723694
1772541043040326100,10.157326171875,1.4449501037597656,-9.664050102233887,-0.7030500173568726
1772541043050236200,10.167236083984376,1.4209500551223755,-9.57300090789795,-0.6840000152587891
1772541043060146200,10.177146240234375,1.4449501037597656,-9.535050392150879,-0.6799500584602356
1772541043070056200,10.18705615234375,1.4790000915527344,-9.56100082397461,-0.6840000152587891
1772541043079966200,10.19696630859375,1.503000020980835,-9.657000541687012,-0.700950026512146
1772541043089876200,10.206876220703125,1.540950059890747,-9.75,-0.6889500617980957
1772541043099786200,10.2167861328125,1.6080000400543213,-9.829050064086914,-0.6889500617980957
1772541043109696000,10.226696044921875,1.659000039100647,-9.856050491333008,-0.6940500140190125
1772541043119606000,10.23660595703125,1.659000039100647,-9.802950859069824,-0.7129500508308411
1772541043129516000,10.24651611328125,1.659000039100647,-9.681000709533691,-0.7030500173568726
1772541043139426000,10.256426025390626,1.6300500631332397,-9.607050895690918,-0.6769500374794006
1772541043149336000,10.266336181640625,1.6060501337051392,-9.634950637817383,-0.6559500098228455
1772541043159246000,10.27624609375,1.5720000267028809,-9.75,-0.687000036239624
1772541043169156000,10.286156005859375,1.5460500717163086,-9.853050231933594,-0.7510500550270081
1772541043179065900,10.29606591796875,1.579050064086914,-9.880050659179688,-0.8160000443458557
1772541043188975900,10.305975830078125,1.5649501085281372,-9.781050682067871,-0.8659500479698181
1772541043198886000,10.315885986328125,1.5750000476837158,-9.634950637817383,-0.856950044631958
1772541043208796000,10.3257958984375,1.5630000829696655,-9.49905014038086,-0.7870500087738037
1772541043218706000,10.335705810546875,1.5460500717163086,-9.384000778198242,-0.6840000152587891
1772541043228615700,10.34561572265625,1.5360000133514404,-9.334050178527832,-0.5790000557899475
1772541043238525700,10.355525634765625,1.5630000829696655,-9.312000274658203,-0.5070000290870667
1772541043248435700,10.365435791015624,1.579050064086914,-9.327000617980957,-0.49500003457069397
1772541043258345700,10.375345703125,1.5630000829696655,-9.42495059967041,-0.5530500411987305
1772541043268255700,10.385255859375,1.5079500675201416,-9.607050895690918,-0.6700500249862671
1772541043278165800,10.395165771484375,1.4530500173568726,-9.81705093383789,-0.7969500422477722
1772541043288075500,10.405075439453125,1.456950068473816,-9.955950736999512,-0.8809500336647034
1772541043297985500,10.414985595703126,1.5049500465393066,-10.015950202941895,-0.8779500126838684
1772541043307895600,10.4248955078125,1.5720000267028809,-9.949050903320312,-0.8160000443458557
1772541043317805600,10.4348056640625,1.6440000534057617,-9.796050071716309,-0.742050051689148
1772541043327715600,10.444715576171875,1.6870501041412354,-9.56100082397461,-0.6960000395774841
1772541043337625300,10.454625244140624,1.6699501276016235,-9.370050430297852,-0.6919500231742859
1772541043347535400,10.464535400390625,1.6030501127243042,-9.232950210571289,-0.7200000286102295
1772541043357445400,10.4744453125,1.527000069618225,-9.19005012512207,-0.7270500063896179
1772541043367355400,10.48435546875,1.4449501037597656,-9.27405071258545,-0.7300500273704529
1772541043377265400,10.494265380859375,1.4209500551223755,-9.48900032043457,-0.6919500231742859
1772541043387175200,10.504175048828126,1.4959501028060913,-9.729000091552734,-0.6390000581741333
1772541043397085200,10.514085205078125,1.6080000400543213,-9.874950408935547,-0.5910000205039978
1772541043406995200,10.5239951171875,1.765950083732605,-9.918000221252441,-0.5770500302314758
1772541043416905200,10.5339052734375,1.8760501146316528,-9.870000839233398,-0.6169500350952148
1772541043426815200,10.543815185546874,1.88100004196167,-9.729000091552734,-0.6820500493049622
1772541043436725000,10.55372509765625,1.7539501190185547,-9.601950645446777,-0.7440000176429749
1772541043446635000,10.563635009765624,1.5580500364303589,-9.53700065612793,-0.7969500422477722
1772541043456545000,10.573544921875,1.3759500980377197,-9.50100040435791,-0.8280000686645508
1772541043466455000,10.583455078125,1.2559500932693481,-9.49905014038086,-0.8500500321388245
1772541043476365000,10.593364990234376,1.2510000467300415,-9.52500057220459,-0.7969500422477722
1772541043486275000,10.603275146484375,1.3519500494003296,-9.576000213623047,-0.7129500508308411
1772541043496184800,10.613184814453126,1.5169501304626465,-9.655050277709961,-0.6199500560760498
1772541043506094800,10.6230947265625,1.6800000667572021,-9.714000701904297,-0.5740500092506409
1772541043516004900,10.6330048828125,1.8240001201629639,-9.769950866699219,-0.5770500302314758
1772541043525915000,10.642914794921875,1.867050051689148,-9.757950782775879,-0.6079500317573547
1772541043535825000,10.652824951171874,1.7850000858306885,-9.718950271606445,-0.6390000581741333
1772541043545735000,10.66273486328125,1.6110000610351562,-9.669000625610352,-0.6340500116348267
1772541043555644700,10.672644775390625,1.456950068473816,-9.669000625610352,-0.6240000128746033
1772541043565554700,10.6825546875,1.3450500965118408,-9.690000534057617,-0.6220500469207764
1772541043575464700,10.692464599609375,1.3450500965118408,-9.730950355529785,-0.6319500207901001
1772541043585374700,10.702374755859376,1.4209500551223755,-9.769950866699219,-0.6360000371932983
1772541043595284500,10.712284423828125,1.5679501295089722,-9.790950775146484,-0.6439500451087952
1772541043605194500,10.722194580078124,1.6780500411987305,-9.75,-0.6480000019073486
1772541043615104500,10.7321044921875,1.7059500217437744,-9.643050193786621,-0.6919500231742859
1772541043625014500,10.7420146484375,1.7089500427246094,-9.564000129699707,-0.7230000495910645
1772541043634924300,10.75192431640625,1.636950135231018,-9.532050132751465,-0.7489500641822815
1772541043644834300,10.761834228515625,1.5559500455856323,-9.56100082397461,-0.7270500063896179
1772541043654744300,10.771744384765626,1.519950032234192,-9.637950897216797,-0.6840000152587891
1772541043664654300,10.781654296875,1.527000069618225,-9.729000091552734,-0.6319500207901001
1772541043674564000,10.791564208984376,1.5390000343322754,-9.796050071716309,-0.6030000448226929
1772541043684474000,10.80147412109375,1.540950059890747,-9.826950073242188,-0.5809500217437744
1772541043694384000,10.811384033203124,1.5649501085281372,-9.826950073242188,-0.6079500317573547
1772541043704294100,10.821294189453125,1.5910500288009644,-9.796050071716309,-0.6439500451087952
1772541043714204200,10.8312041015625,1.5940500497817993,-9.7339506149292,-0.7110000252723694
1772541043724114200,10.8411142578125,1.5889500379562378,-9.640050888061523,-0.7440000176429749
1772541043734024200,10.851024169921875,1.5580500364303589,-9.556050300598145,-0.7489500641822815
1772541043743934000,10.860933837890625,1.5240000486373901,-9.463050842285156,-0.7230000495910645
1772541043753844000,10.870843994140625,1.480950117111206,-9.41295051574707,-0.6679500341415405
1772541043763754000,10.88075390625,1.480950117111206,-9.42495059967041,-0.6130500435829163
1772541043773663700,10.890663818359375,1.527000069618225,-9.504000663757324,-0.5929500460624695
1772541043783574000,10.900573974609374,1.599000096321106,-9.600000381469727,-0.6220500469207764
1772541043793483800,10.91048388671875,1.6609500646591187,-9.706950187683105,-0.6720000505447388
1772541043803393800,10.920393798828124,1.6780500411987305,-9.793050765991211,-0.7350000143051147
1772541043813303800,10.9303037109375,1.6540501117706299,-9.858000755310059,-0.781950056552887
1772541043823213800,10.9402138671875,1.6009501218795776,-9.877050399780273,-0.8089500665664673
1772541043833123800,10.950123779296876,1.5580500364303589,-9.846000671386719,-0.7969500422477722
1772541043843033600,10.96003369140625,1.5100500583648682,-9.765000343322754,-0.7560000419616699
1772541043852943600,10.969943603515626,1.4959501028060913,-9.640050888061523,-0.7129500508308411
1772541043862853600,10.979853515625,1.4860501289367676,-9.48705005645752,-0.6720000505447388
1772541043872763600,10.989763671875,1.4740500450134277,-9.370050430297852,-0.6510000228881836
1772541043882673700,10.999673583984375,1.456950068473816,-9.336000442504883,-0.6240000128746033
1772541043892583400,11.00958349609375,1.4910000562667847,-9.37695026397705,-0.5959500074386597
1772541043902493400,11.019493408203125,1.5600000619888306,-9.457950592041016,-0.6049500107765198
1772541043912403200,11.0294033203125,1.6489500999450684,-9.544050216674805,-0.6510000228881836
1772541043922313200,11.039313232421875,1.6800000667572021,-9.669000625610352,-0.6720000505447388
1772541043932223200,11.04922314453125,1.7020500898361206,-9.79800033569336,-0.687000036239624
1772541043942133200,11.05913330078125,1.6920000314712524,-9.883950233459473,-0.7080000042915344
1772541043952043300,11.069043212890625,1.6489500999450684,-9.904050827026367,-0.7489500641822815
1772541043961953000,11.078953125,1.6009501218795776,-9.870000839233398,-0.7920000553131104
1772541043971863000,11.088863037109375,1.5289500951766968,-9.789000511169434,-0.7969500422477722
1772541043981773000,11.09877294921875,1.4530500173568726,-9.718950271606445,-0.7920000553131104
1772541043991682800,11.108682861328125,1.4050500392913818,-9.66195011138916,-0.7540500164031982
1772541044001592800,11.1185927734375,1.4140501022338867,-9.600000381469727,-0.7300500273704529
1772541044011502800,11.1285029296875,1.4530500173568726,-9.529950141906738,-0.7030500173568726
1772541044021412900,11.138412841796875,1.4959501028060913,-9.47700023651123,-0.6649500131607056
1772541044031323000,11.148322998046876,1.543950080871582,-9.475050926208496,-0.6199500560760498
1772541044041233000,11.15823291015625,1.5910500288009644,-9.50100040435791,-0.5860500335693359
1772541044051143000,11.168142822265626,1.64205002784729,-9.583050727844238,-0.5790000557899475
1772541044061052700,11.178052734375,1.6680001020431519,-9.694950103759766,-0.5740500092506409
1772541044070962700,11.187962646484374,1.659000039100647,-9.8100004196167,-0.5770500302314758
1772541044080872700,11.197872802734375,1.6540501117706299,-9.895950317382812,-0.5929500460624695
1772541044090782500,11.207782470703124,1.6180500984191895,-9.919950485229492,-0.6270000338554382
1772541044100692500,11.2176923828125,1.5649501085281372,-9.907950401306152,-0.6600000262260437
1772541044110602200,11.227602294921875,1.5049500465393066,-9.871950149536133,-0.6840000152587891
1772541044120512300,11.23751220703125,1.4650501012802124,-9.802950859069824,-0.6990000605583191
1772541044130422300,11.24742236328125,1.4599500894546509,-9.702000617980957,-0.7030500173568726
1772541044140332300,11.257332275390626,1.4550000429153442,-9.609000205993652,-0.6769500374794006
1772541044150242300,11.2672421875,1.4650501012802124,-9.540000915527344,-0.6529500484466553
1772541044160152300,11.27715234375,1.4839500188827515,-9.516000747680664,-0.6340500116348267
1772541044170062000,11.28706201171875,1.5220500230789185,-9.56100082397461,-0.5959500074386597
1772541044179972000,11.29697216796875,1.5720000267028809,-9.657000541687012,-0.5770500302314758
1772541044189882000,11.306882080078125,1.6390501260757446,-9.75,-0.5689499974250793
1772541044199792000,11.316792236328125,1.6870501041412354,-9.834000587463379,-0.5670000314712524
1772541044209702000,11.326701904296876,1.6920000314712524,-9.856050491333008,-0.5860500335693359
1772541044219612000,11.33661181640625,1.64205002784729,-9.862950325012207,-0.6100500226020813
1772541044229522000,11.34652197265625,1.5700501203536987,-9.822000503540039,-0.6319500207901001
1772541044239432000,11.356431884765625,1.4929500818252563,-9.772050857543945,-0.6559500098228455
1772541044249342000,11.366342041015624,1.4620500802993774,-9.718950271606445,-0.6840000152587891
1772541044259251700,11.376251708984375,1.4329500198364258,-9.664050102233887,-0.6960000395774841
1772541044269161700,11.38616162109375,1.4530500173568726,-9.609000205993652,-0.6559500098228455
1772541044279071700,11.39607177734375,1.4959501028060913,-9.541950225830078,-0.6240000128746033
1772541044288981800,11.405981689453125,1.5390000343322754,-9.481950759887695,-0.5809500217437744
1772541044298891500,11.4158916015625,1.582050085067749,-9.451050758361816,-0.5410500168800354
1772541044308801500,11.425801513671875,1.612950086593628,-9.481950759887695,-0.531000018119812
1772541044318711600,11.435711669921876,1.6560001373291016,-9.529950141906738,-0.5740500092506409
1772541044328621300,11.445621337890625,1.7040001153945923,-9.565950393676758,-0.6340500116348267
1772541044338531300,11.45553125,1.7040001153945923,-9.585000038146973,-0.7110000252723694
1772541044348441000,11.465441162109375,1.6780500411987305,-9.588000297546387,-0.7710000276565552
1772541044358351000,11.47535107421875,1.5940500497817993,-9.601950645446777,-0.8280000686645508
1772541044368261000,11.48526123046875,1.5049500465393066,-9.595050811767578,-0.8400000333786011
1772541044378171100,11.495171142578124,1.4479501247406006,-9.601950645446777,-0.8380500674247742
1772541044388081200,11.5050810546875,1.4479501247406006,-9.601950645446777,-0.7990500330924988
1772541044397991000,11.514990966796875,1.4790000915527344,-9.577950477600098,-0.7300500273704529
1772541044407901000,11.52490087890625,1.5319501161575317,-9.565950393676758,-0.6769500374794006
1772541044417811000,11.53481103515625,1.5700501203536987,-9.547050476074219,-0.6630000472068787
1772541044427721000,11.544720947265626,1.5910500288009644,-9.564000129699707,-0.6679500341415405
1772541044437631000,11.554630859375,1.6230000257492065,-9.565950393676758,-0.6559500098228455
1772541044447540700,11.564540771484374,1.6350001096725464,-9.609000205993652,-0.6409500241279602
1772541044457450800,11.57445068359375,1.6470000743865967,-9.655050277709961,-0.6220500469207764
1772541044467360800,11.58436083984375,1.6560001373291016,-9.702000617980957,-0.6049500107765198
1772541044477270500,11.5942705078125,1.672950029373169,-9.714000701904297,-0.5839500427246094
1772541044487180500,11.6041806640625,1.6680001020431519,-9.682950019836426,-0.5550000071525574
1772541044497090600,11.614090576171876,1.6470000743865967,-9.676050186157227,-0.544950008392334
1772541044507000600,11.62400048828125,1.6060501337051392,-9.676050186157227,-0.556950032711029
1772541044516910600,11.63391064453125,1.5679501295089722,-9.664050102233887,-0.5770500302314758
1772541044526820400,11.6438203125,1.5529500246047974,-9.658950805664062,-0.5890500545501709
1772541044536730400,11.65373046875,1.5360000133514404,-9.657000541687012,-0.5959500074386597
1772541044546640100,11.66364013671875,1.5319501161575317,-9.664050102233887,-0.5910000205039978
1772541044556550100,11.673550048828124,1.543950080871582,-9.658950805664062,-0.5929500460624695
1772541044566460200,11.683460205078125,1.5720000267028809,-9.652050018310547,-0.5910000205039978
1772541044576370200,11.6933701171875,1.5940500497817993,-9.681000709533691,-0.6100500226020813
1772541044586280200,11.7032802734375,1.612950086593628,-9.772050857543945,-0.6319500207901001
1772541044596190000,11.71318994140625,1.651050090789795,-9.886950492858887,-0.6529500484466553
1772541044606100000,11.723099853515626,1.672950029373169,-9.982950210571289,-0.6529500484466553
1772541044616010000,11.733010009765625,1.6900501251220703,-10.026000022888184,-0.6630000472068787
1772541044625919700,11.742919677734376,1.6849501132965088,-10.038000106811523,-0.6529500484466553
1772541044635829800,11.752829833984375,1.6540501117706299,-9.999000549316406,-0.6529500484466553
1772541044645739800,11.76273974609375,1.599000096321106,-9.961050033569336,-0.6559500098228455
1772541044655649800,11.77264990234375,1.5630000829696655,-9.949050903320312,-0.6409500241279602
1772541044665559600,11.7825595703125,1.5580500364303589,-9.901050567626953,-0.6409500241279602
1772541044675469600,11.792469482421875,1.5840001106262207,-9.81705093383789,-0.6460500359535217
1772541044685379600,11.802379638671875,1.5910500288009644,-9.726000785827637,-0.6360000371932983
1772541044695289300,11.812289306640626,1.6009501218795776,-9.652050018310547,-0.6270000338554382
1772541044705199400,11.822199462890625,1.5720000267028809,-9.670950889587402,-0.6169500350952148
1772541044715109400,11.832109375,1.5580500364303589,-9.781050682067871,-0.6049500107765198
1772541044725019400,11.842019287109375,1.6150500774383545,-9.907950401306152,-0.5959500074386597
1772541044734929200,11.85192919921875,1.6680001020431519,-9.985050201416016,-0.5910000205039978
1772541044744839200,11.861839111328125,1.7160000801086426,-10.035000801086426,-0.5910000205039978
1772541044754749200,11.871749267578124,1.7179501056671143,-10.039950370788574,-0.5890500545501709
1772541044764659000,11.881658935546875,1.6870501041412354,-10.027950286865234,-0.6150000095367432
1772541044774569000,11.89156884765625,1.6540501117706299,-10.033050537109375,-0.675000011920929
1772541044784479000,11.90147900390625,1.6200001239776611,-10.039950370788574,-0.7200000286102295
1772541044794389000,11.911388916015625,1.6150500774383545,-10.023000717163086,-0.739050030708313
1772541044804298800,11.921298828125,1.651050090789795,-9.973050117492676,-0.7489500641822815
1772541044814208800,11.931208740234375,1.6390501260757446,-9.895950317382812,-0.6960000395774841
1772541044824118500,11.941118408203126,1.636950135231018,-9.826950073242188,-0.6439500451087952
1772541044834028500,11.951028564453125,1.6350001096725464,-9.802950859069824,-0.6030000448226929
1772541044843938600,11.9609384765625,1.64205002784729,-9.829050064086914,-0.6049500107765198
1772541044853848300,11.970848388671875,1.6819500923156738,-9.868050575256348,-0.5929500460624695
1772541044863758300,11.98075830078125,1.6990500688552856,-9.931950569152832,-0.598050057888031
1772541044873668400,11.99066845703125,1.738050103187561,-9.979950904846191,-0.6049500107765198
1772541044883578400,12.000578369140625,1.7020500898361206,-10.009050369262695,-0.6079500317573547
1772541044893488000,12.010488037109376,1.672950029373169,-10.039950370788574,-0.6289500594139099
1772541044903398100,12.020398193359375,1.6440000534057617,-10.083000183105469,-0.6360000371932983
1772541044913308200,12.03030810546875,1.6320000886917114,-10.107000350952148,-0.6820500493049622
1772541044923218200,12.04021826171875,1.6320000886917114,-10.107000350952148,-0.7249500155448914
1772541044933128000,12.0501279296875,1.6540501117706299,-10.05405044555664,-0.7630500197410583
1772541044943038000,12.060037841796875,1.636950135231018,-9.973050117492676,-0.7780500650405884
1772541044952948000,12.069947998046874,1.6080000400543213,-9.898950576782227,-0.7470000386238098
1772541044962858000,12.07985791015625,1.5910500288009644,-9.858000755310059,-0.7030500173568726
1772541044972767700,12.089767822265625,1.6009501218795776,-9.826950073242188,-0.6769500374794006
1772541044982677800,12.099677734375,1.6320000886917114,-9.826950073242188,-0.6840000152587891
1772541044992587800,12.109587890625,1.6390501260757446,-9.877050399780273,-0.6820500493049622
1772541045002497500,12.11949755859375,1.6750500202178955,-9.967950820922852,-0.6889500617980957
1772541045012407600,12.129407470703125,1.6750500202178955,-10.057050704956055,-0.6840000152587891
1772541045022317600,12.139317626953124,1.6800000667572021,-10.138050079345703,-0.6799500584602356
1772541045032227300,12.149227294921875,1.696950078010559,-10.179000854492188,-0.6940500140190125
1772541045042137300,12.159137451171874,1.711050033569336,-10.192950248718262,-0.7129500508308411
1772541045052047000,12.169047119140625,1.6870501041412354,-10.165050506591797,-0.7270500063896179
1772541045061957000,12.17895703125,1.6609500646591187,-10.1089506149292,-0.7180500626564026
1772541045071867100,12.1888671875,1.6440000534057617,-10.059000015258789,-0.7180500626564026
1772541045081777200,12.198777099609375,1.6030501127243042,-10.01400089263916,-0.7230000495910645
1772541045091687200,12.208687255859376,1.5889500379562378,-9.973050117492676,-0.7030500173568726
1772541045101597000,12.218596923828125,1.599000096321106,-9.939000129699707,-0.6679500341415405
1772541045111507000,12.2285068359375,1.6230000257492065,-9.92805004119873,-0.6510000228881836
1772541045121417000,12.2384169921875,1.6270500421524048,-10.006950378417969,-0.6529500484466553
1772541045131326700,12.24832666015625,1.6699501276016235,-10.141050338745117,-0.6799500584602356
1772541045141236700,12.25823681640625,1.6990500688552856,-10.234050750732422,-0.6919500231742859
1772541045151146800,12.268146728515624,1.7179501056671143,-10.284000396728516,-0.6990000605583191
1772541045161056800,12.278056884765626,1.7329500913619995,-10.300950050354004,-0.6960000395774841
1772541045170966500,12.287966552734375,1.7209501266479492,-10.320000648498535,-0.6799500584602356
1772541045180876300,12.297876220703126,1.6699501276016235,-10.330050468444824,-0.675000011920929
1772541045190786300,12.307786376953125,1.64205002784729,-10.324950218200684,-0.6769500374794006
1772541045200696300,12.3176962890625,1.612950086593628,-10.308000564575195,-0.687000036239624
1772541045210606300,12.3276064453125,1.6180500984191895,-10.270050048828125,-0.6960000395774841
1772541045220516400,12.337516357421874,1.6390501260757446,-10.22700023651123,-0.7060500383377075
1772541045230426000,12.347426025390625,1.659000039100647,-10.180950164794922,-0.7180500626564026
1772541045240336100,12.357336181640624,1.6900501251220703,-10.150050163269043,-0.7270500063896179
1772541045250246000,12.367245849609375,1.6900501251220703,-10.131000518798828,-0.7270500063896179
1772541045260156000,12.377156005859375,1.6780500411987305,-10.144950866699219,-0.7060500383377075
1772541045270066000,12.38706591796875,1.6609500646591187,-10.174050331115723,-0.6799500584602356
1772541045279976000,12.396975830078125,1.659000039100647,-10.198050498962402,-0.6679500341415405
1772541045289885700,12.4068857421875,1.6939500570297241,-10.21500015258789,-0.6600000262260437
1772541045299795700,12.416795654296875,1.6920000314712524,-10.248000144958496,-0.700950026512146
1772541045309705700,12.426705810546874,1.672950029373169,-10.28895092010498,-0.739050030708313
1772541045319615700,12.43661572265625,1.6390501260757446,-10.312950134277344,-0.7680000066757202
1772541045329525500,12.446525390625,1.651050090789795,-10.300950050354004,-0.7900500297546387
1772541045339435500,12.456435546875,1.6750500202178955,-10.272000312805176,-0.7849500179290771
1772541045349345300,12.46634521484375,1.6990500688552856,-10.258050918579102,-0.7800000309944153
1772541045359255300,12.47625537109375,1.6900501251220703,-10.252950668334961,-0.7630500197410583
1772541045369165300,12.486165283203125,1.6819500923156738,-10.224000930786133,-0.7590000629425049
1772541045379075000,12.496074951171876,1.6780500411987305,-10.155000686645508,-0.7440000176429749
1772541045388985000,12.505985107421875,1.6699501276016235,-10.105050086975098,-0.7060500383377075
1772541045398895000,12.51589501953125,1.6699501276016235,-10.095000267028809,-0.6769500374794006
1772541045408804900,12.525804931640625,1.6870501041412354,-10.117050170898438,-0.675000011920929
1772541045418715000,12.53571484375,1.6849501132965088,-10.153050422668457,-0.6820500493049622
1772541045428625000,12.545625,1.6920000314712524,-10.195950508117676,-0.6700500249862671
1772541045438535000,12.555534912109374,1.6990500688552856,-10.234050750732422,-0.6700500249862671
1772541045448444700,12.565444580078125,1.7160000801086426,-10.284000396728516,-0.6720000505447388
1772541045458354700,12.575354736328125,1.7329500913619995,-10.335000038146973,-0.6940500140190125
1772541045468264400,12.585264404296876,1.7329500913619995,-10.344000816345215,-0.7300500273704529
1772541045478174500,12.595174560546875,1.7260501384735107,-10.308000564575195,-0.7660500407218933
1772541045488084500,12.60508447265625,1.696950078010559,-10.260000228881836,-0.7800000309944153
1772541045497994200,12.614994140625,1.6630500555038452,-10.216950416564941,-0.7590000629425049
1772541045507904300,12.624904296875,1.6320000886917114,-10.216950416564941,-0.7270500063896179
1772541045517814300,12.634814208984375,1.6489500999450684,-10.258050918579102,-0.7080000042915344
1772541045527724000,12.64472412109375,1.6849501132965088,-10.300950050354004,-0.6960000395774841
1772541045537634000,12.654634033203125,1.7329500913619995,-10.324950218200684,-0.7180500626564026
1772541045547544000,12.6645439453125,1.7539501190185547,-10.27695083618164,-0.739050030708313
1772541045557454000,12.6744541015625,1.7280000448226929,-10.198050498962402,-0.7300500273704529
1772541045567363800,12.68436376953125,1.7040001153945923,-10.138050079345703,-0.7080000042915344
1772541045577273900,12.69427392578125,1.6560001373291016,-10.141050338745117,-0.6960000395774841
1772541045587183600,12.70418359375,1.6270500421524048,-10.165050506591797,-0.687000036239624
1772541045597093600,12.71409375,1.6320000886917114,-10.183950424194336,-0.6649500131607056
1772541045607003400,12.72400341796875,1.6560001373291016,-10.210050582885742,-0.6600000262260437
1772541045616913400,12.733913330078124,1.672950029373169,-10.258050918579102,-0.6720000505447388
1772541045626823400,12.743823486328125,1.6849501132965088,-10.294050216674805,-0.7180500626564026
1772541045636733400,12.7537333984375,1.6939500570297241,-10.30305004119873,-0.7540500164031982
1772541045646643500,12.7636435546875,1.7020500898361206,-10.284000396728516,-0.7680000066757202
1772541045656553200,12.77355322265625,1.7020500898361206,-10.294050216674805,-0.739050030708313
1772541045666463200,12.783463134765626,1.696950078010559,-10.36305046081543,-0.7060500383377075
1772541045676373000,12.793373046875,1.6990500688552856,-10.428000450134277,-0.7110000252723694
1772541045686283000,12.803282958984376,1.7209501266479492,-10.416000366210938,-0.7230000495910645
1772541045696193000,12.813193115234375,1.735050082206726,-10.31505012512207,-0.7489500641822815
