time,seconds_elapsed,z,y,x
1772698733028009700,0.084009765625,-0.31031930446624756,1.1646137237548828,0.6745474338531494
1772698733045356500,0.1013564453125,-0.5467239618301392,1.3490948677062988,0.8468112945556641
1772698733062703600,0.11870361328125,-0.7483093738555908,0.4358520209789276,0.7686206102371216
1772698733080050700,0.13605078125,-0.5986474752426147,-0.9221003651618958,0.3917170464992523
1772698733097397800,0.153397705078125,-0.4379900395870209,-1.830456256866455,-0.1513417512178421
1772698733114744800,0.170744873046875,-0.44409868121147156,-2.2867722511291504,-0.6589703559875488
1772698733132092000,0.188091796875,-0.6695078015327454,-1.497534990310669,-0.669965922832489
1772698733149438700,0.205438720703125,0.06047561392188072,-0.7418952584266663,-0.7053961157798767
1772698733166785800,0.222785888671875,1.3487894535064697,-0.29901832342147827,-1.014493703842163
1772698733184132900,0.2401328125,2.0213515758514404,0.24342961609363556,-1.1892009973526
1772698733201480000,0.25747998046875,2.3713769912719727,0.25809037685394287,-1.1543817520141602
1772698733218827000,0.274826904296875,2.5668537616729736,-0.23793183267116547,-0.8910989761352539
1772698733236173800,0.292173828125,2.889390468597412,-0.8396336436271667,-0.641866147518158
1772698733253521000,0.30952099609375,3.4129016399383545,-1.3991857767105103,-0.651029109954834
1772698733270868000,0.326867919921875,3.8441720008850098,-1.7076724767684937,-0.9998329281806946
1772698733288215000,0.344215087890625,4.28643798828125,-1.7253875732421875,-1.6565126180648804
1772698733305562000,0.36156201171875,4.704880714416504,-1.5787800550460815,-2.425591230392456
1772698733322909000,0.378908935546875,5.252215385437012,-1.6270383596420288,-3.015075922012329
1772698733340256000,0.396256103515625,5.955320835113525,-1.757763385772705,-3.3956446647644043
1772698733357603000,0.41360302734375,6.359102249145508,-1.5305217504501343,-3.9503097534179688
1772698733374950100,0.4309501953125,6.312676429748535,-1.277012825012207,-4.277122497558594
1772698733392297200,0.448297119140625,6.0506157875061035,-1.1340705156326294,-4.1256279945373535
1772698733409644300,0.465644287109375,5.7964959144592285,-1.2599085569381714,-3.928318738937378
1772698733426991000,0.4829912109375,6.024348258972168,-1.0082323551177979,-3.484220027923584
1772698733444338200,0.500338134765625,6.294961452484131,-0.674700140953064,-3.1280858516693115
1772698733461685200,0.517685302734375,6.524035930633545,-0.8304706811904907,-3.316232204437256
1772698733479032300,0.5350322265625,6.779377460479736,-0.7425061464309692,-3.632049322128296
1772698733496379400,0.55237939453125,6.877115726470947,-0.37843072414398193,-3.548971652984619
1772698733513726200,0.569726318359375,6.846572399139404,0.035124726593494415,-2.7487387657165527
1772698733531073300,0.5870732421875,6.81297492980957,0.21899501979351044,-1.9680535793304443
1772698733548420400,0.60442041015625,6.84473991394043,0.4834994673728943,-1.5685480833053589
1772698733565767400,0.621767333984375,6.689579963684082,0.3912588953971863,-1.483637809753418
1772698733583114500,0.639114501953125,6.426297664642334,0.1585194170475006,-1.2111921310424805
1772698733600461300,0.65646142578125,5.60957145690918,-0.3430005609989166,-0.4610501825809479
1772698733617808400,0.673808349609375,4.53872537612915,-0.13103049993515015,0.5010618567466736
1772698733635155500,0.691155517578125,3.7928593158721924,0.7052434086799622,0.8309288024902344
1772698733652502500,0.70850244140625,3.118464708328247,1.3393210172653198,0.7753401398658752
1772698733669849600,0.725849609375,2.3365578651428223,1.1407899856567383,0.8168789148330688
1772698733687196700,0.74319677734375,1.8197661638259888,0.7492256760597229,1.1296416521072388
1772698733704543500,0.76054345703125,1.3182462453842163,0.8420770764350891,1.3544399738311768
1772698733721890600,0.777890625,0.7373138070106506,1.1279618740081787,1.2780818939208984
1772698733739237600,0.795237548828125,0.1802051067352295,1.4291181564331055,0.8950695991516113
1772698733756584700,0.812584716796875,-0.13561198115348816,1.3429862260818481,0.4631882309913635
1772698733773931800,0.829931884765625,-0.43860089778900146,0.9691369533538818,0.19868376851081848
1772698733791278600,0.847278564453125,-0.9517273306846619,0.6398808360099792,0.0019853105768561363
1772698733808625700,0.864625732421875,-1.2968659400939941,0.8946114778518677,-0.6125446557998657
1772698733825972700,0.88197265625,-0.7770199775695801,1.2580760717391968,-1.1006256341934204
1772698733843319800,0.89931982421875,-0.13439024984836578,0.6899717450141907,-1.0615302324295044
1772698733860667000,0.9166669921875,-0.053145237267017365,-0.2214384824037552,-1.197142243385315
1772698733878014000,0.934013916015625,-0.1496618688106537,-0.6081159114837646,-1.614973783493042
1772698733895361000,0.951361083984375,-0.6359102129936218,-0.4260781705379486,-1.9423972368240356
1772698733912707800,0.968707763671875,-0.8069523572921753,0.4046979248523712,-2.2954771518707275
1772698733930055000,0.986054931640625,-1.0873392820358276,0.7082977294921875,-1.770133376121521
1772698733947402000,1.003402099609375,-1.5375466346740723,0.5158752799034119,-1.2588396072387695
1772698733964749000,1.0207490234375,-1.7372994422912598,0.5329795479774475,-0.928972601890564
1772698733982096100,1.03809619140625,-2.3591597080230713,0.38698282837867737,-1.3516910076141357
1772698733999443000,1.05544287109375,-2.2094979286193848,-0.9245438575744629,0.12965604662895203
1772698734016790000,1.0727900390625,-0.7892373204231262,-1.6545273065567017,1.116202712059021
1772698734034137000,1.09013720703125,0.7788525819778442,0.11881320178508759,-0.03649916872382164
1772698734051484200,1.107484130859375,0.9126319885253906,0.9294307827949524,-0.5752819180488586
1772698734068831200,1.124831298828125,0.37201663851737976,0.610559344291687,-0.4396699368953705
1772698734086178300,1.14217822265625,-0.4477638900279999,0.1902843713760376,-0.6815723776817322
1772698734103525000,1.159525146484375,-0.555276095867157,0.2922987937927246,-0.9699005484580994
1772698734120872200,1.1768720703125,-0.46486809849739075,0.23732095956802368,-0.836732029914856
1772698734138219300,1.19421923828125,-0.6933315396308899,0.34605491161346436,-0.6772963404655457
1772698734155566300,1.21156640625,-1.0855066776275635,-0.22449280321598053,-0.7487674951553345
1772698734172913400,1.228913330078125,-1.3103049993515015,-0.5610793232917786,-0.6436987519264221
1772698734190260200,1.24626025390625,-1.849698543548584,-0.3283398151397705,-0.33460119366645813
1772698734207607300,1.263607177734375,-1.9639302492141724,-0.0021380267571657896,0.19013166427612305
1772698734224954400,1.280954345703125,-2.076329469680786,-0.2306014597415924,0.2854265570640564
1772698734242301400,1.298301513671875,-2.4349069595336914,-0.5677987933158875,0.2444986253976822
1772698734259648500,1.3156484375,-2.8295257091522217,-0.757777750492096,0.1516471803188324
1772698734276995600,1.33299560546875,-2.922377109527588,-0.6068941354751587,-0.02000582218170166
1772698734294342400,1.35034228515625,-2.7928738594055176,-0.43463030457496643,-0.11591159552335739
1772698734311689500,1.367689453125,-2.6468770503997803,-0.04001164436340332,-0.21426081657409668
1772698734329036500,1.38503662109375,-2.6383249759674072,-0.012522728182375431,0.2438877671957016
1772698734346383600,1.402383544921875,-2.2736387252807617,0.9495893120765686,0.13393209874629974
1772698734363730700,1.419730712890625,-1.8741331100463867,0.5042688846588135,0.24144430458545685
1772698734381077500,1.437077392578125,-0.5045742988586426,1.8573343753814697,0.2597702443599701
1772698734398424600,1.454424560546875,0.18692462146282196,2.430936336517334,-0.19837833940982819
1772698734415771600,1.471771728515625,0.3543015718460083,1.740659236907959,-0.4903717041015625
1772698734433118700,1.48911865234375,0.4324922561645508,0.907439649105072,-0.5374082922935486
1772698734450465800,1.5064658203125,-0.06414080411195755,0.7192932963371277,-0.453719824552536
1772698734467812600,1.5238125,0.5112938284873962,0.6258309483528137,-0.4134027361869812
1772698734485159700,1.54115966796875,0.6023126840591431,0.3533852696418762,-0.04566214233636856
1772698734502506800,1.5585068359375,0.5241219997406006,0.3790415823459625,0.23594652116298676
1772698734519853800,1.575853759765625,0.4776962697505951,0.2006690800189972,0.3813323378562927
1772698734537201000,1.593200927734375,0.4056142270565033,-0.2733619809150696,0.5267181396484375
1772698734554547700,1.610547607421875,0.31093016266822815,-0.5934551358222961,0.5096139311790466
1772698734571894800,1.627894775390625,0.09712749719619751,-0.9062178730964661,0.40026915073394775
1772698734589241900,1.645241943359375,-0.16615521907806396,-0.8072578310966492,0.07223475724458694
1772698734606589000,1.6625888671875,-0.41416633129119873,-0.1945604383945465,-0.23503021895885468
1772698734623936000,1.67993603515625,-0.5583304166793823,-0.21166464686393738,-0.6094903349876404
1772698734641282800,1.69728271484375,-0.7238747477531433,-0.4150826036930084,-1.1323906183242798
1772698734658630000,1.7146298828125,-0.8014546036720276,-0.5873464941978455,-1.2521201372146606
1772698734675977000,1.73197705078125,-0.7843503952026367,-0.6062833070755005,-1.2704460620880127
1772698734693324000,1.749323974609375,-0.6151408553123474,-0.29413139820098877,-0.8568905591964722
1772698734710671000,1.766671142578125,-0.3225366175174713,-0.5201513767242432,-0.7695369124412537
1772698734728018000,1.784017822265625,0.22296564280986786,-1.047938585281372,-1.0254892110824585
1772698734745365000,1.801364990234375,0.8680388331413269,-0.9447023868560791,-0.9008728265762329
1772698734762712000,1.818712158203125,1.1630865335464478,-0.0870482325553894,-0.5001455545425415
1772698734780059100,1.83605908203125,1.321911334991455,0.5842921733856201,-0.38530296087265015
1772698734797406200,1.85340625,0.5858193039894104,0.18784092366695404,-0.43600472807884216
1772698734814753300,1.870753173828125,0.2816086709499359,0.19883649051189423,-0.38530296087265015
1772698734832100000,1.88810009765625,0.20647229254245758,0.6252201199531555,-0.4085158109664917
1772698734849447200,1.905447265625,0.01588248461484909,0.5384773015975952,-0.48731738328933716
1772698734866794200,1.922794189453125,-0.15149445831775665,0.9129374027252197,-0.4066832363605499
1772698734884141300,1.940141357421875,-0.3035998046398163,1.7705916166305542,-0.4586067199707031
1772698734901488400,1.95748828125,-0.18325942754745483,1.5806126594543457,-0.39141160249710083
1772698734918835200,1.974835205078125,-0.059864748269319534,1.0845904350280762,-0.4280634820461273
1772698734936182300,1.992182373046875,-0.011606430634856224,0.8640682101249695,-0.4915934205055237
1772698734953529300,2.009529296875,-0.08063415437936783,0.9514219164848328,-0.6052142977714539
1772698734970876400,2.02687646484375,-0.12461641430854797,1.0338886976242065,-0.6650790572166443
1772698734988223500,2.044223388671875,-0.10934479534626007,0.8518509268760681,-0.6754637360572815
1772698735005570300,2.0615703125,-0.10201441496610641,0.6679806113243103,-0.7011200785636902
1772698735022917400,2.07891748046875,-0.10140355676412582,0.42974337935447693,-0.7194460034370422
1772698735040264400,2.096264404296875,-0.09162971377372742,0.5152644515037537,-0.5667297840118408
1772698735057611500,2.113611572265625,-0.08857539296150208,0.7754928469657898,-0.19165882468223572
1772698735074958600,2.13095849609375,0.05742128938436508,0.9178243279457092,0.17302745580673218
1772698735092305400,2.148305419921875,0.2003636509180069,0.7437278628349304,0.12721258401870728
1772698735109652500,2.165652587890625,0.2663370370864868,0.5665770769119263,-0.2234237939119339
1772698735126999600,2.18299951171875,-0.012217295356094837,0.44868019223213196,-0.291229784488678
1772698735144346600,2.2003466796875,-0.4062250852584839,-0.013133592903614044,-0.027336198836565018
1772698735161693700,2.217693603515625,-0.4001164436340332,-0.05955931544303894,0.4124864339828491
1772698735179040500,2.23504052734375,-0.17837251722812653,0.07116574794054031,0.6959276795387268
1772698735196387600,2.2523876953125,0.07513637095689774,0.18784092366695404,0.5334376692771912
1772698735213734700,2.269734619140625,0.2761108875274658,0.17806708812713623,0.22434009611606598
1772698735231081700,2.287081787109375,0.4575377106666565,0.057726722210645676,0.09544762223958969
1772698735248428800,2.3044287109375,0.3995055556297302,0.22815799713134766,0.17913609743118286
1772698735265775600,2.321775634765625,0.2968802750110626,-0.07788526266813278,0.1974620372056961
1772698735283122700,2.339122802734375,0.5894845128059387,-0.5048797130584717,0.48884454369544983
1772698735300469800,2.3564697265625,1.043357014656067,-0.961195707321167,1.0184643268585205
1772698735317816800,2.37381689453125,1.2699878215789795,-1.2818996906280518,1.3336704969406128
1772698735335164000,2.391163818359375,1.0067051649093628,-1.4602723121643066,1.0746638774871826
1772698735352510700,2.4085107421875,0.6426297426223755,-1.7498221397399902,0.5212203860282898
1772698735369857800,2.42585791015625,0.2626718580722809,-1.9129230976104736,0.6067414283752441
1772698735387204900,2.443204833984375,-0.1954767256975174,-1.3839141130447388,1.47661292552948
1772698735404552000,2.460552001953125,-1.1349867582321167,-1.6869031190872192,1.3055707216262817
1772698735421899000,2.47789892578125,-1.3597849607467651,-1.4223986864089966,0.687986433506012
1772698735439246000,2.49524609375,-0.8173370957374573,-0.6001746654510498,0.2646571695804596
1772698735456593000,2.512593017578125,-0.32009315490722656,-0.4944950342178345,0.2176205813884735
1772698735473940000,2.52993994140625,-0.2260199636220932,-0.9312633275985718,0.48823368549346924
1772698735491287000,2.547287109375,-0.4098902642726898,-1.6545273065567017,0.7142536640167236
1772698735508634000,2.564634033203125,-0.5656607747077942,-2.247066020965576,0.6586649417877197
1772698735525981200,2.581981201171875,-0.41355544328689575,-2.4071125984191895,0.45769044756889343
1772698735543328300,2.599328369140625,-0.08674279600381851,-2.1004586219787598,0.44730573892593384
1772698735560675000,2.616675048828125,0.185092031955719,-1.3741402626037598,0.5468766689300537
1772698735578022100,2.634022216796875,0.4214966893196106,-0.9062178730964661,0.5175551772117615
1772698735595369200,2.651369140625,0.45875945687294006,-0.8005383014678955,0.2787070572376251
1772698735612716300,2.66871630859375,0.47586366534233093,-0.6698132157325745,0.036193739622831345
1772698735630063400,2.6860634765625,0.43982264399528503,-0.48960810899734497,-0.13973531126976013
1772698735647410200,2.70341015625,0.3530798554420471,-0.33322674036026,-0.30772313475608826
1772698735664757200,2.72075732421875,0.14721840620040894,-0.06017018109560013,-0.5172497630119324
1772698735682104300,2.738104248046875,-0.09529490768909454,0.23243404924869537,-0.5997164845466614
1772698735699451400,2.755451416015625,-0.23457208275794983,0.23976442217826843,-0.23991714417934418
1772698735716798500,2.772798583984375,-0.3426951467990875,0.12247838824987411,0.18402300775051117
1772698735734145500,2.7901455078125,-0.16310089826583862,-0.02779434807598591,0.15531237423419952
1772698735751492400,2.807492431640625,0.2614501118659973,-0.05039634555578232,0.005039634648710489
1772698735768839400,2.82483935546875,0.555276095867157,-0.1487455666065216,0.04108065739274025
1772698735786186500,2.8421865234375,0.5479456782341003,-0.4517345130443573,-0.14462223649024963
1772698735803533600,2.859533447265625,0.15088360011577606,-0.20861032605171204,-0.4610501825809479
1772698735820880600,2.876880615234375,-0.29626941680908203,0.7021890878677368,-0.310166597366333
1772698735838227500,2.8942275390625,-0.7092140316963196,0.0870482325553894,-0.29245150089263916
1772698735855574500,2.911574462890625,-1.2205078601837158,-0.9837977290153503,-0.5331322550773621
1772698735872921600,2.928921630859375,-1.4679080247879028,-0.7644972801208496,-0.4634936451911926
1772698735890268700,2.9462685546875,-1.2247838973999023,-0.4773908257484436,-0.7060069441795349
1772698735907615700,2.96361572265625,-0.4251618981361389,-0.9844086170196533,-0.8452841639518738
1772698735924962800,2.980962890625,0.5149590373039246,-1.1102467775344849,-0.6406444311141968
1772698735942309600,2.9983095703125,1.0665699243545532,-0.6276635527610779,-0.22464552521705627
1772698735959656700,3.01565673828125,1.1068869829177856,0.03756818547844887,-0.21975859999656677
1772698735977003800,3.033003662109375,0.7715222239494324,0.5739074349403381,-0.3309359848499298
1772698735994350800,3.050350830078125,0.40805765986442566,0.9275981783866882,-0.20509785413742065
1772698736011698000,3.067697998046875,0.20463970303535461,1.1713331937789917,-0.3205513060092926
1772698736029044700,3.085044677734375,0.12461641430854797,1.3863576650619507,-0.4653262495994568
1772698736046391800,3.102391845703125,0.24801109731197357,1.5195261240005493,-0.5166388750076294
1772698736063739000,3.11973876953125,0.35124725103378296,1.5457932949066162,-0.514195442199707
1772698736081086000,3.1370859375,0.39400777220726013,1.444389820098877,-0.3578140437602997
1772698736098433000,3.15443310546875,0.318871408700943,1.2733476161956787,-0.2130390852689743
1772698736115780000,3.171780029296875,0.15088360011577606,1.3576469421386719,-0.3761399984359741
1772698736133127200,3.189127197265625,-0.021380268037319183,1.6239839792251587,-0.6663007736206055
1772698736150474000,3.206473876953125,-0.11362084746360779,1.645975112915039,-0.7707586288452148
1772698736167821000,3.223821044921875,-0.10873392969369888,1.3307689428329468,-0.8086322546005249
1772698736185168100,3.241168212890625,-0.11423171311616898,1.0497710704803467,-0.864220917224884
1772698736202515200,3.25851513671875,-0.1899789422750473,1.0393863916397095,-0.7756455540657043
1772698736219862300,3.2758623046875,-0.36835145950317383,1.370475172996521,-0.3718639314174652
1772698736237209000,3.293208984375,-0.5119046568870544,1.5696170330047607,0.3220784664154053
1772698736254556200,3.31055615234375,-0.3433060050010681,0.9782999157905579,0.736244797706604
1772698736271903200,3.3279033203125,0.11056652665138245,0.3912588953971863,0.32391104102134705
1772698736289250300,3.345250244140625,0.2571740746498108,0.23243404924869537,-0.3975202441215515
1772698736306597400,3.362597412109375,0.2816086709499359,0.1542433500289917,-0.670576810836792
1772698736323944200,3.379944091796875,0.2260199636220932,0.3436114490032196,-0.09819651395082474
1772698736341291300,3.397291259765625,-0.01282816007733345,0.5586358308792114,0.5163334608078003
1772698736358638300,3.414638427734375,-0.08857539296150208,0.416304349899292,0.0691804364323616
1772698736375985400,3.4319853515625,0.09346231073141098,0.1792888194322586,-0.7163916826248169
1772698736393332500,3.44933251953125,0.44348782300949097,0.23976442217826843,-0.8403972387313843
1772698736410679300,3.46667919921875,0.9169080257415771,-0.016798781231045723,-0.47754353284835815
1772698736428026400,3.4840263671875,1.450192928314209,-0.22693626582622528,0.3733910918235779
1772698736445373400,3.50137353515625,1.7153083086013794,-0.2910770773887634,1.3318378925323486
1772698736462720500,3.518720458984375,1.5784746408462524,-0.4456258714199066,1.965915560722351
1772698736480067600,3.536067626953125,1.0592395067214966,-0.7852666974067688,2.075871229171753
1772698736497414400,3.553414306640625,0.38179048895835876,-1.0809252262115479,1.6079487800598145
1772698736514761500,3.570761474609375,0.012217295356094837,-1.0931425094604492,1.0367902517318726
1772698736532108500,3.588108642578125,-0.1233946830034256,-1.0778708457946777,0.9048434495925903
1772698736549455600,3.60545556640625,-0.3970620930194855,-1.2373065948486328,1.0428988933563232
1772698736566802700,3.622802734375,-0.9615011811256409,-1.0522146224975586,0.939662754535675
1772698736584149500,3.6401494140625,-1.1368193626403809,-0.4834994673728943,0.6287325620651245
1772698736601496600,3.65749658203125,-0.8765909671783447,-0.2813032269477844,0.3972148299217224
1772698736618843600,3.67484375,-0.48075059056282043,-0.4462367296218872,0.35506516695022583
1772698736636190700,3.692190673828125,-0.47097674012184143,-0.776714563369751,0.5358811020851135
1772698736653537800,3.709537841796875,-0.6701186895370483,-1.3008365631103516,0.6971494555473328
1772698736670884900,3.726884765625,-0.6304124593734741,-1.6972877979278564,0.64278244972229
1772698736688231700,3.744231689453125,-0.2406807243824005,-1.7565417289733887,0.521831214427948
1772698736705578800,3.761578857421875,0.13561198115348816,-1.499367594718933,0.5371028780937195
1772698736722925800,3.77892578125,0.2724456787109375,-0.8323032855987549,0.4399753510951996
1772698736740273000,3.79627294921875,0.3610210716724396,-0.4926624298095703,0.2542724609375
1772698736757620000,3.813619873046875,0.42394015192985535,-0.3546070158481598,0.019700389355421066
1772698736774966800,3.830966796875,0.4978547990322113,-0.33505934476852417,-0.17944152653217316
1772698736792313900,3.84831396484375,0.5583304166793823,-0.39248061180114746,-0.2887863218784332
1772698736809661000,3.865660888671875,0.6120865345001221,-0.3845393657684326,-0.3883572816848755
1772698736827008000,3.883008056640625,0.5436696410179138,-0.19761475920677185,-0.5551233887672424
1772698736844355000,3.90035498046875,0.32070401310920715,-0.04550942778587341,-0.5062541961669922
1772698736861702100,3.9177021484375,0.0769689604640007,-0.015577051788568497,-0.18982623517513275
1772698736879049000,3.935049072265625,-0.08429934084415436,-0.0821613147854805,0.17608177661895752
1772698736896396000,3.95239599609375,-0.0818558782339096,-0.2055560052394867,0.43631017208099365
1772698736913743000,3.9697431640625,0.07757982611656189,-0.2513708472251892,0.38499751687049866
1772698736931090200,3.987090087890625,0.20341797173023224,-0.31001389026641846,0.14248420298099518
1772698736948437200,4.004437255859375,0.2724456787109375,-0.3906480371952057,-0.5160280466079712
1772698736965784000,4.0217841796875,-0.08307760953903198,0.16096286475658417,-0.9650136232376099
1772698736983131100,4.039131103515625,-0.7446441650390625,0.8561269640922546,-0.5227475166320801
1772698737000478200,4.056478271484375,-1.148425817489624,0.05528326332569122,-0.7512109875679016
1772698737017825300,4.0738251953125,-1.211344838142395,-0.8866702318191528,-0.6119337677955627
1772698737035172400,4.09117236328125,-1.3994911909103394,-0.5170970559120178,-0.6186532974243164
1772698737052519200,4.108519287109375,-1.2638791799545288,-0.06750056147575378,-0.8196278214454651
1772698737069866200,4.1258662109375,-0.546113133430481,-0.476779967546463,-0.9014837145805359
1772698737087213300,4.14321337890625,0.20463970303535461,-0.9086613655090332,-0.7903063297271729
1772698737104560400,4.160560302734375,0.6524035930633545,-0.8200859427452087,-0.37430739402770996
1772698737121907500,4.177907470703125,0.8161153197288513,-0.30146175622940063,-0.12751802802085876
1772698737139254500,4.195254638671875,0.6261364221572876,0.07605266571044922,-0.2857320010662079
1772698737156601300,4.212601318359375,0.4318813979625702,0.5794052481651306,-0.33337944746017456
1772698737173948400,4.229948486328125,0.35796675086021423,0.9941824078559875,-0.3614792227745056
1772698737191295500,4.24729541015625,0.1692095398902893,1.3350449800491333,-0.41157013177871704
1772698737208642600,4.264642578125,0.15699224174022675,1.5751148462295532,-0.35903576016426086
1772698737225989600,4.28198974609375,0.1545487940311432,1.6172645092010498,-0.22098033130168915
1772698737243336400,4.29933642578125,0.03176496922969818,1.5066980123519897,-0.13484840095043182
1772698737260683500,4.31668359375,-0.033597562462091446,1.5030328035354614,-0.1262962967157364
1772698737278030600,4.334030517578125,-0.026878049597144127,1.5213587284088135,-0.27168211340904236
1772698737295377700,4.351377685546875,0.02871064469218254,1.6252057552337646,-0.5276344418525696
1772698737312724700,4.368724853515625,-0.02871064469218254,1.6392556428909302,-0.7176133990287781
1772698737330071600,4.386071533203125,-0.09101885557174683,1.3771946430206299,-0.7670934200286865
1772698737347419000,4.4034189453125,-0.07391463965177536,0.9245438575744629,-0.7096721529960632
1772698737364765700,4.420765625,0.01282816007733345,0.6319395899772644,-0.6223185062408447
1772698737382112800,4.43811279296875,0.04276053607463837,0.6227766275405884,-0.5074759125709534
1772698737399459800,4.4554599609375,-0.0824667438864708,0.8671225309371948,-0.3205513060092926
1772698737416807000,4.472806884765625,-0.27855435013771057,1.1133010387420654,-0.1928805559873581
1772698737434154000,4.490154052734375,-0.3078758418560028,0.9294307827949524,-0.31932955980300903
1772698737451500800,4.507500732421875,-0.09712749719619751,0.4401280879974365,-0.5270236134529114
1772698737468847900,4.524847900390625,0.15577052533626556,0.07299833744764328,-0.6168206930160522
1772698737486195000,4.54219482421875,0.4276053309440613,-0.008246674202382565,-0.586888313293457
1772698737503542000,4.5595419921875,0.6346884965896606,0.27030766010284424,-0.3669770061969757
1772698737520889000,4.57688916015625,0.5259546041488647,0.5684096813201904,-0.06582067906856537
1772698737538236000,4.59423583984375,0.23212862014770508,0.6612611413002014,-0.0206166859716177
1772698737555583000,4.6115830078125,0.04153880476951599,0.2910770773887634,-0.3303251266479492
1772698737572930000,4.628929931640625,0.16310089826583862,-0.05894844979047775,-0.5465712547302246
1772698737590277000,4.646277099609375,0.5907062292098999,-0.08032871782779694,-0.29184064269065857
1772698737607624200,4.663624267578125,1.1166608333587646,-0.1230892539024353,0.5920807123184204
1772698737624971000,4.680970947265625,1.2834268808364868,-0.0821613147854805,1.5767947435379028
1772698737642318000,4.698318115234375,1.2760965824127197,-0.33567020297050476,2.0434954166412354
1772698737659665200,4.7156650390625,1.130099892616272,-0.6759218573570251,2.1186318397521973
1772698737677012200,4.73301220703125,0.5021308660507202,-0.8720094561576843,1.6177226305007935
1772698737694359300,4.750359375,-0.06902772188186646,-0.981354296207428,1.1504111289978027
1772698737711706000,4.7677060546875,-0.2828303873538971,-1.1841614246368408,1.032514214515686
1772698737729053200,4.78505322265625,-0.430659681558609,-1.6245949268341064,0.9952514171600342
1772698737746400300,4.802400146484375,-0.953559935092926,-1.5671736001968384,0.7557924389839172
1772698737763747300,4.819747314453125,-1.1239912509918213,-0.8420770764350891,0.43631017208099365
1772698737781094400,4.837094482421875,-0.9260709881782532,-0.39736753702163696,0.2652680277824402
1772698737798441500,4.85444140625,-0.6536253094673157,-0.4822777509689331,0.38438665866851807
1772698737815788300,4.871788330078125,-0.6181951761245728,-0.7687733173370361,0.7234166264533997
1772698737833135400,4.88913525390625,-0.7464767694473267,-1.1743875741958618,0.8168789148330688
1772698737850482400,4.906482421875,-0.7550288438796997,-1.4657700061798096,0.6409498453140259
1772698737867829500,4.92382958984375,-0.4361574649810791,-1.5861103534698486,0.44730573892593384
1772698737885176600,4.941176513671875,-0.12644900381565094,-1.2910627126693726,0.3782780170440674
1772698737902523400,4.9585234375,0.12217295914888382,-0.7235693335533142,0.3263545036315918
1772698737919870500,4.975870361328125,0.30115634202957153,-0.40958482027053833,0.24572035670280457
1772698737937217500,4.993217529296875,0.42821621894836426,-0.3094030022621155,0.1455385386943817
1772698737954564600,5.010564697265625,0.5277871489524841,-0.2574795186519623,0.03802633285522461
1772698737971911700,5.02791162109375,0.5528326034545898,-0.23304490745067596,-0.1000291109085083
1772698737989258800,5.0452587890625,0.4263836145401001,-0.12492185086011887,-0.3016144931316376
1772698738006605600,5.06260546875,0.19242240488529205,0.15485422313213348,-0.5007563829421997
1772698738023952600,5.07995263671875,0.021380268037319183,0.3246746361255646,-0.42745262384414673
1772698738041299700,5.0972998046875,-0.18081597983837128,0.3246746361255646,-0.09392046183347702
1772698738058646800,5.114646728515625,-0.17348559200763702,0.12247838824987411,0.19868376851081848
1772698738075993900,5.131993896484375,0.013439024798572063,-0.05222893878817558,0.3251327872276306
1772698738093340700,5.149340576171875,0.18387030065059662,-0.12370011955499649,0.2707658112049103
1772698738110687700,5.166687744140625,0.32559093832969666,-0.3289506733417511,-0.025503603741526604
1772698738128034800,5.184034912109375,0.40927940607070923,-0.5561923980712891,-0.6235402226448059
1772698738145382000,5.2013818359375,-0.04764745384454727,0.13103049993515015,-0.8727730512619019
1772698738162729000,5.21872900390625,-0.48991355299949646,0.7278453707695007,-0.7292198538780212
1772698738180075800,5.23607568359375,-0.813060998916626,0.07544180005788803,-1.011439323425293
1772698738197422800,5.2534228515625,-1.1123847961425781,-1.0552688837051392,-0.8312342762947083
1772698738214770000,5.27077001953125,-1.3585633039474487,-0.7907644510269165,-0.7047852277755737
1772698738232117000,5.288116943359375,-1.2205078601837158,-0.06261363625526428,-1.0169371366500854
1772698738249464000,5.305464111328125,-0.5717694163322449,-0.5012145638465881,-1.1097885370254517
1772698738266811100,5.32281103515625,0.31459537148475647,-0.7919861674308777,-0.9100357890129089
1772698738284158200,5.340158203125,0.8216131329536438,-0.7290670871734619,-0.3364337682723999
1772698738301505000,5.357505126953125,1.0409135818481445,-0.3032943606376648,-0.007177661173045635
1772698738318852000,5.37485205078125,0.7886264324188232,-0.1029307171702385,-0.249690979719162
1772698738336199200,5.39219921875,0.4612029194831848,0.33322674036026,-0.4390590488910675
1772698738353546200,5.409546142578125,0.38667741417884827,0.8011491298675537,-0.5630646347999573
1772698738370893300,5.426893310546875,0.23335035145282745,1.1811070442199707,-0.6840158104896545
1772698738388240100,5.444240234375,0.2657261788845062,1.5402956008911133,-0.6656898856163025
1772698738405587200,5.461587158203125,0.3225366175174713,1.581834316253662,-0.5673406720161438
1772698738422934300,5.478934326171875,0.3090975880622864,1.4492766857147217,-0.4451677203178406
1772698738440281300,5.49628125,0.24312418699264526,1.3490948677062988,-0.342542439699173
1772698738457628400,5.51362841796875,0.19303326308727264,1.3820815086364746,-0.40485063195228577
1772698738474975200,5.530975341796875,0.15210533142089844,1.4871503114700317,-0.5984947681427002
1772698738492322300,5.548322265625,0.10506874322891235,1.5512911081314087,-0.7218894362449646
1772698738509669400,5.56566943359375,0.11545344442129135,1.3668099641799927,-0.7206677198410034
1772698738527016400,5.583016357421875,0.13072505593299866,1.0497710704803467,-0.5832231640815735
1772698738544363500,5.600363525390625,0.1588248461484909,0.8744529485702515,-0.351705402135849
1772698738561710600,5.617710693359375,0.0769689604640007,0.9324851036071777,-0.12140937149524689
1772698738579057400,5.635057373046875,-0.2657261788845062,1.1517854928970337,-0.01206457894295454
1772698738596404500,5.652404541015625,-0.6896663308143616,1.2733476161956787,-0.050549060106277466
1772698738613751600,5.66975146484375,-0.8197805285453796,0.9569196701049805,-0.050549060106277466
1772698738631098600,5.6870986328125,-0.5216785073280334,0.36254823207855225,-0.021227551624178886
1772698738648445700,5.70444580078125,-0.07024945318698883,-0.09560033679008484,-0.15928299725055695
1772698738665792500,5.72179248046875,0.31459537148475647,-0.1383608728647232,-0.13973531126976013
1772698738683139600,5.7391396484375,0.5131264328956604,0.05345066636800766,0.10766492038965225
1772698738700486700,5.756486572265625,0.4416552484035492,0.015577051788568497,-0.05787943676114082
1772698738717833700,5.773833740234375,0.34697118401527405,-0.27091851830482483,-0.4127918779850006
1772698738735180500,5.7911806640625,0.5436696410179138,-0.3032943606376648,-0.3370446562767029
1772698738752527600,5.808527587890625,0.9547816514968872,-0.28435754776000977,0.016646064817905426
1772698738769874700,5.825874755859375,1.3585633039474487,-0.41813695430755615,0.3819431960582733
1772698738787221800,5.8432216796875,1.5082250833511353,-0.5910117030143738,0.7399099469184875
1772698738804568800,5.86056884765625,1.4770710468292236,-0.868955135345459,1.2127193212509155
1772698738821916000,5.877916015625,1.3842196464538574,-0.9734130501747131,1.8883357048034668
1772698738839262700,5.8952626953125,0.9272927641868591,-0.9642500281333923,2.1174099445343018
1772698738856609800,5.91260986328125,0.2461785078048706,-0.8042035102844238,1.8590142726898193
1772698738873956900,5.929956787109375,-0.04214967042207718,-0.5904008150100708,1.3892592191696167
1772698738891304000,5.947303955078125,-0.15515965223312378,-0.6637045741081238,1.077107310295105
1772698738908651000,5.964651123046875,-0.5510000586509705,-1.0399973392486572,0.921336829662323
1772698738925997800,5.981997802734375,-1.033583164215088,-0.6239983439445496,0.7392991185188293
1772698738943345000,5.999344970703125,-1.137430191040039,-0.0015271619195118546,0.5022835731506348
1772698738960692000,6.01669189453125,-0.9718858599662781,0.12614357471466064,0.3678933084011078
1772698738978039000,6.0340390625,-0.822834849357605,-0.1029307171702385,0.44791659712791443
1772698738995386000,6.05138623046875,-0.813671886920929,-0.6001746654510498,0.6134609580039978
1772698739012733000,6.06873291015625,-0.9095776677131653,-1.1102467775344849,0.6690496206283569
1772698739030080000,6.086080078125,-0.7898481488227844,-1.2806780338287354,0.47845983505249023
1772698739047427000,6.103427001953125,-0.4612029194831848,-1.156672477722168,0.30253079533576965
1772698739064774100,6.120774169921875,-0.1185077652335167,-0.8567378520965576,0.2842048406600952
1772698739082121200,6.138121337890625,0.12156209349632263,-0.5036579966545105,0.25121814012527466
1772698739099468300,6.15546826171875,0.3084867000579834,-0.37843072414398193,0.14798198640346527
1772698739116815000,6.172815185546875,0.4465421438217163,-0.35766133666038513,-0.019394956529140472
1772698739134162200,6.190162109375,0.4874700903892517,-0.39797839522361755,-0.18310672044754028
1772698739151509200,6.20750927734375,0.4526508152484894,-0.4523453712463379,-0.37491825222969055
1772698739168856300,6.224856201171875,0.3842339515686035,-0.4108065664768219,-0.5270236134529114
1772698739186203400,6.242203369140625,0.2364046722650528,-0.21655155718326569,-0.5123628377914429
1772698739203550200,6.25955029296875,0.03909534588456154,0.06200277432799339,-0.32910341024398804
1772698739220897300,6.276897216796875,-0.11056652665138245,0.14019346237182617,0.025809036567807198
1772698739238244400,6.294244384765625,-0.2412915825843811,-0.018631376326084137,0.4430296719074249
1772698739255591400,6.31159130859375,-0.26450446248054504,-0.323452889919281,0.4595230221748352
1772698739272938500,6.3289384765625,-0.11362084746360779,-0.6734784245491028,0.09605848789215088
1772698739290285300,6.346285400390625,0.0409279391169548,-0.5201513767242432,-0.5221366882324219
1772698739307632400,6.36363232421875,-0.2052505612373352,0.04550942778587341,-0.7951932549476624
1772698739324979500,6.3809794921875,-0.370184063911438,0.6068941354751587,-0.6253728270530701
1772698739342326500,6.398326416015625,-0.5485565662384033,0.46395179629325867,-0.8733839392662048
1772698739359673600,6.415673583984375,-1.0109812021255493,-0.20433427393436432,-0.7597630620002747
1772698739377020700,6.433020751953125,-1.4575233459472656,-0.2971857190132141,-0.7939714789390564
1772698739394367500,6.450367431640625,-1.3500111103057861,-0.272751122713089,-0.8544471263885498
1772698739411714600,6.467714599609375,-1.0067051649093628,-0.5751292109489441,-1.0877974033355713
1772698739429061600,6.4850615234375,-0.1496618688106537,-0.8280271887779236,-0.9931133985519409
1772698739446408700,6.50240869140625,0.5668824911117554,-0.7156280875205994,-0.38041603565216064
1772698739463755800,6.519755859375,0.8374956250190735,-0.5158752799034119,0.06673697382211685
1772698739481102600,6.5371025390625,0.8600975871086121,-0.31673339009284973,-0.07620538026094437
1772698739498449700,6.55444970703125,0.4630354940891266,-0.08765909820795059,-0.29672756791114807
1772698739515796700,6.571796630859375,0.2370155304670334,0.38331764936447144,-0.42745262384414673
1772698739533143800,6.589143798828125,0.04886918142437935,0.7186824083328247,-0.6113229393959045
1772698739550491000,6.606490966796875,0.030543239787220955,0.9703587293624878,-0.6632464528083801
1772698739567838000,6.623837890625,0.19120067358016968,1.0711513757705688,-0.5282453298568726
1772698739585184800,6.641184814453125,0.3329212963581085,0.9776890873908997,-0.34926193952560425
1772698739602531800,6.65853173828125,0.430659681558609,0.9159917235374451,-0.2655734717845917
1772698739619879000,6.67587890625,0.43004879355430603,1.0424407720565796,-0.31383177638053894
1772698739637226000,6.69322607421875,0.3451386094093323,1.266017198562622,-0.47754353284835815
1772698739654573000,6.710572998046875,0.20463970303535461,1.3851358890533447,-0.5991056561470032
1772698739671920000,6.727920166015625,0.11362084746360779,1.2458586692810059,-0.6217076182365417
1772698739689267000,6.745266845703125,0.12156209349632263,1.0222822427749634,-0.5606211423873901
1772698739706614000,6.762614013671875,0.16798780858516693,0.9929606914520264,-0.4030180275440216
1772698739723961000,6.779961181640625,0.10629047453403473,1.1756092309951782,-0.03588830679655075
1772698739741308200,6.79730810546875,-0.09957095980644226,1.4327833652496338,0.3575085997581482
1772698739758655000,6.814655029296875,-0.2968802750110626,1.3716968297958374,0.35323256254196167
1772698739776002000,6.832001953125,-0.4062250852584839,0.850018322467804,0.007483093533664942
1772698739793349000,6.84934912109375,-0.49480047821998596,0.43951719999313354,-0.14401137828826904
1772698739810696200,6.8666962890625,-0.46914416551589966,0.11575887352228165,-0.1262962967157364
1772698739828043300,6.884043212890625,-0.14172062277793884,-0.13958260416984558,-0.031612250953912735
1772698739845390000,6.90139013671875,0.37812530994415283,-0.09926552325487137,0.06490438431501389
1772698739862737200,6.918737060546875,0.665842592716217,-0.13041962683200836,-0.24113887548446655
1772698739880084200,6.936084228515625,0.6169734001159668,-0.14752385020256042,-0.48243045806884766
1772698739897431300,6.953431396484375,0.5503891706466675,-0.00946840364485979,-0.3156643807888031
1772698739914778400,6.9707783203125,0.5992583632469177,0.08582650125026703,-0.05543597787618637
1772698739932125200,6.988125244140625,0.8167262077331543,-0.12125665694475174,0.17852523922920227
1772698739949472300,7.00547216796875,1.2431098222732544,-0.30573782324790955,0.6867647171020508
1772698739966819300,7.0228193359375,1.7305799722671509,-0.44501498341560364,1.4643956422805786
1772698739984166400,7.04016650390625,1.7434080839157104,-0.5543597936630249,2.1778857707977295
1772698740001513500,7.057513427734375,1.0305289030075073,-0.5415316224098206,2.2499678134918213
1772698740018860300,7.0748603515625,0.33658650517463684,-0.7082977294921875,1.760054111480713
1772698740036207400,7.092207275390625,-0.033597562462091446,-0.5971203446388245,1.2866339683532715
1772698740053554400,7.109554443359375,-0.33047783374786377,-0.6270527243614197,1.0147991180419922
1772698740070901500,7.126901611328125,-0.7476984858512878,-0.8200859427452087,0.8449786901473999
1772698740088248600,7.14424853515625,-1.176525592803955,-0.24892739951610565,0.5554288029670715
1772698740105595600,7.161595703125,-1.1081087589263916,0.3197877109050751,0.2964221239089966
1772698740122942500,7.1789423828125,-0.7348703145980835,0.2678641974925995,0.23044873774051666
1772698740140289500,7.19628955078125,-0.5827649831771851,-0.26480987668037415,0.33001968264579773
1772698740157636600,7.21363671875,-0.6682860851287842,-0.8768963813781738,0.43631017208099365
1772698740174983700,7.230983642578125,-0.7147117853164673,-1.3863576650619507,0.3672824501991272
1772698740192330800,7.248330810546875,-0.45937031507492065,-1.5531237125396729,0.20051635801792145
1772698740209677600,7.265677490234375,-0.028099779039621353,-1.4126248359680176,0.23472478985786438
1772698740227024600,7.283024658203125,0.13255766034126282,-0.970969557762146,0.3825540542602539
1772698740244371700,7.300371826171875,0.1026252806186676,-0.43463030457496643,0.26648977398872375
1772698740261718800,7.31771875,0.08552107214927673,-0.2263254076242447,-0.07681624591350555
1772698740279065900,7.33506591796875,0.0873536616563797,-0.11942406743764877,-0.4653262495994568
1772698740296413000,7.352412841796875,0.164322629570961,-0.19150610268115997,-0.6546943187713623
1772698740313759700,7.369759765625,0.33719736337661743,-0.33567020297050476,-0.7060069441795349
1772698740331106800,7.38710693359375,0.43310311436653137,-0.24220788478851318,-0.8251255750656128
1772698740348454000,7.404453857421875,0.25900667905807495,0.09560033679008484,-0.8092431426048279
1772698740365801000,7.421801025390625,0.029932374134659767,0.19700388610363007,-0.2961167097091675
1772698740383148000,7.43914794921875,-0.11972949653863907,0.31184646487236023,0.15225805342197418
1772698740400494800,7.456494873046875,-0.09285144507884979,0.2415970265865326,0.3159697949886322
1772698740417842000,7.473842041015625,0.10873392969369888,-0.025350889191031456,0.24327689409255981
1772698740435189000,7.49118896484375,0.25473061203956604,-0.5287034511566162,0.24816381931304932
1772698740452536000,7.5085361328125,0.24495677649974823,-0.7589994668960571,0.1455385386943817
1772698740469883100,7.525883056640625,0.13133592903614044,-0.6166679859161377,-0.49281516671180725
1772698740487230000,7.54322998046875,-0.21197007596492767,0.39186975359916687,-0.48731738328933716
1772698740504577000,7.560576904296875,-0.5980366468429565,0.6496546864509583,-0.5392408967018127
1772698740521924000,7.577924072265625,-1.2241730690002441,-0.21655155718326569,-0.6626355648040771
1772698740539271200,7.595271240234375,-1.6884303092956543,-0.30146175622940063,-0.7408262491226196
1772698740556618200,7.6126181640625,-1.4874557256698608,-0.021685699000954628,-0.7389936447143555
1772698740573965000,7.629965087890625,-0.9676098227500916,-0.26969680190086365,-1.1580469608306885
1772698740591312100,7.64731201171875,-0.025045456364750862,-0.3081812858581543,-1.1421644687652588
1772698740608659200,7.6646591796875,0.7354812026023865,0.18784092366695404,-0.42012226581573486
1772698740626006300,7.68200634765625,0.9462295174598694,0.7718276381492615,0.10461059212684631
1772698740643353300,7.699353271484375,0.8784235715866089,1.3490948677062988,-0.2735147178173065
1772698740660700400,7.716700439453125,0.2009745091199875,1.6606359481811523,-0.5367974042892456
1772698740678047200,7.734047119140625,-0.1948658674955368,1.7602068185806274,-0.5789470672607422
1772698740695394300,7.751394287109375,-0.3500255048274994,1.8390084505081177,-0.6388118267059326
1772698740712741400,7.768741455078125,-0.1844811588525772,2.068082809448242,-0.5954404473304749
1772698740730088400,7.78608837890625,0.12705987691879272,2.2812745571136475,-0.5612320303916931
1772698740747435500,7.803435546875,0.3170388340950012,2.1584906578063965,-0.38957902789115906
1772698740764782300,7.8207822265625,0.33719736337661743,1.9104795455932617,-0.24541492760181427
1772698740782129400,7.83812939453125,0.22724169492721558,1.9074252843856812,-0.29245150089263916
1772698740799476500,7.8554765625,0.05742128938436508,2.1419973373413086,-0.4500546157360077
1772698740816823600,7.872823486328125,-0.10873392969369888,2.163377523422241,-0.5758927464485168
1772698740834170600,7.890170654296875,-0.20830489695072174,1.889099359512329,-0.5978838801383972
1772698740851517400,7.907517333984375,-0.24312418699264526,1.590997338294983,-0.6168206930160522
1772698740868864500,7.924864501953125,-0.2559523284435272,1.3979640007019043,-0.6296488642692566
1772698740886211600,7.942211669921875,-0.2834412455558777,1.4114030599594116,-0.5911644101142883
1772698740903558700,7.95955859375,-0.42882707715034485,1.5964951515197754,-0.5178605914115906
1772698740920905700,7.97690576171875,-0.7348703145980835,1.5940515995025635,-0.47143489122390747
1772698740938252500,7.99425244140625,-1.0018181800842285,1.082757830619812,-0.4433351159095764
1772698740955599600,8.011599609375,-0.9792162179946899,0.5830704569816589,-0.45249807834625244
1772698740972946700,8.02894677734375,-0.748920202255249,0.5207622051239014,-0.45799586176872253
1772698740990293800,8.046293701171875,-0.39889469742774963,0.5891790986061096,-0.2802342176437378
1772698741007640800,8.063640869140626,0.056810423731803894,0.7528908252716064,0.21151192486286163
1772698741024987600,8.080987548828125,0.4465421438217163,0.757777750492096,0.81810063123703
1772698741042334700,8.098334716796876,0.5760455131530762,0.20616686344146729,0.9463822841644287
1772698741059681800,8.115681884765625,0.3536907136440277,-0.6411026120185852,0.22678354382514954
1772698741077028900,8.13302880859375,0.22357651591300964,-1.0045671463012695,-0.567951500415802
1772698741094376000,8.1503759765625,0.3659079968929291,-0.9782999157905579,-0.8678861260414124
1772698741111722800,8.16772265625,1.110552191734314,-0.8072578310966492,-0.4903717041015625
1772698741129069800,8.18506982421875,1.6365067958831787,-0.44501498341560364,0.513279139995575
1772698741146417000,8.2024169921875,1.415373682975769,-0.2098320573568344,1.0887137651443481
1772698741163764000,8.219763916015625,0.9498947262763977,-0.2874118685722351,1.5059343576431274
1772698741181111000,8.237111083984376,0.6927206516265869,-0.8219185471534729,1.8351905345916748
1772698741198457900,8.254457763671875,0.8032872080802917,-1.4492766857147217,1.5700751543045044
1772698741215805000,8.271804931640625,0.7971785664558411,-2.087630271911621,0.9482148289680481
1772698741233152000,8.289152099609375,0.6927206516265869,-2.2458443641662598,0.4540252387523651
1772698741250499000,8.3064990234375,0.37690356373786926,-1.8084651231765747,0.6207913160324097
1772698741267846100,8.32384619140625,-0.14782927930355072,-1.1279618740081787,0.8217658400535583
1772698741285193000,8.34119287109375,-0.6902772188186646,-0.6423243284225464,0.5865828990936279
1772698741302540000,8.3585400390625,-0.7947350740432739,-0.7363975048065186,0.3202458620071411
1772698741319887000,8.37588720703125,-0.4868592321872711,-1.1389573812484741,0.3972148299217224
1772698741337234200,8.393234130859375,-0.21502439677715302,-1.349705696105957,0.5212203860282898
1772698741354581200,8.410581298828125,-0.16249002516269684,-1.4456114768981934,0.5383245944976807
1772698741371928000,8.427927978515624,-0.18264856934547424,-1.6135993003845215,0.45280352234840393
1772698741389275100,8.445275146484375,-0.1802051067352295,-1.7290527820587158,0.40515607595443726
1772698741406622200,8.462622314453125,-0.10384701192378998,-1.6398664712905884,0.37583455443382263
1772698741423969300,8.47996923828125,-0.034208428114652634,-1.3668099641799927,0.33307403326034546
1772698741441316400,8.49731640625,0.03481929376721382,-0.9465349912643433,0.22678354382514954
1772698741458663400,8.514663330078125,0.15149445831775665,-0.518318772315979,0.04474584385752678
1772698741476010500,8.532010498046875,0.2565632164478302,-0.3637699782848358,-0.10735948383808136
1772698741493357300,8.549357421875,0.37201663851737976,-0.3448331654071808,-0.20082180202007294
1772698741510704400,8.566704345703124,0.5033525824546814,-0.31612253189086914,-0.24724751710891724
1772698741528051500,8.584051513671875,0.6316341757774353,-0.2861901521682739,-0.2747364342212677
1772698741545398500,8.6013984375,0.6780598759651184,-0.2623664140701294,-0.31932955980300903
1772698741562745600,8.61874560546875,0.583375871181488,-0.19944734871387482,-0.33399030566215515
1772698741580092400,8.636092529296874,0.3952295184135437,-0.22693626582622528,-0.13484840095043182
1772698741597439500,8.653439453125,0.13133592903614044,-0.29413139820098877,0.19135339558124542
1772698741614786600,8.67078662109375,-0.04276053607463837,-0.3949240744113922,0.46807512640953064
1772698741632133600,8.688133544921875,-0.11423171311616898,-0.6600393652915955,0.48762279748916626
1772698741649480700,8.705480712890624,-0.10629047453403473,-1.334434151649475,0.41187557578086853
1772698741666827500,8.72282763671875,-0.043371398001909256,-1.2818996906280518,0.11316270381212234
1772698741684174600,8.740174560546874,-0.05558869615197182,-0.8720094561576843,-0.31261005997657776
1772698741701521700,8.757521728515625,-0.25411975383758545,-0.12003492563962936,-0.3578140437602997
1772698741718868700,8.77486865234375,-0.34636032581329346,0.09193515032529831,-0.5771145224571228
1772698741736215800,8.7922158203125,-0.6646208763122559,-0.4920515716075897,-0.6589703559875488
1772698741753562600,8.809562744140624,-0.9407317638397217,-0.664926290512085,-0.4647153913974762
1772698741770909700,8.82690966796875,-0.998153030872345,-0.43829548358917236,-0.33765551447868347
1772698741788256800,8.8442568359375,-0.6652317643165588,-0.9111047983169556,-0.6388118267059326
1772698741805603800,8.861603759765625,-0.06475166976451874,-1.3515383005142212,-0.8019127249717712
1772698741822951000,8.878950927734374,0.26389357447624207,-1.609323263168335,-0.47204574942588806
1772698741840298000,8.896298095703125,0.3750709891319275,-1.6807944774627686,-0.09453132748603821
1772698741857644800,8.913644775390624,0.45020735263824463,-1.5525128841400146,-0.10247256606817245
1772698741874991900,8.930991943359375,0.5760455131530762,-1.1426225900650024,-0.1562286615371704
1772698741892339000,8.9483388671875,0.5827649831771851,-0.6698132157325745,-0.19043709337711334
1772698741909686000,8.96568603515625,0.4929678738117218,-0.16523891687393188,-0.18860450387001038
1772698741927033000,8.983033203125,0.3646862804889679,0.25931209325790405,-0.24602578580379486
1772698741944380000,9.0003798828125,0.3035998046398163,0.5732966065406799,-0.3266599476337433
1772698741961727000,9.01772705078125,0.2761108875274658,0.6185005903244019,-0.29306238889694214
1772698741979074000,9.035073974609375,0.31520622968673706,0.5195404887199402,-0.2124282270669937
1772698741996421000,9.052421142578124,0.35124725103378296,0.5732966065406799,-0.18616104125976562
1772698742013768200,9.069768310546875,0.33231043815612793,0.7278453707695007,-0.3584249019622803
1772698742031115000,9.087114990234374,0.2107483446598053,0.8457422852516174,-0.5801688432693481
1772698742048462000,9.104462158203125,0.04764745384454727,0.8823941946029663,-0.6864593029022217
1772698742065809200,9.12180908203125,-0.04276053607463837,0.7461713552474976,-0.6980656981468201
1772698742083156200,9.13915625,0.0054977829568088055,0.45051276683807373,-0.7304415702819824
1772698742100503300,9.15650341796875,0.22296564280986786,0.25931209325790405,-0.763428270816803
1772698742117850000,9.17385009765625,0.46059203147888184,0.21410810947418213,-0.6736311316490173
1772698742135197200,9.191197265625,0.5558869242668152,0.42791077494621277,-0.39141160249710083
1772698742152544300,9.208544189453125,0.5149590373039246,0.8842267394065857,-0.021227551624178886
1772698742169891300,9.225891357421874,0.4001164436340332,1.138346552848816,0.11316270381212234
1772698742187238400,9.24323828125,0.28405213356018066,0.9355394244194031,-0.06520981341600418
1772698742204585200,9.260585205078126,0.006108647678047419,0.6826413869857788,-0.27229297161102295
1772698742221932300,9.277932373046875,-0.3127627670764923,0.37720900774002075,-0.39996370673179626
1772698742239279400,9.295279296875,-0.35674503445625305,0.14202606678009033,-0.4555523991584778
1772698742256626400,9.31262646484375,-0.2730565667152405,0.1285870373249054,-0.3413206934928894
1772698742273973500,9.329973388671876,-0.08368847519159317,0.2764163017272949,-0.3578140437602997
1772698742291320300,9.3473203125,0.19120067358016968,0.2861901521682739,-0.44150251150131226
1772698742308667400,9.36466748046875,0.4770853817462921,0.30451610684394836,-0.04260781779885292
1772698742326014500,9.382014404296875,0.5430588126182556,0.20677772164344788,0.37583455443382263
1772698742343361500,9.399361572265626,0.5809323787689209,-0.061391908675432205,0.6733257174491882
1772698742360708600,9.41670849609375,0.7134900689125061,-0.17867794632911682,0.9683734178543091
1772698742378055400,9.434055419921876,0.9798271059989929,-0.26480987668037415,1.4637846946716309
1772698742395402500,9.451402587890625,1.0427461862564087,-0.3289506733417511,1.8559598922729492
1772698742412749600,9.46874951171875,0.6438514590263367,-0.508544921875,1.6940807104110718
1772698742430096600,9.4860966796875,0.2614501118659973,-0.664926290512085,1.4534000158309937
1772698742447443700,9.503443603515626,0.16737695038318634,-0.8310815095901489,1.3129011392593384
1772698742464790500,9.52079052734375,-0.0513126403093338,-1.0118975639343262,1.1436915397644043
1772698742482137600,9.5381376953125,-0.6310232877731323,-0.6948586702346802,0.901789128780365
1772698742499484700,9.555484619140625,-0.8216131329536438,-0.14569124579429626,0.5878046154975891
1772698742516831700,9.572831787109376,-0.7733548283576965,0.01435532234609127,0.3452913165092468
1772698742534178800,9.5901787109375,-0.6933315396308899,-0.03634645417332649,0.24633121490478516
1772698742551525600,9.607525634765626,-0.6414080262184143,-0.0021380267571657896,0.5346593856811523
1772698742568872700,9.624872802734375,-0.7703005075454712,-0.18723005056381226,0.9005674123764038
1772698742586219800,9.6422197265625,-0.7721330523490906,-0.5653553605079651,0.8370374441146851
1772698742603566800,9.65956689453125,-0.4972439408302307,-1.0509928464889526,0.5768090486526489
1772698742620914000,9.676913818359376,-0.2767217457294464,-1.109025001525879,0.37033677101135254
1772698742638260700,9.6942607421875,-0.10506874322891235,-0.600785493850708,0.3019199073314667
1772698742655607800,9.71160791015625,0.01893680728971958,-0.16768237948417664,0.26221370697021484
1772698742672955000,9.728954833984375,0.13927717506885529,-0.06261363625526428,0.2029598206281662
1772698742690302000,9.746302001953126,0.28466299176216125,-0.19883649051189423,0.08750637620687485
1772698742707649000,9.76364892578125,0.4166097939014435,-0.3790415823459625,-0.08231402933597565
1772698742724996000,9.78099609375,0.5314523577690125,-0.3081812858581543,-0.2582430839538574
1772698742742343000,9.798343017578125,0.5076286196708679,-0.02107483521103859,-0.383470356464386
1772698742759690000,9.81568994140625,0.28466299176216125,0.4046979248523712,-0.39629852771759033
1772698742777037000,9.833037109375,-0.0616973415017128,0.6960803866386414,-0.21975859999656677
1772698742794384100,9.850384033203126,-0.360410213470459,0.6093376278877258,0.028863361105322838
1772698742811731200,9.867731201171875,-0.36712974309921265,0.21716243028640747,0.08200860023498535
1772698742829078000,9.885078125,-0.11423171311616898,0.03817904740571976,0.1461493968963623
1772698742846425000,9.902425048828125,0.21380266547203064,0.10048725455999374,0.22983787953853607
1772698742863772200,9.919772216796876,0.4105011224746704,-0.2568686306476593,0.3000873327255249
1772698742881119200,9.937119140625,0.6175842881202698,-0.5806269645690918,-0.07192932814359665
1772698742898466300,9.95446630859375,0.16798780858516693,0.33505934476852417,-0.5673406720161438
1772698742915813000,9.971813232421875,-0.7709113359451294,0.5897899270057678,-0.5508472919464111
1772698742933160200,9.98916015625,-1.2553271055221558,-0.13041962683200836,-0.8000801205635071
1772698742950507300,10.00650732421875,-1.701869249343872,-0.693026065826416,-0.9430224895477295
1772698742967854300,10.023854248046876,-1.6132938861846924,-0.36193737387657166,-0.5007563829421997
1772698742985201400,10.041201416015625,-1.1264346837997437,-0.6966912746429443,-0.754265308380127
1772698743002548200,10.05854833984375,-0.33108872175216675,-1.0619884729385376,-1.0749692916870117
1772698743019895300,10.075895263671875,0.6096430420875549,-0.9911280870437622,-0.8849903345108032
1772698743037242400,10.093242431640626,0.9712749719619751,-0.38881543278694153,-0.26190826296806335
1772698743054589400,10.11058935546875,1.232114315032959,0.15118902921676636,-0.011453714221715927
1772698743071936500,10.1279365234375,1.053741693496704,0.3704894781112671,-0.3156643807888031
1772698743089283600,10.14528369140625,0.6200277805328369,1.0485494136810303,-0.5294670462608337
1772698743106630400,10.16263037109375,0.21319180727005005,1.4706569910049438,-0.6229293346405029
1772698743123977500,10.1799775390625,-0.09896009415388107,1.7131702899932861,-0.5807796716690063
1772698743141324500,10.197324462890625,-0.09162971377372742,1.9080361127853394,-0.46654796600341797
1772698743158671600,10.214671630859375,0.034208428114652634,1.9074252843856812,-0.3761399984359741
1772698743176018700,10.232018798828125,0.20769402384757996,1.7321070432662964,-0.3052796721458435
1772698743193365800,10.24936572265625,0.35613417625427246,1.5659518241882324,-0.2594648003578186
1772698743210712600,10.266712646484375,0.3384190797805786,1.4468332529067993,-0.39018988609313965
1772698743228059600,10.2840595703125,0.09712749719619751,1.5494585037231445,-0.5502364635467529
1772698743245406700,10.30140673828125,-0.13683371245861053,1.6209297180175781,-0.5929969549179077
1772698743262753800,10.31875390625,-0.16737695038318634,1.2910627126693726,-0.6155989766120911
1772698743280100600,10.3361005859375,-0.03909534588456154,0.7241802215576172,-0.6669116020202637
1772698743297447700,10.35344775390625,0.143553227186203,0.26542073488235474,-0.7029526233673096
1772698743314794800,10.370794677734375,0.24862197041511536,0.08888082206249237,-0.651029109954834
1772698743332141800,10.388141845703124,0.13683371245861053,0.2098320573568344,-0.5349648594856262
1772698743349489000,10.405489013671875,-0.1496618688106537,0.3808741867542267,-0.36392268538475037
1772698743366836000,10.4228359375,-0.2993237376213074,0.448069304227829,-0.07254019379615784
1772698743384182800,10.440182861328125,-0.053145237267017365,0.18417572975158691,0.10277800261974335
1772698743401529900,10.45752978515625,0.360410213470459,-0.2623664140701294,-0.10858121514320374
1772698743418877000,10.474876953125,0.4056142270565033,-0.4926624298095703,-0.485484778881073
1772698743436223700,10.4922236328125,0.14660754799842834,-0.3179551064968109,-0.45616328716278076
1772698743453570800,10.50957080078125,-0.13011419773101807,0.029626941308379173,-0.07864884287118912
1772698743470918000,10.52691796875,-0.2632827162742615,0.37659814953804016,-0.07009673118591309
1772698743488265000,10.544264892578125,-0.10445787757635117,0.23854269087314606,-0.2533561587333679
1772698743505612000,10.561612060546874,0.20341797173023224,0.05589412897825241,-0.36880961060523987
1772698743522958800,10.578958740234375,0.5754346251487732,0.1285870373249054,-0.28206682205200195
1772698743540306000,10.596305908203124,0.8845322132110596,0.31001389026641846,0.19929464161396027
1772698743557653000,10.613653076171875,0.9798271059989929,0.39797839522361755,0.7967203855514526
1772698743575000000,10.631,0.9639446139335632,0.0565049909055233,1.1632392406463623
1772698743592347100,10.64834716796875,1.211344838142395,-0.43340855836868286,1.4992148876190186
1772698743609694000,10.66569384765625,1.359174132347107,-0.5488619804382324,1.9225441217422485
1772698743627041000,10.683041015625,0.9211840629577637,-0.2880227565765381,1.8663445711135864
1772698743644388000,10.70038818359375,0.2467893660068512,-0.4046979248523712,1.5627448558807373
1772698743661735200,10.717735107421875,-0.43310311436653137,-0.8310815095901489,1.2029454708099365
1772698743679082200,10.735082275390624,-1.0763437747955322,-1.0039563179016113,0.8895718455314636
1772698743696429000,10.752428955078125,-1.5943571329116821,-0.7626646757125854,0.5560396909713745
1772698743713776000,10.769776123046874,-1.461188554763794,0.3741546869277954,0.24755294620990753
1772698743731123200,10.787123291015625,-1.1801908016204834,0.8384119272232056,0.19685117900371552
1772698743748470300,10.80447021484375,-0.7825177907943726,0.526870846748352,0.4088212549686432
1772698743765817300,10.8218173828125,-0.6133082509040833,-0.21227550506591797,0.6543889045715332
1772698743783164200,10.8391640625,-0.66645348072052,-0.8158099055290222,0.7692314982414246
1772698743800511200,10.85651123046875,-0.6414080262184143,-1.0583232641220093,0.6293434500694275
1772698743817858300,10.8738583984375,-0.47464191913604736,-0.9361502528190613,0.36911505460739136
1772698743835205400,10.891205322265625,-0.3384190797805786,-0.6081159114837646,0.20662501454353333
1772698743852552400,10.908552490234374,-0.18814635276794434,-0.1536324918270111,0.13209950923919678
1772698743869899500,10.9258994140625,-0.0769689604640007,0.19150610268115997,-0.004123337101191282
1772698743887246300,10.943246337890624,0.01649334840476513,0.32039856910705566,-0.13179408013820648
1772698743904593400,10.960593505859375,0.12522727251052856,0.2733619809150696,-0.22769984602928162
1772698743921940500,10.9779404296875,0.24006985127925873,0.12614357471466064,-0.2753472924232483
1772698743939287600,10.99528759765625,0.3738492429256439,0.018631376326084137,-0.3254382014274597
1772698743956634600,11.012634521484374,0.45937031507492065,0.02412915788590908,-0.46654796600341797
1772698743973981700,11.029981689453125,0.39889469742774963,0.2208276242017746,-0.6375901103019714
1772698743991328500,11.04732861328125,0.19792018830776215,0.3851502537727356,-0.5203040838241577
1772698744008675600,11.064675537109375,-0.08002328872680664,0.42363473773002625,-0.17027856409549713
1772698744026022700,11.082022705078124,-0.21197007596492767,0.3656025826931,0.16569706797599792
1772698744043369700,11.09936962890625,-0.12095122784376144,0.2617555558681488,0.38072147965431213
1772698744060716800,11.116716796875,-0.04825831577181816,-0.10965022444725037,0.3043633699417114
1772698744078063600,11.134063720703125,0.02932151034474373,-0.8946114778518677,0.09666935354471207
1772698744095410700,11.15141064453125,-0.14110976457595825,-0.5604684352874756,-0.41218101978302
1772698744112757800,11.1687578125,-0.6065887212753296,0.10598503798246384,-0.4396699368953705
1772698744130104800,11.186104736328126,-0.8576541543006897,0.6624828577041626,-0.360868364572525
1772698744147452000,11.203451904296875,-1.2205078601837158,0.3808741867542267,-0.4995346665382385
1772698744164798700,11.220798828125,-1.543655276298523,-0.33200499415397644,-0.5997164845466614
1772698744182145800,11.238145751953125,-1.4508038759231567,-0.2629773020744324,-0.6058251261711121
1772698744199492900,11.255492919921876,-1.0213658809661865,-0.5684096813201904,-0.9931133985519409
1772698744216840000,11.27283984375,-0.15088360011577606,-0.9630283117294312,-1.0804671049118042
1772698744234187000,11.29018701171875,0.40255987644195557,-0.9978476166725159,-0.4744892120361328
1772698744251534000,11.3075341796875,0.6921098232269287,-0.7877101302146912,-0.10369429737329483
1772698744268881000,11.324880859375,0.7800742983818054,-0.38331764936447144,-0.37980517745018005
1772698744286228000,11.34222802734375,0.49418962001800537,0.05528326332569122,-0.513584554195404
1772698744303575000,11.359574951171876,0.05864302068948746,0.5024362802505493,-0.5123628377914429
1772698744320922000,11.376922119140625,-0.17043127119541168,0.8469640016555786,-0.5306887626647949
1772698744338269200,11.394269287109376,-0.17043127119541168,1.1157444715499878,-0.5820014476776123
1772698744355616000,11.411615966796875,0.021380268037319183,1.4242312908172607,-0.6003273725509644
1772698744372963000,11.428963134765626,0.2364046722650528,1.4547744989395142,-0.43722647428512573
1772698744390310100,11.44631005859375,0.35613417625427246,1.3771946430206299,-0.25702136754989624
1772698744407657200,11.4636572265625,0.3549124300479889,1.4437788724899292,-0.24785839021205902
1772698744425004300,11.48100439453125,0.27000224590301514,1.7064508199691772,-0.39141160249710083
1772698744442351000,11.49835107421875,0.0818558782339096,1.8127412796020508,-0.4964803457260132
1772698744459698200,11.5156982421875,-0.0818558782339096,1.6649119853973389,-0.5251910090446472
1772698744477045200,11.533045166015626,-0.09529490768909454,1.5378520488739014,-0.5765036344528198
1772698744494392300,11.550392333984375,-0.01893680728971958,1.3735294342041016,-0.6388118267059326
1772698744511739400,11.567739501953126,0.04581485688686371,1.1328487396240234,-0.6241511106491089
1772698744529086200,11.585086181640625,0.05558869615197182,1.0332777500152588,-0.5349648594856262
1772698744546433300,11.602433349609376,-0.026878049597144127,1.1450660228729248,-0.4488328993320465
1772698744563780400,11.6197802734375,-0.22479823231697083,1.3765838146209717,-0.4634936451911926
1772698744581127400,11.63712744140625,-0.5229002237319946,1.5793908834457397,-0.5728384256362915
1772698744598474500,11.654474609375,-0.8179479241371155,1.6856813430786133,-0.6772963404655457
1772698744615821300,11.6718212890625,-0.9230166673660278,1.6826270818710327,-0.6473639607429504
1772698744633168400,11.68916845703125,-0.7703005075454712,1.627649188041687,-0.4592176079750061
1772698744650515500,11.706515380859376,-0.45387253165245056,1.350927472114563,-0.342542439699173
1772698744667862500,11.723862548828125,-0.21868959069252014,1.112079381942749,-0.29672756791114807
1772698744685209600,11.741209716796876,-0.22174391150474548,0.9361502528190613,-0.2906189262866974
1772698744702556400,11.758556396484375,-0.34147340059280396,0.5616901516914368,-0.37003132700920105
1772698744719903500,11.775903564453126,-0.3194822669029236,0.24892739951610565,-0.48853909969329834
1772698744737250600,11.79325048828125,-0.07086031138896942,0.43463030457496643,-0.3730856776237488
1772698744754597600,11.81059765625,0.4465421438217163,0.572685718536377,0.05635227635502815
1772698744771944400,11.8279443359375,1.084285020828247,0.45417797565460205,0.512668251991272
1772698744789291500,11.84529150390625,1.515555500984192,0.46944957971572876,0.7722858190536499
1772698744806638600,11.862638671875,1.5528182983398438,0.3228420317173004,0.8333722949028015
1772698744823985700,11.879985595703126,1.434921383857727,0.18600831925868988,0.9579886794090271
1772698744841332700,11.897332763671875,1.362228512763977,-0.25320345163345337,1.170569658279419
1772698744858679600,11.914679443359375,1.3347395658493042,-0.9666935205459595,1.144302487373352
1772698744876026600,11.932026611328125,1.053741693496704,-1.5121957063674927,0.8816305994987488
1772698744893373700,11.949373779296875,0.5717694163322449,-1.4621047973632812,0.6947059631347656
1772698744910720800,11.966720703125,0.03298669680953026,-0.8530726432800293,0.7423534393310547
1772698744928067800,11.98406787109375,-0.3426951467990875,-0.1646280586719513,0.6824886798858643
1772698744945414700,12.00141455078125,-0.5528326034545898,0.06933315098285675,0.48884454369544983
1772698744962761700,12.01876171875,-0.4618137776851654,-0.08277218043804169,0.32268932461738586
1772698744980108800,12.03610888671875,-0.34147340059280396,-0.40714138746261597,0.40149086713790894
1772698744997456000,12.053455810546875,-0.2260199636220932,-0.8573487401008606,0.6934842467308044
1772698745014803000,12.070802978515625,-0.0665842592716217,-1.156672477722168,0.7942769527435303
1772698745032149800,12.088149658203125,0.08857539296150208,-1.17499840259552,0.53221595287323
1772698745049496800,12.105496826171875,0.1545487940311432,-1.120631456375122,0.25060728192329407
1772698745066844000,12.122843994140625,0.12522727251052856,-1.0228930711746216,0.20479241013526917
1772698745084191000,12.14019091796875,0.027488915249705315,-0.8329141139984131,0.26099199056625366
1772698745101538000,12.1575380859375,-0.07147117704153061,-0.6698132157325745,0.26648977398872375
1772698745118885000,12.174885009765624,-0.10873392969369888,-0.6624828577041626,0.21456626057624817
1772698745136232000,12.19223193359375,-0.07086031138896942,-0.7974839806556702,0.18524473905563354
1772698745153579000,12.2095791015625,-0.007330377586185932,-0.9324851036071777,0.1815795600414276
1772698745170926000,12.226926025390625,0.04886918142437935,-0.989906370639801,0.17058399319648743
1772698745188273200,12.244273193359374,0.09162971377372742,-1.0424407720565796,0.15470150113105774
1772698745205620200,12.2616201171875,0.1081230640411377,-1.0607666969299316,0.14309507608413696
1772698745222967000,12.278967041015624,0.0873536616563797,-1.0528254508972168,0.1614210158586502
1772698745240314000,12.296314208984375,0.049480047076940536,-1.0558797121047974,0.18952079117298126
1772698745257661200,12.3136611328125,0.018325943499803543,-1.0601558685302734,0.22983787953853607
1772698745275008300,12.33100830078125,-0.01954767294228077,-1.0161736011505127,0.25610506534576416
1772698745292355300,12.348355224609374,-0.06230820715427399,-0.9153808951377869,0.2701549530029297
1772698745309702400,12.365702392578125,-0.09040798991918564,-0.8029817342758179,0.2793179154396057
1772698745327049200,12.38304931640625,-0.08368847519159317,-0.7235693335533142,0.2897026240825653
1772698745344396300,12.400396240234375,-0.08552107214927673,-0.6905826330184937,0.2848156988620758
1772698745361743400,12.417743408203124,-0.09712749719619751,-0.6404917240142822,0.2903134822845459
1772698745379090400,12.43509033203125,-0.04214967042207718,-0.5830704569816589,0.2811505198478699
1772698745396437500,12.4524375,0.0873536616563797,-0.6227766275405884,0.1980729103088379
1772698745413784300,12.469784423828125,0.23518294095993042,-0.7877101302146912,0.09605848789215088
1772698745431131400,12.48713134765625,0.37323838472366333,-0.9721912741661072,0.0435241162776947
1772698745448478500,12.504478515625,0.47586366534233093,-1.025336503982544,0.0025961752980947495
1772698745465825500,12.521825439453124,0.4776962697505951,-0.9062178730964661,-0.1519526094198227
1772698745483172600,12.539172607421875,0.0922405794262886,-0.526870846748352,-0.3724747896194458
1772698745500519400,12.55651953125,-0.5375609993934631,-0.6600393652915955,-0.25763222575187683
1772698745517866500,12.573866455078125,-0.9193515181541443,-0.9019418358802795,-0.15012001991271973
1772698745535213600,12.591213623046874,-1.081230640411377,-0.9550870656967163,-0.14217877388000488
1772698745552560600,12.608560546875,-1.0219768285751343,-0.5708531141281128,-0.16600249707698822
1772698745569907700,12.62590771484375,-0.7623592615127563,-0.44318240880966187,-0.3969093859195709
1772698745587254500,12.643254638671875,-0.3500255048274994,-0.7699950337409973,-0.616209864616394
1772698745604601600,12.6606015625,0.07086031138896942,-1.2318087816238403,-0.6565269231796265
1772698745621948700,12.67794873046875,0.1954767256975174,-1.5879429578781128,-0.38591381907463074
1772698745639295700,12.695295654296874,0.05192350596189499,-1.951407551765442,0.012370011769235134
1772698745656642800,12.712642822265625,-0.0256563201546669,-2.1310017108917236,0.2652680277824402
1772698745673990000,12.729989990234374,0.09590577334165573,-1.8286237716674805,0.27687445282936096
1772698745691337000,12.7473369140625,0.39767298102378845,-1.4731004238128662,0.0844520553946495
1772698745708683800,12.764683837890624,0.6230821013450623,-0.970969557762146,-0.16783510148525238
1772698745726030800,12.78203076171875,0.49052441120147705,-0.4615083336830139,-0.27290382981300354
1772698745743378000,12.7993779296875,0.18264856934547424,-0.21960589289665222,-0.13790272176265717
1772698745760725000,12.81672509765625,-0.05742128938436508,-0.24037529528141022,-0.01206457894295454
1772698745778072000,12.834072021484374,-0.09529490768909454,-0.23793183267116547,-0.03894263133406639
1772698745795419000,12.8514189453125,0.16126830875873566,-0.18417572975158691,-0.22098033130168915
1772698745812766000,12.868765869140624,0.5076286196708679,-0.20372340083122253,-0.3529271185398102
1772698745830113000,12.886113037109375,0.6805033683776855,-0.2886336147785187,-0.31932955980300903
1772698745847460000,12.903460205078124,0.6291907429695129,-0.3289506733417511,-0.24052800238132477
1772698745864807200,12.92080712890625,0.4269944727420807,-0.28496840596199036,-0.22708898782730103
1772698745882154000,12.938154052734374,0.20280711352825165,-0.18600831925868988,-0.3211621642112732
1772698745899501000,12.9555009765625,0.13988803327083588,-0.16829325258731842,-0.48365217447280884
1772698745916848000,12.97284814453125,0.2260199636220932,-0.21960589289665222,-0.5612320303916931
1772698745934195200,12.9901953125,0.31154105067253113,-0.23976442217826843,-0.5025889873504639
1772698745951542300,13.007542236328124,0.3170388340950012,-0.15668681263923645,-0.301003634929657
1772698745968889000,13.02488916015625,0.24373504519462585,0.07910698652267456,0.07040216773748398
1772698745986236200,13.042236083984376,0.16187916696071625,0.31551164388656616,0.37583455443382263
1772698746003583200,13.059583251953125,0.10751219838857651,0.25992295145988464,0.33368489146232605
1772698746020930300,13.076930419921876,0.06841685622930527,0.10231985151767731,0.05329795181751251
1772698746038277000,13.094277099609375,0.047036588191986084,-0.025961752980947495,-0.14523309469223022
1772698746055624200,13.111624267578126,0.08368847519159317,-0.09498947113752365,-0.18005239963531494
1772698746072971300,13.12897119140625,0.09590577334165573,-0.21227550506591797,-0.06643154472112656
1772698746090318300,13.146318359375,-0.025045456364750862,-0.35094180703163147,-0.09819651395082474
1772698746107665200,13.1636650390625,-0.05864302068948746,-0.7473930716514587,-0.27229297161102295
1772698746125012500,13.181012451171876,0.12767073512077332,-1.0833686590194702,-0.24724751710891724
1772698746142359300,13.198359375,0.4068359434604645,-1.130405306816101,0.03558287397027016
1772698746159706400,13.215706298828126,0.49113526940345764,-1.0687079429626465,0.38560840487480164
1772698746177053400,13.233053466796875,0.656679630279541,-1.083979606628418,0.827874481678009
1772698746194400300,13.250400146484376,0.962722897529602,-1.2263110876083374,1.3886483907699585
1772698746211747300,13.267747314453125,0.924849271774292,-1.3814706802368164,1.9139920473098755
1772698746229094400,13.285094482421876,0.3787361681461334,-1.525634765625,1.8968878984451294
1772698746246441500,13.30244140625,0.033597562462091446,-1.9312490224838257,1.550527572631836
1772698746263788500,13.31978857421875,-0.024434590712189674,-2.2085816860198975,1.152243733406067
1772698746281135600,13.337135498046875,-0.2162461280822754,-2.3380849361419678,0.9500474333763123
1772698746298482400,13.354482421875,-0.7079922556877136,-2.2177445888519287,0.8712459206581116
1772698746315829500,13.37182958984375,-0.832608699798584,-1.4480549097061157,0.7191405892372131
1772698746333176600,13.389176513671876,-0.5992583632469177,-1.181717872619629,0.6036871075630188
1772698746350523600,13.406523681640625,-0.3854556679725647,-1.2263110876083374,0.6366738080978394
1772698746367870700,13.42387060546875,-0.3029889166355133,-1.4132356643676758,0.8620828986167908
1772698746385217500,13.441217529296875,-0.33597561717033386,-1.8212933540344238,1.0221295356750488
1772698746402564600,13.458564697265626,-0.3799578845500946,-2.17620587348938,0.984866738319397
1772698746419911700,13.47591162109375,-0.25350889563560486,-2.2892158031463623,0.809548556804657
1772698746437258800,13.4932587890625,-0.12644900381565094,-2.1334452629089355,0.6305651664733887
1772698746454605800,13.510605712890625,-0.039706211537122726,-1.6905683279037476,0.6116283535957336
1772698746471953000,13.527952880859376,0.001221729558892548,-1.1578941345214844,0.5975784659385681
1772698746489299700,13.5452998046875,0.059864748269319534,-0.8035926222801208,0.4943423271179199
1772698746506646800,13.562646728515626,0.15149445831775665,-0.5775726437568665,0.34956738352775574
1772698746523993900,13.579993896484375,0.18692462146282196,-0.4883863925933838,0.19868376851081848
1772698746541341000,13.5973408203125,0.17104214429855347,-0.4004218578338623,0.07406735420227051
1772698746558688000,13.61468798828125,0.24984370172023773,-0.026572618633508682,-0.06765327602624893
1772698746576034800,13.632034912109376,0.34147340059280396,0.27947062253952026,-0.17944152653217316
1772698746593382000,13.6493818359375,0.37140578031539917,0.5891790986061096,-0.27840161323547363
1772698746610729000,13.66672900390625,0.37201663851737976,0.6398808360099792,-0.18371757864952087
1772698746628076000,13.684075927734375,0.3249800503253937,0.40714138746261597,0.025809036567807198
1772698746645423000,13.701423095703126,0.328645259141922,0.11087195575237274,-0.005345067009329796
1772698746662770200,13.718770263671875,0.4098902642726898,0.07971785217523575,-0.08842267841100693
1772698746680117000,13.736116943359375,0.6212494969367981,0.3124573230743408,-0.04321868345141411
1772698746697464000,13.753464111328125,0.6316341757774353,0.25809037685394287,0.1052214577794075
1772698746714811100,13.77081103515625,0.5198459029197693,-0.29901832342147827,-0.15439607203006744
1772698746732158200,13.788158203125,-0.08552107214927673,-0.14630211889743805,-0.7738129496574402
1772698746749505300,13.80550537109375,-1.0024291276931763,-0.038789913058280945,-0.661413848400116
1772698746766852000,13.82285205078125,-1.3188570737838745,0.796262264251709,-0.48243045806884766
1772698746784199200,13.84019921875,-1.6908737421035767,0.6044507026672363,-0.4903717041015625
1772698746801546200,13.857546142578125,-1.4666863679885864,0.29535311460494995,-0.5771145224571228
1772698746818893300,13.874893310546875,-1.0787872076034546,-0.08826996386051178,-0.9106466770172119
1772698746836240400,13.892240478515625,-0.34086254239082336,-0.02779434807598591,-1.1586577892303467
1772698746853587200,13.909587158203125,0.40378162264823914,-0.09987638890743256,-0.9020945429801941
1772698746870934300,13.926934326171875,0.6536253094673157,-0.15729768574237823,-0.4189005196094513
1772698746888281300,13.94428125,0.6725621223449707,0.0412333719432354,-0.41523534059524536
1772698746905628400,13.96162841796875,0.4978547990322113,0.20738859474658966,-0.7029526233673096
1772698746922975500,13.9789755859375,0.31581708788871765,0.6258309483528137,-0.6724094152450562
1772698746940322300,13.996322265625,0.143553227186203,1.0418298244476318,-0.6882919073104858
1772698746957669400,14.01366943359375,-0.08796452730894089,1.4480549097061157,-0.6620246767997742
1772698746975016400,14.031016357421874,0.014049889519810677,1.8249585628509521,-0.6210967898368835
1772698746992363500,14.048363525390625,0.2889390289783478,2.061974048614502,-0.569173276424408
1772698747009710600,14.065710693359375,0.43432486057281494,1.9746203422546387,-0.453719824552536
1772698747027057700,14.0830576171875,0.4422661066055298,1.8567235469818115,-0.2948949635028839
1772698747044404500,14.100404541015624,0.4007273018360138,1.9819507598876953,-0.23258677124977112
1772698747061751600,14.11775146484375,0.29016077518463135,2.179871082305908,-0.4085158109664917
1772698747079098600,14.1350986328125,0.10201441496610641,2.32159161567688,-0.5765036344528198
1772698747096445700,14.15244580078125,-0.01893680728971958,2.308152675628662,-0.6210967898368835
1772698747113792800,14.169792724609374,0.008552107028663158,2.123060464859009,-0.6760746240615845
1772698747131139600,14.1871396484375,0.04214967042207718,1.842673659324646,-0.7768672704696655
1772698747148486700,14.204486572265624,0.015271619893610477,1.5140283107757568,-0.8263473510742188
1772698747165833700,14.221833740234375,-0.046425722539424896,1.3332123756408691,-0.8300125002861023
1772698747183180800,14.239180908203124,-0.15821397304534912,1.275791049003601,-0.8599448800086975
1772698747200528000,14.25652783203125,-0.32009315490722656,1.3008365631103516,-0.9112575054168701
1772698747217874700,14.273874755859374,-0.4263836145401001,1.3729186058044434,-0.9436333775520325
1772698747235221800,14.2912216796875,-0.4166097939014435,1.4462224245071411,-0.8929315805435181
1772698747252568800,14.30856884765625,-0.3347539007663727,1.4413354396820068,-0.7047852277755737
1772698747269916000,14.325916015625,-0.31093016266822815,1.3240493535995483,-0.402407169342041
1772698747287263000,14.343262939453124,-0.35124725103378296,1.0906990766525269,-0.16661337018013
1772698747304609800,14.36060986328125,-0.32192572951316833,0.7443387508392334,-0.1366809904575348
1772698747321956900,14.377956787109374,-0.205861434340477,0.4413498044013977,-0.1153007298707962
1772698747339304000,14.395303955078125,-0.053145237267017365,0.1902843713760376,-0.18860450387001038
1772698747356651000,14.412651123046874,0.17898337543010712,0.31184646487236023,-0.018173227086663246
1772698747373998000,14.429998046875,0.4361574649810791,0.44501498341560364,0.39538222551345825
1772698747391345000,14.447344970703124,0.6395754218101501,0.3692677617073059,0.70753413438797
1772698747408692000,14.46469189453125,0.7195987105369568,0.5464185476303101,0.920115053653717
1772698747426039000,14.4820390625,0.6352993845939636,0.6966912746429443,0.8492547869682312
1772698747443386000,14.49938623046875,0.5503891706466675,0.6423243284225464,0.7179188132286072
1772698747460733000,14.51673291015625,0.6096430420875549,0.3442223072052002,0.7612902522087097
1772698747478080000,14.534080078125,0.9334014058113098,-0.189673513174057,0.8199332356452942
1772698747495427000,14.551427001953124,1.0800089836120605,-0.7290670871734619,0.8773545622825623
1772698747512774100,14.568774169921875,0.9450078010559082,-1.0870338678359985,0.7967203855514526
1772698747530121200,14.586121337890624,0.5094612240791321,-0.9679152369499207,0.7111993432044983
1772698747547468300,14.60346826171875,-0.11667517572641373,-0.13225223124027252,0.7796161770820618
1772698747564815000,14.620815185546874,-0.46425724029541016,0.6142245531082153,0.7283035516738892
1772698747582162200,14.638162109375,-0.4404335021972656,0.7406735420227051,0.4240928590297699
1772698747599509200,14.65550927734375,-0.3426951467990875,0.3539961278438568,0.162031888961792
1772698747616856300,14.672856201171875,-0.2675587832927704,-0.23915356397628784,0.27198755741119385
1772698747634203400,14.690203369140624,-0.19181154668331146,-0.4321868419647217,0.2646571695804596
1772698747651550200,14.70755029296875,-0.13255766034126282,-0.3704894781112671,0.1974620372056961
1772698747668897300,14.724897216796874,-0.15088360011577606,-0.007635809946805239,0.18952079117298126
1772698747686244400,14.742244384765625,-0.1948658674955368,0.31490078568458557,0.20662501454353333
1772698747703591400,14.75959130859375,-0.2522871494293213,0.45906487107276917,0.18096868693828583
1772698747720938500,14.7769384765625,-0.2510654330253601,0.48105600476264954,0.033139415085315704
1772698747738285300,14.794285400390624,-0.19730933010578156,0.43890634179115295,-0.20021092891693115
1772698747755632400,14.81163232421875,-0.11545344442129135,0.41935867071151733,-0.39141160249710083
1772698747772979500,14.8289794921875,-0.014660755172371864,0.5024362802505493,-0.5093085169792175
1772698747790326500,14.846326416015625,0.06475166976451874,0.5305360555648804,-0.5618428587913513
1772698747807673600,14.863673583984376,0.10140355676412582,0.4725039005279541,-0.5661189556121826
1772698747825020400,14.8810205078125,0.11117739230394363,0.38759371638298035,-0.5074759125709534
1772698747842367500,14.898367431640626,0.07024945318698883,0.2562577724456787,-0.4225656986236572
1772698747859714600,14.915714599609375,0.011606430634856224,0.07360920310020447,-0.3663661479949951
1772698747877061600,14.9330615234375,-0.047036588191986084,-0.10170898586511612,-0.351705402135849
1772698747894408700,14.95040869140625,-0.056810423731803894,-0.231212317943573,-0.2283107042312622
1772698747911755800,14.967755859375,0.0360410213470459,-0.4364628791809082,0.1663079410791397
1772698747929102600,14.9851025390625,0.19853104650974274,-0.6484329700469971,0.7478511929512024
1772698747946449700,15.00244970703125,0.21197007596492767,-0.3442223072052002,0.7606793642044067
1772698747963796700,15.019796630859375,0.09468404203653336,-0.3503309488296509,0.4894554018974304
1772698747981143800,15.037143798828126,-0.013439024798572063,-0.39248061180114746,0.049021899700164795
1772698747998491000,15.054490966796875,-0.003665188793092966,0.03634645417332649,-0.31322091817855835
1772698748015837700,15.071837646484376,-0.46975502371788025,0.15546508133411407,-0.34315329790115356
1772698748033184800,15.089184814453125,-1.1221586465835571,0.37354379892349243,-0.5795579552650452
1772698748050531800,15.10653173828125,-1.1814124584197998,0.20799945294857025,-0.3926333487033844
1772698748067879000,15.12387890625,-1.0427461862564087,-0.23793183267116547,-0.4555523991584778
1772698748085226000,15.14122607421875,-0.3689623177051544,-0.3185659945011139,-0.6314814686775208
1772698748102573000,15.158572998046875,0.04520399495959282,0.1805105358362198,-0.4555523991584778
1772698748119920000,15.175920166015626,0.3280344009399414,0.35094180703163147,-0.21548254787921906
1772698748137267000,15.193266845703125,0.7134900689125061,0.4169152081012726,-0.22159120440483093
1772698748154614000,15.210614013671876,0.5424479246139526,0.629496157169342,-0.20631958544254303
1772698748171961000,15.227961181640625,0,0.9306524991989136,-0.2582430839538574
1772698748189308200,15.24530810546875,-0.21441353857517242,1.025336503982544,-0.24480405449867249
1772698748206655200,15.2626552734375,-0.17592905461788177,1.1346813440322876,-0.11713331937789917
1772698748224002000,15.280001953125,-0.1233946830034256,1.3997966051101685,-0.027947064489126205
1772698748241349000,15.29734912109375,0.037262752652168274,1.395520567893982,0.016035201027989388
1772698748258696200,15.3146962890625,0.20341797173023224,1.0564906597137451,-0.013286309316754341
1772698748276043300,15.332043212890625,0.20647229254245758,0.8640682101249695,-0.10980294644832611
1772698748293390300,15.349390380859376,0.09896009415388107,0.926376461982727,-0.2961167097091675
1772698748310737200,15.366737060546875,-0.026878049597144127,0.9917389750480652,-0.4586067199707031
1772698748328084200,15.384084228515626,-0.06841685622930527,0.8640682101249695,-0.4812087416648865
1772698748345431300,15.401431396484375,-0.026878049597144127,0.7137954831123352,-0.49342602491378784
1772698748362778400,15.4187783203125,0.020769402384757996,0.6710349321365356,-0.578336238861084
1772698748380125400,15.43612548828125,0.01588248461484909,0.694247841835022,-0.6791289448738098
1772698748397472500,15.453472412109376,-0.06108647957444191,0.7840449213981628,-0.7463240623474121
1772698748414819300,15.4708193359375,-0.22174391150474548,0.9031635522842407,-0.7548761367797852
1772698748432166400,15.48816650390625,-0.4324922561645508,0.9379828572273254,-0.7206677198410034
1772698748449513500,15.505513427734375,-0.5858193039894104,0.907439649105072,-0.6021599769592285
1772698748466860500,15.522860595703126,-0.5955931544303894,0.8384119272232056,-0.4066832363605499
1772698748484207400,15.540207275390625,-0.565049946308136,0.7290670871734619,-0.23503021895885468
1772698748501554400,15.557554443359376,-0.5772672295570374,0.6875283122062683,-0.16600249707698822
1772698748518901500,15.574901611328125,-0.5821541547775269,0.6398808360099792,-0.12140937149524689
1772698748536248600,15.59224853515625,-0.4831940531730652,0.33750277757644653,-0.10247256606817245
1772698748553595600,15.609595703125,-0.2309068888425827,-0.03451386094093323,-0.15073087811470032
1772698748570942500,15.6269423828125,0.020769402384757996,-0.26419901847839355,-0.23503021895885468
1772698748588289500,15.64428955078125,0.18203771114349365,-0.4114174246788025,-0.2906189262866974
1772698748605636600,15.66163671875,0.337808221578598,-0.25320345163345337,-0.04505127668380737
1772698748622983700,15.678983642578125,0.4355465769767761,-0.02779434807598591,0.4088212549686432
1772698748640330800,15.696330810546876,0.3695732057094574,0.15302163362503052,0.7276926636695862
1772698748657677600,15.713677490234375,0.20219624042510986,0.29413139820098877,0.8510873317718506
1772698748675024600,15.731024658203125,0.12278381735086441,0.12675444781780243,0.790000855922699
1772698748692371700,15.748371826171875,0.21746785938739777,-0.33139413595199585,0.716697096824646
1772698748709718800,15.76571875,0.43921178579330444,-0.8426879644393921,0.6482802629470825
1772698748727065900,15.78306591796875,0.6163625717163086,-1.295338749885559,0.6171261668205261
1772698748744413000,15.800412841796875,0.6175842881202698,-1.571449637413025,0.4540252387523651
1772698748761759700,15.817759765625,0.2516762912273407,-1.444389820098877,0.40149086713790894
1772698748779106800,15.83510693359375,-0.16187916696071625,-0.7779362797737122,0.43631017208099365
1772698748796454000,15.852453857421875,-0.31031930446624756,-0.2214384824037552,0.3568977415561676
1772698748813801000,15.869801025390625,-0.1997527778148651,-0.10048725455999374,0.26221370697021484
1772698748831148000,15.88714794921875,-0.13194678723812103,-0.3753764033317566,0.28725916147232056
1772698748848494800,15.904494873046875,-0.1747073233127594,-0.8042035102844238,0.37400195002555847
1772698748865842000,15.921842041015625,-0.17837251722812653,-1.1633919477462769,0.4399753510951996
1772698748883189000,15.93918896484375,-0.1288924664258957,-1.2000439167022705,0.34468045830726624
1772698748900536000,15.9565361328125,-0.09834922850131989,-0.9312633275985718,0.17913609743118286
1772698748917883100,15.973883056640625,-0.09712749719619751,-0.6215549111366272,0.17791436612606049
1772698748935230000,15.99122998046875,-0.09529490768909454,-0.3698786199092865,0.32452189922332764
1772698748952577000,16.008576904296874,-0.025045456364750862,-0.20677772164344788,0.38011062145233154
1772698748969924000,16.025924072265624,0.10018182545900345,-0.27458372712135315,0.32268932461738586
1772698748987271200,16.043271240234375,0.2156352698802948,-0.43279770016670227,0.24572035670280457
1772698749004618200,16.0606181640625,0.29565855860710144,-0.517707884311676,0.18035782873630524
1772698749021965300,16.07796533203125,0.32620179653167725,-0.49144071340560913,0.13393209874629974
1772698749039312100,16.09531201171875,0.3231474757194519,-0.3741546869277954,0.12293653935194016
1772698749056659200,16.1126591796875,0.3035998046398163,-0.29474225640296936,0.16081015765666962
1772698749074006300,16.13000634765625,0.32070401310920715,-0.3271180987358093,0.20112723112106323
1772698749091353300,16.147353271484373,0.35735589265823364,-0.4425715208053589,0.2133445292711258
1772698749108700400,16.164700439453124,0.3848448097705841,-0.5965094566345215,0.27626359462738037
1772698749126047500,16.182047607421875,0.3842339515686035,-0.8823941946029663,0.407599538564682
1772698749143394300,16.199394287109374,0.3298669755458832,-0.9214895367622375,0.4094321131706238
1772698749160741400,16.216741455078125,0.2828303873538971,-1.0357211828231812,0.35995206236839294
1772698749178088400,16.23408837890625,0.2675587832927704,-1.0784817934036255,0.4326449930667877
1772698749195435500,16.251435546875,0.17837251722812653,-1.1389573812484741,0.560315728187561
1772698749212782600,16.268782470703126,0.07330377399921417,-1.2495238780975342,0.4766272306442261
1772698749230129700,16.286129638671873,0.06108647957444191,-1.4456114768981934,0.2964221239089966
1772698749247476500,16.3034765625,0.20891575515270233,-1.5671736001968384,0.1363755613565445
1772698749264823600,16.320823486328123,0.2577849328517914,-1.2843432426452637,0.18035782873630524
1772698749282170600,16.338170654296874,0.0769689604640007,-0.4156934916973114,0.23167046904563904
1772698749299517700,16.355517578125,-0.3433060050010681,-0.40286532044410706,0.07712167501449585
1772698749316864800,16.37286474609375,-0.9321796298027039,-0.46456265449523926,-0.07864884287118912
1772698749334211600,16.390211669921875,-1.0653481483459473,-0.2153298407793045,0.1876882016658783
1772698749351558700,16.40755859375,-1.0054833889007568,-0.0925460159778595,-0.2533561587333679
1772698749368905700,16.42490576171875,-0.6426297426223755,-0.20127993822097778,-0.6907353401184082
1772698749386252800,16.442252685546876,0.028099779039621353,0.04428769648075104,-0.7524327039718628
1772698749403600000,16.459599853515623,0.740368127822876,0.425467312335968,-0.4451677203178406
1772698749420947000,16.476947021484374,0.7018836140632629,0.5610793232917786,-0.4127918779850006
1772698749438293800,16.494293701171873,0.18081597983837128,1.2269219160079956,-0.6052142977714539
1772698749455640800,16.511640869140624,-0.20708316564559937,1.49081552028656,-0.443945974111557
1772698749472988000,16.52898779296875,-0.21441353857517242,1.3038908243179321,-0.3052796721458435
1772698749490335000,16.5463349609375,-0.05070177838206291,1.302058219909668,-0.3529271185398102
1772698749507682000,16.56368212890625,0.11117739230394363,1.3661991357803345,-0.34926193952560425
1772698749525028900,16.58102880859375,0.23457208275794983,1.3136646747589111,-0.291229784488678
1772698749542376000,16.5983759765625,0.25411975383758545,1.109635829925537,-0.1715002804994583
1772698749559723000,16.615722900390626,0.21502439677715302,1.025336503982544,-0.07009673118591309
1772698749577070000,16.633070068359373,0.22357651591300964,1.0687079429626465,-0.14706569910049438
1772698749594417200,16.650417236328124,0.17165300250053406,1.101083755493164,-0.29306238889694214
1772698749611764200,16.66776416015625,0.1282816082239151,0.9978476166725159,-0.3773617148399353
1772698749629111000,16.685111083984374,0.11056652665138245,0.8408553600311279,-0.40607234835624695
1772698749646458000,16.7024580078125,0.08796452730894089,0.7376192212104797,-0.4341721534729004
1772698749663805200,16.71980517578125,0.04581485688686371,0.685084879398346,-0.4860956370830536
1772698749681152300,16.73715234375,-0.021991131827235222,0.6411026120185852,-0.5282453298568726
1772698749698499300,16.754499267578126,-0.13194678723812103,0.6252201199531555,-0.504421591758728
1772698749715846100,16.77184619140625,-0.24556763470172882,0.6380482912063599,-0.4555523991584778
1772698749733193200,16.789193115234376,-0.3787361681461334,0.6447677612304688,-0.45799586176872253
1772698749750540300,16.806540283203127,-0.5222893953323364,0.6753110289573669,-0.46838057041168213
1772698749767887400,16.823887451171874,-0.6047561168670654,0.6979129910469055,-0.4402807950973511
1772698749785234400,16.841234375,-0.6114756464958191,0.5794052481651306,-0.38957902789115906
1772698749802581200,16.858581298828124,-0.5387827157974243,0.3497200906276703,-0.2551887631416321
1772698749819928300,16.87592822265625,-0.3799578845500946,0.21838416159152985,-0.03588830679655075
1772698749837275400,16.893275390625,-0.14110976457595825,0.12064579129219055,0.10583232343196869
1772698749854622500,16.91062255859375,0.046425722539424896,0.012522728182375431,0.11866047978401184
1772698749871969500,16.927969482421876,0.11362084746360779,-0.2574795186519623,0.09605848789215088
1772698749889316400,16.94531640625,0.21868959069252014,-0.796262264251709,0.045967575162649155
1772698749906663400,16.962663330078126,0.4667007029056549,-1.0491602420806885,0.06856957077980042
1772698749924010500,16.980010498046877,0.7012727856636047,-1.2696824073791504,0.0435241162776947
1772698749941357600,16.997357666015624,1.056185245513916,-1.757763385772705,-0.0334448479115963
1772698749958704600,17.01470458984375,1.525329351425171,-1.8811581134796143,0.1614210158586502
1772698749976051700,17.0320517578125,1.6829324960708618,-1.589775562286377,0.7661771774291992
1772698749993398800,17.049398681640625,1.2748748064041138,-1.3588687181472778,1.1479676961898804
1772698750010745600,17.06674560546875,0.6884446144104004,-1.441946268081665,1.5205951929092407
1772698750028092700,17.0840927734375,0.36712974309921265,-1.7388266324996948,1.5914554595947266
1772698750045439700,17.101439697265626,0.3280344009399414,-1.9520183801651,1.3770419359207153
1772698750062786800,17.118786865234377,0.34697118401527405,-1.638644814491272,1.0661118030548096
1772698750080134000,17.1361337890625,0.3738492429256439,-1.5470150709152222,1.0917680263519287
1772698750097480700,17.153480712890627,0.1380554437637329,-1.8750494718551636,1.1675152778625488
1772698750114827800,17.170827880859374,-0.2419024556875229,-1.8842123746871948,0.892626166343689
1772698750132174800,17.1881748046875,-0.5619956254959106,-1.7345505952835083,0.4686860144138336
1772698750149522000,17.20552197265625,-0.7434224486351013,-1.5793908834457397,0.15592323243618011
1772698750166869000,17.222868896484375,-0.7513636946678162,-1.7644829750061035,0.19685117900371552
1772698750184216000,17.240216064453126,-0.5558869242668152,-2.17620587348938,0.5878046154975891
1772698750201563000,17.25756298828125,-0.4062250852584839,-2.4547600746154785,0.8797979950904846
1772698750218910000,17.274909912109376,-0.09346231073141098,-2.509127140045166,0.9885319471359253
1772698750236257000,17.292257080078127,0.12644900381565094,-2.4327690601348877,1.0086904764175415
1772698750253604000,17.30960400390625,0.023212861269712448,-2.0387611389160156,0.9390518665313721
1772698750270951200,17.326951171875,-0.10690133273601532,-1.3552035093307495,0.7374665141105652
1772698750288298000,17.344298095703124,-0.18631376326084137,-0.78648841381073,0.4607447683811188
1772698750305645000,17.36164501953125,-0.2052505612373352,-0.5940660238265991,0.212733656167984
1772698750322992000,17.3789921875,-0.09162971377372742,-0.6508764028549194,0.06673697382211685
1772698750340339200,17.396339111328125,0.12034036219120026,-0.6832522749900818,-0.009621120058000088
1772698750357686300,17.413686279296876,0.30054548382759094,-0.5170970559120178,-0.07681624591350555
1772698750375033300,17.431033447265627,0.3946186602115631,-0.3295615613460541,-0.12140937149524689
1772698750392380200,17.448380126953126,0.41233372688293457,-0.17256930470466614,-0.18860450387001038
1772698750409727200,17.465727294921876,0.39889469742774963,-0.013133592903614044,-0.3309359848499298
1772698750427074300,17.48307421875,0.3384190797805786,0.19150610268115997,-0.4757109582424164
1772698750444421400,17.50042138671875,0.21197007596492767,0.2770271897315979,-0.3199404180049896
1772698750461768400,17.5177685546875,0.07513637095689774,0.1334739476442337,-0.1207985132932663
1772698750479115300,17.535115234375,-0.023212861269712448,0.008857538923621178,-0.07254019379615784
1772698750496462300,17.55246240234375,-0.07330377399921417,0.24281874299049377,-0.12263110280036926
1772698750513809400,17.569809326171875,-0.15210533142089844,0.04245510324835777,-0.29794928431510925
1772698750531156500,17.587156494140626,-0.053756099194288254,-0.5018253922462463,-0.6809614896774292
1772698750548503600,17.604503662109376,0.039706211537122726,-0.4786125421524048,-0.9900590777397156
1772698750565850600,17.6218505859375,0.020158538594841957,0.3497200906276703,-0.919198751449585
1772698750583197400,17.639197509765626,0.024434590712189674,0.7980948090553284,-0.7921388745307922
1772698750600544500,17.65654443359375,-0.6169734001159668,0.07910698652267456,-0.7292198538780212
1772698750617891600,17.6738916015625,-1.6065744161605835,-0.3185659945011139,-1.2863285541534424
1772698750635238700,17.69123876953125,-2.1050400733947754,0.19822561740875244,-1.8709261417388916
1772698750652585700,17.708585693359375,-1.8356486558914185,-0.314289927482605,-1.651625633239746
1772698750669932800,17.725932861328126,-0.6438514590263367,-0.9147700071334839,-1.1103994846343994
1772698750687279600,17.743279541015625,0.4520399272441864,-0.7968730926513672,-0.5203040838241577
1772698750704626700,17.760626708984375,0.896138608455658,-0.3087921440601349,0.12660172581672668
1772698750721973800,17.777973876953126,1.0916153192520142,0.02412915788590908,0.12110394239425659
1772698750739320800,17.79532080078125,0.8265000581741333,0.3197877109050751,-0.34376415610313416
1772698750756668000,17.81266796875,0.08368847519159317,0.6875283122062683,-0.3107774555683136
1772698750774014700,17.8300146484375,-0.4886918365955353,0.9758564829826355,-0.1769980639219284
1772698750791361800,17.84736181640625,-0.6780598759651184,1.612377643585205,-0.18555018305778503
1772698750808708900,17.864708984375,-0.3695732057094574,1.9398010969161987,-0.360868364572525
1772698750826056000,17.882055908203125,0.10690133273601532,1.6520837545394897,-0.5007563829421997
1772698750843403000,17.899403076171875,0.43860089778900146,1.2788454294204712,-0.3272708058357239
1772698750860750000,17.91675,0.5338957905769348,1.3362667560577393,-0.03649916872382164
1772698750878097000,17.934096923828125,0.45937031507492065,1.5409064292907715,-0.007177661173045635
1772698750895444000,17.95144384765625,0.3652971386909485,1.796858787536621,-0.22586725652217865
1772698750912791000,17.968791015625,0.4043924808502197,1.8341214656829834,-0.3773617148399353
1772698750930138000,17.98613818359375,0.4477638900279999,1.5677844285964966,-0.34865108132362366
1772698750947485200,18.003485107421874,0.3860665261745453,1.2568542957305908,-0.30894485116004944
1772698750964832000,18.02083203125,0.32131487131118774,1.1444551944732666,-0.3168860971927643
1772698750982179000,18.038178955078124,0.20158538222312927,1.2971713542938232,-0.35903576016426086
1772698750999526100,18.055526123046874,0.0054977829568088055,1.507308840751648,-0.40057456493377686
1772698751016873200,18.072873291015625,-0.1185077652335167,1.5708388090133667,-0.37552911043167114
1772698751034220300,18.09022021484375,-0.07941242307424545,1.451720118522644,-0.34376415610313416
1772698751051567000,18.107567138671875,0.024434590712189674,1.3362667560577393,-0.3046688139438629
1772698751068914200,18.1249140625,0.07757982611656189,1.302058219909668,-0.25641047954559326
1772698751086261200,18.14226123046875,0.037262752652168274,1.2941170930862427,-0.20631958544254303
1772698751103608300,18.1596083984375,-0.05925388261675835,1.2568542957305908,-0.20082180202007294
1772698751120955400,18.176955322265623,-0.14110976457595825,1.2269219160079956,-0.25213444232940674
1772698751138302500,18.194302490234374,-0.13683371245861053,1.035110354423523,-0.2887863218784332
1772698751155649300,18.211649169921873,-0.12095122784376144,1.0290017127990723,-0.2997818887233734
1772698751172996400,18.228996337890624,-0.11545344442129135,0.9575305581092834,-0.2893971800804138
1772698751190343400,18.246343505859375,-0.01588248461484909,0.8200859427452087,-0.2386954128742218
1772698751207690500,18.2636904296875,0.10567960888147354,0.7498365044593811,-0.064598947763443
1772698751225037300,18.281037353515625,0.31581708788871765,0.21227550506591797,-0.019394956529140472
1772698751242384600,18.298384521484376,0.7434224486351013,-0.457843154668808,-0.228921577334404
1772698751259731500,18.3157314453125,1.3023637533187866,-0.3484983444213867,0.08933897316455841
1772698751277078500,18.33307861328125,1.4721840620040894,0.054672397673130035,0.7954986691474915
1772698751294425600,18.350425537109373,1.0702351331710815,0.282524973154068,1.43873929977417
1772698751311772700,18.367772705078124,0.7147117853164673,-0.0565049909055233,1.7844886779785156
1772698751329119700,18.38511962890625,0.3854556679725647,-0.7003564834594727,1.5444189310073853
1772698751346466600,18.402466552734374,0.19853104650974274,-1.3808598518371582,1.0655008554458618
1772698751363813600,18.419813720703125,0.3237583339214325,-1.6465860605239868,0.8907935619354248
1772698751381160700,18.43716064453125,0.4111120104789734,-1.5891647338867188,0.9995275139808655
1772698751398507800,18.4545078125,0.04886918142437935,-1.082757830619812,0.8950695991516113
1772698751415854800,18.471854736328126,-0.3952295184135437,-0.6551524996757507,0.6378955245018005
1772698751433202000,18.489201904296873,-0.5503891706466675,-0.6887500286102295,0.44180795550346375
1772698751450548700,18.506548828125,-0.3915643095970154,-1.1536180973052979,0.6458367705345154
1772698751467895800,18.523895751953123,-0.13500112295150757,-1.5586215257644653,0.8907935619354248
1772698751485243000,18.541242919921874,-0.09651663154363632,-1.8066326379776,0.9445496797561646
1772698751502590000,18.55858984375,-0.01893680728971958,-1.915366530418396,0.8455895781517029
1772698751519937000,18.57593701171875,0.06780599057674408,-1.868940830230713,0.8321505188941956
1772698751537284000,18.5932841796875,0.07391463965177536,-1.7895283699035645,0.8816305994987488
1772698751554631000,18.610630859375,0.08674279600381851,-1.7205007076263428,0.8144354820251465
1772698751571978000,18.62797802734375,0.1386663019657135,-1.704618215560913,0.60490882396698
1772698751589325000,18.645324951171876,0.18570289015769958,-1.7351614236831665,0.32940882444381714
1772698751606672100,18.662672119140623,0.1954767256975174,-1.6887357234954834,0.05513054504990578
1772698751624019200,18.680019287109374,0.20402882993221283,-1.5885539054870605,-0.08903354406356812
1772698751641366000,18.697365966796873,0.21868959069252014,-1.379027247428894,-0.10247256606817245
1772698751658713000,18.714713134765624,0.2260199636220932,-1.1682789325714111,-0.06582067906856537
1772698751676060200,18.73206005859375,0.21258094906806946,-1.005788803100586,-0.05971203371882439
1772698751693407200,18.7494072265625,0.1747073233127594,-0.8286380767822266,-0.0902552679181099
1772698751710754300,18.76675439453125,0.14477495849132538,-0.639270007610321,-0.15378521382808685
1772698751728101400,18.784101318359376,0.12583814561367035,-0.5384773015975952,-0.21426081657409668
1772698751745448400,18.801448486328123,0.0720820426940918,-0.581848680973053,-0.20570871233940125
1772698751762795500,18.81879541015625,0.0818558782339096,-0.6606502532958984,-0.10125083476305008
1772698751780142300,18.836142333984377,0.1954767256975174,-0.5958985686302185,0.08261945843696594
1772698751797489400,18.853489501953124,0.3341430425643921,-0.5891790986061096,0.32879796624183655
1772698751814836500,18.87083642578125,0.379347026348114,-0.8005383014678955,0.45646870136260986
1772698751832183600,18.88818359375,0.3090975880622864,-1.0974185466766357,0.33368489146232605
1772698751849530600,18.905530517578125,0.29443681240081787,-1.334434151649475,-0.1207985132932663
1772698751866877400,18.92287744140625,0.2260199636220932,-1.13712477684021,-0.5600103139877319
1772698751884224500,18.940224609375,0.2370155304670334,-0.25503605604171753,-0.5563451051712036
1772698751901571600,18.957571533203126,-0.2834412455558777,-0.2257145345211029,-0.4555523991584778
1772698751918918700,18.974918701171877,-0.9688315391540527,-0.9214895367622375,-0.6186532974243164
1772698751936265700,18.992265625,-1.08978271484375,-0.6362156867980957,-0.6186532974243164
1772698751953612800,19.00961279296875,-0.9309579133987427,-0.5989528894424438,-0.6052142977714539
1772698751970959600,19.026959716796874,-0.3750709891319275,-0.7070759534835815,-0.7255546450614929
1772698751988306700,19.044306640625,0.18875721096992493,-0.9483675956726074,-0.5215258002281189
1772698752005653800,19.06165380859375,0.46364638209342957,-1.3429862260818481,-0.018784092739224434
1772698752023000800,19.079000732421875,0.4673115611076355,-1.543960690498352,0.1821904182434082
1772698752040348000,19.096347900390626,0.4520399272441864,-1.237917423248291,-0.03283398225903511
1772698752057695000,19.113695068359377,0.17043127119541168,-0.9337068200111389,-0.19471314549446106
1772698752075041800,19.131041748046876,0.01954767294228077,-0.9043853282928467,-0.3272708058357239
1772698752092388900,19.148388916015627,-0.08124501258134842,-0.5390881896018982,-0.38957902789115906
1772698752109736000,19.16573583984375,0.1795942485332489,0.019853105768561363,-0.4085158109664917
1772698752127083000,19.1830830078125,0.471587598323822,0.19761475920677185,-0.393244206905365
1772698752144430000,19.20043017578125,0.544891357421875,-0.05833758786320686,-0.24785839021205902
1772698752161777200,19.217777099609375,0.40255987644195557,-0.2831358313560486,-0.07620538026094437
1772698752179124200,19.235124267578126,0.22846342623233795,-0.20189081132411957,-0.09147699922323227
1772698752196471000,19.252470947265625,0.1496618688106537,0.012522728182375431,-0.3455967605113983
1772698752213818000,19.269818115234376,0.14782927930355072,0.1798996776342392,-0.6021599769592285
1772698752231165200,19.287165283203127,0.16187916696071625,0.20189081132411957,-0.6644681692123413
1772698752248512300,19.30451220703125,0.17287473380565643,0.11331541836261749,-0.6015490889549255
1772698752265859300,19.321859375,0.19425499439239502,-0.01435532234609127,-0.5801688432693481
1772698752283206100,19.3392060546875,0.19608759880065918,-0.1798996776342392,-0.6259836554527283
1772698752300553200,19.35655322265625,0.13744457066059113,-0.26419901847839355,-0.6351466774940491
1772698752317900300,19.373900390625,-0.03176496922969818,-0.14508038759231567,-0.5612320303916931
1772698752335247400,19.391247314453125,-0.2730565667152405,0.0717766135931015,-0.43050694465637207
1772698752352594400,19.408594482421876,-0.4679224193096161,0.20799945294857025,-0.33887723088264465
1772698752369941500,19.42594140625,-0.4868592321872711,0.10903936624526978,-0.28695371747016907
1772698752387288300,19.443288330078126,-0.30482152104377747,-0.14508038759231567,-0.2643517255783081
1772698752404635400,19.460635498046877,-0.1185077652335167,-0.2984074354171753,-0.26618432998657227
1772698752421982500,19.477982421875,-0.10384701192378998,-0.11392628401517868,-0.2179260104894638
1772698752439329500,19.49532958984375,-0.08491020649671555,0.18234314024448395,-0.08109229803085327
1772698752456676600,19.512676513671874,-0.13622283935546875,0.08460476994514465,-0.02672533318400383
1772698752474023400,19.5300234375,-0.2419024556875229,-0.13775001466274261,-0.054214250296354294
1772698752491370500,19.54737060546875,-0.19853104650974274,-0.2965748608112335,0.06307178735733032
1772698752508717600,19.564717529296875,-0.1282816082239151,-0.48472121357917786,0.33307403326034546
1772698752526064600,19.582064697265626,0.2571740746498108,-0.7363975048065186,0.9763146042823792
1772698752543411700,19.59941162109375,1.2479966878890991,-0.9440914988517761,1.7924299240112305
1772698752560758800,19.6167587890625,1.8826853036880493,-1.2049307823181152,2.304945468902588
1772698752578105600,19.634105712890626,1.3933825492858887,-1.91414475440979,2.4381141662597656
1772698752595452700,19.65145263671875,0.47525280714035034,-2.438877582550049,2.134514331817627
1772698752612799700,19.6687998046875,-0.27488914132118225,-2.4321582317352295,1.6537636518478394
1772698752630146800,19.686146728515624,-0.8723149299621582,-1.9984440803527832,1.0667226314544678
1772698752647494000,19.703493896484375,-1.2290599346160889,-1.8713842630386353,0.6782126426696777
1772698752664841000,19.720841064453126,-1.1435388326644897,-2.341139316558838,0.7325795888900757
1772698752682188000,19.73818798828125,-0.7629700899124146,-2.6758930683135986,0.9408844709396362
1772698752699534800,19.755534912109376,-0.25961753726005554,-2.869537353515625,1.1687370538711548
1772698752716882000,19.7728818359375,-0.030543239787220955,-2.903745651245117,1.3574942350387573
1772698752734229000,19.79022900390625,-0.08368847519159317,-2.8017313480377197,1.3874266147613525
1772698752751576000,19.807576171875,-0.15149445831775665,-2.749197006225586,1.2389864921569824
1772698752768923100,19.824923095703124,-0.18325942754745483,-2.777296781539917,1.0850485563278198
1772698752786270200,19.842270263671875,-0.09101885557174683,-2.744310140609741,1.0147991180419922
1772698752803617000,19.859616943359374,0.07269290834665298,-2.573267936706543,0.9775363802909851
1772698752820964000,19.876964111328125,0.22296564280986786,-2.2837178707122803,0.8327614068984985
1772698752838311200,19.894311279296875,0.34697118401527405,-1.9746203422546387,0.6042979955673218
1772698752855658200,19.911658203125,0.4111120104789734,-1.7351614236831665,0.3727802336215973
1772698752873005300,19.92900537109375,0.4612029194831848,-1.472489595413208,0.17119485139846802
1772698752890352400,19.946352294921876,0.4886918365955353,-1.0931425094604492,0.0025961752980947495
1772698752907699200,19.96369921875,0.46608981490135193,-0.6386591196060181,-0.1049160286784172
1772698752925046300,19.98104638671875,0.4172206521034241,-0.19700388610363007,-0.13545925915241241
1772698752942393300,19.998393310546874,0.3799578845500946,0.1737910360097885,-0.14401137828826904
1772698752959740400,20.015740478515625,0.38179048895835876,0.4010327160358429,-0.17027856409549713
1772698752977087500,20.03308740234375,0.34697118401527405,0.5152644515037537,-0.18005239963531494
1772698752994434600,20.0504345703125,0.4001164436340332,0.4608974754810333,-0.17944152653217316
1772698753011781400,20.067781494140625,0.5351175665855408,0.11209368705749512,-0.20937390625476837
1772698753029128400,20.08512841796875,0.7318159937858582,-0.17745621502399445,-0.2130390852689743
1772698753046475500,20.1024755859375,0.9077450633049011,0.16279546916484833,0.12354740500450134
1772698753063822600,20.119822509765626,0.860708475112915,0.3222311735153198,0.449138343334198
1772698753081169700,20.137169677734374,0.5064069032669067,-0.2782489061355591,0.2945895493030548
1772698753098516700,20.154516845703125,-0.13439024984836578,-0.8133664727210999,-0.06887500733137131
1772698753115863800,20.17186376953125,-0.5009090900421143,-0.5586358308792114,-0.17638720571994781
1772698753133210600,20.189210693359374,-0.5174024701118469,-0.46883872151374817,-0.4335612654685974
1772698753150557700,20.2065576171875,-0.8778126835823059,-0.8182533979415894,-0.8617774844169617
1772698753167904800,20.22390478515625,-1.377500057220459,-0.8408553600311279,-1.1702642440795898
1772698753185251800,20.241251953125,-1.5613703727722168,-0.45478883385658264,-1.3113739490509033
1772698753202599000,20.258598876953126,-1.3738348484039307,-0.8903354406356812,-1.3785691261291504
1772698753219946000,20.275946044921874,-0.8100066781044006,-1.4492766857147217,-1.300378441810608
1772698753237292800,20.293292724609376,0.023212861269712448,-1.2550216913223267,-0.9900590777397156
1772698753254639900,20.310639892578124,0.3445277214050293,-0.9502001404762268,-0.505032479763031
1772698753271987000,20.327987060546874,0.25411975383758545,-0.9593631625175476,-0.16050471365451813
1772698753289334000,20.345333984375,0.1905898153781891,-0.96180659532547,0.07528908550739288
1772698753306681000,20.36268115234375,0.021991131827235222,-0.8872811198234558,0.04169152304530144
1772698753324028200,20.380028076171875,-0.0824667438864708,-0.6820304989814758,-0.1769980639219284
1772698753341375000,20.397375,-0.13561198115348816,-0.24465134739875793,-0.3352120518684387
1772698753358722000,20.41472216796875,-0.1288924664258957,0.30512696504592896,-0.18432845175266266
1772698753376069000,20.432069091796876,0.12644900381565094,0.3857611119747162,0.1724165827035904
1772698753393416200,20.449416259765623,0.43493571877479553,0.08582650125026703,0.2707658112049103
1772698753410763300,20.46676318359375,0.5485565662384033,-0.06505709886550903,0.18341214954853058
1772698753428110300,20.4841103515625,0.4740310609340668,-0.03451386094093323,0.1516471803188324
1772698753445457400,20.50145751953125,0.4105011224746704,0.09804379940032959,0.1724165827035904
1772698753462804200,20.51880419921875,0.5436696410179138,0.2837466895580292,0.15592323243618011
1772698753480151300,20.5361513671875,0.6560688018798828,0.37110036611557007,0.07162389904260635
1772698753497498400,20.553498291015625,0.6316341757774353,0.31673339009284973,-0.021227551624178886
1772698753514845400,20.570845458984376,0.5479456782341003,0.18784092366695404,-0.11591159552335739
1772698753532192300,20.588192138671875,0.5015199780464172,0.14813470840454102,-0.14889828860759735
1772698753549539600,20.60553955078125,0.47586366534233093,0.1695149689912796,-0.13240493834018707
1772698753566886400,20.622886474609373,0.44348782300949097,0.2055560052394867,-0.09392046183347702
1772698753584233500,20.6402333984375,0.3842339515686035,0.2660316228866577,-0.03649916872382164
1772698753601580500,20.65758056640625,0.258395791053772,0.3863719701766968,0.04046979174017906
1772698753618927600,20.674927734375,0.1441640853881836,0.4786125421524048,0.025809036567807198
1772698753636274700,20.692274658203125,0.09285144507884979,0.43401941657066345,-0.12446369975805283
1772698753653621500,20.70962158203125,-0.03298669680953026,0.38698282837867737,-0.25763222575187683
1772698753670968600,20.726968505859375,-0.26450446248054504,0.3704894781112671,-0.30283620953559875
1772698753688315600,20.744315673828126,-0.3176496922969818,0.20677772164344788,-0.31871870160102844
1772698753705662700,20.761662841796873,-0.15821397304534912,0.06505709886550903,-0.24236060678958893
1772698753723009800,20.779009765625,0.1496618688106537,0.032681263983249664,-0.09636391699314117
1772698753740356900,20.79635693359375,0.4880809485912323,0.12614357471466064,0.036193739622831345
1772698753757703700,20.81370361328125,0.5974257588386536,0.2049451321363449,0.1974620372056961
1772698753775050800,20.83105078125,0.6743947267532349,0.04062250629067421,0.35445427894592285
1772698753792397800,20.848397705078124,0.8222240209579468,-0.35277441143989563,0.33918267488479614
1772698753809745000,20.865744873046875,1.0702351331710815,-0.6417134404182434,0.25182899832725525
1772698753827092000,20.883092041015626,1.25715970993042,-0.5024362802505493,0.5725330114364624
1772698753844439000,20.90043896484375,1.1129956245422363,-0.24892739951610565,1.1375828981399536
1772698753861785900,20.917785888671876,0.7165443897247314,-0.02779434807598591,1.540753722190857
1772698753879133000,20.9351328125,0.26450446248054504,0.1078176349401474,1.6849178075790405
1772698753896480000,20.95247998046875,-0.18814635276794434,0.11148282140493393,1.5205951929092407
1772698753913827000,20.9698271484375,-0.40255987644195557,0.20311254262924194,1.226769208908081
1772698753931174100,20.987174072265624,-0.268169641494751,0.22327107191085815,0.9133955836296082
1772698753948521200,21.004521240234375,-0.11606431007385254,-0.0925460159778595,0.8150463104248047
1772698753965868300,21.021868408203126,-0.03176496922969818,-0.4718930423259735,1.019685983657837
1772698753983215000,21.039215087890625,0.056810423731803894,-0.46517354249954224,1.213940978050232
1772698754000562200,21.056562255859376,-0.27855435013771057,-0.29596397280693054,0.994640588760376
1772698754017909200,21.0739091796875,-0.5962040424346924,-0.2660316228866577,0.5652026534080505
1772698754035256300,21.09125634765625,-0.6255255341529846,-0.21655155718326569,0.24694208800792694
1772698754052603400,21.108603271484377,-0.5051851868629456,-0.3656025826931,0.21029019355773926
1772698754069950500,21.125950439453124,-0.4630354940891266,-0.5036579966545105,0.39599308371543884
1772698754087297300,21.14329736328125,-0.5247328281402588,-0.5812378525733948,0.541378915309906
1772698754104644400,21.160644287109374,-0.5949822664260864,-0.5549706816673279,0.44119709730148315
1772698754121991400,21.177991455078125,-0.5845975875854492,-0.49999281764030457,0.17791436612606049
1772698754139338500,21.19533837890625,-0.4917461574077606,-0.38331764936447144,-0.018173227086663246
1772698754156685600,21.212685546875,-0.3384190797805786,-0.2868010103702545,-0.12018764764070511
1772698754174032600,21.23003271484375,-0.16554436087608337,-0.23304490745067596,-0.19043709337711334
1772698754191379500,21.24737939453125,0.013439024798572063,-0.09498947113752365,-0.23503021895885468
1772698754208726500,21.2647265625,0.19303326308727264,0.06261363625526428,-0.23625195026397705
1772698754226073600,21.282073486328127,0.37323838472366333,0.09193515032529831,-0.21975859999656677
1772698754243420700,21.299420654296874,0.5229002237319946,0.035735588520765305,-0.29367324709892273
1772698754260767700,21.316767822265625,0.5564978122711182,-0.061391908675432205,-0.5099193453788757
1772698754278114800,21.33411474609375,0.43921178579330444,-0.1389717310667038,-0.6663007736206055
1772698754295461600,21.351461669921875,0.26450446248054504,-0.16279546916484833,-0.5838339924812317
1772698754312808700,21.36880859375,0.1594357043504715,-0.008857538923621178,-0.42073312401771545
1772698754330155800,21.38615576171875,0.11056652665138245,0.2910770773887634,-0.1672242283821106
1772698754347502800,21.4035029296875,0.12644900381565094,0.508544921875,0.0025961752980947495
1772698754364850000,21.420849853515627,0.0513126403093338,0.5360338687896729,-0.024281874299049377
1772698754382197000,21.438197021484374,-0.1747073233127594,0.29413139820098877,-0.249690979719162
1772698754399544000,21.4555439453125,-0.3848448097705841,0.17195843160152435,-0.49403688311576843
1772698754416891000,21.472890869140624,-0.36163195967674255,0.2611446976661682,-0.7163916826248169
1772698754434238000,21.490238037109375,-0.49418962001800537,0.48472121357917786,-0.7402154207229614
1772698754451585000,21.5075849609375,-0.9828814268112183,0.4712821841239929,-0.7102830410003662
