time,seconds_elapsed,z,y,x
1772698733037454600,0.09345458984375,5.527420520782471,6.719046115875244,1.3615161180496216
1772698733054800100,0.110800048828125,5.824130535125732,6.963113784790039,-0.2679961323738098
1772698733072147200,0.128147216796875,5.788238048553467,7.613961696624756,-1.5122638940811157
1772698733089494300,0.145494384765625,5.051248550415039,7.5637125968933105,-0.7657032608985901
1772698733106841300,0.16284130859375,4.120440483093262,7.04925537109375,0.638883650302887
1772698733124188400,0.1801884765625,2.2205393314361572,6.604190349578857,0.03349951654672623
1772698733141535200,0.19753515625,3.7806596755981445,10.310672760009766,-7.6043901443481445
1772698733158882300,0.21488232421875,3.2518460750579834,4.646861553192139,-4.898108005523682
1772698733176229400,0.2322294921875,3.7878382205963135,4.335794448852539,-3.893122434616089
1772698733193576400,0.249576416015625,5.1876397132873535,3.8763725757598877,-1.3256237506866455
1772698733210923500,0.266923583984375,5.702096462249756,2.50289249420166,-0.2967100143432617
1772698733228270300,0.284270263671875,5.024927616119385,1.2275179624557495,-0.10049854964017868
1772698733245617400,0.301617431640625,3.486342668533325,0.39960137009620667,0.22492532432079315
1772698733262964500,0.318964599609375,1.31365966796875,-0.885344386100769,1.5002998113632202
1772698733280311600,0.3363115234375,0.5216353535652161,-2.0243279933929443,1.6534404754638672
1772698733297658600,0.35365869140625,0.48813581466674805,-4.247260093688965,3.4121651649475098
1772698733315005400,0.37100537109375,1.1820544004440308,-5.974878311157227,4.53200626373291
1772698733332352500,0.3883525390625,1.672582983970642,-7.334001541137695,5.034498691558838
1772698733349699600,0.405699462890625,1.643869161605835,-9.588040351867676,7.259823799133301
1772698733367046700,0.423046630859375,4.01754903793335,-11.12901782989502,9.274580955505371
1772698733384393700,0.440393798828125,6.295516490936279,-13.141382217407227,11.059626579284668
1772698733401740500,0.457740478515625,9.45164966583252,-14.22293758392334,11.92343521118164
1772698733419087600,0.475087646484375,11.770294189453125,-14.868999481201172,10.49252700805664
1772698733436434700,0.4924345703125,12.229716300964355,-14.873785972595215,9.422935485839844
1772698733453781800,0.50978173828125,13.311272621154785,-15.309279441833496,9.578469276428223
1772698733471128800,0.52712890625,14.390435218811035,-15.641881942749023,8.997013092041016
1772698733488475600,0.5444755859375,16.101303100585938,-15.957734107971191,8.516056060791016
1772698733505822700,0.56182275390625,17.386249542236328,-16.015161514282227,7.544569969177246
1772698733523169800,0.579169677734375,17.52742576599121,-15.586846351623535,6.57547664642334
1772698733540516900,0.596516845703125,15.337993621826172,-14.711073875427246,5.4556355476379395
1772698733557864000,0.613864013671875,14.584254264831543,-14.081761360168457,5.058426856994629
1772698733575211000,0.6312109375,15.381064414978027,-12.878171920776367,4.835894584655762
1772698733592557800,0.648557861328125,17.565711975097656,-11.468798637390137,6.994220733642578
1772698733609905000,0.66590478515625,16.352550506591797,-9.805787086486816,8.74337387084961
1772698733627252000,0.683251953125,12.66999626159668,-8.518448829650879,7.891529083251953
1772698733644599000,0.70059912109375,10.085747718811035,-7.575676441192627,7.109076023101807
1772698733661946000,0.717946044921875,9.494720458984375,-7.585247993469238,6.778866767883301
1772698733679293000,0.73529296875,9.020941734313965,-7.231110095977783,6.003592014312744
1772698733696640000,0.752639892578125,6.905686378479004,-6.386443614959717,6.051448345184326
1772698733713987000,0.769987060546875,4.0797624588012695,-4.941178798675537,6.214160442352295
1772698733731334100,0.787334228515625,2.0817556381225586,-4.376472473144531,5.402993679046631
1772698733748681200,0.80468115234375,2.4287149906158447,-4.264009952545166,3.806980848312378
1772698733766028300,0.8220283203125,3.084348440170288,-4.012763500213623,3.146561861038208
1772698733783375000,0.839375,2.7254250049591064,-3.972085475921631,3.4002010822296143
1772698733800722200,0.85672216796875,-0.7776673436164856,-4.620540618896484,0.9786644577980042
1772698733818069200,0.8740693359375,-0.3158525824546814,-6.726224422454834,-5.781059741973877
1772698733835416300,0.891416259765625,2.6297121047973633,-7.865208148956299,-8.827122688293457
1772698733852763400,0.908763427734375,0.8303094506263733,-7.073183536529541,-6.994220733642578
1772698733870110500,0.9261103515625,-0.33738797903060913,-7.054041385650635,-5.718846321105957
1772698733887457300,0.943457275390625,1.3902299404144287,-8.941978454589844,-3.34995174407959
1772698733904804400,0.960804443359375,1.0815558433532715,-9.408578872680664,-2.572284460067749
1772698733922151400,0.9781513671875,5.864808082580566,-11.590832710266113,-0.7345965504646301
1772698733939498500,0.99549853515625,5.426921844482422,-10.954341888427734,3.8261234760284424
1772698733956845600,1.012845458984375,4.709074974060059,-12.174681663513184,3.4576287269592285
1772698733974192400,1.0301923828125,3.1561331748962402,-9.506684303283691,3.3236305713653564
1772698733991539500,1.04753955078125,14.294722557067871,-12.394821166992188,-5.599205017089844
1772698734008886500,1.064886474609375,11.933006286621094,-12.990633964538574,-12.928421020507812
1772698734026233600,1.082233642578125,-0.3278166949748993,-10.131211280822754,-10.96869945526123
1772698734043580700,1.09958056640625,0.6532405614852905,-6.403193473815918,-1.950150489807129
1772698734060927700,1.116927734375,1.9286150932312012,-5.917450428009033,-0.9667003750801086
1772698734078274600,1.134274658203125,0.4785645306110382,-7.386643409729004,-1.4021940231323242
1772698734095621600,1.15162158203125,-1.3160524368286133,-9.231510162353516,-5.831308841705322
1772698734112968700,1.16896875,-0.5335994362831116,-10.224531173706055,-5.127819061279297
1772698734130315800,1.186315673828125,-1.9310078620910645,-10.750951766967773,-2.66560435295105
1772698734147662800,1.203662841796875,-2.794816732406616,-11.789437294006348,-3.2614171504974365
1772698734165010000,1.221010009765625,-1.2299108505249023,-12.476177215576172,-2.720639228820801
1772698734182356700,1.238356689453125,0.30628129839897156,-11.157732009887695,1.062413215637207
1772698734199703800,1.255703857421875,1.368694543838501,-10.04267692565918,0.038285162299871445
1772698734217051000,1.27305078125,1.2945170402526855,-8.57348346710205,0.02392822690308094
1772698734234398000,1.29039794921875,2.093719720840454,-6.738188743591309,1.7180466651916504
1772698734251745000,1.3077451171875,3.4983067512512207,-6.5252275466918945,1.4931213855743408
1772698734269091800,1.325091796875,2.9623143672943115,-7.35314416885376,0.641276478767395
1772698734286439000,1.34243896484375,2.478964328765869,-7.190432071685791,-0.6532405614852905
1772698734303786000,1.359785888671875,2.115255117416382,-7.970492362976074,-0.35413774847984314
1772698734321133000,1.377133056640625,6.821937561035156,-10.403992652893066,1.7156537771224976
1772698734338480000,1.394480224609375,0.09571290761232376,-4.922036170959473,0.20338992774486542
1772698734355827200,1.4118271484375,1.852044701576233,-8.432307243347168,1.7754744291305542
1772698734373174000,1.429174072265625,2.7326035499572754,-14.172688484191895,1.2586246728897095
1772698734390521000,1.44652099609375,3.531806230545044,-10.786844253540039,1.4644074440002441
1772698734407868200,1.4638681640625,3.6681971549987793,-13.301701545715332,4.156332969665527
1772698734425215200,1.48121533203125,3.510270833969116,-12.897314071655273,3.9840497970581055
1772698734442562300,1.498562255859375,0.45942193269729614,-7.527820110321045,7.142575740814209
1772698734459909000,1.5159091796875,1.7419748306274414,-13.366307258605957,4.479363918304443
1772698734477256200,1.533256103515625,3.924229145050049,-7.618747234344482,4.780859470367432
1772698734494603300,1.550603271484375,2.7804598808288574,-8.559126853942871,4.232903480529785
1772698734511950300,1.567950439453125,3.0484559535980225,-8.271987915039062,3.25663161277771
1772698734529297400,1.58529736328125,3.84765887260437,-8.73619556427002,1.9692929983139038
1772698734546644200,1.602644287109375,4.438685894012451,-9.860821723937988,0.1579262912273407
1772698734563991300,1.6199912109375,5.000999450683594,-11.68175983428955,0.04307080805301666
1772698734581338400,1.63733837890625,4.869394302368164,-12.191431045532227,2.218146562576294
1772698734598685400,1.654685546875,4.285545349121094,-15.694523811340332,3.2518460750579834
1772698734616032500,1.672032470703125,1.301695466041565,-16.802400588989258,1.7802600860595703
1772698734633379300,1.68937939453125,-0.6580262184143066,-16.381263732910156,0.6149554252624512
1772698734650726400,1.706726318359375,0.36610186100006104,-13.038490295410156,0.8183453679084778
1772698734668073500,1.724073486328125,0.4307080805301666,-12.385250091552734,1.7874385118484497
1772698734685420500,1.741420654296875,-0.9667003750801086,-8.997013092041016,1.8376877307891846
1772698734702767600,1.758767578125,-0.638883650302887,-8.659625053405762,0.6963114142417908
1772698734720114400,1.776114501953125,0.4618147611618042,-9.738788604736328,2.1655044555664062
1772698734737461500,1.79346142578125,0.8350951075553894,-8.123632431030273,1.0097711086273193
1772698734754808600,1.81080859375,0.16031911969184875,-9.387042999267578,-0.28235307335853577
1772698734772155600,1.82815576171875,-0.23449662327766418,-8.965906143188477,-2.321038007736206
1772698734789502700,1.845502685546875,1.5720844268798828,-8.963513374328613,-4.247260093688965
1772698734806849800,1.862849853515625,0.5575276613235474,-8.312665939331055,-2.857030153274536
1772698734824196600,1.880196533203125,0.5838487148284912,-10.176674842834473,-2.155933141708374
1772698734841543700,1.897543701171875,2.069791555404663,-9.286544799804688,-0.7226324677467346
1772698734858890800,1.914890869140625,0.8303094506263733,-8.252845764160156,0.25363919138908386
1772698734876237800,1.93223779296875,-0.5958128571510315,-7.989634990692139,0.9427721500396729
1772698734893585000,1.9495849609375,-1.588834285736084,-7.77188777923584,1.7228323221206665
1772698734910931700,1.966931640625,0.8901300430297852,-8.367700576782227,1.9956140518188477
1772698734928278800,1.98427880859375,1.0480563640594482,-8.927620887756348,2.50289249420166
1772698734945625900,2.0016259765625,0.6340979933738708,-9.525827407836914,2.775674343109131
1772698734962973000,2.018972900390625,0.9092726111412048,-9.798608779907227,2.416750907897949
1772698734980320000,2.036320068359375,1.428515076637268,-9.614361763000488,2.3234307765960693
1772698734997666800,2.053666748046875,1.0480563640594482,-9.365508079528809,2.59621262550354
1772698735015014000,2.071013916015625,1.1820544004440308,-8.767302513122559,2.8450660705566406
1772698735032361000,2.08836083984375,1.1270195245742798,-8.197810173034668,2.715853691101074
1772698735049708000,2.1057080078125,1.794616937637329,-7.9728851318359375,2.775674343109131
1772698735067055000,2.12305517578125,2.3162522315979004,-7.4847493171691895,1.5840486288070679
1772698735084402000,2.14040185546875,2.1367905139923096,-7.850851058959961,0.6628118753433228
1772698735101749000,2.1577490234375,0.7441678643226624,-8.34138011932373,-0.576670229434967
1772698735119096000,2.175095947265625,1.1581261157989502,-9.724431037902832,-0.5024927258491516
1772698735136443100,2.192443115234375,2.7421748638153076,-11.210373878479004,1.0408778190612793
1772698735153790200,2.209790283203125,3.019742250442505,-11.160124778747559,1.184447169303894
1772698735171137000,2.227136962890625,3.280559778213501,-10.813165664672852,1.6319050788879395
1772698735188484000,2.244484130859375,2.991028308868408,-10.837093353271484,2.4263222217559814
1772698735205831200,2.2618310546875,2.2779672145843506,-10.39202880859375,3.1657042503356934
1772698735223178200,2.27917822265625,1.5672988891601562,-9.762716293334961,2.4909284114837646
1772698735240525300,2.296525390625,0.5886343717575073,-9.186046600341797,1.2586246728897095
1772698735257872100,2.3138720703125,-0.009571290574967861,-7.7838521003723145,0.016749758273363113
1772698735275219200,2.33121923828125,-0.6269195079803467,-6.111268997192383,-1.1054840087890625
1772698735292566300,2.348566162109375,-0.7585247755050659,-6.104090690612793,-1.0360921621322632
1772698735309913300,2.365913330078125,-2.1367905139923096,-8.544769287109375,-1.6654045581817627
1772698735327260400,2.383260498046875,-2.651247501373291,-13.636695861816406,-2.368894338607788
1772698735344607200,2.400607177734375,-1.301695466041565,-18.66640853881836,-1.5936198234558105
1772698735361954300,2.417954345703125,-1.3519448041915894,-21.939790725708008,2.069791555404663
1772698735379301400,2.43530126953125,-4.9363932609558105,-19.71925163269043,7.511070251464844
1772698735396648400,2.4526484375,-2.778067111968994,-13.574482917785645,10.162318229675293
1772698735413995500,2.46999560546875,-0.8063812255859375,-7.7838521003723145,7.690532207489014
1772698735431342300,2.48734228515625,1.0648061037063599,-3.462414264678955,5.66620397567749
1772698735448689400,2.504689453125,3.3403804302215576,-3.548556089401245,3.5198421478271484
1772698735466036500,2.522036376953125,4.625326156616211,-6.64486837387085,0.5814558863639832
1772698735483383600,2.539383544921875,4.027120590209961,-8.300702095031738,-1.710868239402771
1772698735500730600,2.556730712890625,1.5649060010910034,-8.61176872253418,-2.500499725341797
1772698735518077700,2.57407763671875,-0.6173482537269592,-8.329415321350098,-1.6079767942428589
1772698735535424500,2.591424560546875,-0.8805587291717529,-8.413164138793945,0.5096712112426758
1772698735552771600,2.608771484375,-0.08614161610603333,-8.949156761169434,2.0003998279571533
1772698735570118700,2.62611865234375,1.301695466041565,-9.066405296325684,1.9932212829589844
1772698735587465700,2.6434658203125,2.194218397140503,-8.951549530029297,1.770688772201538
1772698735604812800,2.660812744140625,2.495713949203491,-8.073383331298828,0.605384111404419
1772698735622160000,2.678159912109375,2.7254250049591064,-7.601997375488281,-0.26560330390930176
1772698735639506700,2.695506591796875,2.9288148880004883,-7.41535758972168,-0.3517449200153351
1772698735656853800,2.712853759765625,2.770888566970825,-7.5565338134765625,0.4977070987224579
1772698735674200800,2.730200927734375,3.13220477104187,-8.059026718139648,1.667797327041626
1772698735691548000,2.7475478515625,4.599005222320557,-9.056833267211914,2.885744094848633
1772698735708895000,2.76489501953125,3.8261234760284424,-10.269994735717773,4.232903480529785
1772698735726241800,2.78224169921875,1.852044701576233,-10.542776107788086,3.964907169342041
1772698735743588900,2.7995888671875,2.132004976272583,-10.396814346313477,2.902493953704834
1772698735760936000,2.81693603515625,4.479363918304443,-9.611968994140625,2.8498518466949463
1772698735778283000,2.834282958984375,6.417550563812256,-10.095318794250488,4.374079704284668
1772698735795630000,2.851630126953125,6.723831653594971,-14.103296279907227,6.228517532348633
1772698735812977200,2.86897705078125,0.30628129839897156,-17.245073318481445,4.106083869934082
1772698735830324000,2.886323974609375,-4.986642360687256,-16.472190856933594,2.256431818008423
1772698735847671000,2.903671142578125,-4.766502857208252,-15.058032989501953,1.9597218036651611
1772698735865018000,2.92101806640625,-2.1128623485565186,-13.220345497131348,1.210768222808838
1772698735882365200,2.938365234375,-2.4191436767578125,-8.446663856506348,-0.3278166949748993
1772698735899712300,2.955712158203125,-1.098305583000183,-5.965306758880615,-1.3710874319076538
1772698735917059000,2.97305908203125,-0.48574298620224,-5.857629776000977,-1.069591760635376
1772698735934406100,2.99040625,-0.3278166949748993,-8.839086532592773,-0.672383189201355
1772698735951753200,3.007753173828125,-0.9667003750801086,-11.928220748901367,-1.0863415002822876
1772698735969100300,3.025100341796875,-0.6197410821914673,-13.397414207458496,-1.2729816436767578
1772698735986447400,3.042447265625,0.5359922647476196,-10.51645565032959,-1.9357935190200806
1772698736003794400,3.05979443359375,0.31106695532798767,-7.427321434020996,-2.194218397140503
1772698736021141200,3.077141357421875,-0.12921242415905,-5.929414749145508,-1.7587246894836426
1772698736038488300,3.09448828125,-0.43549370765686035,-6.161518096923828,-0.5718846321105957
1772698736055835400,3.11183544921875,-0.2392822653055191,-8.066205024719238,1.0839486122131348
1772698736073182500,3.129182373046875,0.8327022790908813,-9.626325607299805,1.9597218036651611
1772698736090529500,3.146529541015625,1.8711873292922974,-10.372885704040527,2.486142635345459
1772698736107876400,3.16387646484375,1.1653046607971191,-10.645668029785156,2.431107759475708
1772698736125223400,3.181223388671875,0.9834501147270203,-10.296316146850586,2.4191436767578125
1772698736142570500,3.198570556640625,1.8041882514953613,-9.20997428894043,2.4741785526275635
1772698736159917600,3.21591748046875,1.8137595653533936,-8.248059272766113,2.5986053943634033
1772698736177264600,3.2332646484375,0.794417142868042,-7.743174076080322,3.0723843574523926
1772698736194611500,3.250611572265625,0.4905286431312561,-7.733603000640869,3.6442689895629883
1772698736211958500,3.26795849609375,0.9092726111412048,-7.9657063484191895,4.139583110809326
1772698736229305600,3.2853056640625,2.833101987838745,-7.975277900695801,3.7878382205963135
1772698736246652700,3.302652587890625,4.201796531677246,-7.477570533752441,2.313859462738037
1772698736263999700,3.319999755859375,2.376072883605957,-7.18086051940918,0.45942193269729614
1772698736281346600,3.3373466796875,0.3613162338733673,-9.06401252746582,0.8063812255859375
1772698736298693600,3.354693603515625,0.019142581149935722,-11.92343521118164,1.2490534782409668
1772698736316040700,3.372040771484375,2.1032910346984863,-13.85922908782959,1.2346965074539185
1772698736333387800,3.3893876953125,3.704089403152466,-13.17248821258545,2.225325107574463
1772698736350734800,3.40673486328125,2.775674343109131,-10.047462463378906,3.1178479194641113
1772698736368081700,3.42408154296875,1.2346965074539185,-8.80798053741455,3.675375461578369
1772698736385428700,3.4414287109375,0.7441678643226624,-8.748159408569336,3.1034910678863525
1772698736402775800,3.45877587890625,0.5694918036460876,-8.161917686462402,2.423929452896118
1772698736420123000,3.476122802734375,-0.02871387079358101,-7.35314416885376,0.8159525394439697
1772698736437470000,3.493469970703125,-0.7034898400306702,-7.470392227172852,-0.7968099117279053
1772698736454817000,3.510817138671875,-1.3256237506866455,-8.288737297058105,-2.0961127281188965
1772698736472163800,3.528163818359375,-2.196611166000366,-10.645668029785156,-2.964707374572754
1772698736489511000,3.545510986328125,-2.5220351219177246,-14.297115325927734,-2.988635540008545
1772698736506858000,3.56285791015625,-1.4979069232940674,-17.376678466796875,-1.2945170402526855
1772698736524205000,3.580205078125,-0.7752745151519775,-19.085153579711914,2.775674343109131
1772698736541552000,3.59755224609375,-1.7778671979904175,-17.197216033935547,7.676175117492676
1772698736558899200,3.614899169921875,-2.837887763977051,-12.29671573638916,9.93260669708252
1772698736576246000,3.63224609375,-1.428515076637268,-7.599604606628418,7.326822757720947
1772698736593593000,3.649593017578125,0.8949156403541565,-4.252045631408691,4.012763500213623
1772698736610940200,3.666940185546875,2.6081767082214355,-3.641875982284546,1.430907964706421
1772698736628287200,3.684287353515625,3.3308091163635254,-5.979663848876953,-0.14356936514377594
1772698736645634300,3.70163427734375,3.1250264644622803,-7.798209190368652,-1.397408366203308
1772698736662981000,3.718981201171875,1.6199408769607544,-8.35573673248291,-0.7657032608985901
1772698736680328200,3.736328125,0.15314064919948578,-8.60459041595459,0.7968099117279053
1772698736697675300,3.75367529296875,-0.08614161610603333,-9.68375301361084,2.2229323387145996
1772698736715022300,3.771022216796875,0.36610186100006104,-9.736394882202148,2.56510591506958
1772698736732369400,3.788369384765625,1.526620864868164,-8.707481384277344,1.8305093050003052
1772698736749716500,3.805716552734375,2.3641088008880615,-7.810173034667969,0.8039883971214294
1772698736767063300,3.823063232421875,3.1752755641937256,-7.381857872009277,-0.13160525262355804
1772698736784410400,3.840410400390625,3.617947816848755,-7.276573657989502,-0.4833501875400543
1772698736801757400,3.85775732421875,3.404986619949341,-7.219145774841309,-0.07417750358581543
1772698736819104500,3.8751044921875,2.706282377243042,-7.384250640869141,1.1724830865859985
1772698736836451600,3.89245166015625,3.0723843574523926,-8.059026718139648,2.7876384258270264
1772698736853798400,3.90979833984375,3.0891339778900146,-8.922835350036621,4.122833251953125
1772698736871145500,3.9271455078125,2.6464617252349854,-9.590433120727539,5.07517671585083
1772698736888492500,3.944492431640625,3.1728827953338623,-10.25324535369873,4.5200419425964355
1772698736905839600,3.961839599609375,3.4193434715270996,-10.521241188049316,3.0101709365844727
1772698736923186700,3.979186767578125,3.6873397827148438,-10.336994171142578,3.658625841140747
1772698736940533800,3.99653369140625,5.257031440734863,-14.256437301635742,4.206582069396973
1772698736957880600,4.013880615234375,4.764110088348389,-19.8221435546875,4.675575256347656
1772698736975227600,4.0312275390625,-2.163111686706543,-20.422740936279297,1.526620864868164
1772698736992574700,4.04857470703125,-4.170690059661865,-15.467206001281738,-0.6317051649093628
1772698737009921800,4.065921875,-0.42831525206565857,-10.12881851196289,-0.45942193269729614
1772698737027268900,4.083268798828125,-0.275174617767334,-10.009177207946777,-0.5359922647476196
1772698737044615700,4.10061572265625,-1.8735800981521606,-7.195217609405518,-0.12681959569454193
1772698737061962800,4.117962646484375,-2.196611166000366,-4.615755081176758,-0.10049854964017868
1772698737079309800,4.135309814453125,-1.6965112686157227,-6.379265308380127,0.6221339106559753
1772698737096657000,4.152656982421875,-0.5527420043945312,-10.427921295166016,1.4715858697891235
1772698737114004000,4.17000390625,0.14117653667926788,-13.062418937683105,0.28235307335853577
1772698737131350800,4.187350830078125,-0.32542386651039124,-13.36152172088623,-0.9810572862625122
1772698737148697900,4.20469775390625,-0.6340979933738708,-9.774680137634277,-2.493321180343628
1772698737166045000,4.222044921875,0,-6.965506553649902,-2.801995277404785
1772698737183392000,4.23939208984375,-0.26560330390930176,-5.879165172576904,-2.4263222217559814
1772698737200739000,4.256739013671875,-0.6101697683334351,-5.747560024261475,-1.9645073413848877
1772698737218086100,4.274086181640625,0.08614161610603333,-7.348358154296875,-0.2919243574142456
1772698737235433000,4.291432861328125,1.062413215637207,-9.355937004089355,1.155733346939087
1772698737252780000,4.308780029296875,1.852044701576233,-10.760523796081543,1.7156537771224976
1772698737270127000,4.326127197265625,1.923829436302185,-11.444870948791504,2.1296122074127197
1772698737287474200,4.34347412109375,1.1820544004440308,-10.803594589233398,2.5770699977874756
1772698737304821200,4.3608212890625,1.277767300605774,-9.571290969848633,3.184846878051758
1772698737322168300,4.378168212890625,1.9932212829589844,-8.714659690856934,3.469592809677124
1772698737339515100,4.39551513671875,2.3712873458862305,-8.214560508728027,3.87876558303833
1772698737356862200,4.4128623046875,2.0578274726867676,-7.690532207489014,4.163511276245117
1772698737374209300,4.430209228515625,2.1367905139923096,-7.592426300048828,4.398007869720459
1772698737391556400,4.447556396484375,2.3952155113220215,-7.743174076080322,4.433900356292725
1772698737408903400,4.4649033203125,2.3880369663238525,-8.030312538146973,4.034298896789551
1772698737426250200,4.482250244140625,2.2061824798583984,-7.898707389831543,2.9240293502807617
1772698737443597300,4.499597412109375,1.9166508913040161,-7.740781307220459,1.5984054803848267
1772698737460944400,4.5169443359375,1.0600204467773438,-8.401200294494629,1.2562319040298462
1772698737478291500,4.53429150390625,0.2871387302875519,-9.729216575622559,1.2538390159606934
1772698737495638500,4.551638427734375,0.6556333899497986,-11.25344467163086,0.7824530005455017
1772698737512985300,4.5689853515625,2.2851455211639404,-12.177074432373047,0.9882357716560364
1772698737530332400,4.58633251953125,3.0484559535980225,-11.672188758850098,1.7419748306274414
1772698737547679500,4.603679443359375,2.3617160320281982,-10.375279426574707,2.988635540008545
1772698737565026600,4.621026611328125,1.5409778356552124,-9.564111709594727,3.586841106414795
1772698737582373400,4.638373291015625,1.0719845294952393,-8.80798053741455,3.091526746749878
1772698737599720400,4.655720458984375,0.3852444589138031,-7.523034572601318,1.8903298377990723
1772698737617067500,4.673067626953125,-1.0863415002822876,-7.3986077308654785,0.23210379481315613
1772698737634414600,4.69041455078125,-1.4333007335662842,-7.295716285705566,-2.045863389968872
1772698737651761700,4.70776171875,-1.8759729862213135,-8.941978454589844,-3.8739798069000244
1772698737669108700,4.725108642578125,-2.919243574142456,-14.021940231323242,-3.610769271850586
1772698737686455800,4.742455810546875,-1.9166508913040161,-19.113866806030273,-2.407179594039917
1772698737703802600,4.759802734375,-0.6197410821914673,-22.01157569885254,1.6390835046768188
1772698737721149700,4.777149658203125,-1.5050854682922363,-18.905691146850586,7.063612461090088
1772698737738496800,4.794496826171875,-2.775674343109131,-12.598211288452148,10.597811698913574
1772698737755843800,4.81184375,-1.9166508913040161,-6.929614543914795,8.032705307006836
1772698737773191000,4.82919091796875,0.4666004180908203,-4.108476638793945,4.256831645965576
1772698737790537700,4.846537841796875,2.706282377243042,-4.082155227661133,1.4069796800613403
1772698737807884800,4.863884765625,3.7782669067382812,-6.283552169799805,-0.3684946894645691
1772698737825232000,4.88123193359375,3.1202406883239746,-7.836493968963623,-1.2658032178878784
1772698737842579000,4.898578857421875,1.4069796800613403,-7.9585280418396,-1.3280165195465088
1772698737859926000,4.915926025390625,0.3158525824546814,-7.762316703796387,-0.004785645287483931
1772698737877273000,4.933273193359375,0.02392822690308094,-8.154739379882812,1.1341979503631592
1772698737894620000,4.950619873046875,0.2847459018230438,-8.13798999786377,1.6175481081008911
1772698737911967000,4.967967041015625,1.3304094076156616,-7.805387496948242,1.667797327041626
1772698737929314000,4.98531396484375,2.258824586868286,-7.396214962005615,1.2370892763137817
1772698737946661000,5.0026611328125,2.902493953704834,-7.152146816253662,0.6029912829399109
1772698737964008200,5.02000830078125,3.2709884643554688,-7.144968509674072,0.4546363055706024
1772698737981355000,5.03735498046875,3.0628130435943604,-7.262216567993164,0.9595218896865845
1772698737998702000,5.0547021484375,2.3976082801818848,-7.932207107543945,1.6295121908187866
1772698738016049200,5.072049072265625,2.9312076568603516,-9.312865257263184,2.266003131866455
1772698738033396200,5.089396240234375,3.1728827953338623,-10.762916564941406,3.3164522647857666
1772698738050743300,5.106743408203125,3.280559778213501,-11.088339805603027,3.555734395980835
1772698738068090400,5.12409033203125,3.2781670093536377,-11.133803367614746,3.4911282062530518
1772698738085437200,5.141437255859375,3.735196113586426,-10.365707397460938,3.94815731048584
1772698738102784300,5.1587841796875,4.3549370765686035,-9.442078590393066,5.300102233886719
1772698738120131300,5.17613134765625,5.649454116821289,-12.260823249816895,6.400800704956055
1772698738137478400,5.193478515625,4.036691665649414,-17.448463439941406,7.566105365753174
1772698738154825500,5.210825439453125,-1.4141582250595093,-19.03251075744629,2.801995277404785
1772698738172172300,5.22817236328125,-4.381258487701416,-16.472190856933594,-0.5575276613235474
1772698738189519400,5.245519287109375,-0.18903298676013947,-11.980862617492676,-1.3184453248977661
1772698738206866400,5.262866455078125,0.4450650215148926,-10.875378608703613,-1.950150489807129
1772698738224213500,5.280213623046875,-2.4119651317596436,-7.271788120269775,-0.7872386574745178
1772698738241560600,5.297560546875,-1.6007983684539795,-4.572684288024902,-0.2799602448940277
1772698738258907400,5.314907470703125,-1.1820544004440308,-4.524827480316162,-0.1818545162677765
1772698738276254500,5.33225439453125,-0.3613162338733673,-8.597412109375,0.9236295223236084
1772698738293601500,5.3496015625,-0.5431707501411438,-11.96889877319336,0.29431718587875366
1772698738310948600,5.366948486328125,-0.5838487148284912,-14.254044532775879,0.1339980661869049
1772698738328295700,5.384295654296875,-0.3206382393836975,-12.081361770629883,-1.2418749332427979
1772698738345642800,5.401642822265625,0.2153540402650833,-8.678768157958984,-2.352144718170166
1772698738362989800,5.41898974609375,-0.4331009089946747,-7.037291526794434,-2.53399920463562
1772698738380336600,5.436336669921875,-0.9475577473640442,-6.1399827003479,-2.2301106452941895
1772698738397683700,5.45368359375,-0.33020952343940735,-7.037291526794434,-0.3326023519039154
1772698738415030800,5.47103076171875,0.4450650215148926,-8.159524917602539,0.9332008361816406
1772698738432377900,5.4883779296875,0.9882357716560364,-9.276973724365234,1.8975083827972412
1772698738449725000,5.505724853515625,0.794417142868042,-9.891928672790527,2.400001049041748
1772698738467071700,5.52307177734375,0.37088751792907715,-9.76989459991455,2.6225335597991943
1772698738484418800,5.540418701171875,0.641276478767395,-9.183652877807617,2.548356056213379
1772698738501766000,5.557765869140625,1.3256237506866455,-8.889336585998535,2.383251428604126
1772698738519113000,5.575113037109375,1.8065811395645142,-9.095118522644043,2.541177749633789
1772698738536460000,5.5924599609375,1.94297194480896,-9.140582084655762,2.837887763977051
1772698738553806800,5.609806884765625,1.7467604875564575,-8.776873588562012,3.2135608196258545
1772698738571154000,5.62715380859375,1.2993026971817017,-8.34855842590332,3.5198421478271484
1772698738588501000,5.6445009765625,1.2035897970199585,-7.932207107543945,3.1130621433258057
1772698738605848000,5.66184814453125,2.187039852142334,-7.369893550872803,1.94297194480896
1772698738623195100,5.679195068359375,2.4335005283355713,-7.525427341461182,1.160519003868103
1772698738640542000,5.6965419921875,1.2921242713928223,-9.473184585571289,1.6414763927459717
1772698738657889000,5.713888916015625,1.6582261323928833,-11.885149955749512,2.251646041870117
1772698738675236000,5.731236083984375,3.352344512939453,-12.832707405090332,2.8689942359924316
1772698738692583200,5.748583251953125,3.6131622791290283,-11.3778715133667,3.610769271850586
1772698738709930200,5.76593017578125,2.3497519493103027,-9.513862609863281,4.366901397705078
1772698738727277000,5.783277099609375,1.129412293434143,-8.884550094604492,4.1659040451049805
1772698738744624000,5.8006240234375,0.8039883971214294,-8.338987350463867,2.981456995010376
1772698738761971200,5.81797119140625,0.035892341285943985,-7.444071292877197,1.4093725681304932
1772698738779318300,5.835318359375,-1.038485050201416,-7.061219692230225,-0.3732803463935852
1772698738796665300,5.852665283203125,-2.1894326210021973,-7.465606689453125,-2.210968017578125
1772698738814012200,5.87001220703125,-2.548356056213379,-9.121439933776855,-4.347758769989014
1772698738831359200,5.887359130859375,-3.634697675704956,-12.330215454101562,-5.127819061279297
1772698738848706300,5.904706298828125,-3.187239646911621,-16.323835372924805,-4.737788677215576
1772698738866053400,5.922053466796875,-2.2540390491485596,-19.08993911743164,-3.0388846397399902
1772698738883400400,5.939400390625,-1.454836130142212,-19.106689453125,1.5696916580200195
1772698738900747500,5.95674755859375,-1.6582261323928833,-15.31167221069336,6.63769006729126
1772698738918094300,5.97409423828125,-2.1367905139923096,-11.052447319030762,8.69791030883789
1772698738935441400,5.99144140625,-0.7680960893630981,-7.089933395385742,6.943971157073975
1772698738952788500,6.00878857421875,1.31365966796875,-4.517649173736572,4.01037073135376
1772698738970135600,6.026135498046875,2.730210542678833,-4.773681163787842,1.4644074440002441
1772698738987482600,6.043482666015625,3.005385160446167,-6.573083877563477,0.24885354936122894
1772698739004829400,6.060829345703125,2.2995026111602783,-8.049455642700195,0.0933200865983963
1772698739022176500,6.078176513671875,0.6747759580612183,-8.293522834777832,0.7441678643226624
1772698739039523600,6.095523681640625,-0.040677983313798904,-8.719446182250977,1.5122638940811157
1772698739056870700,6.11287060546875,0.3278166949748993,-9.10229778289795,1.9692929983139038
1772698739074217700,6.1302177734375,0.9188438653945923,-8.69791030883789,1.97407865524292
1772698739091564500,6.147564453125,1.7635103464126587,-8.169096946716309,1.5074782371520996
1772698739108911600,6.16491162109375,2.60339093208313,-7.6474609375,0.7896314859390259
1772698739126258700,6.1822587890625,3.19441819190979,-7.417750358581543,0.2919243574142456
1772698739143605800,6.199605712890625,3.170490026473999,-7.171289443969727,0.23210379481315613
1772698739160952800,6.216952880859375,2.909672260284424,-7.03489875793457,0.9020941257476807
1772698739178300000,6.2342998046875,2.6536402702331543,-7.365108013153076,2.3880369663238525
1772698739195646700,6.251646728515625,2.3784656524658203,-8.147561073303223,3.735196113586426
1772698739212993800,6.268993896484375,3.146561861038208,-9.686145782470703,4.883750915527344
1772698739230340900,6.2863408203125,4.40757942199707,-11.423335075378418,4.491328239440918
1772698739247688000,6.30368798828125,4.060619831085205,-12.387642860412598,3.019742250442505
1772698739265035000,6.321034912109375,4.036691665649414,-12.191431045532227,3.586841106414795
1772698739282381800,6.3383818359375,4.108476638793945,-14.203795433044434,5.00578498840332
1772698739299729000,6.35572900390625,4.419543266296387,-18.046669006347656,5.517848968505859
1772698739317076000,6.373075927734375,0.7704889178276062,-15.04128360748291,1.6582261323928833
1772698739334423000,6.390423095703125,-2.7637102603912354,-13.028919219970703,-0.06699903309345245
1772698739351770000,6.40777001953125,-1.3256237506866455,-13.351950645446777,-0.15553347766399384
1772698739369117200,6.4251171875,-1.2346965074539185,-14.014761924743652,-1.828116536140442
1772698739386464000,6.442464111328125,-1.4069796800613403,-8.764909744262695,-1.1868400573730469
1772698739403811000,6.45981103515625,-2.344966173171997,-6.111268997192383,1.5242279767990112
1772698739421158100,6.477158203125,-0.24406790733337402,-3.9625144004821777,1.301695466041565
1772698739438505200,6.494505126953125,0.4570291340351105,-5.821737289428711,1.8807586431503296
1772698739455852300,6.511852294921875,-0.11964113265275955,-8.831908226013184,1.0791629552841187
1772698739473199000,6.52919921875,-0.7034898400306702,-11.492727279663086,-0.28953152894973755
1772698739490546200,6.546546142578125,-0.12203395366668701,-13.789836883544922,-0.5240281820297241
1772698739507893200,6.563893310546875,-0.2560320198535919,-10.612168312072754,-1.6079767942428589
1772698739525240300,6.581240234375,-0.6580262184143066,-8.126026153564453,-1.3830515146255493
1772698739542587400,6.59858740234375,-1.0480563640594482,-6.44387149810791,-1.0767701864242554
1772698739559934200,6.615934326171875,-0.24646073579788208,-6.479763507843018,0.17706887423992157
1772698739577281300,6.63328125,0.5694918036460876,-7.798209190368652,1.332802176475525
1772698739594628400,6.65062841796875,0.7513462901115417,-9.078369140625,1.919043779373169
1772698739611975400,6.667975341796875,0.47617170214653015,-10.133604049682617,2.218146562576294
1772698739629322500,6.685322509765625,0.31106695532798767,-10.41356372833252,2.227717876434326
1772698739646669300,6.70266943359375,0.6891329288482666,-9.949356079101562,2.100898265838623
1772698739664016400,6.720016357421875,1.428515076637268,-9.212367057800293,2.091326951980591
1772698739681363500,6.737363525390625,1.730010747909546,-8.511270523071289,2.4909284114837646
1772698739698710500,6.75471044921875,1.6031911373138428,-8.109275817871094,2.9455647468566895
1772698739716057600,6.7720576171875,1.9884356260299683,-8.063812255859375,3.3020951747894287
1772698739733404400,6.789404296875,2.3569302558898926,-7.982456207275391,2.950350284576416
1772698739750751500,6.80675146484375,2.2612173557281494,-7.568498134613037,1.9621145725250244
1772698739768098600,6.8240986328125,2.045863389968872,-7.489534854888916,1.057627558708191
1772698739785445600,6.841445556640625,1.9381862878799438,-8.394021987915039,1.34476637840271
1772698739802792700,6.858792724609375,2.0410776138305664,-9.822537422180176,2.431107759475708
1772698739820139500,6.876139404296875,2.723032236099243,-10.920842170715332,2.5770699977874756
1772698739837486600,6.893486572265625,3.6083765029907227,-11.801401138305664,2.7086751461029053
1772698739854833700,6.910833740234375,3.3332018852233887,-11.880364418029785,3.345165967941284
1772698739872180700,6.9281806640625,1.7563318014144897,-10.683953285217285,3.589233875274658
1772698739889527800,6.94552783203125,0.8566305041313171,-9.561718940734863,3.208775281906128
1772698739906874600,6.96287451171875,0.2919243574142456,-8.257631301879883,2.029113531112671
1772698739924221700,6.9802216796875,-0.638883650302887,-7.10429048538208,0.672383189201355
1772698739941568800,6.99756884765625,-1.3591232299804688,-6.970292568206787,-1.3615161180496216
1772698739958915800,7.014915771484375,-1.794616937637329,-7.824530124664307,-3.6538400650024414
1772698739976263000,7.032262939453125,-2.0578274726867676,-9.762716293334961,-4.6061835289001465
1772698739993609700,7.049609619140625,-3.0652058124542236,-13.423734664916992,-4.316651821136475
1772698740010956800,7.066956787109375,-2.03629207611084,-17.699708938598633,-3.7232320308685303
1772698740028304000,7.084303955078125,-1.5050854682922363,-19.98246192932129,-0.5240281820297241
1772698740045651000,7.10165087890625,-1.3782658576965332,-18.515661239624023,4.809573650360107
1772698740062998000,7.118998046875,-1.552941918373108,-13.978869438171387,9.53779125213623
1772698740080345000,7.136344970703125,-1.4189438819885254,-9.937392234802246,10.372885704040527
1772698740097692000,7.15369189453125,0.4091726839542389,-5.106283664703369,7.183253765106201
1772698740115039000,7.1710390625,2.6297121047973633,-3.1441688537597656,3.689732551574707
1772698740132386000,7.188385986328125,3.2853455543518066,-4.914857864379883,1.2849457263946533
1772698740149733000,7.205733154296875,2.9623143672943115,-8.319844245910645,-0.13639089465141296
1772698740167080200,7.223080078125,1.2897313833236694,-9.734002113342285,-0.7130611538887024
1772698740184427300,7.24042724609375,-0.550349235534668,-9.497113227844238,0.04546362906694412
1772698740201774000,7.257774169921875,-0.38285163044929504,-9.186046600341797,1.6247265338897705
1772698740219121200,7.27512109375,0.7537391185760498,-9.198010444641113,2.1607189178466797
1772698740236468200,7.29246826171875,1.4333007335662842,-8.831908226013184,1.2945170402526855
1772698740253815300,7.309815185546875,2.0267207622528076,-8.00638484954834,0.6484549641609192
1772698740271162400,7.327162353515625,2.555534601211548,-7.539783954620361,-0.0933200865983963
1772698740288509200,7.34450927734375,3.2231321334838867,-7.582854747772217,-0.5048855543136597
1772698740305856300,7.361856201171875,3.314059257507324,-7.628318786621094,-0.07178468257188797
1772698740323203300,7.379203369140625,2.60339093208313,-7.8795647621154785,1.3758729696273804
1772698740340550400,7.39655029296875,2.730210542678833,-8.037490844726562,3.649054527282715
1772698740357897500,7.4138974609375,4.297509670257568,-8.09252643585205,5.3694939613342285
1772698740375244300,7.431244384765625,2.864208698272705,-8.803194046020508,4.773681163787842
1772698740392591400,7.44859130859375,2.2301106452941895,-9.212367057800293,2.5603201389312744
1772698740409938400,7.4659384765625,2.943171739578247,-9.253045082092285,1.0863415002822876
1772698740427285500,7.483285400390625,5.637490272521973,-9.260223388671875,0.8997012972831726
1772698740444632600,7.500632568359375,6.714260101318359,-9.856036186218262,3.0317063331604004
1772698740461979400,7.5179794921875,6.209374904632568,-12.44267749786377,6.044270038604736
1772698740479326500,7.535326416015625,0.5790630578994751,-17.041683197021484,6.027520179748535
1772698740496673500,7.552673583984375,-7.860422611236572,-18.3433780670166,1.6941183805465698
1772698740514020600,7.5700205078125,-5.108676433563232,-18.262022018432617,0.9116654396057129
1772698740531367700,7.58736767578125,-2.744567632675171,-17.359928131103516,-1.5337992906570435
1772698740548714800,7.60471484375,-1.2083754539489746,-7.733603000640869,-2.4813570976257324
1772698740566061600,7.6220615234375,-1.9692929983139038,-3.601198196411133,-2.256431818008423
1772698740583408600,7.63940869140625,-0.8733802437782288,-3.840480327606201,-1.4213366508483887
1772698740600755700,7.656755615234375,-0.7561319470405579,-7.192824840545654,-0.14356936514377594
1772698740618102800,7.674102783203125,-0.5312066078186035,-10.60977554321289,-0.4737788736820221
1772698740635449900,7.691449951171875,-0.9379864931106567,-14.1918306350708,-2.045863389968872
1772698740652796700,7.708796630859375,0.11724831163883209,-16.14437484741211,-2.007578134536743
1772698740670143700,7.726143798828125,0.9451649188995361,-10.468599319458008,-2.00518536567688
1772698740687490800,7.74349072265625,0.7728816866874695,-7.482356548309326,-1.1748759746551514
1772698740704838000,7.760837890625,0.07657032459974289,-6.190232276916504,-0.019142581149935722
1772698740722185000,7.77818505859375,-0.5000999569892883,-7.800601959228516,1.7491533756256104
1772698740739532000,7.795531982421875,0.39960137009620667,-9.32004451751709,2.524427890777588
1772698740756878800,7.81287890625,1.373480200767517,-9.846465110778809,2.746960401535034
1772698740774226000,7.830225830078125,1.2801600694656372,-9.67657470703125,2.234896421432495
1772698740791573000,7.847572998046875,1.2849457263946533,-8.963513374328613,1.4380863904953003
1772698740808920000,7.864920166015625,1.9645073413848877,-8.599804878234863,1.7635103464126587
1772698740826267100,7.88226708984375,2.6153552532196045,-8.590232849121094,2.5986053943634033
1772698740843614000,7.899614013671875,2.4287149906158447,-8.848658561706543,3.5916268825531006
1772698740860961000,7.9169609375,2.3712873458862305,-9.083154678344727,4.302295207977295
1772698740878308000,7.93430810546875,2.2396819591522217,-8.831908226013184,4.374079704284668
1772698740895655200,7.9516552734375,2.242074728012085,-8.420342445373535,3.8021950721740723
1772698740913002200,7.969002197265625,2.720639228820801,-8.367700576782227,2.8905298709869385
1772698740930349000,7.98634912109375,3.4408788681030273,-8.157132148742676,2.423929452896118
1772698740947696000,8.003696044921876,2.6847469806671143,-7.63310432434082,1.9310078620910645
1772698740965043200,8.021043212890625,1.160519003868103,-7.331608772277832,1.9022940397262573
1772698740982390300,8.038390380859376,1.098305583000183,-7.82692289352417,2.132004976272583
1772698740999737300,8.0557373046875,2.517249345779419,-8.748159408569336,1.6295121908187866
1772698741017084200,8.073084228515626,4.59421968460083,-9.174081802368164,0.9116654396057129
1772698741034431200,8.09043115234375,4.831109046936035,-9.511469841003418,1.3208380937576294
1772698741051778300,8.1077783203125,2.4095723628997803,-10.595418930053711,2.8977081775665283
1772698741069125400,8.12512548828125,0.4331009089946747,-12.540783882141113,3.8285162448883057
1772698741086472200,8.14247216796875,-0.8015955686569214,-12.935599327087402,4.883750915527344
1772698741103819300,8.1598193359375,-0.7250252366065979,-11.617154121398926,4.390829563140869
1772698741121166300,8.177166259765626,-0.8685946464538574,-10.549955368041992,3.682554006576538
1772698741138513400,8.194513427734375,-0.9475577473640442,-9.140582084655762,1.3710874319076538
1772698741155860500,8.211860595703126,-1.1653046607971191,-8.276773452758789,-0.6436693072319031
1772698741173207300,8.229207275390625,-0.5670989751815796,-7.5708909034729,-1.4835500717163086
1772698741190554400,8.246554443359376,-2.148754835128784,-8.22413158416748,-1.0863415002822876
1772698741207901400,8.2639013671875,-2.122433662414551,-11.10748291015625,2.163111686706543
1772698741225248500,8.28124853515625,-1.887937068939209,-13.923834800720215,5.266602516174316
1772698741242595600,8.298595703125,-1.184447169303894,-16.28794288635254,8.659625053405762
1772698741259942700,8.315942626953126,-1.0552347898483276,-15.029318809509277,9.710074424743652
1772698741277289500,8.33328955078125,-1.5409778356552124,-11.801401138305664,7.267002582550049
1772698741294636500,8.350636474609376,0.6532405614852905,-8.918049812316895,4.479363918304443
1772698741311983600,8.367983642578125,3.0963125228881836,-5.740381717681885,2.486142635345459
1772698741329330700,8.38533056640625,2.5674986839294434,-5.613562107086182,1.3160524368286133
1772698741346677800,8.402677734375,2.7828526496887207,-7.018148899078369,0.5335994362831116
1772698741364024600,8.420024658203126,2.5124638080596924,-7.987242221832275,-0.07178468257188797
1772698741381371600,8.43737158203125,1.797009825706482,-8.516056060791016,0.18424734473228455
1772698741398718700,8.45471875,0.8327022790908813,-9.066405296325684,0.851844847202301
1772698741416065800,8.472065673828125,0.4211367964744568,-9.339186668395996,1.3878371715545654
1772698741433412900,8.489412841796875,0.6939185857772827,-8.767302513122559,1.4261223077774048
1772698741450759700,8.506759765625,1.3806586265563965,-8.032705307006836,0.8470591902732849
1772698741468106800,8.524106689453125,2.2683959007263184,-7.599604606628418,0.15553347766399384
1772698741485453800,8.541453857421875,2.7517459392547607,-7.211967468261719,-0.11246266216039658
1772698741502801000,8.55880078125,2.950350284576416,-7.16650390625,0.13878370821475983
1772698741520148000,8.57614794921875,3.1178479194641113,-7.424928665161133,0.7082754969596863
1772698741537494800,8.593494873046875,2.974278450012207,-7.932207107543945,1.4811571836471558
1772698741554841900,8.610841796875,2.5363919734954834,-8.504091262817383,2.53399920463562
1772698741572189000,8.62818896484375,2.964707374572754,-8.901300430297852,3.864408493041992
1772698741589536000,8.645535888671875,2.7421748638153076,-9.080761909484863,4.828716278076172
1772698741606883000,8.662883056640625,2.6368906497955322,-8.989834785461426,4.864608287811279
1772698741624230100,8.680230224609375,3.460021495819092,-9.20997428894043,3.759124279022217
1772698741641577200,8.6975771484375,4.792823791503906,-10.217352867126465,4.161118507385254
1772698741658924000,8.714924072265624,4.991427898406982,-11.406585693359375,5.828916072845459
1772698741676271000,8.73227099609375,5.1804609298706055,-16.591833114624023,7.1856465339660645
1772698741693618200,8.7496181640625,0.8949156403541565,-18.912870407104492,4.493721008300781
1772698741710965200,8.76696533203125,-2.9288148880004883,-17.38385581970215,0.016749758273363113
1772698741728312300,8.784312255859374,-1.0600204467773438,-14.371293067932129,-1.545763373374939
1772698741745659100,8.8016591796875,-0.363709032535553,-11.143375396728516,-0.6460621356964111
1772698741763006200,8.819006103515624,-1.8089739084243774,-7.927421569824219,2.2923240661621094
1772698741780353300,8.836353271484375,-2.6967110633850098,-6.45822811126709,2.825923442840576
1772698741797700400,8.853700439453124,-2.423929452896118,-7.542177200317383,2.7828526496887207
1772698741815047400,8.87104736328125,-1.0432707071304321,-9.8871431350708,3.1824541091918945
1772698741832394500,8.88839453125,-0.2727817893028259,-11.10030460357666,2.3545374870300293
1772698741849741300,8.9057412109375,-0.605384111404419,-10.119247436523438,0.8279166221618652
1772698741867088400,8.92308837890625,-0.016749758273363113,-8.745766639709473,-1.734796404838562
1772698741884435500,8.940435546875,0.7752745151519775,-8.032705307006836,-3.232703447341919
1772698741901782500,8.957782470703124,0.5862415432929993,-7.671389579772949,-3.3164522647857666
1772698741919129600,8.975129638671875,-0.7106683254241943,-7.283751964569092,-2.3306093215942383
1772698741936476400,8.992476318359374,-1.5744773149490356,-7.499105930328369,-1.2945170402526855
1772698741953823500,9.009823486328125,-0.8590233325958252,-8.461020469665527,0.12921242415905
1772698741971170600,9.027170654296874,0.07657032459974289,-9.58325481414795,1.0121639966964722
1772698741988517600,9.044517578125,0.24885354936122894,-10.396814346313477,1.3040883541107178
1772698742005864700,9.06186474609375,-0.11724831163883209,-10.48534870147705,1.3280165195465088
1772698742023211500,9.07921142578125,0.009571290574967861,-10.04267692565918,1.9764715433120728
1772698742040558600,9.09655859375,0.607776939868927,-9.640682220458984,2.651247501373291
1772698742057905700,9.11390576171875,1.0408778190612793,-9.265008926391602,3.1178479194641113
1772698742075252700,9.131252685546874,0.7896314859390259,-8.769695281982422,3.3475589752197266
1772698742092599800,9.148599853515625,0.3086741268634796,-8.324629783630371,3.239881753921509
1772698742109946600,9.165946533203124,0.6795616149902344,-8.260024070739746,2.9479575157165527
1772698742127293700,9.183293701171875,1.0911271572113037,-8.329415321350098,2.4741785526275635
1772698742144640800,9.200640869140624,1.098305583000183,-8.279166221618652,1.679761528968811
1772698742161987800,9.21798779296875,0.7465606927871704,-8.097311973571777,0.6532405614852905
1772698742179334700,9.235334716796874,0.7896314859390259,-7.8819580078125,-0.7704889178276062
1772698742196681700,9.252681640625,1.0145567655563354,-8.267202377319336,-1.0863415002822876
1772698742214028800,9.27002880859375,1.1174482107162476,-9.20279598236084,0.5910272002220154
1772698742231376000,9.2873759765625,0.4570291340351105,-10.985448837280273,1.5840486288070679
1772698742248723000,9.304722900390624,1.6175481081008911,-13.256237030029297,2.447857618331909
1772698742266069800,9.32206982421875,2.0985054969787598,-13.677373886108398,3.8572301864624023
1772698742283416800,9.339416748046874,1.3854442834854126,-12.129218101501465,5.178068161010742
1772698742300764000,9.356763916015625,1.0719845294952393,-9.461220741271973,4.960321426391602
1772698742318111000,9.374111083984374,0.9284151792526245,-7.133004188537598,3.397808074951172
1772698742335458000,9.3914580078125,0.6269195079803467,-5.927021503448486,1.196411371231079
1772698742352804900,9.408804931640624,-0.038285162299871445,-6.752545356750488,-1.5672988891601562
1772698742370152000,9.42615185546875,-0.5000999569892883,-8.449056625366211,-4.304687976837158
1772698742387499000,9.4434990234375,-1.1940184831619263,-11.047661781311035,-5.840879917144775
1772698742404846000,9.46084619140625,-2.1750757694244385,-14.632110595703125,-5.072783946990967
1772698742422193200,9.478193115234374,-1.3902299404144287,-18.647266387939453,-3.572484254837036
1772698742439540000,9.4955400390625,-1.2251251935958862,-20.176280975341797,0.5862415432929993
1772698742456887000,9.512886962890626,-2.335394859313965,-16.618152618408203,6.020341873168945
1772698742474234000,9.530234130859375,-3.524627685546875,-11.880364418029785,8.930013656616211
1772698742491581200,9.547581298828124,-2.5148565769195557,-8.11406135559082,6.776473522186279
1772698742508928300,9.56492822265625,0.2584248483181,-6.211767673492432,4.084548473358154
1772698742526275300,9.582275390625,1.6582261323928833,-6.687939167022705,2.093719720840454
1772698742543622100,9.5996220703125,2.2707886695861816,-6.996613502502441,0.42352959513664246
1772698742560969200,9.61696923828125,2.3569302558898926,-7.312466144561768,0.08135596662759781
1772698742578316300,9.63431640625,0.8279166221618652,-6.802794933319092,0.8039883971214294
1772698742595663400,9.651663330078126,-0.17706887423992157,-6.680760860443115,1.820937991142273
1772698742613010400,9.669010498046875,-0.2153540402650833,-7.479963779449463,2.541177749633789
1772698742630357200,9.686357177734376,0.4331009089946747,-7.929814338684082,2.00518536567688
1772698742647704300,9.703704345703125,1.5481562614440918,-7.913064479827881,0.882951557636261
1772698742665051400,9.721051513671876,2.076970100402832,-7.678567886352539,-0.11485548317432404
1772698742682398500,9.7383984375,2.179861545562744,-7.606783390045166,-0.9595218896865845
1772698742699745500,9.75574560546875,2.0027925968170166,-7.76470947265625,-0.8374879360198975
1772698742717092400,9.77309228515625,1.8448662757873535,-8.10688304901123,0.12921242415905
1772698742734439400,9.790439453125,2.2085752487182617,-8.559126853942871,1.093519926071167
1772698742751786500,9.807786376953125,2.620140790939331,-8.784051895141602,1.6414763927459717
1772698742769133600,9.825133544921876,3.4002010822296143,-8.918049812316895,2.2683959007263184
1772698742786480600,9.842480712890625,4.029513359069824,-8.401200294494629,2.8761727809906006
1772698742803827500,9.859827392578126,3.656233072280884,-7.944170951843262,3.6323046684265137
1772698742821174500,9.877174560546875,3.799802303314209,-8.841479301452637,4.419543266296387
1772698742838521600,9.894521484375,4.505684852600098,-10.475777626037598,3.8213376998901367
1772698742855868700,9.91186865234375,5.558526992797852,-11.827722549438477,4.534399032592773
1772698742873215700,9.9292158203125,6.7932233810424805,-14.66800308227539,5.836094379425049
1772698742890562800,9.946562744140625,1.8735800981521606,-19.592432022094727,5.656632900238037
1772698742907909600,9.96390966796875,-3.13220477104187,-19.113866806030273,2.0482561588287354
1772698742925256700,9.981256591796875,-5.5728840827941895,-15.014962196350098,-0.35413774847984314
1772698742942603800,9.998603759765626,-2.148754835128784,-16.706687927246094,0.1459621787071228
1772698742959950800,10.015950927734375,-0.8805587291717529,-10.923234939575195,-0.12681959569454193
1772698742977298000,10.0332978515625,-2.249253273010254,-6.6592254638671875,-0.8087740540504456
1772698742994644700,10.050644775390625,-1.9046868085861206,-4.479363918304443,-0.24167509377002716
1772698743011991800,10.06799169921875,-1.2705888748168945,-6.704689025878906,0.9547362327575684
1772698743029339000,10.0853388671875,-0.3900300860404968,-10.258030891418457,0.7968099117279053
1772698743046686000,10.10268603515625,0.22971096634864807,-11.586047172546387,-1.703689694404602
1772698743064033000,10.120032958984375,-0.6005984544754028,-12.813565254211426,-3.19441819190979
1772698743081379800,10.1373798828125,-0.4498506486415863,-10.559526443481445,-3.895515203475952
1772698743098727000,10.154726806640625,0.48813581466674805,-7.6666035652160645,-3.005385160446167
1772698743116074000,10.172073974609376,0.18424734473228455,-5.72841739654541,-2.1439690589904785
1772698743133421000,10.189421142578125,-0.13878370821475983,-5.168497085571289,-1.0289137363433838
1772698743150768000,10.20676806640625,0.04546362906694412,-6.551548480987549,0.7417750358581543
1772698743168115000,10.224114990234375,0.48813581466674805,-8.482556343078613,1.6917256116867065
1772698743185462000,10.2414619140625,1.191625714302063,-10.200602531433105,2.7397818565368652
1772698743202809000,10.25880908203125,1.581655740737915,-11.452049255371094,3.3475589752197266
1772698743220156200,10.27615625,1.25144624710083,-11.375478744506836,2.964707374572754
1772698743237503200,10.293503173828125,1.3040883541107178,-10.159924507141113,2.6871397495269775
1772698743254850000,10.31085009765625,1.6701902151107788,-9.008976936340332,2.8737800121307373
1772698743272197000,10.328197021484375,1.7443677186965942,-8.403593063354492,3.3308091163635254
1772698743289544200,10.345544189453125,1.3304094076156616,-8.104490280151367,3.751945972442627
1772698743306891300,10.362891357421875,0.9355936646461487,-8.118846893310547,4.146761417388916
1772698743324238300,10.38023828125,0.7226324677467346,-8.470592498779297,4.46979284286499
1772698743341585400,10.39758544921875,1.2251251935958862,-8.824729919433594,4.536791801452637
1772698743358932200,10.41493212890625,2.1583259105682373,-8.539983749389648,3.7232320308685303
1772698743376279300,10.432279296875,2.2947168350219727,-7.606783390045166,1.9142581224441528
1772698743393626400,10.44962646484375,0.6843472719192505,-7.350750923156738,0.3852444589138031
1772698743410973400,10.466973388671875,-1.1581261157989502,-9.322437286376953,0.33020952343940735
1772698743428320300,10.4843203125,-0.7537391185760498,-11.983255386352539,0.5886343717575073
1772698743445667300,10.501667236328124,1.466800332069397,-12.77049446105957,0.8781659007072449
1772698743463014400,10.519014404296875,2.438286304473877,-11.394621849060059,1.160519003868103
1772698743480361500,10.536361572265625,2.6153552532196045,-8.96829891204834,1.9692929983139038
1772698743497708500,10.55370849609375,0.9116654396057129,-7.9968132972717285,2.4095723628997803
1772698743515055400,10.571055419921874,0.4378865361213684,-8.221738815307617,1.9908283948898315
1772698743532402400,10.58840234375,0.28953152894973755,-8.183453559875488,1.1868400573730469
1772698743549749500,10.60574951171875,-0.21774685382843018,-7.814958572387695,-0.6652047038078308
1772698743567096600,10.6230966796875,-0.8374879360198975,-8.319844245910645,-2.7038896083831787
1772698743584443600,10.640443603515624,-1.7491533756256104,-9.571290969848633,-5.111069202423096
1772698743601790500,10.65779052734375,-2.4909284114837646,-12.447463035583496,-6.041877269744873
1772698743619137500,10.675137451171874,-3.3092737197875977,-16.003198623657227,-4.874179840087891
1772698743636484600,10.692484619140625,-1.4620146751403809,-19.054046630859375,-2.3090739250183105
1772698743653831700,10.709831787109374,-0.5431707501411438,-18.862621307373047,2.8354947566986084
1772698743671178800,10.7271787109375,-1.2969099283218384,-15.481562614440918,8.34138011932373
1772698743688525600,10.744525634765624,-2.495713949203491,-11.423335075378418,11.179266929626465
1772698743705872600,10.76187255859375,-3.2590243816375732,-7.058826923370361,9.083154678344727
1772698743723219700,10.7792197265625,-0.062213387340307236,-4.809573650360107,4.591826438903809
1772698743740566800,10.79656689453125,2.967100143432617,-5.163711071014404,0.3924229145050049
1772698743757913900,10.813913818359374,4.115654945373535,-8.018348693847656,-1.5122638940811157
1772698743775260700,10.8312607421875,2.9479575157165527,-9.652647018432617,-1.97407865524292
1772698743792607700,10.848607666015624,0.44027936458587646,-8.882157325744629,-0.9954141974449158
1772698743809954800,10.865954833984375,-0.8446664214134216,-7.9657063484191895,0.8566305041313171
1772698743827302000,10.883302001953124,-0.8350951075553894,-8.331808090209961,1.9094724655151367
1772698743844649000,10.90064892578125,-0.0023928226437419653,-8.767302513122559,2.117648124694824
1772698743861995800,10.917995849609374,0.9978070259094238,-8.350951194763184,1.5146567821502686
1772698743879342800,10.9353427734375,1.978864312171936,-7.683353424072266,0.5072783827781677
1772698743896690000,10.95268994140625,2.5674986839294434,-7.384250640869141,-0.40677985548973083
1772698743914037000,10.970037109375,2.926422119140625,-7.348358154296875,-0.6364908218383789
1772698743931384000,10.987384033203124,2.8689942359924316,-7.063612461090088,0.02871387079358101
1772698743948731100,11.004731201171875,2.4598217010498047,-7.154539585113525,1.093519926071167
1772698743966078200,11.022078125,1.6917256116867065,-7.63310432434082,2.4047868251800537
1772698743983425000,11.039425048828125,2.376072883605957,-8.271987915039062,4.036691665649414
1772698744000772000,11.056772216796874,2.6488547325134277,-9.020941734313965,5.213960647583008
1772698744018119200,11.074119140625,2.581855535507202,-9.535398483276367,4.826323509216309
1772698744035466200,11.09146630859375,3.1896326541900635,-10.112068176269531,2.6871397495269775
1772698744052813300,11.108813232421875,3.7950167655944824,-10.478170394897461,1.8376877307891846
1772698744070160100,11.12616015625,4.766502857208252,-10.916056632995605,3.7806596755981445
1772698744087507200,11.143507080078125,4.436293125152588,-15.77109432220459,6.185446739196777
1772698744104854300,11.160854248046874,3.311666488647461,-17.25225067138672,5.675775527954102
1772698744122201300,11.178201416015625,-2.957528829574585,-15.376277923583984,2.1750757694244385
1772698744139548400,11.19554833984375,-3.321237802505493,-16.620546340942383,1.038485050201416
1772698744156895200,11.212895263671875,-0.5168496966362,-15.594025611877441,-0.8542376756668091
1772698744174242300,11.2302421875,-1.1485549211502075,-8.439485549926758,0.7250252366065979
1772698744191589400,11.24758935546875,-2.194218397140503,-5.517848968505859,2.2851455211639404
1772698744208936400,11.2649365234375,-1.3112667798995972,-6.503692150115967,2.225325107574463
1772698744226283500,11.282283447265625,-0.6293123364448547,-9.425328254699707,1.789831280708313
1772698744243630300,11.29963037109375,-1.0193424224853516,-10.99741268157959,0.37088751792907715
1772698744260977400,11.316977294921875,-1.1413763761520386,-12.184252738952637,-1.4452649354934692
1772698744278324500,11.334324462890624,-0.08374879509210587,-12.167503356933594,-2.5076780319213867
1772698744295671600,11.351671630859375,0.5527420043945312,-9.449256896972656,-2.7038896083831787
1772698744313018600,11.3690185546875,0.15314064919948578,-7.286144733428955,-2.0506489276885986
1772698744330365700,11.38636572265625,-1.0241280794143677,-6.580262184143066,-1.2442678213119507
1772698744347712500,11.40371240234375,-1.521835207939148,-7.7455668449401855,0.038285162299871445
1772698744365059600,11.4210595703125,-0.4331009089946747,-9.243474006652832,1.0360921621322632
1772698744382406700,11.43840673828125,0.44745782017707825,-10.17428207397461,1.4859428405761719
1772698744399753700,11.455753662109375,0.4307080805301666,-10.286744117736816,1.191625714302063
1772698744417100500,11.4731005859375,0.28235307335853577,-9.734002113342285,0.7968099117279053
1772698744434447600,11.490447509765625,0.9906286001205444,-9.104690551757812,1.0265209674835205
1772698744451794700,11.507794677734376,1.3830515146255493,-8.733802795410156,1.4404792785644531
1772698744469141800,11.525141845703125,0.8997012972831726,-8.671588897705078,1.8616160154342651
1772698744486488800,11.54248876953125,0.7872386574745178,-9.162117958068848,2.258824586868286
1772698744503835600,11.559835693359375,1.1341979503631592,-9.564111709594727,2.6775684356689453
1772698744521182700,11.5771826171875,1.3256237506866455,-9.480362892150879,2.526820659637451
1772698744538529800,11.59452978515625,1.4213366508483887,-9.274580955505371,1.94297194480896
1772698744555876900,11.611876953125,1.1509476900100708,-8.889336585998535,1.4500504732131958
1772698744573224000,11.629223876953125,1.0241280794143677,-8.542376518249512,1.337587833404541
1772698744590570800,11.64657080078125,1.062413215637207,-8.638090133666992,1.3663017749786377
1772698744607917800,11.663917724609375,1.4165509939193726,-9.193224906921387,1.1940184831619263
1772698744625265000,11.681264892578126,1.911865234375,-9.437292098999023,0.638883650302887
1772698744642612000,11.698612060546875,2.359323024749756,-9.489934921264648,0.4091726839542389
1772698744659959000,11.715958984375,2.581855535507202,-10.198209762573242,0.7728816866874695
1772698744677305900,11.733305908203125,2.3952155113220215,-10.815558433532715,1.5170495510101318
1772698744694653000,11.75065283203125,1.4404792785644531,-10.25324535369873,2.667997360229492
1772698744712000000,11.768,0.3445664644241333,-9.678967475891113,3.955335855484009
1772698744729347000,11.78534716796875,-1.100698471069336,-9.554540634155273,5.084748268127441
1772698744746694100,11.802694091796875,-1.0719845294952393,-9.937392234802246,4.809573650360107
1772698744764041000,11.820041015625,-0.5670989751815796,-10.159924507141113,4.024727821350098
1772698744781388000,11.837387939453125,-0.7345965504646301,-9.56650447845459,2.5148565769195557
1772698744798735000,11.854735107421876,-1.1988041400909424,-9.095118522644043,1.1413763761520386
1772698744816082200,11.872082275390625,-1.919043779373169,-9.080761909484863,0.7441678643226624
1772698744833429200,11.88942919921875,-1.7587246894836426,-9.078369140625,1.098305583000183
1772698744850776000,11.906776123046875,-2.3186452388763428,-9.286544799804688,2.912065267562866
1772698744868123100,11.924123046875,-2.7517459392547607,-10.526026725769043,6.187839508056641
1772698744885470200,11.94147021484375,-2.699103832244873,-11.755937576293945,9.439684867858887
1772698744902817300,11.9588173828125,-1.6247265338897705,-11.349157333374023,11.286944389343262
1772698744920164400,11.976164306640625,-0.6029912829399109,-9.65503978729248,10.188638687133789
1772698744937511200,11.99351123046875,0.14117653667926788,-9.013762474060059,7.082755088806152
1772698744954858200,12.010858154296875,0.4259224236011505,-8.614161491394043,3.9050865173339844
1772698744972205300,12.028205322265626,0.6771687865257263,-8.8438720703125,2.0673987865448
1772698744989552400,12.045552490234375,1.5625132322311401,-9.05444049835205,-0.01196411345154047
1772698745006899500,12.0628994140625,1.1988041400909424,-9.080761909484863,-1.2179467678070068
1772698745024246300,12.080246337890625,0.4331009089946747,-9.274580955505371,-0.5575276613235474
1772698745041593300,12.09759326171875,0.3900300860404968,-9.533005714416504,0.7920243144035339
1772698745058940400,12.1149404296875,0.8542376756668091,-9.884750366210938,1.8759729862213135
1772698745076287500,12.13228759765625,0.8422735929489136,-10.073782920837402,3.019742250442505
1772698745093634600,12.149634521484375,0.6652047038078308,-9.719645500183105,3.809373617172241
1772698745110981400,12.1669814453125,1.0671988725662231,-9.121439933776855,3.864408493041992
1772698745128328400,12.184328369140625,1.770688772201538,-8.599804878234863,3.146561861038208
1772698745145675500,12.201675537109375,2.3497519493103027,-8.319844245910645,2.4837498664855957
1772698745163022600,12.219022705078125,2.5076780319213867,-8.171489715576172,2.4765713214874268
1772698745180369700,12.23636962890625,2.5770699977874756,-8.14516830444336,2.550748825073242
1772698745197716700,12.253716796875,2.589034080505371,-8.178668022155762,2.65842604637146
1772698745215063600,12.2710634765625,2.6871397495269775,-8.23130989074707,2.9623143672943115
1772698745232410600,12.28841064453125,2.768495798110962,-8.257631301879883,3.2374889850616455
1772698745249757700,12.3057578125,2.7565317153930664,-8.102097511291504,3.390629768371582
1772698745267104800,12.323104736328125,2.541177749633789,-8.087740898132324,3.3308091163635254
1772698745284451800,12.340451904296875,2.359323024749756,-8.396414756774902,3.022135019302368
1772698745301798700,12.357798583984374,2.306680917739868,-8.731410026550293,2.478964328765869
1772698745319145700,12.375145751953125,2.3090739250183105,-8.944371223449707,1.9669002294540405
1772698745336492800,12.392492919921875,2.251646041870117,-8.891729354858398,1.8376877307891846
1772698745353839900,12.40983984375,2.2755744457244873,-8.595019340515137,2.045863389968872
1772698745371187000,12.42718701171875,2.4287149906158447,-8.647661209106445,2.280359983444214
1772698745388533800,12.44453369140625,2.785245656967163,-9.09272575378418,2.7397818565368652
1772698745405880800,12.461880859375,3.3308091163635254,-9.365508079528809,3.7160534858703613
1772698745423228000,12.479227783203125,3.6705899238586426,-9.205188751220703,4.962714195251465
1772698745440575000,12.496574951171874,3.4432718753814697,-8.997013092041016,6.123233318328857
1772698745457922000,12.513922119140625,3.012563705444336,-10.98305606842041,6.0610198974609375
1772698745475269000,12.53126904296875,1.2658032178878784,-17.302499771118164,4.922036170959473
1772698745492616000,12.548615966796875,0.576670229434967,-18.247665405273438,1.576870083808899
1772698745509963000,12.565962890625,1.3926228284835815,-12.270394325256348,0.11246266216039658
1772698745527310000,12.58331005859375,2.029113531112671,-9.65503978729248,0.6939185857772827
1772698745544657200,12.6006572265625,0.7920243144035339,-10.224531173706055,1.9597218036651611
1772698745562004200,12.618004150390625,-1.495514154434204,-10.760523796081543,1.6510475873947144
1772698745579351000,12.63535107421875,-3.0628130435943604,-10.334601402282715,1.3160524368286133
1772698745596698000,12.652697998046875,-3.1178479194641113,-9.58325481414795,1.550549030303955
1772698745614045200,12.670045166015624,-1.7587246894836426,-9.497113227844238,2.5938198566436768
1772698745631392300,12.687392333984375,0.39481574296951294,-9.487542152404785,3.2997024059295654
1772698745648739300,12.7047392578125,0.9379864931106567,-8.934800148010254,1.7922241687774658
1772698745666086100,12.722086181640625,0.7848458290100098,-8.669196128845215,-0.9068797826766968
1772698745683433200,12.73943310546875,0.8566305041313171,-8.898907661437988,-2.328216314315796
1772698745700780300,12.7567802734375,-0.0526420995593071,-9.614361763000488,-2.225325107574463
1772698745718127400,12.77412744140625,-0.2392822653055191,-10.286744117736816,-0.5455635786056519
1772698745735474400,12.791474365234375,0.48813581466674805,-10.047462463378906,0.9882357716560364
1772698745752821500,12.808821533203124,1.0121639966964722,-9.317651748657227,1.8616160154342651
1772698745770168300,12.826168212890625,0.5551348328590393,-8.417949676513672,2.2779672145843506
1772698745787515400,12.843515380859374,-0.3517449200153351,-7.994420528411865,2.108076810836792
1772698745804862500,12.860862548828125,-0.4043870270252228,-8.23130989074707,2.1918256282806396
1772698745822209500,12.87820947265625,0.33738797903060913,-8.865407943725586,2.4023938179016113
1772698745839556600,12.895556640625,1.0887342691421509,-9.418149948120117,2.526820659637451
1772698745856903400,12.9129033203125,1.5553346872329712,-9.667003631591797,2.768495798110962
1772698745874250500,12.93025048828125,1.521835207939148,-9.279366493225098,2.9168508052825928
1772698745891597600,12.94759765625,1.275374412536621,-8.61894702911377,2.610569477081299
1772698745908944600,12.964944580078125,1.1653046607971191,-8.305487632751465,2.1439690589904785
1772698745926291700,12.982291748046874,1.3088740110397339,-8.439485549926758,1.7635103464126587
1772698745943638500,12.999638427734375,1.7587246894836426,-9.013762474060059,1.5936198234558105
1772698745960985600,13.016985595703124,2.5052852630615234,-9.391828536987305,1.7180466651916504
1772698745978332700,13.034332763671875,2.6488547325134277,-9.042476654052734,1.8544375896453857
1772698745995679700,13.0516796875,2.4502503871917725,-8.161917686462402,1.674975872039795
1772698746013026600,13.069026611328125,1.9166508913040161,-7.798209190368652,1.0600204467773438
1772698746030373600,13.08637353515625,1.5720844268798828,-8.367700576782227,0.5694918036460876
1772698746047720700,13.103720703125,1.337587833404541,-10.114460945129395,0.28953152894973755
1772698746065067800,13.12106787109375,2.0482561588287354,-12.141181945800781,0.7680960893630981
1772698746082414800,13.138414794921875,2.706282377243042,-13.11984634399414,2.5196423530578613
1772698746099761700,13.15576171875,2.857030153274536,-11.46401309967041,4.41475772857666
1772698746117108700,13.173108642578125,1.3782658576965332,-9.521040916442871,4.651647090911865
1772698746134455800,13.190455810546876,0.24167509377002716,-8.394021987915039,3.3379876613616943
1772698746151803000,13.207802978515625,-0.4378865361213684,-8.149953842163086,1.7874385118484497
1772698746169150000,13.22514990234375,-0.3732803463935852,-8.260024070739746,-0.8805587291717529
1772698746186496800,13.242496826171875,-0.031106693670153618,-8.350951194763184,-3.4911282062530518
1772698746203843800,13.25984375,-0.8662018179893494,-9.430113792419434,-4.536791801452637
1772698746221191000,13.27719091796875,-2.2229323387145996,-12.555140495300293,-3.625126361846924
1772698746238538000,13.2945380859375,-1.7012969255447388,-16.27358627319336,-2.706282377243042
1772698746255885000,13.311885009765625,-1.6654045581817627,-18.62094497680664,1.0408778190612793
1772698746273232000,13.32923193359375,-1.820937991142273,-17.434104919433594,6.843472957611084
1772698746290579000,13.346578857421875,-2.249253273010254,-12.892528533935547,10.341779708862305
1772698746307926000,13.363926025390626,-2.282752752304077,-8.023134231567383,7.379465103149414
1772698746325273000,13.381273193359375,0.4043870270252228,-5.056034088134766,3.634697675704956
1772698746342620200,13.3986201171875,2.3258235454559326,-5.788238048553467,0.9308080077171326
1772698746359967000,13.415967041015625,3.5605201721191406,-7.982456207275391,-0.8231309652328491
1772698746377314000,13.43331396484375,3.5916268825531006,-9.128618240356445,-1.2323036193847656
1772698746394661000,13.4506611328125,1.8041882514953613,-9.401400566101074,-0.5670989751815796
1772698746412008200,13.46800830078125,-0.019142581149935722,-8.97787094116211,0.6580262184143066
1772698746429355300,13.485355224609375,-0.7034898400306702,-8.925228118896484,1.9764715433120728
1772698746446702300,13.502702392578126,0.13160525262355804,-8.745766639709473,2.280359983444214
1772698746464049200,13.520049072265625,1.3232308626174927,-8.350951194763184,1.4811571836471558
1772698746481396200,13.537396240234376,2.0817556381225586,-7.869993686676025,0.016749758273363113
1772698746498743300,13.554743408203125,2.3306093215942383,-7.841279983520508,-1.7204394340515137
1772698746516090400,13.57209033203125,2.321038007736206,-8.252845764160156,-2.778067111968994
1772698746533437400,13.5894375,1.9980069398880005,-8.48016357421875,-2.6799614429473877
1772698746550784500,13.606784423828126,1.5601203441619873,-7.798209190368652,-1.8640087842941284
1772698746568131300,13.62413134765625,1.9908283948898315,-7.530212879180908,-0.605384111404419
1772698746585478400,13.641478515625,2.1607189178466797,-7.334001541137695,0.5814558863639832
1772698746602825500,13.658825439453125,3.627519130706787,-7.247859954833984,1.789831280708313
1772698746620172500,13.676172607421876,4.323830604553223,-7.293323516845703,3.2350962162017822
1772698746637519600,13.69351953125,3.6466617584228516,-7.989634990692139,4.455435752868652
1772698746654866400,13.710866455078126,2.7972097396850586,-9.650253295898438,5.426921844482422
1772698746672213500,13.728213623046875,3.0029923915863037,-11.289337158203125,4.807180881500244
1772698746689560600,13.745560546875,4.835894584655762,-11.626725196838379,3.658625841140747
1772698746706907600,13.76290771484375,6.013163089752197,-12.787243843078613,2.8498518466949463
1772698746724254700,13.780254638671876,4.7234320640563965,-19.73600196838379,3.596412420272827
1772698746741601500,13.7976015625,3.7639100551605225,-21.25065803527832,1.098305583000183
1772698746758948600,13.814948486328126,-3.345165967941284,-15.184852600097656,-0.6699903607368469
1772698746776295700,13.832295654296875,-3.7088751792907715,-16.09651756286621,1.8352949619293213
1772698746793642800,13.849642822265626,-2.6799614429473877,-10.183853149414062,0.43549370765686035
1772698746810989800,13.86698974609375,-3.4169507026672363,-5.675775527954102,1.6055840253829956
1772698746828337000,13.8843369140625,-3.0891339778900146,-3.6083765029907227,2.5292134284973145
1772698746845683700,13.90168359375,-1.3830515146255493,-5.898307800292969,1.7539390325546265
1772698746863030800,13.91903076171875,-0.7585247755050659,-10.030712127685547,1.0648061037063599
1772698746880377900,13.9363779296875,-1.5314065217971802,-13.418949127197266,0.22013968229293823
1772698746897725000,13.953724853515626,-1.4883357286453247,-15.247065544128418,-1.0336993932724
1772698746915072000,13.971072021484375,0.1579262912273407,-11.554940223693848,-2.4646072387695312
1772698746932418800,13.988418701171875,0.5838487148284912,-7.980063438415527,-2.4646072387695312
1772698746949766000,14.005765869140625,0.23688943684101105,-6.295516490936279,-2.644068956375122
1772698746967113000,14.023113037109376,-0.7082754969596863,-5.285745143890381,-2.682354211807251
1772698746984460000,14.0404599609375,-0.9116654396057129,-6.544369697570801,-1.3256237506866455
1772698747001807000,14.05780712890625,-0.07896314561367035,-8.846264839172363,-0.05503492057323456
1772698747019154000,14.07515380859375,0.8542376756668091,-10.839486122131348,1.3423734903335571
1772698747036501000,14.0925009765625,0.698704183101654,-11.59561824798584,1.7419748306274414
1772698747053848000,14.10984814453125,0.07417750358581543,-10.939985275268555,1.6031911373138428
1772698747071195100,14.127195068359375,0.5838487148284912,-9.643074989318848,1.7611174583435059
1772698747088542200,14.144542236328125,1.5002998113632202,-8.810373306274414,2.012363910675049
1772698747105889000,14.161888916015625,1.5170495510101318,-8.752944946289062,2.392822742462158
1772698747123236000,14.179236083984375,1.1700903177261353,-9.250652313232422,3.050848960876465
1772698747140583200,14.196583251953125,1.466800332069397,-9.748359680175781,3.735196113586426
1772698747157930200,14.21393017578125,1.7204394340515137,-9.736394882202148,4.180261135101318
1772698747175277300,14.23127734375,2.117648124694824,-9.116654396057129,3.84765887260437
1772698747192624000,14.2486240234375,2.2133610248565674,-8.439485549926758,3.0652058124542236
1772698747209971200,14.26597119140625,2.0195422172546387,-7.853243827819824,2.2229323387145996
1772698747227318300,14.283318359375,1.5960127115249634,-7.635497093200684,1.2490534782409668
1772698747244665300,14.300665283203125,1.703689694404602,-7.81974458694458,0.42831525206565857
1772698747262012400,14.318012451171874,2.2157537937164307,-8.166703224182129,0.17228323221206665
1772698747279359200,14.335359130859375,2.6871397495269775,-8.798408508300781,0.6939185857772827
1772698747296706300,14.352706298828124,2.4430718421936035,-9.399007797241211,1.4979069232940674
1772698747314053400,14.370053466796875,0.9212366938591003,-9.492327690124512,2.407179594039917
1772698747331400400,14.387400390625,-0.349352091550827,-9.884750366210938,3.507878065109253
1772698747348747500,14.40474755859375,-2.416750907897949,-10.892128944396973,4.386044025421143
1772698747366094300,14.42209423828125,-2.376072883605957,-12.119647026062012,4.625326156616211
1772698747383441400,14.43944140625,-0.885344386100769,-13.323236465454102,3.972085475921631
1772698747400788500,14.45678857421875,0,-12.722638130187988,3.1345977783203125
1772698747418135600,14.474135498046875,0.10289137065410614,-11.401800155639648,1.332802176475525
1772698747435482600,14.491482666015624,-0.6891329288482666,-10.50209903717041,0.062213387340307236
1772698747452829400,14.508829345703125,-1.3926228284835815,-9.477970123291016,-0.28235307335853577
1772698747470176500,14.526176513671874,-2.359323024749756,-7.587640762329102,0.38285163044929504
1772698747487523600,14.543523681640625,-3.0891339778900146,-7.125825881958008,3.0891339778900146
1772698747504870700,14.56087060546875,-3.0628130435943604,-8.126026153564453,5.304887771606445
1772698747522217700,14.5782177734375,-2.2612173557281494,-10.100104331970215,7.690532207489014
1772698747539564500,14.595564453125,-1.459621787071228,-11.880364418029785,9.049654960632324
1772698747556911600,14.61291162109375,-1.0145567655563354,-12.516855239868164,6.781259536743164
1772698747574258700,14.6302587890625,-1.9166508913040161,-12.004791259765625,3.641875982284546
1772698747591605800,14.647605712890625,-1.4739787578582764,-10.846665382385254,1.825723648071289
1772698747608952800,14.664952880859374,0.12921242415905,-8.70508861541748,0.5790630578994751
1772698747626300000,14.6822998046875,0.2727817893028259,-7.544569969177246,0.2512463629245758
1772698747643646700,14.699646728515624,0.8638089895248413,-6.39601469039917,1.1988041400909424
1772698747660993800,14.716993896484375,1.1748759746551514,-6.38883638381958,1.828116536140442
1772698747678340900,14.7343408203125,1.466800332069397,-7.343572616577148,1.550549030303955
1772698747695688000,14.75168798828125,1.3782658576965332,-8.846264839172363,1.5601203441619873
1772698747713035000,14.769034912109374,1.1509476900100708,-10.059426307678223,1.6893328428268433
1772698747730381800,14.7863818359375,1.038485050201416,-10.188638687133789,1.9094724655151367
1772698747747729000,14.80372900390625,1.2945170402526855,-9.44447135925293,2.3808584213256836
1772698747765076000,14.821075927734375,1.9956140518188477,-8.561519622802734,2.5363919734954834
1772698747782423000,14.838423095703124,2.715853691101074,-7.850851058959961,2.4765713214874268
1772698747799770000,14.85577001953125,3.0628130435943604,-7.618747234344482,2.6153552532196045
1772698747817117000,14.873116943359374,3.0173492431640625,-7.664210796356201,3.0891339778900146
1772698747834464000,14.890464111328125,2.8283164501190186,-7.846065521240234,3.7160534858703613
1772698747851811000,14.90781103515625,2.3258235454559326,-8.059026718139648,4.417150497436523
1772698747869158100,14.925158203125,1.6917256116867065,-8.61894702911377,5.053641319274902
1772698747886505200,14.942505126953124,1.6630117893218994,-9.418149948120117,4.809573650360107
1772698747903852300,14.959852294921875,2.7661030292510986,-9.798608779907227,3.5437703132629395
1772698747921199000,14.97719921875,4.570291042327881,-8.786444664001465,2.933600664138794
1772698747938546200,14.994546142578125,4.823930263519287,-7.527820110321045,3.3643085956573486
1772698747955893200,15.011893310546874,3.6394832134246826,-7.4847493171691895,3.436093330383301
1772698747973240300,15.029240234375,2.493321180343628,-12.490533828735352,3.3954153060913086
1772698747990587400,15.04658740234375,-1.1653046607971191,-17.702102661132812,1.4979069232940674
1772698748007934200,15.063934326171875,-4.579862594604492,-21.202800750732422,1.5984054803848267
1772698748025281300,15.08128125,-4.211368083953857,-23.198415756225586,0.7106683254241943
1772698748042628400,15.09862841796875,-1.8185452222824097,-12.143574714660645,-0.763310432434082
1772698748059975400,15.115975341796876,-0.9044869542121887,-3.8500516414642334,-0.7417750358581543
1772698748077322500,15.133322509765625,-1.703689694404602,0.12681959569454193,-1.2586246728897095
1772698748094669300,15.15066943359375,-1.6534404754638672,-5.134997367858887,1.399801254272461
1772698748112016400,15.168016357421875,-2.1511476039886475,-10.296316146850586,1.2897313833236694
1772698748129363500,15.185363525390626,-1.2346965074539185,-13.830514907836914,-0.0933200865983963
1772698748146710500,15.20271044921875,-0.3565305769443512,-16.015161514282227,-0.37088751792907715
1772698748164057600,15.2200576171875,-0.27756741642951965,-11.315658569335938,-0.06699903309345245
1772698748181404700,15.23740478515625,1.1270195245742798,-6.498906135559082,-0.04546362906694412
1772698748198751700,15.254751708984376,0.8638089895248413,-4.515256404876709,0.13878370821475983
1772698748216098600,15.2720986328125,-0.11485548317432404,-6.486942291259766,1.6654045581817627
1772698748233445600,15.289445556640626,-0.49292147159576416,-8.874979019165039,2.4047868251800537
1772698748250792700,15.306792724609375,-0.019142581149935722,-10.801201820373535,2.8666014671325684
1772698748268139800,15.324139892578126,0.33738797903060913,-11.674581527709961,2.720639228820801
1772698748285486800,15.34148681640625,0.39960137009620667,-11.102697372436523,2.342573404312134
1772698748302833700,15.358833740234376,0.6173482537269592,-9.839286804199219,2.1583259105682373
1772698748320180700,15.3761806640625,1.1700903177261353,-8.740981101989746,1.947757601737976
1772698748337527800,15.39352783203125,0.9882357716560364,-8.539983749389648,1.7826528549194336
1772698748354875000,15.410875,0.5312066078186035,-8.925228118896484,1.703689694404602
1772698748372222000,15.428221923828126,0.5790630578994751,-9.241081237792969,1.8137595653533936
1772698748389568800,15.44556884765625,0.8470591902732849,-9.28893756866455,1.9381862878799438
1772698748406915800,15.462915771484376,1.0863415002822876,-8.994620323181152,1.9094724655151367
1772698748424263000,15.480262939453125,1.337587833404541,-8.623732566833496,1.6606189012527466
1772698748441610000,15.49760986328125,1.5385849475860596,-8.439485549926758,0.9571290612220764
1772698748458957000,15.51495703125,1.6055840253829956,-8.221738815307617,-0.10767702013254166
1772698748476304000,15.532303955078126,1.5720844268798828,-8.032705307006836,-0.38763725757598877
1772698748493651000,15.54965087890625,1.588834285736084,-8.24566650390625,0.25363919138908386
1772698748510998000,15.566998046875,2.2755744457244873,-8.858229637145996,0.9954141974449158
1772698748528345000,15.584344970703125,3.005385160446167,-9.370293617248535,1.5720844268798828
1772698748545692200,15.601692138671876,2.2995026111602783,-9.621540069580078,1.9956140518188477
1772698748563039000,15.6190390625,0.2847459018230438,-10.140782356262207,2.5770699977874756
1772698748580386000,15.636385986328126,-1.5433706045150757,-11.507083892822266,3.524627685546875
1772698748597733000,15.653733154296875,-2.0506489276885986,-13.335200309753418,4.295116424560547
1772698748615080200,15.671080078125,-0.9260223507881165,-13.684553146362305,4.862215518951416
1772698748632427300,15.68842724609375,-0.33499518036842346,-11.839686393737793,3.6394832134246826
1772698748649774000,15.705774169921876,-0.3517449200153351,-10.578668594360352,1.7778671979904175
1772698748667121200,15.72312109375,-0.8374879360198975,-10.013962745666504,1.1365907192230225
1772698748684468200,15.74046826171875,-1.581655740737915,-9.396614074707031,1.8592232465744019
1772698748701815300,15.757815185546875,-2.6560330390930176,-8.757730484008789,3.586841106414795
1772698748719162400,15.775162353515626,-2.68953275680542,-9.107083320617676,5.642275810241699
1772698748736509200,15.79250927734375,-2.3090739250183105,-9.705288887023926,8.116454124450684
1772698748753856300,15.809856201171876,-1.129412293434143,-10.576275825500488,10.02592658996582
1772698748771203300,15.827203369140625,-0.519242525100708,-10.188638687133789,8.85344409942627
1772698748788550400,15.84455029296875,-0.5048855543136597,-9.645467758178711,5.747560024261475
1772698748805897500,15.8618974609375,-0.31345975399017334,-9.221938133239746,3.1800613403320312
1772698748823244300,15.879244384765625,0.02392822690308094,-9.367900848388672,1.8592232465744019
1772698748840591400,15.89659130859375,0.3756731450557709,-9.387042999267578,0.9882357716560364
1772698748857938400,15.9139384765625,0.7800601720809937,-8.532805442810059,0.3158525824546814
1772698748875285500,15.931285400390625,0.23449662327766418,-7.7455668449401855,0.7657032608985901
1772698748892632600,15.948632568359375,-0.07417750358581543,-7.255038261413574,1.7778671979904175
1772698748909979600,15.965979736328125,0.6197410821914673,-6.963113784790039,2.4358935356140137
1772698748927326500,15.983326416015625,0.9451649188995361,-7.238288402557373,2.548356056213379
1772698748944673500,16.000673583984376,0.5096712112426758,-7.944170951843262,2.469393014907837
1772698748962020600,16.0180205078125,0.4905286431312561,-8.554341316223145,2.2612173557281494
1772698748979367700,16.03536767578125,0.6795616149902344,-8.683553695678711,1.9980069398880005
1772698748996714800,16.05271484375,0.9930213689804077,-8.542376518249512,1.9860427379608154
1772698749014061600,16.0700615234375,1.4069796800613403,-8.13081169128418,2.2683959007263184
1772698749031408600,16.08740869140625,1.911865234375,-7.7455668449401855,2.715853691101074
1772698749048755700,16.104755615234374,2.2396819591522217,-7.51585578918457,3.2039895057678223
1772698749066102800,16.122102783203125,2.313859462738037,-7.424928665161133,3.2350962162017822
1772698749083449900,16.139449951171876,2.1535403728485107,-7.5326056480407715,3.0077781677246094
1772698749100797000,16.156796875,2.1104695796966553,-7.999206066131592,2.8139593601226807
1772698749118143700,16.174143798828126,2.342573404312134,-8.585447311401367,2.9312076568603516
1772698749135490800,16.19149072265625,2.0410776138305664,-9.504291534423828,3.081955671310425
1772698749152838000,16.208837890625,3.1178479194641113,-10.095318794250488,3.625126361846924
1772698749170185000,16.22618505859375,3.783052682876587,-10.097711563110352,3.579662561416626
1772698749187532000,16.243531982421874,4.3070807456970215,-9.30329418182373,3.1561331748962402
1772698749204878800,16.26087890625,4.3549370765686035,-8.6907320022583,3.4169507026672363
1772698749222226000,16.278225830078124,4.661218643188477,-8.776873588562012,4.4410786628723145
1772698749239573000,16.295572998046875,4.5200419425964355,-9.698110580444336,5.041677474975586
1772698749256920000,16.312920166015626,1.9166508913040161,-14.919249534606934,5.355136871337891
1772698749274267100,16.33026708984375,-2.9838497638702393,-21.020946502685547,3.0723843574523926
1772698749291614200,16.3476142578125,-5.517848968505859,-20.15474510192871,0.9930213689804077
1772698749308961300,16.364961181640624,-0.9834501147270203,-14.065011024475098,-1.7371892929077148
1772698749326308000,16.38230810546875,-0.4091726839542389,-3.8596229553222656,-1.8352949619293213
1772698749343655200,16.3996552734375,-3.5605201721191406,-4.926821708679199,-0.16031911969184875
1772698749361002200,16.417002197265624,-3.641875982284546,-8.305487632751465,-0.24646073579788208
1772698749378349300,16.434349365234375,-2.691925525665283,-13.526626586914062,0.22971096634864807
1772698749395696400,16.4516962890625,-1.3519448041915894,-16.558332443237305,-0.27756741642951965
1772698749413043500,16.46904345703125,-1.2203395366668701,-14.500505447387695,-0.5718846321105957
1772698749430390300,16.486390380859376,-0.9092726111412048,-9.757930755615234,-0.916451096534729
1772698749447737300,16.5037373046875,1.454836130142212,-7.255038261413574,-0.9834501147270203
1772698749465084400,16.52108447265625,1.0289137363433838,-6.8482584953308105,-1.1629117727279663
1772698749482431500,16.538431396484373,-0.5383850932121277,-8.46580696105957,1.155733346939087
1772698749499778600,16.555778564453124,-0.7824530005455017,-10.25324535369873,3.170490026473999
1772698749517125400,16.57312548828125,-0.31106695532798767,-10.894521713256836,3.7663028240203857
1772698749534472400,16.590472412109374,0.8566305041313171,-9.511469841003418,3.1752755641937256
1772698749551819500,16.607819580078125,1.3112667798995972,-8.025527000427246,2.0554347038269043
1772698749569166600,16.62516650390625,0.9571290612220764,-7.384250640869141,1.277767300605774
1772698749586513700,16.642513671875,0.6604190468788147,-7.726424217224121,1.6271194219589233
1772698749603860500,16.659860595703126,0.6699903607368469,-8.47298526763916,2.1272194385528564
1772698749621207600,16.67720751953125,0.7513462901115417,-9.200403213500977,2.837887763977051
1772698749638554600,16.6945546875,0.760917603969574,-9.626325607299805,3.4911282062530518
1772698749655901700,16.711901611328123,0.9475577473640442,-9.463613510131836,3.7663028240203857
1772698749673248800,16.729248779296874,1.4476577043533325,-9.05444049835205,3.7016966342926025
1772698749690595800,16.746595947265625,2.0027925968170166,-8.57348346710205,3.5988051891326904
1772698749707942700,16.763942626953124,2.146361827850342,-8.126026153564453,3.022135019302368
1772698749725289700,16.781289794921875,1.950150489807129,-7.917850017547607,2.6297121047973633
1772698749742636800,16.79863671875,1.7276179790496826,-8.164310455322266,2.368894338607788
1772698749759983900,16.81598388671875,1.5912270545959473,-8.874979019165039,2.256431818008423
1772698749777331000,16.8333310546875,1.679761528968811,-9.851250648498535,2.368894338607788
1772698749794677800,16.850677734375,2.2325034141540527,-10.614561080932617,2.871387243270874
1772698749812024800,16.86802490234375,2.6464617252349854,-10.971092224121094,2.8977081775665283
1772698749829372000,16.885371826171873,2.991028308868408,-10.375279426574707,2.5387847423553467
1772698749846719000,16.902718994140624,3.263810157775879,-9.276973724365234,2.1607189178466797
1772698749864066000,16.920066162109375,3.0340991020202637,-8.003992080688477,2.1200408935546875
1772698749881412900,16.937412841796874,2.117648124694824,-7.0923261642456055,2.242074728012085
1772698749898760000,16.954760009765625,1.7156537771224976,-8.056633949279785,2.510071039199829
1772698749916107000,16.97210693359375,0.8638089895248413,-8.810373306274414,2.5435705184936523
1772698749933454000,16.9894541015625,0.4163511395454407,-9.363115310668945,2.5531418323516846
1772698749950801200,17.00680126953125,0.28953152894973755,-9.994820594787598,2.289931297302246
1772698749968148000,17.02414794921875,-0.5264210104942322,-9.401400566101074,0.9834501147270203
1772698749985495000,17.0414951171875,-1.9764715433120728,-8.70508861541748,-0.3206382393836975
1772698750002842000,17.058842041015627,-2.438286304473877,-8.709874153137207,-0.8614161610603333
1772698750020189200,17.076189208984374,-2.234896421432495,-9.372686386108398,-1.7084753513336182
1772698750037536300,17.093536376953125,-2.297109842300415,-11.547761917114258,-0.8470591902732849
1772698750054883000,17.110883056640624,-1.7778671979904175,-14.134403228759766,1.7324036359786987
1772698750072230400,17.12823046875,0.064606212079525,-14.902499198913574,4.139583110809326
1772698750089577200,17.1455771484375,0.13639089465141296,-14.584254264831543,6.080162525177002
1772698750106924300,17.16292431640625,-1.4117653369903564,-12.701102256774902,6.092126369476318
1772698750124271400,17.180271240234376,-1.2945170402526855,-10.475777626037598,4.838287353515625
1772698750141618400,17.197618408203127,0.5431707501411438,-8.6907320022583,3.2829527854919434
1772698750158965200,17.21496533203125,3.077169895172119,-7.530212879180908,1.703689694404602
1772698750176312300,17.232312255859377,4.362115859985352,-6.795616149902344,0.004785645287483931
1772698750193659400,17.249659423828124,2.68953275680542,-8.21695327758789,0.17946170270442963
1772698750211006500,17.26700634765625,0.8135597109794617,-8.685946464538574,0.7872386574745178
1772698750228353500,17.284353515625,0.27038896083831787,-9.221938133239746,2.007578134536743
1772698750245700600,17.30170068359375,0.3732803463935852,-9.844072341918945,1.648654818534851
1772698750263047400,17.31904736328125,0.9906286001205444,-9.291330337524414,0.4570291340351105
1772698750280394500,17.33639453125,2.03629207611084,-8.551948547363281,-0.3445664644241333
1772698750297741600,17.353741455078126,2.6799614429473877,-7.891529083251953,-1.1030912399291992
1772698750315088600,17.371088623046877,2.6273193359375,-7.762316703796387,-1.397408366203308
1772698750332435700,17.388435791015624,2.2540390491485596,-7.786244869232178,-0.397208571434021
1772698750349782800,17.40578271484375,2.148754835128784,-7.968099594116211,1.0600204467773438
1772698750367129600,17.423129638671874,2.359323024749756,-8.044670104980469,2.1822543144226074
1772698750384476700,17.4404765625,2.524427890777588,-8.178668022155762,3.0173492431640625
1772698750401823700,17.45782373046875,2.273181438446045,-8.248059272766113,3.373879909515381
1772698750419170800,17.4751708984375,1.9764715433120728,-8.274380683898926,3.555734395980835
1772698750436518000,17.492517822265626,2.895315408706665,-8.118846893310547,3.9050865173339844
1772698750453865000,17.509864990234377,3.1585259437561035,-8.176275253295898,3.8524444103240967
1772698750471211800,17.527211669921876,2.5914268493652344,-9.20279598236084,4.244867324829102
1772698750488558800,17.544558837890627,2.5698914527893066,-10.688738822937012,3.352344512939453
1772698750505906000,17.561906005859374,4.402793884277344,-11.715259552001953,3.1489546298980713
1772698750523253000,17.5792529296875,5.522634506225586,-12.035898208618164,4.7401814460754395
1772698750540600000,17.59660009765625,5.570491313934326,-13.909478187561035,6.687939167022705
1772698750557947000,17.61394677734375,1.4141582250595093,-17.55853271484375,5.295316696166992
1772698750575294000,17.6312939453125,-3.280559778213501,-17.314464569091797,-0.6915257573127747
1772698750592641000,17.64864111328125,-1.0265209674835205,-17.77388572692871,-1.9884356260299683
1772698750609988000,17.665988037109376,-2.7397818565368652,-17.888742446899414,-0.8279166221618652
1772698750627335200,17.683335205078127,-6.795616149902344,-12.323036193847656,2.4502503871917725
1772698750644682200,17.70068212890625,-2.7014968395233154,-6.838686943054199,3.1896326541900635
1772698750662030000,17.718030029296877,-0.014356935396790504,-0.08614161610603333,0.8877372145652771
1772698750679376100,17.735376220703124,-0.550349235534668,1.2849457263946533,0.5599204897880554
1772698750696723200,17.75272314453125,-1.3471591472625732,-3.735196113586426,1.3782658576965332
1772698750714070300,17.7700703125,-1.8161523342132568,-6.8171515464782715,-0.28953152894973755
1772698750731417300,17.787417236328125,-0.8614161610603333,-13.050455093383789,-1.5194423198699951
1772698750748764400,17.804764404296876,1.6917256116867065,-20.080568313598633,-2.8833513259887695
1772698750766111200,17.822111328125,0.16031911969184875,-14.167902946472168,-2.321038007736206
1772698750783458300,17.839458251953126,-1.5242279767990112,-6.467799663543701,-1.0145567655563354
1772698750800805400,17.856805419921876,-0.7752745151519775,-2.1678972244262695,-0.11006984114646912
1772698750818152400,17.87415234375,0.04307080805301666,-4.175475597381592,1.794616937637329
1772698750835499500,17.89149951171875,0.5599204897880554,-8.293522834777832,3.328416347503662
1772698750861520000,17.917519775390623,-0.3852444589138031,-11.619546890258789,4.977071285247803
1772698750878867000,17.934866943359374,-1.3495519161224365,-11.767901420593262,3.6370904445648193
1772698750896214000,17.952214111328125,-0.7393822073936462,-10.839486122131348,1.368694543838501
1772698750913561000,17.96956103515625,1.277767300605774,-9.805787086486816,0.17946170270442963
1772698750930908200,17.986908203125,2.0554347038269043,-9.229117393493652,0.7992027401924133
1772698750948255000,18.0042548828125,1.6558332443237305,-8.599804878234863,1.6893328428268433
1772698750965602000,18.02160205078125,0.6556333899497986,-8.271987915039062,2.3258235454559326
1772698750982949000,18.03894921875,0.007178467698395252,-8.654839515686035,2.7038896083831787
1772698751000296200,18.056296142578127,0.09092725813388824,-9.21715259552002,2.6464617252349854
1772698751017643300,18.073643310546874,0.5431707501411438,-9.4660062789917,2.0673987865448
1772698751034990000,18.090989990234377,0.6484549641609192,-9.678967475891113,1.0648061037063599
1772698751052337200,18.108337158203124,0.7010970115661621,-9.509077072143555,0.33020952343940735
1772698751069684200,18.125684326171875,0.9475577473640442,-9.265008926391602,0.8470591902732849
1772698751087031300,18.14303125,1.3399807214736938,-9.339186668395996,1.923829436302185
1772698751104378400,18.16037841796875,1.7228323221206665,-9.755537986755371,2.5292134284973145
1772698751121725200,18.17772509765625,2.2301106452941895,-10.626524925231934,2.691925525665283
1772698751139072500,18.195072509765627,2.1750757694244385,-11.394621849060059,2.2301106452941895
1772698751156419300,18.21241943359375,1.710868239402771,-11.619546890258789,1.9980069398880005
1772698751173766400,18.229766357421877,0.9906286001205444,-10.329814910888672,1.9142581224441528
1772698751191113500,18.247113525390624,1.2538390159606934,-9.497113227844238,2.045863389968872
1772698751208460300,18.264460205078127,1.0456634759902954,-8.772088050842285,2.5459632873535156
1772698751225807400,18.281807373046874,0.1459621787071228,-8.161917686462402,3.211168050765991
1772698751243154400,18.299154541015625,-0.5288137793540955,-8.599804878234863,3.8739798069000244
1772698751260501500,18.31650146484375,-0.6005984544754028,-9.095118522644043,3.38105845451355
1772698751277848600,18.3338486328125,-0.9068797826766968,-8.520841598510742,1.730010747909546
1772698751295195600,18.351195556640626,-0.3278166949748993,-7.922635555267334,-0.27038896083831787
1772698751312542700,18.368542724609377,-0.7034898400306702,-8.688339233398438,0.062213387340307236
1772698751329889500,18.3858896484375,-1.215553879737854,-11.516654968261719,2.610569477081299
1772698751347236600,18.403236572265627,-1.1653046607971191,-13.746766090393066,5.938985824584961
1772698751364583700,18.420583740234374,-1.1413763761520386,-14.469398498535156,8.930013656616211
1772698751381930800,18.4379306640625,-1.7778671979904175,-11.732009887695312,9.882357597351074
1772698751399277800,18.45527783203125,-1.3351950645446777,-9.525827407836914,7.475177764892578
1772698751416625000,18.472625,0.23688943684101105,-8.303094863891602,4.467400074005127
1772698751433971700,18.4899716796875,1.797009825706482,-7.659425258636475,2.63449764251709
1772698751451318800,18.50731884765625,2.691925525665283,-7.085147857666016,0.9188438653945923
1772698751468665900,18.524665771484376,1.5074782371520996,-8.188239097595215,-0.2991028428077698
1772698751486013000,18.542012939453127,1.3495519161224365,-8.350951194763184,-0.3397808074951172
1772698751503360000,18.559360107421874,1.2538390159606934,-7.910671710968018,0.727418065071106
1772698751520706800,18.576706787109377,1.397408366203308,-8.61894702911377,2.1583259105682373
1772698751538054000,18.594053955078124,1.3710874319076538,-9.865608215332031,3.046063184738159
1772698751555401000,18.61140087890625,1.3208380937576294,-10.755738258361816,3.6538400650024414
1772698751572748000,18.628748046875,1.7611174583435059,-10.679167747497559,3.6466617584228516
1772698751590095000,18.64609521484375,2.1128623485565186,-10.090533256530762,2.9599215984344482
1772698751607442200,18.663442138671876,2.5196423530578613,-9.286544799804688,2.0793628692626953
1772698751624789000,18.6807890625,3.091526746749878,-8.504091262817383,1.521835207939148
1772698751642136000,18.698135986328126,3.6059837341308594,-7.846065521240234,1.1126625537872314
1772698751659483100,18.715483154296876,3.7112679481506348,-7.381857872009277,0.8973084688186646
1772698751676830200,18.732830322265624,3.4025938510894775,-7.231110095977783,0.8685946464538574
1772698751694177300,18.75017724609375,2.806781053543091,-7.637889862060547,1.337587833404541
1772698751711524400,18.7675244140625,2.311466693878174,-8.403593063354492,1.9046868085861206
1772698751728871200,18.78487109375,2.438286304473877,-9.53061294555664,2.3234307765960693
1772698751746218200,18.80221826171875,2.1894326210021973,-10.308279991149902,2.713460922241211
1772698751763565300,18.8195654296875,1.8400806188583374,-9.226723670959473,2.5148565769195557
1772698751780912400,18.836912353515626,2.7972097396850586,-8.14516830444336,1.6582261323928833
1772698751798259500,18.854259521484376,4.500899314880371,-7.211967468261719,2.1655044555664062
1772698751815606500,18.8716064453125,5.996413707733154,-7.357929706573486,4.2592244148254395
1772698751832953600,18.88895361328125,6.422336101531982,-8.214560508728027,5.936593055725098
1772698751850300400,18.906300537109374,5.364708423614502,-10.990234375,6.245266914367676
1772698751867647500,18.9236474609375,2.256431818008423,-17.118253707885742,3.5509488582611084
1772698751884994600,18.94099462890625,-1.5720844268798828,-21.73161506652832,-0.6340979933738708
1772698751911015200,18.96701513671875,1.8687944412231445,-18.08734703063965,-2.9766714572906494
1772698751928362200,18.9843623046875,0.12203395366668701,-8.307880401611328,-1.9405791759490967
1772698751945709300,19.001709228515626,-0.9595218896865845,-3.8285162448883057,0.2560320198535919
1772698751963056000,19.01905615234375,-2.7397818565368652,-3.6442689895629883,1.7156537771224976
1772698751980403200,19.0364033203125,-2.792423963546753,-5.874379634857178,3.4193434715270996
1772698751997750300,19.053750244140623,-2.282752752304077,-8.09252643585205,3.7639100551605225
1772698752015097300,19.071097412109374,-1.423729419708252,-11.3778715133667,2.4574289321899414
1772698752032444400,19.0884443359375,-0.7968099117279053,-15.225530624389648,0.18424734473228455
1772698752049791500,19.10579150390625,0.5120640397071838,-14.852250099182129,-1.6007983684539795
1772698752067138300,19.12313818359375,0.2919243574142456,-9.671789169311523,-1.8448662757873535
1772698752084485400,19.1404853515625,-0.8997012972831726,-7.8077802658081055,-0.5982056856155396
1772698752101832400,19.15783251953125,-1.9692929983139038,-7.2574310302734375,-0.7345965504646301
1772698752119179500,19.175179443359376,-1.643869161605835,-8.142775535583496,-0.1746760457754135
1772698752136526600,19.192526611328127,-0.19142581522464752,-8.965906143188477,0.8087740540504456
1772698752153873700,19.209873779296874,0.6628118753433228,-9.358329772949219,1.6151553392410278
1772698752171220700,19.227220703125,0.23688943684101105,-9.238688468933105,1.7252250909805298
1772698752188567600,19.244567626953124,-0.5599204897880554,-9.042476654052734,1.794616937637329
1772698752205914600,19.26191455078125,-0.641276478767395,-8.987442016601562,1.9070796966552734
1772698752223261700,19.27926171875,0.04307080805301666,-9.044869422912598,1.8783657550811768
1772698752240608800,19.29660888671875,0.5527420043945312,-9.061619758605957,1.8472590446472168
1772698752257955800,19.313955810546876,0.44745782017707825,-8.975478172302246,1.794616937637329
1772698752275302700,19.331302734375,0.5383850932121277,-8.920442581176758,1.797009825706482
1772698752292649700,19.348649658203126,0.7369893789291382,-8.930013656616211,1.9932212829589844
1772698752309996800,19.365996826171877,0.9451649188995361,-8.894122123718262,2.4574289321899414
1772698752327343900,19.38334375,1.3639088869094849,-8.810373306274414,2.9359934329986572
1772698752344691000,19.40069091796875,1.820937991142273,-8.752944946289062,3.3308091163635254
1772698752362038000,19.4180380859375,2.2301106452941895,-8.650053977966309,3.428914785385132
1772698752379384800,19.435384765625,1.7324036359786987,-8.650053977966309,2.861815929412842
1772698752396732000,19.45273193359375,1.1413763761520386,-9.291330337524414,2.1846470832824707
1772698752414079000,19.470078857421875,0.8350951075553894,-10.15035343170166,2.4646072387695312
1772698752431426000,19.487426025390626,1.5984054803848267,-10.198209762573242,2.2923240661621094
1772698752448773000,19.504773193359377,2.5052852630615234,-10.00439167022705,1.4476577043533325
1772698752466120000,19.522119873046876,2.1583259105682373,-9.937392234802246,0.3756731450557709
1772698752483467000,19.539467041015627,1.1078768968582153,-9.260223388671875,0.28235307335853577
1772698752500814000,19.55681396484375,0.004785645287483931,-8.563912391662598,0.36610186100006104
1772698752518161200,19.5741611328125,-0.4905286431312561,-7.929814338684082,-0.13878370821475983
1772698752535508200,19.59150830078125,-1.062413215637207,-7.386643409729004,-1.5984054803848267
1772698752552855000,19.60885498046875,-1.9166508913040161,-8.508877754211426,-2.2636101245880127
1772698752570202000,19.6262021484375,-1.3782658576965332,-11.473584175109863,-1.098305583000183
1772698752587549200,19.643549072265625,-1.399801254272461,-13.514662742614746,0.1866401731967926
1772698752604896300,19.660896240234376,-1.3806586265563965,-14.79960823059082,1.852044701576233
1772698752622243300,19.678243408203127,-1.9932212829589844,-15.132210731506348,5.039284706115723
1772698752639590400,19.69559033203125,-1.3232308626174927,-14.476576805114746,8.075776100158691
1772698752656937200,19.712937255859377,-0.3517449200153351,-12.356535911560059,8.941978454589844
1772698752674284300,19.7302841796875,0.4450650215148926,-9.121439933776855,7.3675007820129395
1772698752691631400,19.74763134765625,1.852044701576233,-6.211767673492432,3.682554006576538
1772698752708978400,19.764978515625,3.2590243816375732,-6.898507595062256,1.2538390159606934
1772698752726325500,19.782325439453125,3.5916268825531006,-8.958727836608887,-0.08853443711996078
1772698752743672600,19.799672607421876,3.1178479194641113,-9.966106414794922,-1.160519003868103
1772698752761019600,19.81701953125,2.251646041870117,-10.305887222290039,-1.9334007501602173
1772698752778366500,19.834366455078126,1.2873386144638062,-9.743574142456055,-2.0171494483947754
1772698752795713500,19.851713623046876,0.6843472719192505,-9.509077072143555,-1.2442678213119507
1772698752813060600,19.869060546875,0.5694918036460876,-9.834501266479492,0.038285162299871445
1772698752830407700,19.88640771484375,0.8470591902732849,-10.119247436523438,0.8087740540504456
1772698752847754800,19.903754638671874,0.9499505758285522,-10.186245918273926,0.6843472719192505
1772698752865101800,19.921101806640625,0.5886343717575073,-9.963713645935059,0.16749759018421173
1772698752882448600,19.93844873046875,0.4426721930503845,-9.810572624206543,-0.7154539823532104
1772698752899795700,19.955795654296875,0.851844847202301,-9.56650447845459,-1.7228323221206665
1772698752917142800,19.973142822265626,1.6031911373138428,-8.894122123718262,-2.342573404312134
1772698752934489900,19.99048974609375,2.1032910346984863,-7.872386455535889,-1.8640087842941284
1772698752951837000,20.0078369140625,2.63449764251709,-6.821937561035156,-0.6293123364448547
1772698752969184000,20.02518408203125,2.9288148880004883,-6.285944938659668,0.5910272002220154
1772698752986530800,20.04253076171875,3.0412776470184326,-6.3601226806640625,1.552941918373108
1772698753003878000,20.0598779296875,3.211168050765991,-7.008577346801758,3.2925238609313965
1772698753021225000,20.077224853515624,2.4335005283355713,-8.422736167907715,5.048855781555176
1772698753038572000,20.094572021484375,2.3162522315979004,-9.858428955078125,5.568098068237305
1772698753055919000,20.111919189453126,3.9529430866241455,-11.0835542678833,3.8500516414642334
1772698753073266200,20.12926611328125,5.328815937042236,-12.390035629272461,3.570091485977173
1772698753090613200,20.14661328125,6.149554252624512,-14.323436737060547,5.697310924530029
1772698753107960300,20.163960205078126,5.2043890953063965,-16.309478759765625,5.670989513397217
1772698753125307100,20.18130712890625,1.703689694404602,-13.576875686645508,2.447857618331909
1772698753142654200,20.198654296875,-0.34217363595962524,-14.560325622558594,2.5842485427856445
1772698753160001300,20.216001220703124,-1.3471591472625732,-18.702301025390625,2.7421748638153076
1772698753177348400,20.233348388671875,-4.816751956939697,-19.44168472290039,1.3639088869094849
1772698753194695400,20.2506953125,-3.2135608196258545,-10.052248001098633,0.8087740540504456
1772698753212042200,20.268042236328125,-0.5000999569892883,-2.0099709033966064,-0.3756731450557709
1772698753229389300,20.285389404296875,-0.2560320198535919,2.1607189178466797,-1.1318050622940063
1772698753246736400,20.302736328125,-1.0241280794143677,-1.100698471069336,2.117648124694824
1772698753264083500,20.32008349609375,-1.8711873292922974,-4.993820667266846,2.8666014671325684
1772698753281430500,20.337430419921876,-1.6175481081008911,-8.599804878234863,1.5385849475860596
1772698753298777600,20.354777587890624,-0.7680960893630981,-13.99801254272461,-0.32303106784820557
1772698753316124700,20.372124755859375,0.11485548317432404,-19.042081832885742,-2.108076810836792
1772698753333471500,20.389471435546874,-1.7994025945663452,-14.050654411315918,-0.849452018737793
1772698753350818600,20.406818603515624,-1.0767701864242554,-7.3052873611450195,-0.6628118753433228
1772698753368165600,20.42416552734375,1.100698471069336,-3.9672999382019043,-0.7250252366065979
1772698753385512700,20.4415126953125,0.9810572862625122,-5.398207664489746,-0.18903298676013947
1772698753402859800,20.45885986328125,-0.4737788736820221,-8.489734649658203,0.5910272002220154
1772698753420206600,20.47620654296875,-0.8566305041313171,-11.255837440490723,2.2061824798583984
1772698753437553700,20.4935537109375,-0.7920243144035339,-12.509676933288574,3.019742250442505
1772698753454900700,20.510900634765626,-0.6819544434547424,-11.724830627441406,2.328216314315796
1772698753472247800,20.528247802734374,0.038285162299871445,-9.954142570495605,1.3519448041915894
1772698753489595000,20.545594970703124,1.00259268283844,-8.767302513122559,1.007378339767456
1772698753506942000,20.56294189453125,1.435693621635437,-8.391629219055176,1.184447169303894
1772698753524288800,20.580288818359374,1.3519448041915894,-8.468199729919434,1.576870083808899
1772698753541635800,20.5976357421875,1.160519003868103,-8.874979019165039,2.1104695796966553
1772698753558983000,20.61498291015625,1.100698471069336,-9.31047248840332,2.6321048736572266
1772698753576330000,20.632330078125,1.3184453248977661,-9.403793334960938,3.0891339778900146
1772698753593677000,20.649677001953126,1.5696916580200195,-9.190832138061523,3.28773832321167
1772698753611024100,20.667024169921874,1.5385849475860596,-8.642875671386719,2.7565317153930664
1772698753628371200,20.68437109375,1.3782658576965332,-8.291130065917969,1.5840486288070679
1772698753645718000,20.701718017578123,1.2681959867477417,-8.606983184814453,0.8709874153137207
1772698753663065000,20.719065185546874,1.2586246728897095,-9.193224906921387,1.0719845294952393
1772698753680412200,20.736412109375,1.2490534782409668,-10.15753173828125,1.7395820617675781
1772698753697759200,20.75375927734375,1.521835207939148,-11.255837440490723,1.9573289155960083
1772698753715106300,20.771106201171875,1.4763715267181396,-11.499905586242676,1.9908283948898315
1772698753732453000,20.788453125,0.9571290612220764,-11.176874160766602,1.8065811395645142
1772698753749800200,20.80580029296875,0.8015955686569214,-10.657631874084473,1.7635103464126587
1772698753767147300,20.823147216796876,0.7010970115661621,-9.329615592956543,1.2873386144638062
1772698753784494300,20.840494384765623,0.04546362906694412,-9.293723106384277,1.1509476900100708
1772698753801841400,20.85784130859375,-1.0121639966964722,-10.497312545776367,0.10767702013254166
1772698753819188500,20.8751884765625,-1.5912270545959473,-11.693724632263184,-1.1676974296569824
1772698753836535300,20.892535400390624,-1.8903298377990723,-11.313265800476074,-1.7084753513336182
1772698753853882400,20.90988232421875,-2.3186452388763428,-9.485149383544922,-1.9956140518188477
1772698753871229400,20.9272294921875,-1.9621145725250244,-7.788637638092041,-2.148754835128784
1772698753888576500,20.944576416015625,-1.7994025945663452,-7.659425258636475,-2.2444677352905273
1772698753905923600,20.961923583984376,-1.454836130142212,-8.059026718139648,-2.3473589420318604
1772698753923270700,20.979270751953123,-0.6891329288482666,-8.762516975402832,-1.031306505203247
1772698753940617500,20.996617431640626,0.5718846321105957,-10.533205032348633,1.9884356260299683
1772698753957964500,21.013964599609373,1.2394821643829346,-12.947563171386719,5.410171985626221
1772698753975311600,21.0313115234375,0.14835500717163086,-14.6608247756958,7.549355506896973
1772698753992658700,21.04865869140625,-1.4715858697891235,-13.313665390014648,6.680760860443115
1772698754010005800,21.066005859375,-1.9334007501602173,-10.63370418548584,4.118047714233398
1772698754027352800,21.083352783203125,-0.8422735929489136,-9.090332984924316,2.163111686706543
1772698754044700000,21.100699951171876,1.5649060010910034,-8.872586250305176,1.196411371231079
1772698754062046700,21.118046630859375,3.1920254230499268,-9.073583602905273,0.6652047038078308
1772698754079393800,21.135393798828126,3.3882367610931396,-9.757930755615234,0.2105683982372284
1772698754096740900,21.152740966796873,2.194218397140503,-10.289137840270996,0.18424734473228455
1772698754114088000,21.170087890625,0.8566305041313171,-10.009177207946777,0.5886343717575073
1772698754131435000,21.18743505859375,0.3445664644241333,-9.56889820098877,1.246660590171814
1772698754148782000,21.204781982421874,0.6939185857772827,-9.135796546936035,1.6079767942428589
1772698754166129000,21.22212890625,1.306481122970581,-8.530412673950195,1.6055840253829956
1772698754183476000,21.23947607421875,1.9286150932312012,-7.776673793792725,1.2490534782409668
1772698754200823000,21.256822998046875,2.6775684356689453,-7.0923261642456055,0.7824530005455017
1772698754218170000,21.274170166015626,3.38105845451355,-6.539584159851074,0.5072783827781677
1772698754235517200,21.29151708984375,3.469592809677124,-6.467799663543701,0.4666004180908203
1772698754252864300,21.3088642578125,2.957528829574585,-6.9822564125061035,1.129412293434143
1772698754270211300,21.32621142578125,2.431107759475708,-7.822137355804443,2.610569477081299
1772698754287558100,21.34355810546875,2.4885356426239014,-8.63330364227295,4.151547431945801
1772698754304905200,21.3609052734375,1.9525432586669922,-9.944570541381836,4.543970108032227
1772698754322252300,21.378252197265624,2.2851455211639404,-11.308480262756348,3.6993038654327393
1772698754339599400,21.395599365234375,3.1824541091918945,-11.729616165161133,1.8592232465744019
1772698754356946400,21.412946533203126,4.768895626068115,-11.322836875915527,0.5575276613235474
1772698754374293500,21.43029345703125,6.027520179748535,-11.899506568908691,0.9595218896865845
1772698754391640600,21.447640625,5.656632900238037,-13.63191032409668,2.3330020904541016
1772698754408987400,21.4649873046875,1.155733346939087,-12.648460388183594,1.3208380937576294
1772698754426334500,21.48233447265625,-1.9214365482330322,-12.902099609375,1.2275179624557495
1772698754443681500,21.499681640625,-2.148754835128784,-15.450455665588379,2.2947168350219727
1772698754461028600,21.517028564453124,-4.074976921081543,-20.415563583374023,2.8761727809906006
1772698754478375700,21.534375732421875,-5.498706340789795,-15.0484619140625,1.5696916580200195
1772698754495722800,21.55172265625,-2.469393014907837,-7.0061845779418945,0.5000999569892883
1772698754513069600,21.569069580078125,-0.1986042857170105,-1.3232308626174927,-0.8590233325958252
1772698754530416600,21.586416748046876,0.09571290761232376,-0.11246266216039658,-1.0121639966964722
1772698754547763700,21.603763671875,-0.19381862878799438,-3.7663028240203857,-0.38763725757598877
1772698754565110800,21.62111083984375,-1.698904037475586,-6.723831653594971,-1.3830515146255493
1772698754582457900,21.638457763671877,-2.7565317153930664,-11.564512252807617,-2.431107759475708
1772698754599805000,21.655804931640624,-0.7322037220001221,-17.723636627197266,-2.940778970718384
1772698754617151700,21.67315185546875,0.8063812255859375,-14.847464561462402,-1.397408366203308
1772698754634498800,21.690498779296874,-0.6245267391204834,-8.851051330566406,0.09092725813388824
1772698754651846000,21.707845947265625,-0.5288137793540955,-5.4173502922058105,1.3495519161224365
1772698754669193000,21.72519287109375,0.0526420995593071,-5.733202934265137,2.234896421432495
1772698754686540000,21.7425400390625,-0.2392822653055191,-8.14516830444336,2.2325034141540527
1772698754703887000,21.75988720703125,-0.22013968229293823,-10.195816993713379,2.7254250049591064
1772698754721234200,21.777234130859377,0.2632105052471161,-11.820544242858887,3.3332018852233887
1772698754738581000,21.7945810546875,0.37806597352027893,-12.000005722045898,3.146561861038208
1772698754755928000,21.811927978515627,0.4785645306110382,-10.755738258361816,2.132004976272583
1772698754773275100,21.829275146484374,1.1940184831619263,-9.55214786529541,1.3304094076156616
1772698754790622200,21.846622314453125,1.8687944412231445,-8.85344409942627,1.196411371231079
1772698754807969300,21.86396923828125,2.069791555404663,-8.664410591125488,1.490728497505188
1772698754825316400,21.88131640625,2.2205393314361572,-8.48016357421875,2.100898265838623
1772698754842663200,21.8986630859375,2.713460922241211,-8.154739379882812,2.825923442840576
1772698754860010200,21.91601025390625,3.524627685546875,-7.63310432434082,3.1417760848999023
1772698754877357300,21.933357421875,4.1970109939575195,-7.144968509674072,3.014956474304199
1772698754894704400,21.950704345703127,4.039084434509277,-6.778866767883301,2.423929452896118
1772698754912051500,21.968051513671874,3.4887354373931885,-7.3746795654296875,2.170290231704712
1772698754929398500,21.9853984375,2.9862427711486816,-8.599804878234863,2.1822543144226074
1772698754946745300,22.002745361328124,2.4287149906158447,-9.28893756866455,2.1104695796966553
1772698754964092400,22.020092529296875,0.973878800868988,-9.128618240356445,2.062613010406494
1772698754981439500,22.037439453125,-0.6771687865257263,-8.647661209106445,1.8041882514953613
1772698754998786600,22.05478662109375,-1.9046868085861206,-8.920442581176758,2.4095723628997803
1772698755016133600,22.072133544921876,-1.6582261323928833,-10.652846336364746,3.0412776470184326
