time,seconds_elapsed,z,y,x
1772541033100667000,0.2176669921875,0.046845000237226486,-0.025227999314665794,-0.0004079999926034361
1772541033110576600,0.22757666015625,0.046845000237226486,-0.025227999314665794,-0.0004079999926034361
1772541033120486100,0.237486083984375,0.046845000237226486,-0.025227999314665794,-0.0004079999926034361
1772541033130396400,0.247396484375,0.046845000237226486,-0.025227999314665794,-0.0004079999926034361
1772541033140306200,0.25730615234375,0.046845000237226486,-0.025227999314665794,-0.0004079999926034361
1772541033150216200,0.26721630859375,0.046845000237226486,-0.025227999314665794,-0.0004079999926034361
1772541033160126000,0.2771259765625,0.046845000237226486,-0.025227999314665794,-0.0004079999926034361
1772541033170035700,0.28703564453125,0.046845000237226486,-0.025227999314665794,-0.0004079999926034361
1772541033179945700,0.29694580078125,0.046845000237226486,-0.025227999314665794,-0.0004079999926034361
1772541033189855500,0.30685546875,0.046845000237226486,-0.025227999314665794,-0.0004079999926034361
1772541033199765200,0.31676513671875,0.046845000237226486,-0.025227999314665794,-0.0004079999926034361
1772541033209675300,0.32667529296875,0.046845000237226486,-0.025227999314665794,-0.0004079999926034361
1772541033219585300,0.336585205078125,0.046845000237226486,-0.025227999314665794,-0.0004079999926034361
1772541033229495000,0.3464951171875,0.046845000237226486,-0.025227999314665794,-0.0004079999926034361
1772541033239404800,0.35640478515625,0.046845000237226486,-0.025227999314665794,-0.0004079999926034361
1772541033249314800,0.366314697265625,0.046845000237226486,-0.025227999314665794,-0.0004079999926034361
1772541033259224600,0.376224609375,-0.1573069989681244,-0.35117700695991516,0.08615700155496597
1772541033269134600,0.386134521484375,-0.47848600149154663,-0.24863000214099884,-0.06444200128316879
1772541033279044400,0.39604443359375,-0.5207390189170837,0.13782399892807007,-0.33514100313186646
1772541033288954000,0.4059541015625,-0.13699400424957275,0.6179379820823669,-0.770160973072052
1772541033298864000,0.415864013671875,0.08236599713563919,1.1502070426940918,-0.5933780074119568
1772541033308774100,0.425774169921875,0.14414900541305542,1.2368719577789307,-0.016742000356316566
1772541033318684000,0.435683837890625,-0.041019000113010406,0.8275740146636963,0.5112339854240417
1772541033328593700,0.44559375,-0.1933870017528534,0.44584399461746216,0.6867499947547913
1772541033338503700,0.455503662109375,-0.820510983467102,0.4292129874229431,0.20360299944877625
1772541033348413400,0.465413330078125,-1.1409109830856323,0.5536559820175171,0.03111100010573864
1772541033358323500,0.475323486328125,-0.9828259944915771,0.5768560171127319,0.1512639969587326
1772541033368233200,0.485233154296875,-0.8205310106277466,0.47920000553131104,0.2334980070590973
1772541033378143000,0.49514306640625,-0.9066449999809265,0.35777100920677185,0.2107820063829422
1772541033388053000,0.505052978515625,-0.4911609888076782,0.1759359985589981,0.3770410120487213
1772541033397962800,0.514962646484375,0.07994800060987473,0.18420200049877167,0.43331098556518555
1772541033407872800,0.524872802734375,0.04414600133895874,0.3252579867839813,0.283829003572464
1772541033417782800,0.53478271484375,-0.29143399000167847,0.3860189914703369,0.04602799937129021
1772541033427692300,0.5446923828125,-1.0811699628829956,0.48391199111938477,-0.578561007976532
1772541033437602300,0.554602294921875,-1.4583189487457275,0.5094760060310364,-0.5503190159797668
1772541033447512300,0.56451220703125,-1.2821249961853027,0.05575999990105629,0.23212899267673492
1772541033457422000,0.574422119140625,-0.5982229709625244,-0.18856999278068542,0.7349439859390259
1772541033467332000,0.58433203125,0.7573400139808655,0.9285249710083008,1.90658700466156
1772541033477241900,0.594241943359375,-0.5735849738121033,1.7045270204544067,2.1805059909820557
1772541033487151600,0.604151611328125,-2.094904899597168,0.9237679839134216,1.1018879413604736
1772541033497061600,0.6140615234375,-2.6383540630340576,-0.35696399211883545,0.5336729884147644
1772541033506971400,0.623971435546875,-2.3679840564727783,-1.1733839511871338,0.9090200066566467
1772541033516881200,0.633881103515625,-1.8406540155410767,-1.1971559524536133,0.8203129768371582
1772541033526791400,0.64379150390625,-1.1382739543914795,-0.9714530110359192,0.22051399946212769
1772541033536701200,0.653701171875,-0.40238600969314575,-0.9673010110855103,-0.3116460144519806
1772541033546611000,0.66361083984375,-0.28997600078582764,-0.8659160137176514,-0.06543400138616562
1772541033556520700,0.673520751953125,-0.3744699954986572,-0.11352799832820892,1.555770993232727
1772541033566430700,0.6834306640625,-1.3705919981002808,0.2116989940404892,1.5218299627304077
1772541033576340500,0.693340576171875,-2.5648999214172363,-0.11177399754524231,1.3516559600830078
1772541033586250200,0.703250244140625,-3.3207650184631348,-0.404446005821228,0.9898939728736877
1772541033596160500,0.713160400390625,-3.0405259132385254,-0.69234699010849,0.09898900240659714
1772541033606070300,0.7230703125,-2.4080119132995605,-1.007565975189209,-0.5567280054092407
1772541033615980000,0.73297998046875,-1.800631046295166,-1.3867820501327515,-0.08252699673175812
1772541033625889800,0.742889892578125,-1.1524200439453125,-1.7463730573654175,0.6449009776115417
1772541033635799800,0.7527998046875,-0.9043239951133728,-1.5468839406967163,0.7719550132751465
1772541033645709800,0.762709716796875,-1.086298942565918,-1.3203949928283691,0.6781539916992188
1772541033655619600,0.77261962890625,-1.1240030527114868,-1.52012300491333,0.7077739834785461
1772541033665529300,0.782529296875,-1.0773719549179077,-1.7307900190353394,1.0915499925613403
1772541033675439000,0.792439208984375,-0.7954260110855103,-1.4657959938049316,2.2546770572662354
1772541033685349000,0.80234912109375,-0.9094060063362122,-1.3017630577087402,3.8135039806365967
1772541033695259000,0.8122587890625,-2.400131940841675,-1.3280689716339111,4.650477886199951
1772541033705169000,0.8221689453125,-3.944561004638672,-1.1486890316009521,4.497432231903076
1772541033715078700,0.83207861328125,-3.0065441131591797,-1.0613800287246704,4.284494876861572
1772541033724988700,0.84198876953125,-1.2538260221481323,-1.2918239831924438,3.3886990547180176
1772541033734898400,0.8518984375,0.47549301385879517,-1.777184009552002,1.6583470106124878
1772541033744808200,0.86180810546875,1.9123040437698364,-2.0276710987091064,-0.16541700065135956
1772541033754718500,0.871718505859375,2.7799019813537598,-1.349174976348877,-1.6066499948501587
1772541033764628200,0.881628173828125,3.3701651096343994,-1.1998330354690552,-1.967782974243164
1772541033774538200,0.891538330078125,2.6405279636383057,-1.4704760313034058,-1.5522630214691162
1772541033784448000,0.901447998046875,1.0587069988250732,-0.9072530269622803,-1.4607499837875366
1772541033794357800,0.911357666015625,0.1323930025100708,-0.21090799570083618,-0.9528110027313232
1772541033804267800,0.921267822265625,0.42854800820350647,0.1904350072145462,0.013295999728143215
1772541033814177500,0.931177490234375,0.8512060046195984,0.30480900406837463,0.6095150113105774
1772541033824087300,0.94108740234375,0.7987300157546997,0.3618769943714142,0.5116320252418518
1772541033833997300,0.950997314453125,0.44229599833488464,0.3716059923171997,0.0758029967546463
1772541033843907000,0.960906982421875,0.8120629787445068,0.6296499967575073,-0.3681949973106384
1772541033853816800,0.97081689453125,1.5742520093917847,0.7813689708709717,-0.6613860130310059
1772541033863726800,0.980726806640625,1.9827560186386108,0.8272969722747803,-1.2820719480514526
1772541033873636900,0.990636962890625,2.180675983428955,0.7570899724960327,-1.9155950546264648
1772541033883546600,1.000546630859375,1.9780290126800537,0.8206869959831238,-2.1679000854492188
1772541033893456600,1.01045654296875,1.9862569570541382,1.1668939590454102,-2.1634740829467773
1772541033903366400,1.020366455078125,2.4704670906066895,1.4609589576721191,-2.04921293258667
1772541033913276200,1.030276123046875,2.896630048751831,1.6174869537353516,-1.779468059539795
1772541033923186200,1.040186279296875,2.973012924194336,1.6383049488067627,-1.754533052444458
1772541033933096000,1.050095947265625,2.4476230144500732,1.5300920009613037,-1.9765150547027588
1772541033943006000,1.060005859375,1.6511269807815552,1.5571279525756836,-1.9383560419082642
1772541033952915700,1.069915771484375,1.0502359867095947,1.5500320196151733,-1.4908779859542847
1772541033962825500,1.079825439453125,0.41403600573539734,1.4428980350494385,-0.9713410139083862
1772541033972735500,1.089735595703125,-0.08082500100135803,1.3295389413833618,-0.9944189786911011
1772541033982645200,1.099645263671875,0.4307590126991272,1.2246439456939697,-0.8656259775161743
1772541033992555300,1.10955517578125,1.5160349607467651,1.3867969512939453,-0.5859010219573975
1772541034002465300,1.11946533203125,2.5488789081573486,1.7541979551315308,-1.0976300239562988
1772541034012375000,1.129375,3.1793410778045654,1.7186249494552612,-1.7708690166473389
1772541034022284800,1.139284912109375,3.022731065750122,1.5309230089187622,-2.0211799144744873
1772541034032194800,1.14919482421875,2.3041980266571045,1.3859740495681763,-2.067081928253174
1772541034042104600,1.1591044921875,1.3687410354614258,1.1862330436706543,-2.013582944869995
1772541034052014300,1.169014404296875,0.7204999923706055,0.9383770227432251,-1.8279600143432617
1772541034061924400,1.17892431640625,0.33518001437187195,0.6887580156326294,-1.4026429653167725
1772541034071834000,1.188834228515625,0.07748900353908539,0.6071360111236572,-0.7249619960784912
1772541034081744100,1.198744140625,0.4355410039424896,0.7407190203666687,-0.3853130042552948
1772541034091654000,1.20865380859375,1.0035070180892944,0.6778560280799866,-0.2643499970436096
1772541034101564000,1.21856396484375,1.2005929946899414,0.5104629993438721,-0.2994399964809418
1772541034111473700,1.2284736328125,0.9613770246505737,0.42172399163246155,-0.47660601139068604
1772541034121383700,1.2383837890625,0.44944000244140625,0.3099670112133026,-0.42453399300575256
1772541034131293400,1.24829345703125,-0.024329999461770058,0.012695999816060066,-0.010417000390589237
1772541034141203500,1.258203369140625,-0.36475300788879395,-0.25470200181007385,0.5139949917793274
1772541034151113200,1.26811328125,-0.44203901290893555,-0.32798099517822266,0.9597030282020569
1772541034161023000,1.27802294921875,-0.3682200014591217,-0.4115369915962219,1.1070890426635742
1772541034170933000,1.28793310546875,-0.41951701045036316,-0.5134789943695068,1.1150380373001099
1772541034180842800,1.2978427734375,-0.6172699928283691,-0.6652219891548157,1.0891410112380981
1772541034190752500,1.30775244140625,-0.9702119827270508,-0.843878984451294,1.2464699745178223
1772541034200662500,1.31766259765625,-1.4709500074386597,-0.9354199767112732,1.334678053855896
1772541034210572300,1.327572265625,-1.867434024810791,-1.068572998046875,1.180124044418335
1772541034220482300,1.337482421875,-2.1883769035339355,-1.3692229986190796,0.9975169897079468
1772541034230392000,1.34739208984375,-2.681272029876709,-1.5988550186157227,0.9980900287628174
1772541034240301800,1.3573017578125,-2.895817995071411,-1.6962339878082275,1.0704760551452637
1772541034250211800,1.3672119140625,-2.8286070823669434,-1.7002049684524536,1.3320300579071045
1772541034260121900,1.377121826171875,-2.358638048171997,-1.7065600156784058,2.1177279949188232
1772541034270031600,1.387031494140625,-1.6658480167388916,-1.6134649515151978,2.5562679767608643
1772541034279941600,1.396941650390625,-1.0287270545959473,-1.4123140573501587,2.4003520011901855
1772541034289851400,1.406851318359375,-0.4192019999027252,-1.1458430290222168,2.0578219890594482
1772541034299761200,1.41676123046875,0.7781620025634766,-0.8217129707336426,1.7210060358047485
1772541034309671200,1.426671142578125,1.4272910356521606,-0.9661809802055359,1.3491770029067993
1772541034319581000,1.436580810546875,1.0535060167312622,-1.130769968032837,0.613303005695343
1772541034329490700,1.44649072265625,0.17527300119400024,-1.2950129508972168,-0.16519899666309357
1772541034339400700,1.456400634765625,-0.7140070199966431,-1.63898503780365,-0.6822500228881836
1772541034349310500,1.466310546875,-1.5508450269699097,-1.9496209621429443,-0.9678339958190918
1772541034359220200,1.47622021484375,-2.115679979324341,-2.0225419998168945,-1.0232880115509033
1772541034369130200,1.486130126953125,-2.3317439556121826,-1.9694839715957642,-0.9588720202445984
1772541034379040000,1.4960400390625,-1.9117980003356934,-2.0733089447021484,-0.5902799963951111
1772541034388950000,1.505949951171875,-1.2815630435943604,-1.9687830209732056,-0.2739729881286621
1772541034398860000,1.515860107421875,-0.4238030016422272,-1.8944569826126099,-0.1309020072221756
1772541034408769800,1.525769775390625,-0.08752699941396713,-1.442275047302246,-0.45781099796295166
1772541034418679600,1.535679443359375,0.2668069899082184,-1.3712550401687622,-0.9326679706573486
1772541034428589600,1.545589599609375,0.7917320132255554,-1.3102819919586182,-1.5893419981002808
1772541034438499300,1.555499267578125,0.8031100034713745,-1.4228960275650024,-2.2948250770568848
1772541034448409000,1.5654091796875,0.41207000613212585,-1.905040979385376,-2.728382110595703
1772541034458319000,1.575319091796875,-0.42994698882102966,-1.9690680503845215,-2.8902060985565186
1772541034468228900,1.585228759765625,-1.1914130449295044,-1.722195029258728,-2.775333881378174
1772541034478138600,1.595138671875,-1.411689043045044,-1.2908300161361694,-2.844943046569824
1772541034488048600,1.605048583984375,-0.478751003742218,-1.1428179740905762,-3.5730319023132324
1772541034497958400,1.61495849609375,0.5739520192146301,-1.1056599617004395,-4.561530113220215
1772541034507868200,1.6248681640625,1.6969560384750366,-0.6865500211715698,-6.202270030975342
1772541034517778400,1.6347783203125,2.211682081222534,-0.6260520219802856,-7.1190619468688965
1772541034527688200,1.644688232421875,2.4698259830474854,-0.7546730041503906,-5.522134780883789
1772541034537598000,1.654597900390625,2.501981019973755,-0.7676460146903992,-3.3876540660858154
1772541034547508000,1.664508056640625,3.66196608543396,0.006477000191807747,-0.9046059846878052
1772541034557417700,1.674417724609375,5.924483776092529,1.1469680070877075,1.7505580186843872
1772541034567327500,1.684327392578125,9.65560245513916,2.8911049365997314,3.9364500045776367
1772541034577237500,1.694237548828125,11.227787971496582,4.303709983825684,3.6372718811035156
1772541034587147300,1.704147216796875,8.605012893676758,4.5545148849487305,1.3368090391159058
1772541034597057300,1.714057373046875,4.842927932739258,3.6763548851013184,0.1196260005235672
1772541034606967000,1.723967041015625,2.2292098999023438,2.379448890686035,0.09412900358438492
1772541034616876800,1.733876708984375,1.380789041519165,1.3867069482803345,0.7184979915618896
1772541034626786800,1.743786865234375,0.4785490036010742,0.7775869965553284,1.976261019706726
1772541034636696800,1.75369677734375,-0.5872780084609985,1.0630459785461426,3.201724052429199
1772541034646606600,1.763606689453125,-1.2777730226516724,1.463083028793335,4.407320022583008
1772541034656516600,1.7735166015625,-0.5490900278091431,2.285984992980957,5.070265769958496
1772541034666426400,1.78342626953125,0.7235519886016846,2.502626895904541,3.9318299293518066
1772541034676336400,1.79333642578125,1.8523609638214111,2.0419609546661377,1.9404289722442627
1772541034686246100,1.80324609375,2.311671018600464,1.3923619985580444,-0.6231480240821838
1772541034696156200,1.81315625,1.55997896194458,0.6276819705963135,-2.4727649688720703
1772541034706066200,1.823066162109375,-0.5204560160636902,0.07087600231170654,-2.3576159477233887
1772541034715975700,1.8329755859375,-2.714898109436035,-0.028863999992609024,-0.813385009765625
1772541034725885700,1.8428857421875,-2.899293899536133,-0.28248998522758484,-0.6332539916038513
1772541034735795700,1.852795654296875,-1.627105951309204,-0.5196599960327148,-1.6200809478759766
1772541034745705200,1.862705322265625,-0.6186490058898926,-0.48824799060821533,-3.536492109298706
1772541034755615200,1.872615234375,0.03474700078368187,-0.47920799255371094,-5.472305774688721
1772541034765525200,1.882525146484375,0.7855820059776306,-0.36876100301742554,-6.632757186889648
1772541034775435000,1.89243505859375,1.7373590469360352,-0.6290180087089539,-6.196026802062988
1772541034785344800,1.9023447265625,2.2810211181640625,-1.0199869871139526,-4.444900989532471
1772541034795254800,1.9122548828125,2.3329720497131348,-0.8782299757003784,-2.630803108215332
1772541034805164500,1.92216455078125,1.969346046447754,-1.30485200881958,-2.181514024734497
1772541034815074300,1.93207421875,1.4238749742507935,-1.477789044380188,-0.524744987487793
1772541034824984300,1.941984375,1.007688045501709,-1.0619139671325684,1.485084056854248
1772541034834894000,1.95189404296875,1.4704780578613281,-0.7084710001945496,2.324193000793457
1772541034844803800,1.961803955078125,2.302299976348877,-0.32341399788856506,1.37649405002594
1772541034854713900,1.9717138671875,2.901453971862793,-0.2682200074195862,-0.6717770099639893
1772541034864623600,1.98162353515625,3.468851089477539,0.1485140025615692,-2.2686779499053955
1772541034874533600,1.99153369140625,2.673114061355591,0.146479994058609,-1.784993052482605
1772541034884443400,2.001443359375,2.406332015991211,0.12746299803256989,-2.7226169109344482
1772541034894353400,2.011353515625,3.0399770736694336,0.37530800700187683,-4.6608147621154785
1772541034904263200,2.02126318359375,4.106606960296631,1.058223009109497,-6.099853992462158
1772541034914173200,2.031173095703125,3.8721508979797363,0.7008079886436462,-4.246401786804199
1772541034924083000,2.0410830078125,2.261185884475708,0.1956930011510849,-1.573544979095459
1772541034933992700,2.05099267578125,-1.5241210460662842,-0.08131500333547592,2.3838210105895996
1772541034943902700,2.06090283203125,-3.3564419746398926,1.2155460119247437,2.764472007751465
1772541034953812700,2.070812744140625,-0.7262870073318481,1.8727530241012573,1.8480490446090698
1772541034963722500,2.080722412109375,1.6779359579086304,1.7629380226135254,1.5476460456848145
1772541034973632300,2.09063232421875,1.3107830286026,1.6086349487304688,1.7688050270080566
1772541034983542300,2.100542236328125,0.24856600165367126,3.22245192527771,1.2414029836654663
1772541034993452000,2.1104521484375,-1.3445030450820923,2.810573101043701,0.8366870284080505
1772541035003361800,2.12036181640625,-0.39765799045562744,1.8282719850540161,0.9430249929428101
1772541035013272000,2.13027197265625,-1.394858956336975,1.7776060104370117,0.8583459854125977
1772541035023181800,2.140181884765625,-0.5037400126457214,1.3411870002746582,1.2685710191726685
1772541035033091600,2.150091552734375,0.8809390068054199,2.0067338943481445,0.6772329807281494
1772541035043001600,2.160001708984375,2.0101749897003174,2.8069140911102295,0.170414999127388
1772541035052911400,2.169911376953125,1.080711007118225,3.60223388671875,-0.44319799542427063
1772541035062821000,2.179821044921875,1.6753829717636108,2.2129271030426025,-0.9177709817886353
1772541035072731100,2.189731201171875,1.7203270196914673,0.4583030045032501,-0.4027549922466278
1772541035082641000,2.199640869140625,-0.0764480009675026,-2.2212119102478027,2.0347890853881836
1772541035092550700,2.209550537109375,-1.0537140369415283,-1.2767369747161865,2.3867509365081787
1772541035102461000,2.2194609375,-1.7778700590133667,-0.17251500487327576,3.531035900115967
1772541035112370400,2.229370361328125,-1.3180910348892212,-0.07794199883937836,4.571689128875732
1772541035122280400,2.239280517578125,-1.561561942100525,-0.08524800091981888,4.95410680770874
1772541035132190500,2.2491904296875,-2.0118770599365234,-2.387295961380005,5.81853723526001
1772541035142100200,2.259100341796875,-2.0908679962158203,-3.37308406829834,5.178989887237549
1772541035152010000,2.269010009765625,-0.7247350215911865,-3.4358839988708496,3.706990957260132
1772541035161920000,2.278919921875,0.9655629992485046,-3.732696056365967,2.0321669578552246
1772541035171829800,2.288829833984375,1.6241190433502197,-4.8902740478515625,1.2231190204620361
1772541035181739800,2.29873974609375,1.3291150331497192,-5.23712682723999,0.02721099928021431
1772541035191649500,2.3086494140625,0.4699310064315796,-5.731015205383301,-0.8084070086479187
1772541035201559300,2.318559326171875,-0.03074900060892105,-5.965796947479248,-1.1709049940109253
1772541035211469300,2.32846923828125,-0.04237600043416023,-5.421178817749023,-1.1825120449066162
1772541035221379300,2.33837939453125,0.15219999849796295,-4.75341796875,-0.43178799748420715
1772541035231289000,2.3482890625,0.08703300356864929,-3.9747440814971924,0.9789950251579285
1772541035241199000,2.35819921875,0.007876000367105007,-3.5792789459228516,2.291192054748535
1772541035251108900,2.36810888671875,-0.2512969970703125,-3.4635159969329834,2.8819210529327393
1772541035261018600,2.3780185546875,-0.6763839721679688,-3.265117883682251,3.06125807762146
1772541035270928600,2.3879287109375,-1.0128209590911865,-3.2798919677734375,2.733556032180786
1772541035280838400,2.39783837890625,-1.554306983947754,-3.2047219276428223,1.9631930589675903
1772541035290748200,2.407748046875,-1.7717909812927246,-3.043704032897949,0.6150310039520264
1772541035300658200,2.417658203125,-2.0650060176849365,-2.710252046585083,-0.16603399813175201
1772541035310568000,2.42756787109375,-1.8697320222854614,-2.3842968940734863,-1.0033990144729614
1772541035320477700,2.437477783203125,-0.5353890061378479,-1.9389959573745728,-1.0763349533081055
1772541035330387700,2.4473876953125,-0.12327100336551666,-1.08775794506073,-0.19606299698352814
1772541035340297700,2.457297607421875,0.34006500244140625,-0.42598098516464233,0.7078539729118347
1772541035350207500,2.46720751953125,-0.0687049999833107,0.1799120008945465,1.3995319604873657
1772541035360117500,2.477117431640625,-0.5885180234909058,0.4826030135154724,1.463866949081421
1772541035370027300,2.48702734375,0.2912920117378235,0.7433040142059326,0.3140009939670563
1772541035379937300,2.496937255859375,0.14654000103473663,0.8355910181999207,-1.1746540069580078
1772541035389847000,2.506846923828125,1.2166160345077515,0.7648119926452637,-2.161515951156616
1772541035399757000,2.516757080078125,0.36440399289131165,0.8733909726142883,-2.2296080589294434
1772541035409666800,2.526666748046875,-3.011559009552002,0.7299389839172363,-2.0380399227142334
1772541035419576600,2.53657666015625,-2.174717903137207,0.1989080011844635,-1.9053879976272583
1772541035429486800,2.54648681640625,-0.9350510239601135,0.38738301396369934,-2.0681231021881104
1772541035439396600,2.556396728515625,-1.914389967918396,0.9949340224266052,-2.110059976577759
1772541035449306400,2.566306396484375,-0.7922899723052979,1.35822594165802,-2.254776954650879
1772541035459216400,2.57621630859375,1.5873719453811646,1.6381720304489136,-2.95054292678833
1772541035469126100,2.586126220703125,2.7112960815429688,1.7249579429626465,-3.586308002471924
1772541035479036200,2.5960361328125,2.519345998764038,1.8561359643936157,-4.464460849761963
1772541035488946000,2.60594580078125,2.6520071029663086,1.2468249797821045,-5.13789176940918
1772541035498855700,2.615855712890625,0.9255589842796326,0.5797529816627502,-5.082793235778809
1772541035508765700,2.625765625,-0.882614016532898,0.44785401225090027,-4.4401068687438965
1772541035518675500,2.635675537109375,-1.5236910581588745,0.3956249952316284,-3.996061086654663
1772541035528585500,2.64558544921875,-4.003974914550781,0.6831570267677307,-4.13408088684082
1772541035538495500,2.65549560546875,-0.6712819933891296,0.7019400000572205,-4.640754222869873
1772541035548405200,2.6654052734375,4.211868762969971,0.8954899907112122,-2.984117031097412
1772541035558315000,2.67531494140625,4.30208683013916,2.2199079990386963,-1.1458890438079834
1772541035568225000,2.68522509765625,3.578968048095703,2.7320449352264404,-0.010892000049352646
1772541035578134800,2.695134765625,3.8319458961486816,2.6107490062713623,-0.471996009349823
1772541035588044800,2.705044921875,5.05221700668335,2.1234331130981445,-1.3394880294799805
1772541035597954600,2.71495458984375,4.386106014251709,1.9992090463638306,-2.0769131183624268
1772541035607864300,2.7248642578125,3.9435911178588867,1.8598090410232544,-2.3048670291900635
1772541035617774300,2.7347744140625,3.893984079360962,1.6310269832611084,-1.8019620180130005
1772541035627684400,2.744684326171875,3.618839979171753,2.146512985229492,-1.2078009843826294
1772541035637594000,2.754593994140625,3.687309980392456,2.19099497795105,-0.9239180088043213
1772541035647504100,2.764504150390625,4.555875778198242,1.8530479669570923,-1.8337889909744263
1772541035657414000,2.774413818359375,4.23288106918335,1.4935250282287598,-1.6765600442886353
1772541035667323600,2.78432373046875,3.9173638820648193,1.2331169843673706,-3.217331886291504
1772541035677233700,2.794233642578125,1.8437659740447998,0.7470409870147705,-4.036439895629883
1772541035687143400,2.804143310546875,-1.2980669736862183,-0.4510760009288788,-1.416242003440857
1772541035697053200,2.81405322265625,-2.3605220317840576,-0.17297999560832977,0.33261099457740784
1772541035706963500,2.82396337890625,-2.1520090103149414,0.4095909893512726,0.8178290128707886
1772541035716873000,2.833873046875,-2.1038360595703125,0.5857369899749756,1.253980040550232
1772541035726783000,2.843782958984375,-0.386896014213562,0.7966070175170898,1.7428690195083618
1772541035736693000,2.85369287109375,0.5330410003662109,1.0886379480361938,2.514902114868164
1772541035746602800,2.863602783203125,0.8003609776496887,1.4411369562149048,2.9830710887908936
1772541035756512500,2.873512451171875,1.2025760412216187,1.3708640336990356,2.55764102935791
1772541035766422500,2.883422607421875,0.9333680272102356,0.7134289741516113,0.9325309991836548
1772541035776332300,2.893332275390625,-0.030587999150156975,-0.4956519901752472,-0.10971300303936005
1772541035786242300,2.9032421875,-1.9272819757461548,-1.2894129753112793,0.8247740268707275
1772541035796152300,2.91315234375,-3.807157039642334,-1.270751953125,1.82014799118042
1772541035806062000,2.92306201171875,-4.03311014175415,-1.1984310150146484,3.129024028778076
1772541035815971800,2.932971923828125,-2.365351915359497,-0.7472689747810364,3.706183910369873
1772541035825881900,2.9428818359375,-0.40790000557899475,-0.08095899969339371,2.6063480377197266
1772541035835791600,2.95279150390625,0.35537201166152954,0.27921101450920105,1.8160920143127441
1772541035845701600,2.96270166015625,-0.07565700262784958,0.13038000464439392,1.2692960500717163
1772541035855611400,2.972611328125,-0.058274999260902405,-0.26119500398635864,0.44418200850486755
1772541035865521200,2.982521240234375,-0.2989340126514435,-0.36807599663734436,-0.34598401188850403
1772541035875431200,2.99243115234375,-0.32969900965690613,-0.534151017665863,-0.7860980033874512
1772541035885341000,3.0023408203125,-0.36410099267959595,-0.7916569709777832,-0.8771669864654541
1772541035895251000,3.0122509765625,-0.25272101163864136,-1.267778992652893,-0.5922809839248657
1772541035905161000,3.022160888671875,-0.34992900490760803,-1.5223480463027954,-0.18100999295711517
1772541035915070500,3.032070556640625,-0.31290799379348755,-1.447417974472046,0.2548049986362457
1772541035924980500,3.04198046875,-0.32453298568725586,-1.2966580390930176,0.30065199732780457
1772541035934890500,3.051890380859375,-0.3148469924926758,-1.0912649631500244,-0.22970399260520935
1772541035944800300,3.06180029296875,-0.4657540023326874,-1.0329339504241943,-0.9608049988746643
1772541035954710300,3.071710205078125,-0.536529004573822,-1.4162100553512573,-1.3642569780349731
1772541035964620000,3.0816201171875,-0.49118199944496155,-1.7614279985427856,-1.6972529888153076
1772541035974529800,3.09152978515625,-0.33931899070739746,-1.6490349769592285,-2.0762128829956055
1772541035984439800,3.101439697265625,-0.08861500024795532,-2.0086910724639893,-4.252048969268799
1772541035994349800,3.111349853515625,0.06541799753904343,-2.4479329586029053,-6.760283946990967
1772541036004259600,3.121259521484375,0.4636920094490051,-1.9593219757080078,-7.143068790435791
1772541036014169300,3.13116943359375,2.438791036605835,-0.8947209715843201,-5.791813850402832
1772541036024079400,3.141079345703125,6.629579067230225,0.970550000667572,-7.3729248046875
1772541036033989000,3.150989013671875,6.4103522300720215,0.6915559768676758,-8.321155548095703
1772541036043899100,3.160899169921875,-2.779934883117676,-0.33649998903274536,-6.098453998565674
1772541036053809000,3.170808837890625,-3.6741790771484375,-0.5480849742889404,0.4921889901161194
1772541036063719000,3.180718994140625,-2.4745569229125977,0.14047400653362274,6.373931884765625
1772541036073629000,3.19062890625,-1.1744240522384644,1.910884976387024,10.166226387023926
1772541036083538700,3.20053857421875,-0.03023499995470047,3.3645730018615723,10.126626968383789
1772541036093448700,3.21044873046875,0.20708900690078735,4.51559591293335,8.766777038574219
1772541036103358500,3.2203583984375,0.5965610146522522,4.549651145935059,8.802482604980469
1772541036113268500,3.2302685546875,1.0947699546813965,4.663916110992432,9.359872817993164
1772541036123178200,3.24017822265625,0.9320189952850342,4.683719158172607,9.309126853942871
1772541036133088000,3.250087890625,0.7647839784622192,3.478084087371826,8.268471717834473
1772541036142998000,3.259998046875,0.6915370225906372,2.7098989486694336,6.869161128997803
1772541036152908000,3.269907958984375,-0.8558329939842224,2.5875790119171143,4.575413227081299
1772541036162817800,3.27981787109375,-1.4866100549697876,0.14863799512386322,3.67250394821167
1772541036172727600,3.2897275390625,0.18742099404335022,-1.1537519693374634,2.129741907119751
1772541036182637600,3.299637451171875,0.9398429989814758,-0.596867024898529,-0.16569800674915314
1772541036192547300,3.30954736328125,0.8841540217399597,0.34246399998664856,-2.4506781101226807
1772541036202457300,3.319457275390625,-0.10128100216388702,-0.19373300671577454,-5.085118770599365
1772541036212367000,3.3293671875,-1.3076419830322266,-2.106182098388672,-7.509024143218994
1772541036222277000,3.339277099609375,-1.9222040176391602,-2.667612075805664,-8.08887767791748
1772541036232187000,3.349186767578125,-1.5698219537734985,-0.03388800099492073,-4.74462890625
1772541036242097000,3.359096923828125,-1.0171420574188232,0.5572100281715393,-2.827670097351074
1772541036252006700,3.369006591796875,-0.14205600321292877,-0.2736690044403076,-3.0936410427093506
1772541036261916700,3.378916748046875,0.5841360092163086,-0.78472501039505,-4.273240089416504
1772541036271826400,3.388826416015625,0.9762229919433594,-0.8317369818687439,-4.150332927703857
1772541036281736400,3.398736328125,0.6104490160942078,-0.8428720235824585,-3.4308369159698486
1772541036291646200,3.408646240234375,-0.4299899935722351,-0.6681709885597229,-2.1660149097442627
1772541036301556000,3.418555908203125,-1.4750139713287354,0.0911870002746582,-0.43615099787712097
1772541036311466000,3.428466064453125,-1.581083059310913,0.5689129829406738,0.5125499963760376
1772541036321376000,3.4383759765625,-0.592428982257843,0.4235430061817169,1.3888870477676392
1772541036331285800,3.44828564453125,0.6697930097579956,0.35322800278663635,1.1891679763793945
1772541036341195500,3.458195556640625,1.378309965133667,0.904187023639679,1.2722500562667847
1772541036351105500,3.46810546875,0.8571079969406128,1.7138700485229492,1.63686203956604
1772541036370925300,3.48792529296875,0.331508994102478,2.023672103881836,0.7533180117607117
1772541036380835000,3.4978349609375,0.49760499596595764,1.4364030361175537,-0.7618160247802734
1772541036390744800,3.507744873046875,0.935329020023346,-0.06643199920654297,-2.5960121154785156
1772541036400654800,3.51765478515625,0.4051229953765869,-0.16971300542354584,-2.0121240615844727
1772541036410564900,3.52756494140625,0.1626099944114685,0.7815520167350769,-0.27003100514411926
1772541036420474600,3.537474609375,0.07628700137138367,1.084460973739624,-0.46535998582839966
1772541036430384600,3.547384521484375,-0.16746899485588074,0.6938589811325073,-0.9461100101470947
1772541036440294400,3.55729443359375,-0.7912989854812622,-0.38499200344085693,-1.037276029586792
1772541036450204400,3.567204345703125,-0.8210769891738892,0.3189370036125183,0.6330839991569519
1772541036470024000,3.58702392578125,-0.1958550065755844,0.9083750247955322,1.1099430322647095
1772541036479933700,3.59693359375,0.2800599932670593,1.272698998451233,1.4916019439697266
1772541036489844000,3.606843994140625,-0.24019800126552582,2.9317290782928467,2.737726926803589
1772541036499753700,3.616753662109375,0.6998040080070496,2.862579107284546,2.0244979858398438
1772541036509663500,3.62666357421875,0.5855309963226318,2.88246488571167,1.676000952720642
1772541036519573500,3.636573486328125,-0.2547619938850403,2.9293038845062256,1.240399956703186
1772541036529483300,3.646483154296875,-0.466279000043869,2.9985220432281494,0.9451619982719421
1772541036539393300,3.656393310546875,-0.5951690077781677,3.1435799598693848,0.8241209983825684
1772541036549303000,3.666302978515625,-0.3615320026874542,3.4781980514526367,0.6961879730224609
1772541036559212800,3.676212890625,0.08716099709272385,3.8640151023864746,0.12923599779605865
1772541036569122800,3.686122802734375,-0.040449000895023346,4.008876800537109,-0.18062900006771088
1772541036579032800,3.69603271484375,-0.09850499778985977,3.9287679195404053,-0.43419501185417175
1772541036588942600,3.705942626953125,-0.5673320293426514,3.363779067993164,-0.7043730020523071
1772541036598852600,3.7158525390625,-0.687578022480011,-4.622050762176514,-2.2873098850250244
1772541036608762400,3.725762451171875,1.6857000589370728,-20.956056594848633,-1.9113739728927612
1772541036618672000,3.735672119140625,1.7652089595794678,-23.10269546508789,-2.2142128944396973
1772541036628582100,3.74558203125,-0.5245559811592102,-9.763946533203125,-5.8166279792785645
1772541036638492200,3.7554921875,-1.6220430135726929,-1.3448419570922852,-6.090701103210449
1772541036648402200,3.765402099609375,-0.40936899185180664,2.4385149478912354,-4.218997001647949
1772541036658312000,3.77531201171875,0.42058101296424866,3.3744120597839355,-1.6626540422439575
1772541036678131700,3.795131591796875,0.3721559941768646,1.4752529859542847,1.9897010326385498
1772541036688041500,3.80504150390625,-0.03864600136876106,0.4027380049228668,2.5009560585021973
1772541036697951500,3.814951416015625,-0.41818299889564514,-0.23030300438404083,1.5681990385055542
1772541036717771000,3.83477099609375,-0.19356000423431396,0.2581390142440796,-0.35801300406455994
1772541036727681000,3.844680908203125,-0.047745998948812485,0.44619300961494446,-1.1628119945526123
1772541036737591000,3.854591064453125,0.07421799749135971,0.607384979724884,-1.4114799499511719
1772541036747500800,3.864500732421875,0.11439599841833115,0.7032589912414551,-1.4092960357666016
1772541036757410800,3.874410888671875,0.04970100149512291,0.6155809760093689,-1.1598390340805054
1772541036767320600,3.884320556640625,0.0013409999664872885,0.6015819907188416,-0.5053380131721497
1772541036777230300,3.894230224609375,-0.10101299732923508,0.5869839787483215,-0.26233500242233276
1772541036787140400,3.904140380859375,-0.23710499703884125,0.5963510274887085,-0.17059700191020966
1772541036797050000,3.914050048828125,-0.26812800765037537,0.6336460113525391,-0.18879500031471252
1772541036806960400,3.92396044921875,-0.147707998752594,0.7051920294761658,-0.302031010389328
1772541036816870100,3.9338701171875,-0.14765700697898865,0.6998239755630493,-0.4064759910106659
1772541036826780000,3.94377978515625,-0.19589999318122864,0.6876819729804993,-0.4556710124015808
1772541036836690000,3.95368994140625,-0.20161400735378265,0.6446809768676758,-0.4146589934825897
1772541036846599700,3.963599609375,-0.12279099971055984,0.6205030083656311,-0.3996109962463379
1772541036856509700,3.973509765625,-0.03867800161242485,0.6391329765319824,-0.32010000944137573
1772541036866419500,3.98341943359375,-0.0021800000686198473,0.6291069984436035,-0.2618919909000397
1772541036876329200,3.9933291015625,0.016443999484181404,0.5783230066299438,-0.13177500665187836
1772541036886239500,4.003239501953125,-0.039772000163793564,0.5250099897384644,-0.12822400033473969
1772541036896149200,4.013149169921875,-0.11231999844312668,0.500478982925415,-0.14128899574279785
1772541036906059300,4.023059326171875,-0.15357500314712524,0.5333170294761658,-0.20918799936771393
1772541036915969000,4.032968994140625,-0.15422800183296204,0.5755509734153748,-0.2783670127391815
1772541036925878800,4.042878662109375,-0.10534299910068512,0.5483229756355286,-0.20945900678634644
1772541036935789000,4.0527890625,-0.13064999878406525,0.5503259897232056,-0.16743800044059753
1772541036945698600,4.062698486328125,-0.11289399862289429,0.5785940289497375,-0.20328399538993835
1772541036955608600,4.072608642578125,-0.11225000023841858,0.5876569747924805,-0.19437499344348907
1772541036965518600,4.0825185546875,-0.10549400001764297,0.620464026927948,-0.21409599483013153
1772541036975428400,4.092428466796875,-0.11600200086832047,0.6243690252304077,-0.2587999999523163
1772541036985338000,4.102338134765625,-0.1820099949836731,0.5998899936676025,-0.27023598551750183
1772541036995248000,4.112248046875,-0.2547909915447235,0.5835989713668823,-0.2303449958562851
1772541037015068000,4.13206787109375,-0.1504179984331131,0.6729300022125244,-0.11537600308656693
1772541037024977700,4.141977783203125,-0.06466399878263474,0.6412050127983093,0.0019809999503195286
1772541037034887400,4.151887451171875,-0.0916069969534874,0.5714139938354492,-0.03174399957060814
1772541037044797400,4.16179736328125,-0.1538430005311966,0.5665820240974426,-0.11037900298833847
1772541037054707500,4.17170751953125,-0.11645899713039398,0.5182269811630249,-0.20357400178909302
1772541037064617200,4.1816171875,-0.08240599930286407,0.4575270116329193,-0.2790530025959015
1772541037074527000,4.19152685546875,-0.05403999984264374,0.42776399850845337,-0.27046599984169006
1772541037084437000,4.20143701171875,-0.0409340001642704,0.4748139977455139,-0.12880399823188782
1772541037094346800,4.2113466796875,-0.03282799944281578,0.5026980042457581,-0.10018700361251831
1772541037104256800,4.2212568359375,-0.03216100111603737,0.5548809766769409,0.06344100087881088
1772541037114166500,4.23116650390625,0.011528999544680119,0.5897819995880127,0.1102989986538887
1772541037124076300,4.241076171875,0.011651000007987022,0.5913959741592407,0.15948300063610077
1772541037133986600,4.250986572265625,0.006707000080496073,0.6048340201377869,0.13825899362564087
1772541037143896000,4.26089599609375,0.01095999963581562,0.6423500180244446,0.12004300206899643
1772541037153806000,4.27080615234375,-0.030855000019073486,0.598281979560852,-0.05100199952721596
1772541037163715800,4.2807158203125,-0.0826449990272522,0.4990159869194031,-0.13845600187778473
1772541037173625900,4.2906259765625,-0.1747799962759018,0.5511419773101807,-0.20969800651073456
1772541037183535900,4.300535888671875,-0.13256299495697021,0.5071150064468384,-0.20672300457954407
1772541037193445600,4.310445556640625,-0.15524399280548096,0.47547298669815063,-0.15323300659656525
1772541037203355400,4.32035546875,-0.1595669984817505,0.6066709756851196,-0.08066499978303909
1772541037213265400,4.330265380859375,-0.18947599828243256,0.6974020004272461,-0.028855999931693077
1772541037223175400,4.340175537109375,-0.19220499694347382,0.6996399760246277,-0.036315999925136566
1772541037233085200,4.350085205078125,-0.18064600229263306,0.6538280248641968,-0.06329599767923355
1772541037242995200,4.3599951171875,-0.17605899274349213,0.5813660025596619,-0.14320600032806396
1772541037252905000,4.369905029296875,-0.12361399829387665,0.606453001499176,-0.1535329967737198
1772541037262815000,4.37981494140625,-0.08369100093841553,0.5599600076675415,-0.060784000903367996
1772541037272724700,4.389724853515625,-0.05595799908041954,0.5495790243148804,-0.052590999752283096
1772541037282634800,4.399634765625,-0.015324000269174576,0.5316609740257263,-0.10296300053596497
1772541037292544500,4.40954443359375,-0.009077999740839005,0.545149028301239,0.011273999698460102
1772541037302454300,4.419454345703125,-0.0033160001039505005,0.5252900123596191,0.05044100061058998
1772541037312364300,4.4293642578125,-0.05157700181007385,0.5371170043945312,0.10870800167322159
1772541037322274000,4.439274169921875,-0.049180999398231506,0.5225589871406555,0.0654349997639656
1772541037332184000,4.44918408203125,-0.09077800065279007,0.5787280201911926,0.17396999895572662
1772541037342094000,4.459093994140625,-0.12768399715423584,0.5990059971809387,0.20071899890899658
1772541037352003800,4.46900390625,-0.15261000394821167,0.7005630135536194,0.1834779977798462
1772541037361913900,4.478913818359375,-0.15505799651145935,0.7918919920921326,0.10210099816322327
1772541037371823600,4.48882373046875,-0.23214399814605713,0.7806839942932129,0.03447199985384941
1772541037381733400,4.4987333984375,-0.2744710147380829,0.7364050149917603,0.000004999999873689376
1772541037391643400,4.508643310546875,-0.28114598989486694,0.6494370102882385,0.007792999967932701
1772541037401553200,4.51855322265625,-0.2845900058746338,0.6001830101013184,0.03557800129055977
1772541037411463200,4.528463134765625,-0.3046160042285919,0.545009970664978,0.02698799967765808
1772541037421373200,4.538373291015625,-0.3184190094470978,0.5091990232467651,0.01594799943268299
1772541037431283000,4.548282958984375,-0.2969610095024109,0.49179700016975403,0.03179600089788437
1772541037441192700,4.558192626953125,-0.17718000710010529,0.5265340209007263,0.09993399679660797
1772541037451102700,4.568102783203125,-0.022600000724196434,0.5438989996910095,0.23739199340343475
1772541037461012500,4.578012451171875,0.12316299974918365,0.5498189926147461,0.3415659964084625
1772541037470922200,4.587922119140625,0.21651700139045715,0.5461239814758301,0.376693993806839
1772541037480832300,4.597832275390625,0.19237099587917328,0.5422369837760925,0.370525985956192
1772541037490742300,4.6077421875,0.11873500049114227,0.5240899920463562,0.2768999934196472
1772541037500652000,4.617652099609375,0.04686399921774864,0.479887992143631,0.20130500197410583
1772541037510562000,4.62756201171875,0.022262999787926674,0.5100679993629456,0.20912399888038635
1772541037520471800,4.637471923828125,0.012570999562740326,0.5616750121116638,0.1291929930448532
1772541037530381800,4.6473818359375,-0.04973800107836723,0.5917659997940063,-0.04320099949836731
1772541037540291600,4.65729150390625,-0.07959099858999252,0.6290029883384705,-0.16643700003623962
1772541037550201300,4.667201416015625,-0.05513700097799301,0.6470180153846741,-0.17820200324058533
1772541037560111400,4.677111328125,0.002597999991849065,0.6648539900779724,-0.11975699663162231
1772541037570021400,4.687021484375,0.017570000141859055,0.6939669847488403,-0.06228699907660484
1772541037579931100,4.69693115234375,-0.03660000115633011,0.7234979867935181,-0.07866799831390381
1772541037589841000,4.7068408203125,-0.1433819979429245,0.6893600225448608,-0.13718000054359436
1772541037599751000,4.7167509765625,-0.20908300578594208,0.6317279934883118,-0.22115899622440338
1772541037609660700,4.72666064453125,-0.24544499814510345,0.5909990072250366,-0.27685999870300293
1772541037619570700,4.73657080078125,-0.2520729899406433,0.5715829730033875,-0.3257400095462799
1772541037629480400,4.74648046875,-0.2499379962682724,0.5759239792823792,-0.3726609945297241
1772541037639390500,4.756390380859375,-0.22906699776649475,0.570472002029419,-0.3824769854545593
1772541037649300200,4.76630029296875,-0.1994370073080063,0.569616973400116,-0.3730599880218506
1772541037659210200,4.776210205078125,-0.17316700518131256,0.5519930124282837,-0.31565800309181213
1772541037669120000,4.7861201171875,-0.17320699989795685,0.5345730185508728,-0.2585600018501282
1772541037679030000,4.796030029296875,-0.18956300616264343,0.5295000076293945,-0.16494500637054443
1772541037688939800,4.805939697265625,-0.21397900581359863,0.563323974609375,-0.1065870001912117
1772541037698849500,4.815849609375,-0.18049800395965576,0.5970990061759949,-0.06331700086593628
1772541037708759600,4.825759521484375,-0.1448179930448532,0.6168000102043152,0.048822999000549316
1772541037718669300,4.83566943359375,-0.12300100177526474,0.6481980085372925,0.05285999923944473
1772541037728579300,4.845579345703125,-0.11399199813604355,0.6655769944190979,0.1307550072669983
1772541037738489300,4.8554892578125,-0.08321499824523926,0.6797879934310913,0.06239699944853783
1772541037748399000,4.865399169921875,-0.10167700052261353,0.6844490170478821,0.04581400007009506
1772541037758308900,4.875308837890625,-0.12105999886989594,0.6580790281295776,0.016361000016331673
1772541037768219000,4.885218994140625,-0.154681995511055,0.608273983001709,0.01931300014257431
1772541037778128600,4.895128662109375,-0.18785099685192108,0.5686280131340027,0.028017999604344368
1772541037788038700,4.90503857421875,-0.18935400247573853,0.5534769892692566,0.0037980000488460064
1772541037797948400,4.914948486328125,-0.182327002286911,0.552495002746582,0.0012610000558197498
1772541037807858400,4.9248583984375,-0.1896049976348877,0.556065022945404,0.03883900120854378
1772541037817768400,4.9347685546875,-0.21710799634456635,0.5870580077171326,0.1771090030670166
1772541037827678200,4.94467822265625,-0.14887599647045135,0.6334959864616394,0.09148799628019333
1772541037837588200,4.954588134765625,-0.11837799847126007,0.6181769967079163,0.21776899695396423
1772541037847498000,4.964498046875,-0.04470999911427498,0.6192579865455627,0.2871190011501312
1772541037857407700,4.97440771484375,0.026626000180840492,0.6317769885063171,0.32997098565101624
1772541037867317800,4.98431787109375,0.045841000974178314,0.6461889743804932,0.30897098779678345
1772541037877227800,4.994227783203125,0.02457199990749359,0.6343010067939758,0.28149500489234924
1772541037887137500,5.004137451171875,0.014436000026762486,0.610139012336731,0.22614799439907074
1772541037897047600,5.014047607421875,0.03959200158715248,0.5809550285339355,0.1886889934539795
1772541037906957300,5.023957275390625,0.05426499992609024,0.5658890008926392,0.16184000670909882
1772541037916867300,5.033867431640625,0.04114200174808502,0.5746729969978333,0.10915099829435349
1772541037926777000,5.043777099609375,0.037654001265764236,0.564113974571228,0.06371799856424332
1772541037936687000,5.05368701171875,0.0007259999983943999,0.5489940047264099,0.02287999913096428
1772541037946596900,5.063596923828125,-0.042688999325037,0.5199589729309082,0.009053999558091164
1772541037956507000,5.0735068359375,-0.07432200014591217,0.5103009939193726,-0.019701000303030014
1772541037966416600,5.083416748046875,-0.11928600072860718,0.49859800934791565,-0.052848998457193375
1772541037976326700,5.09332666015625,-0.12318599969148636,0.5250610113143921,-0.07861199975013733
1772541037996146400,5.113146484375,-0.05233599990606308,0.5979639887809753,-0.0876619964838028
1772541038006056400,5.123056396484375,-0.041071999818086624,0.5944690108299255,-0.06820400059223175
1772541038015966200,5.13296630859375,-0.05067799985408783,0.5792980194091797,-0.024754000827670097
1772541038025876200,5.142876220703125,-0.07519599795341492,0.5621600151062012,0.002710999920964241
1772541038035786000,5.152785888671875,-0.1117279976606369,0.5479620099067688,0.032999999821186066
1772541038045696000,5.162696044921875,-0.15070700645446777,0.536732017993927,0.06567499786615372
1772541038055605800,5.172605712890625,-0.20239900052547455,0.5225909948348999,0.10003899782896042
1772541038065515800,5.182515869140625,-0.21867899596691132,0.509037971496582,0.12809699773788452
1772541038075425500,5.192425537109375,-0.22238999605178833,0.5029069781303406,0.14186899363994598
1772541038085335600,5.20233544921875,-0.19575999677181244,0.5131009817123413,0.15182499587535858
1772541038095245300,5.212245361328125,-0.1654449999332428,0.5252419710159302,0.16713200509548187
1772541038105155300,5.2221552734375,-0.1470710039138794,0.5514289736747742,0.17888499796390533
1772541038115065300,5.2320654296875,-0.14967399835586548,0.5274879932403564,0.1892780065536499
1772541038124975000,5.24197509765625,-0.17262700200080872,0.4824979901313782,0.18548700213432312
1772541038134885000,5.251885009765625,-0.17966899275779724,0.45414599776268005,0.1408880054950714
1772541038144795000,5.261794921875,-0.186039999127388,0.46857398748397827,0.09010300040245056
1772541038154705000,5.271704833984375,-0.1945199966430664,0.5160300135612488,0.027888000011444092
1772541038164615000,5.281614990234375,-0.18352100253105164,0.5508400201797485,-0.012263000011444092
1772541038174524700,5.291524658203125,-0.18074099719524384,0.5663769841194153,-0.0029170000925660133
1772541038184434700,5.3014345703125,-0.17908799648284912,0.603410005569458,0.01653899997472763
1772541038194344400,5.311344482421875,-0.15051299333572388,0.6471329927444458,0.03648599982261658
1772541038204254200,5.321254150390625,-0.12970800697803497,0.6689410209655762,0.04815300181508064
1772541038214164200,5.331164306640625,-0.11079200357198715,0.6500279903411865,0.07998500019311905
1772541038224074200,5.34107421875,-0.07605600357055664,0.6092259883880615,0.09524299949407578
1772541038233984300,5.350984375,-0.04639900103211403,0.5656350255012512,0.09122999757528305
1772541038243894000,5.36089404296875,-0.025383999571204185,0.5097860097885132,0.07621099799871445
1772541038253803800,5.3708037109375,-0.010231999680399895,0.4774160087108612,0.03219100087881088
1772541038263713800,5.3807138671875,-0.0025130000431090593,0.4542039930820465,-0.02293499931693077
1772541038273623800,5.390623779296875,-0.002259999979287386,0.459524005651474,-0.0422930009663105
1772541038283533600,5.400533447265625,-0.04569799825549126,0.4916149973869324,-0.06366799771785736
1772541038293443600,5.410443603515625,-0.07067099958658218,0.5527340173721313,-0.04993300139904022
1772541038303353300,5.420353271484375,-0.09376300126314163,0.5927000045776367,-0.030665000900626183
1772541038313263400,5.430263427734375,-0.08647900074720383,0.5919399857521057,-0.01758899912238121
1772541038323173400,5.44017333984375,-0.05370200052857399,0.566860020160675,-0.003819999983534217
1772541038333083100,5.450083251953125,-0.010993000119924545,0.5579710006713867,0.010691000148653984
1772541038342993200,5.4599931640625,0.0353889986872673,0.5864490270614624,0.01337399985641241
1772541038352903000,5.46990283203125,0.03313799947500229,0.6290240287780762,0.00342700001783669
1772541038362813000,5.47981298828125,0.013439999893307686,0.6548730134963989,-0.015639999881386757
1772541038372723000,5.489722900390625,-0.043056000024080276,0.6576099991798401,-0.030256999656558037
1772541038382632700,5.4996328125,-0.0982540026307106,0.6757739782333374,-0.01508300006389618
1772541038392542700,5.509542724609375,-0.11343800276517868,0.6917979717254639,-0.011734999716281891
1772541038402452500,5.519452392578125,-0.10360900312662125,0.7006250023841858,0.01282699964940548
1772541038412362500,5.529362548828125,-0.08657699823379517,0.7044150233268738,0.030782999470829964
1772541038422272500,5.5392724609375,-0.07728300243616104,0.6818339824676514,0.03601599857211113
1772541038432182300,5.549182373046875,-0.08782699704170227,0.6668239831924438,0.049341000616550446
1772541038442092300,5.55909228515625,-0.10169199854135513,0.6785380244255066,0.0678270012140274
1772541038452002300,5.569002197265625,-0.12482000142335892,0.6812499761581421,0.08213599771261215
1772541038461912000,5.578912109375,-0.1400350034236908,0.6576550006866455,0.08563800156116486
1772541038471822000,5.588822021484375,-0.14918799698352814,0.6199100017547607,0.08426400274038315
1772541038481731800,5.59873193359375,-0.13054299354553223,0.596340000629425,0.07855100184679031
1772541038491641900,5.608641845703125,-0.12470699846744537,0.6205080151557922,0.07779999822378159
1772541038501551900,5.6185517578125,-0.11067499965429306,0.6588510274887085,0.0885860025882721
1772541038511462000,5.6284619140625,-0.10029499977827072,0.6994850039482117,0.11240100115537643
1772541038521371600,5.63837158203125,-0.12191200256347656,0.6949139833450317,0.11652500182390213
1772541038531281700,5.64828173828125,-0.12104599922895432,0.6258000135421753,0.09976500272750854
1772541038541191400,5.65819140625,-0.11715800315141678,0.5616269707679749,0.10386999696493149
1772541038551101400,5.668101318359375,-0.10639400035142899,0.5356379747390747,0.08260100334882736
1772541038561011200,5.67801123046875,-0.09650199860334396,0.5452989935874939,0.05343100056052208
1772541038570921200,5.687921142578125,-0.1122099980711937,0.5573880076408386,0.030174000188708305
1772541038580831200,5.697831298828125,-0.13600699603557587,0.5578550100326538,0.0010489999549463391
1772541038590741200,5.7077412109375,-0.1531669944524765,0.5656020045280457,-0.023072000592947006
1772541038600651000,5.717651123046875,-0.13465799391269684,0.5992050170898438,-0.02503100037574768
1772541038610561000,5.72756103515625,-0.09298700094223022,0.6296859979629517,-0.005183999892324209
1772541038620470800,5.737470703125,-0.055803000926971436,0.6215459704399109,0.04046100005507469
1772541038630380800,5.747380859375,-0.036681000143289566,0.5583869814872742,0.06356000155210495
1772541038640290800,5.757290771484375,-0.03357100114226341,0.50273597240448,0.08383499830961227
1772541038650200800,5.767200927734375,-0.04344300180673599,0.48092299699783325,0.09317799657583237
1772541038660110600,5.777110595703125,-0.05915699899196625,0.4905489981174469,0.10590100288391113
1772541038670020400,5.787020263671875,-0.0754380002617836,0.4931820034980774,0.09600300341844559
1772541038679930400,5.796930419921875,-0.10460799932479858,0.46534401178359985,0.1000479981303215
1772541038689840400,5.80684033203125,-0.11111799627542496,0.44954898953437805,0.08874800056219101
1772541038699750400,5.81675048828125,-0.09988299757242203,0.466948002576828,0.07875499874353409
1772541038709660200,5.82666015625,-0.10091900080442429,0.4913780093193054,0.06779500097036362
1772541038719570200,5.836570068359375,-0.09356000274419785,0.4988490045070648,0.06649100035429001
1772541038729480200,5.846480224609375,-0.1255519986152649,0.4998210072517395,0.07599899917840958
1772541038739390000,5.856389892578125,-0.13505299389362335,0.5224720239639282,0.07618600130081177
1772541038749300000,5.866300048828125,-0.13716499507427216,0.5259820222854614,0.07419099658727646
1772541038759210000,5.8762099609375,-0.1432570070028305,0.5153040289878845,0.08102499693632126
1772541038769120000,5.8861201171875,-0.10737700015306473,0.49226200580596924,0.10204599797725677
1772541038779029800,5.89602978515625,-0.09973800182342529,0.4878380000591278,0.10486099869012833
1772541038788939800,5.905939697265625,-0.11033599823713303,0.4739539921283722,0.09854099899530411
1772541038798849800,5.915849853515625,-0.12011700123548508,0.4745039939880371,0.08591800183057785
1772541038808759600,5.925759521484375,-0.11324500292539597,0.4461680054664612,0.04902200028300285
1772541038818669600,5.935669677734375,-0.11521899700164795,0.40099701285362244,-0.0016799999866634607
1772541038828579600,5.94557958984375,-0.10269699990749359,0.3413049876689911,-0.04741000011563301
1772541038838489300,5.9554892578125,-0.0752519965171814,0.3578070104122162,-0.07689899951219559
1772541038848399400,5.9653994140625,-0.06295199692249298,0.35252100229263306,-0.102292001247406
1772541038858309400,5.975309326171875,-0.06926800310611725,0.33538299798965454,-0.09000600129365921
1772541038868219400,5.985219482421875,-0.07229200005531311,0.2849990129470825,-0.058139998465776443
1772541038878129200,5.995129150390625,-0.05919700115919113,0.289685994386673,-0.027809999883174896
1772541038888039200,6.0050390625,-0.0000940000027185306,0.32724300026893616,-0.01699499972164631
1772541038897949200,6.01494921875,0.0005600000149570405,0.37655699253082275,-0.01977499946951866
1772541038907859200,6.024859130859375,-0.03540299832820892,0.40939998626708984,-0.006136999931186438
1772541038917769000,6.03476904296875,-0.051826998591423035,0.4446829855442047,-0.0018899999558925629
1772541038927679000,6.044678955078125,-0.09251700341701508,0.4778989851474762,-0.00007699999696342275
1772541038937589000,6.054589111328125,-0.10568799823522568,0.46349701285362244,0.012640000320971012
1772541038947499000,6.0644990234375,-0.10388500243425369,0.39901500940322876,0.02393300086259842
1772541038957408800,6.07440869140625,-0.07651399821043015,0.32731500267982483,0.026854999363422394
1772541038967318800,6.08431884765625,-0.034582000225782394,0.2840630114078522,0.028849000111222267
1772541038977228800,6.094228759765625,-0.012205000035464764,0.2762170135974884,0.012559999711811543
1772541038987138600,6.104138671875,-0.02006400004029274,0.2683599889278412,-0.008828000165522099
1772541038997048600,6.114048583984375,-0.016642000526189804,0.2745319902896881,-0.03435099869966507
1772541039006958600,6.12395849609375,-0.05720899999141693,0.31704801321029663,-0.05016399919986725
1772541039016868400,6.133868408203125,-0.11573400348424911,0.3363740146160126,-0.05649000033736229
1772541039026778400,6.1437783203125,-0.1343570053577423,0.32015299797058105,-0.023684000596404076
1772541039036688400,6.1536884765625,-0.14720800518989563,0.30675598978996277,0.038968998938798904
1772541039046598400,6.163598388671875,-0.13010700047016144,0.31966501474380493,0.07556500285863876
1772541039056508400,6.17350830078125,-0.0941620022058487,0.3513000011444092,0.07867400348186493
1772541039066418400,6.18341845703125,-0.05863200128078461,0.3753049969673157,0.07702700048685074
1772541039076328200,6.193328125,-0.03465300053358078,0.38943400979042053,0.07282599806785583
1772541039086238200,6.20323828125,-0.014241999946534634,0.37682101130485535,0.06888999789953232
1772541039096148200,6.213148193359375,-0.013001999817788601,0.36164799332618713,0.04314099997282028
1772541039106058000,6.22305810546875,-0.0197369996458292,0.3108299970626831,0.038704000413417816
1772541039115968000,6.232968017578125,-0.04225299879908562,0.25821200013160706,0.0382779985666275
1772541039125878000,6.2428779296875,-0.048457998782396317,0.1867000013589859,0.02653999999165535
1772541039135788000,6.2527880859375,-0.05345100164413452,0.15832899510860443,0.0072479997761547565
1772541039145697800,6.26269775390625,-0.014523999765515327,0.13870100677013397,-0.018871000036597252
1772541039155607800,6.27260791015625,0.004852000158280134,0.16630500555038452,-0.03980899974703789
1772541039165517800,6.282517822265625,-0.01947700046002865,0.2107429951429367,-0.058044999837875366
1772541039175427800,6.292427734375,-0.06567499786615372,0.2511410117149353,-0.04565700143575668
1772541039185337900,6.302337890625,-0.08804000169038773,0.2609350085258484,-0.023432999849319458
1772541039195247900,6.312247802734375,-0.10544899851083755,0.2403780072927475,0.017914999276399612
1772541039205157600,6.32215771484375,-0.06208200007677078,0.19774599373340607,0.02214599959552288
1772541039215067600,6.332067626953125,-0.027018999680876732,0.173895001411438,0.038339000195264816
1772541039224977700,6.341977783203125,0.0029849999118596315,0.13763399422168732,0.03081499971449375
1772541039234887700,6.3518876953125,0.02869199961423874,0.091559998691082,0.034306999295949936
1772541039244797400,6.36179736328125,0.03729100152850151,0.057420000433921814,0.03511299937963486
1772541039254707500,6.37170751953125,0.030115999281406403,0.040160998702049255,0.03154600039124489
1772541039264617500,6.381617431640625,0.03254399821162224,0.027526000514626503,0.01342300046235323
1772541039274527500,6.391527587890625,0.010781999677419662,0.024970000609755516,0.033911000937223434
1772541039284437200,6.401437255859375,-0.02011900022625923,0.049240000545978546,0.04434200003743172
1772541039294347300,6.41134716796875,-0.03767700120806694,0.08344899863004684,0.06955599784851074
1772541039304257300,6.42125732421875,-0.07376500219106674,0.1391499936580658,0.09210500121116638
1772541039314167300,6.431167236328125,-0.0879959985613823,0.19018200039863586,0.11365299671888351
1772541039324077300,6.441077392578125,-0.08803000301122665,0.2220419943332672,0.11587300151586533
1772541039333987000,6.450987060546875,-0.08762499690055847,0.18927399814128876,0.0996830016374588
1772541039343897300,6.4608974609375,-0.07742299884557724,0.10372799634933472,0.05674099922180176
1772541039353807000,6.47080712890625,-0.07372300326824188,0.03246400132775307,0.006833000108599663
1772541039363717000,6.480717041015625,-0.07199899852275848,-0.012436999939382076,-0.011362999677658081
1772541039373627100,6.490627197265625,-0.06357499957084656,-0.004741999786347151,-0.010437999852001667
1772541039383537200,6.500537109375,-0.04452500119805336,-0.006868999917060137,-0.01629900000989437
1772541039393447200,6.510447265625,-0.04248100146651268,0.012365000322461128,-0.04642900079488754
1772541039403357200,6.520357177734375,-0.06100200116634369,0.036455001682043076,-0.05621600151062012
1772541039413267200,6.53026708984375,-0.054003000259399414,0.09153100103139877,-0.049143001437187195
1772541039423177000,6.540177001953125,-0.05680600181221962,0.1489969938993454,-0.03057200089097023
1772541039433087000,6.5500869140625,-0.07988899946212769,0.17084400355815887,-0.0037169998977333307
1772541039442997000,6.5599970703125,-0.10323300212621689,0.14995700120925903,0.0035069999285042286
1772541039452907000,6.569906982421875,-0.09064599871635437,0.09790600091218948,-0.012581000104546547
1772541039462817000,6.579817138671875,-0.0596419982612133,0.012041999958455563,-0.06470800191164017
1772541039472727000,6.58972705078125,0.013539000414311886,-0.09838400036096573,-0.10582199692726135
1772541039482637000,6.599636962890625,0.06550099700689316,-0.2257930040359497,-0.10526099801063538
1772541039492546800,6.609546875,0.10148300230503082,-0.30862000584602356,-0.11776400357484818
1772541039502456800,6.619456787109375,0.12984900176525116,-0.3462409973144531,-0.10855299979448318
1772541039512366800,6.629366943359375,0.13843299448490143,-0.30664101243019104,-0.0988759994506836
1772541039522276900,6.63927685546875,0.1273069977760315,-0.25503501296043396,-0.07165700197219849
1772541039532187000,6.649186767578125,0.1404220014810562,-0.18197199702262878,-0.014113999903202057
1772541039542097000,6.659096923828125,0.14654000103473663,-0.05399800091981888,0.04318699985742569
1772541039552007000,6.6690068359375,0.13217400014400482,0.09059800207614899,0.07773900032043457
1772541039561916700,6.678916748046875,0.06769700348377228,0.17810000479221344,0.08397799730300903
1772541039571827000,6.688826904296875,0.01799199916422367,0.22050300240516663,0.0812859982252121
1772541039581736700,6.69873681640625,-0.037324000149965286,0.2085230052471161,0.09006600081920624
1772541039591646700,6.708646728515625,-0.06149899959564209,0.17773599922657013,0.07544899731874466
1772541039601556700,6.718556640625,-0.056428998708724976,0.12071199715137482,0.07015399634838104
1772541039611466800,6.728466796875,-0.03515600040555,0.0588110014796257,0.062442999333143234
1772541039621376800,6.738376708984375,-0.005619000177830458,-0.0008549999911338091,0.0706700012087822
1772541039631286800,6.748286865234375,0.027723999693989754,-0.10360900312662125,0.1028209999203682
1772541039641196800,6.75819677734375,0.07830899953842163,-0.18733899295330048,0.12904399633407593
1772541039651106800,6.76810693359375,0.09013000130653381,-0.22564199566841125,0.13544100522994995
1772541039661016800,6.778016845703125,0.07013899832963943,-0.20182600617408752,0.08521000295877457
1772541039670926800,6.7879267578125,-0.00950200017541647,-0.13189199566841125,0.010242000222206116
1772541039680836900,6.7978369140625,-0.11753500252962112,-0.025465000420808792,-0.029632000252604485
1772541039690746600,6.80774658203125,-0.2031169980764389,0.12118600308895111,-0.02131599932909012
1772541039700656600,6.81765673828125,-0.229885995388031,0.26342999935150146,0.029411999508738518
1772541039710566700,6.827566650390625,-0.20064200460910797,0.33695998787879944,0.08553799986839294
1772541039720476700,6.8374765625,-0.1530510038137436,0.3599269986152649,0.15010300278663635
1772541039730386400,6.847386474609375,-0.06283500045537949,0.3534890115261078,0.18582500517368317
1772541039740296400,6.85729638671875,0.019773999229073524,0.3462600111961365,0.18262700736522675
1772541039750206500,6.86720654296875,0.07464200258255005,0.3429499864578247,0.10438500344753265
1772541039760116500,6.877116455078125,0.011947999708354473,0.2605440020561218,-0.0031850000377744436
1772541039770026500,6.887026611328125,-0.07817699760198593,0.08193200081586838,-0.043554000556468964
1772541039779936500,6.8969365234375,-0.1131030023097992,-0.09782599657773972,-0.04478900134563446
1772541039789846500,6.906846435546875,-0.046509999781847,-0.20688100159168243,-0.018749000504612923
1772541039799756500,6.916756591796875,0.07487200200557709,-0.22371099889278412,-0.012198000214993954
1772541039809666600,6.92666650390625,0.15663999319076538,-0.18896999955177307,-0.03943600133061409
1772541039819576300,6.936576416015625,0.15800799429416656,-0.13079799711704254,-0.10300599783658981
1772541039829486600,6.946486572265625,0.08388199657201767,-0.06274399906396866,-0.1462319940328598
1772541039839396600,6.956396728515625,-0.022258000448346138,0.006093000061810017,-0.17923200130462646
1772541039849306600,6.966306640625,-0.0974309965968132,0.030302999541163445,-0.13522900640964508
1772541039859216600,6.976216552734375,-0.1269409954547882,-0.0022499999031424522,-0.05976499989628792
1772541039869126700,6.986126708984375,-0.11084400117397308,-0.04396999999880791,0.029147999361157417
1772541039879036700,6.99603662109375,-0.01875700056552887,-0.028907999396324158,0.06773799657821655
1772541039888946400,7.005946533203125,0.06004999950528145,0.057085998356342316,0.07911299914121628
1772541039898856400,7.0158564453125,0.11256899684667587,0.13270799815654755,0.06487400084733963
1772541039908766500,7.025766357421875,0.07155100256204605,0.1455949991941452,0.025405999273061752
1772541039918676500,7.035676513671875,-0.0070569999516010284,0.04481000080704689,-0.03745099902153015
1772541039928586500,7.04558642578125,-0.04330100119113922,-0.09598200023174286,-0.09809499979019165
1772541039938496500,7.05549658203125,-0.050985999405384064,-0.19110900163650513,-0.13262499868869781
1772541039948406500,7.065406494140625,-0.0030330000445246696,-0.2414039969444275,-0.1485700011253357
1772541039958316500,7.075316650390625,0.04430200159549713,-0.27772900462150574,-0.14170299470424652
1772541039968226600,7.0852265625,0.0911720022559166,-0.30001598596572876,-0.12449999898672104
1772541039978136600,7.095136474609375,0.1373720020055771,-0.30114901065826416,-0.10617800056934357
1772541039988046600,7.105046630859375,0.16282500326633453,-0.29775500297546387,-0.10688299685716629
1772541039997956600,7.11495654296875,0.1569020003080368,-0.22974300384521484,-0.08401399850845337
1772541040007866600,7.12486669921875,0.13621799647808075,-0.08021599799394608,-0.018052000552415848
1772541040017776600,7.134776611328125,0.09281499683856964,0.043372999876737595,0.05698800086975098
1772541040027686700,7.144686767578125,0.02198299951851368,0.10300999879837036,0.09704799950122833
1772541040037596700,7.1545966796875,-0.05329199880361557,0.09161700308322906,0.09442300349473953
1772541040047506700,7.164506591796875,-0.07240699976682663,0.004759000148624182,0.07695300132036209
1772541040057416700,7.174416748046875,-0.02270199917256832,-0.10193700343370438,0.04305199906229973
1772541040067326500,7.184326416015625,0.02379699982702732,-0.19700300693511963,0.05689200013875961
1772541040077236500,7.194236572265625,0.032228998839855194,-0.26552900671958923,0.07304999977350235
1772541040087146500,7.204146484375,0.04923899844288826,-0.3054710030555725,0.07446199655532837
1772541040097056500,7.214056396484375,0.04402200132608414,-0.25233298540115356,0.05219399929046631
1772541040106966500,7.223966552734375,0.05249999836087227,-0.14021700620651245,0.006899999920278788
1772541040116876500,7.23387646484375,0.03426099941134453,-0.013975000008940697,-0.0022350000217556953
1772541040126786600,7.24378662109375,-0.011939000338315964,0.08862800151109695,-0.017916999757289886
1772541040136696600,7.253696533203125,-0.06080799922347069,0.14396700263023376,-0.022502999752759933
1772541040146606600,7.263606689453125,-0.11569199711084366,0.16920900344848633,-0.0067170001566410065
1772541040156516600,7.2735166015625,-0.14708000421524048,0.14262999594211578,0.016002999618649483
1772541040166426600,7.283426513671875,-0.10485699772834778,0.0774340033531189,0.03126800060272217
1772541040176336600,7.293336669921875,-0.006945999804884195,-0.003513999981805682,0.022336000576615334
1772541040186246700,7.30324658203125,0.07832200080156326,-0.0714230015873909,-0.004298000130802393
1772541040196156700,7.31315673828125,0.1370300054550171,-0.13305699825286865,-0.031651001423597336
1772541040206066700,7.323066650390625,0.16883300244808197,-0.17373600602149963,-0.05505700036883354
1772541040215976700,7.332976806640625,0.16104599833488464,-0.12488400191068649,-0.08349700272083282
1772541040225886700,7.34288671875,0.09990499913692474,0.005532999988645315,-0.0984409973025322
1772541040235796700,7.352796630859375,0.04301099851727486,0.14815500378608704,-0.09577099978923798
1772541040245706800,7.362706787109375,-0.0008459999808110297,0.2646459937095642,-0.06970500200986862
1772541040255616800,7.37261669921875,-0.04931600019335747,0.32168200612068176,-0.05543399974703789
1772541040265526800,7.38252685546875,-0.05252299830317497,0.35678601264953613,-0.05305900052189827
1772541040275436800,7.392436767578125,-0.011978999711573124,0.3531390130519867,-0.018029000610113144
1772541040285346800,7.402346923828125,0.036084000021219254,0.29418399930000305,0.04133399948477745
1772541040295256800,7.4122568359375,0.03981199860572815,0.20480899512767792,0.10055600106716156
1772541040305166800,7.422166748046875,0.02969999983906746,0.08737199753522873,0.11224599927663803
1772541040315076900,7.432076904296875,-0.001057000015862286,-0.012755000032484531,0.10221999883651733
1772541040324987000,7.44198681640625,-0.02886199951171875,-0.10529900342226028,0.06942299753427505
1772541040334896600,7.451896728515625,-0.031911998987197876,-0.1691100001335144,0.028875000774860382
1772541040344806700,7.461806640625,-0.05716099962592125,-0.19200700521469116,0.010892000049352646
1772541040354716700,7.471716552734375,-0.08368100225925446,-0.1429239958524704,0.007621999830007553
1772541040364626700,7.481626708984375,-0.11869899928569794,-0.041053999215364456,0.00992599967867136
1772541040374537000,7.491536865234375,-0.13716700673103333,0.0823030024766922,0.022086000069975853
1772541040384446700,7.50144677734375,-0.1615539938211441,0.22093600034713745,0.022955000400543213
1772541040394356700,7.511356689453125,-0.15037700533866882,0.3176259994506836,0.033844999969005585
1772541040404266800,7.521266845703125,-0.1234159991145134,0.3450460135936737,0.024038000032305717
1772541040414177000,7.531177001953125,-0.08099299669265747,0.3025909960269928,0.038499001413583755
1772541040424086800,7.541086669921875,-0.0043750000186264515,0.1923159956932068,0.05428700149059296
1772541040433996800,7.550996826171875,0.05428500100970268,0.03129100054502487,0.0471160002052784
1772541040443906800,7.56090673828125,0.06686799973249435,-0.14375999569892883,0.03428500145673752
1772541040453816800,7.57081689453125,0.07718800008296967,-0.3304409980773926,0.007910000160336494
1772541040463726800,7.580726806640625,0.105772003531456,-0.44570299983024597,-0.04328000172972679
1772541040473636900,7.590636962890625,0.13888800144195557,-0.5042660236358643,-0.09666900336742401
1772541040483547000,7.600546875,0.12838199734687805,-0.43646401166915894,-0.14609800279140472
1772541040493457000,7.610456787109375,0.06307099759578705,-0.2462729960680008,-0.1386670023202896
1772541040503367000,7.620366943359375,-0.040716998279094696,-0.05013500154018402,-0.10315900295972824
1772541040513277000,7.63027685546875,-0.09624800086021423,0.12500600516796112,-0.062268998473882675
1772541040523187000,7.64018701171875,-0.1327809989452362,0.26654601097106934,-0.02111399918794632
1772541040533097000,7.650096923828125,-0.1248989999294281,0.35540398955345154,0.02492699958384037
1772541040543007000,7.660007080078125,-0.07042399793863297,0.4152520000934601,0.06448400020599365
1772541040552917000,7.6699169921875,0.0009730000165291131,0.3738909959793091,0.1095919981598854
1772541040562827000,7.679826904296875,0.0380450002849102,0.21281200647354126,0.10740300267934799
1772541040572737000,7.689737060546875,0.07112299650907516,0.001436999998986721,0.06869299709796906
1772541040582647000,7.69964697265625,0.07025100290775299,-0.21656399965286255,0.027168000116944313
1772541040592557000,7.70955712890625,0.08565399795770645,-0.4033690094947815,-0.02300499938428402
1772541040602467000,7.719467041015625,0.09073899686336517,-0.5134379863739014,-0.06634800136089325
1772541040612377000,7.729377197265625,0.07114499807357788,-0.5232189893722534,-0.12840799987316132
1772541040622287000,7.739287109375,0.022639000788331032,-0.3751299977302551,-0.17637699842453003
1772541040632197000,7.749197021484375,-0.05350600183010101,-0.14294999837875366,-0.17796599864959717
1772541040642107100,7.759107177734375,-0.10616400092840195,0.060871999710798264,-0.13539400696754456
1772541040652017200,7.76901708984375,-0.134224995970726,0.20765699446201324,-0.0687590017914772
1772541040661927200,7.77892724609375,-0.13628500699996948,0.28064200282096863,-0.0012870000209659338
1772541040671837200,7.788837158203125,-0.07333599776029587,0.31242600083351135,0.06827100366353989
1772541040681747200,7.798747314453125,0.029433000832796097,0.27134400606155396,0.12998799979686737
1772541040691657200,7.8086572265625,0.11265599727630615,0.18391300737857819,0.15818999707698822
1772541040701567200,7.818567138671875,0.16420499980449677,0.05288099870085716,0.14072099328041077
1772541040711477200,7.828477294921875,0.18385399878025055,-0.1237730011343956,0.07534600049257278
1772541040721387300,7.83838720703125,0.1826069951057434,-0.2788270115852356,0.0036349999718368053
1772541040731297300,7.84829736328125,0.1720529943704605,-0.3764300048351288,-0.0668020024895668
1772541040741207300,7.858207275390625,0.12914200127124786,-0.36860600113868713,-0.13281600177288055
1772541040751117300,7.868117431640625,0.04030299931764603,-0.26187899708747864,-0.16741600632667542
1772541040761027300,7.87802734375,-0.0751969963312149,-0.108365997672081,-0.1705089956521988
1772541040770937000,7.88793701171875,-0.1421860009431839,0.03826799988746643,-0.12908600270748138
1772541040780847400,7.897847412109375,-0.17912399768829346,0.15414099395275116,-0.07056400179862976
1772541040790757400,7.90775732421875,-0.153205007314682,0.2633039951324463,-0.016806000843644142
1772541040800667100,7.917667236328125,-0.10420399904251099,0.319254994392395,0.036768000572919846
1772541040810577200,7.9275771484375,-0.039698000997304916,0.29561901092529297,0.08283700048923492
1772541040820487200,7.937487060546875,0.01346299983561039,0.21903499960899353,0.11890599876642227
1772541040830397200,7.947397216796875,0.0767889991402626,0.0915059968829155,0.10666900128126144
1772541040840307500,7.957307373046875,0.11628299951553345,-0.0245169997215271,0.07871600240468979
1772541040850217200,7.96721728515625,0.12275099754333496,-0.12870800495147705,0.039103999733924866
1772541040860127200,7.977127197265625,0.07083500176668167,-0.20075400173664093,0.028231000527739525
1772541040870037200,7.987037353515625,-0.0018449999624863267,-0.23794199526309967,0.024224000051617622
1772541040879947300,7.996947265625,-0.058740001171827316,-0.2573460042476654,0.024796999990940094
1772541040899767600,8.016767578125,-0.08834400027990341,-0.13519500195980072,-0.02400900050997734
1772541040909677300,8.02667724609375,-0.08817300200462341,-0.017167000100016594,-0.032315000891685486
1772541040919587300,8.03658740234375,-0.12258400022983551,0.09376300126314163,-0.04123599827289581
1772541040929497300,8.046497314453125,-0.11677800118923187,0.1423330008983612,-0.035374000668525696
1772541040939407400,8.056407470703125,-0.09315499663352966,0.1572680026292801,-0.009403999894857407
1772541040949317600,8.066317626953126,-0.05035199970006943,0.14333899319171906,0.04427200183272362
1772541040959227600,8.0762275390625,0.037716999650001526,0.11462199687957764,0.12381900101900101
1772541040969137700,8.0861376953125,0.09196200221776962,0.049483999609947205,0.15742899477481842
1772541040979047700,8.096047607421875,0.11647199839353561,-0.04691600054502487,0.15424300730228424
1772541040988957700,8.105957763671874,0.09471199661493301,-0.15492700040340424,0.10684999823570251
1772541040998867500,8.115867431640625,0.05431000143289566,-0.22900399565696716,0.034894999116659164
1772541041008777500,8.125777587890624,0.004904000088572502,-0.23571699857711792,-0.045559998601675034
1772541041018687500,8.1356875,-0.05755100026726723,-0.21549999713897705,-0.09845999628305435
1772541041028597500,8.145597412109375,-0.09730999916791916,-0.1780720055103302,-0.10432200133800507
1772541041038507500,8.155507568359376,-0.12988099455833435,-0.09947100281715393,-0.07355400174856186
1772541041048417500,8.16541748046875,-0.09117499738931656,-0.009589999914169312,-0.03581999987363815
1772541041058327600,8.17532763671875,-0.040644001215696335,0.1128150001168251,0.0017519999528303742
1772541041068237600,8.185237548828125,0.010181999765336514,0.19815699756145477,0.001976999919861555
1772541041078147600,8.195147705078124,0.0401340015232563,0.24942299723625183,0.019874000921845436
1772541041088057600,8.2050576171875,0.03538300096988678,0.21723000705242157,0.0355990007519722
1772541041097967600,8.214967529296874,0.015085999853909016,0.14032700657844543,0.05550500005483627
1772541041107877600,8.224877685546875,-0.006157000083476305,0.04502800107002258,0.061354998499155045
1772541041117787600,8.23478759765625,0.0019890000112354755,-0.04776899889111519,0.047940999269485474
1772541041127697700,8.24469775390625,0.012291000224649906,-0.10705099999904633,0.043533001095056534
1772541041137607700,8.254607666015625,0.017132999375462532,-0.10439500212669373,0.010999999940395355
1772541041147517700,8.264517578125,0.041512999683618546,-0.06154400110244751,-0.021159999072551727
1772541041157427700,8.274427734375,0.058720000088214874,0.028496000915765762,-0.08696900308132172
1772541041167337500,8.28433740234375,0.024164000526070595,0.08489599823951721,-0.14160500466823578
1772541041177247500,8.29424755859375,-0.029030000790953636,0.1440819948911667,-0.14255599677562714
1772541041187157500,8.304157470703124,-0.05831500142812729,0.15577800571918488,-0.12708300352096558
1772541041197067500,8.314067626953126,-0.05592299997806549,0.13169899582862854,-0.10999500006437302
1772541041206977500,8.3239775390625,-0.02259499952197075,0.06210799887776375,-0.05960199981927872
1772541041216887600,8.333887451171876,0.02829599939286709,-0.0030249999836087227,-0.020843999460339546
1772541041226797800,8.3437978515625,0.08806400001049042,-0.04973600059747696,-0.005754999816417694
1772541041236707600,8.35370751953125,0.10758399963378906,-0.07276099920272827,0.0035729999653995037
1772541041246617600,8.36361767578125,0.09258099645376205,-0.08582399785518646,0.022585000842809677
1772541041256527600,8.373527587890624,0.09166800230741501,-0.08934199810028076,0.024514000862836838
1772541041266437600,8.383437744140625,0.046434998512268066,-0.056492000818252563,0.009050999768078327
1772541041276347600,8.39334765625,-0.028558000922203064,0.03472499921917915,0.00228299992159009
1772541041286257700,8.403257568359376,-0.05812399834394455,0.08316799998283386,-0.0036140000447630882
1772541041296167700,8.413167724609375,-0.08462399989366531,0.0720369964838028,-0.03275499865412712
1772541041306077700,8.42307763671875,-0.09672699868679047,0.037310000509023666,-0.03981100022792816
1772541041315987700,8.43298779296875,-0.07010500133037567,0.00938399974256754,-0.048528000712394714
1772541041325897700,8.442897705078124,-0.00913000013679266,-0.0027940000873059034,-0.04793199896812439
1772541041335807700,8.452807861328125,0.013767999596893787,-0.015199000015854836,-0.0323369987308979
1772541041345717800,8.4627177734375,0.023801999166607857,-0.0205060001462698,-0.024734999984502792
1772541041355627800,8.472627685546875,0.024508999660611153,-0.03993700072169304,-0.0007169999880716205
1772541041365537800,8.482537841796875,0.026930000633001328,-0.03311900049448013,0.0037960000336170197
1772541041375447800,8.49244775390625,0.024769999086856842,-0.03830600157380104,-0.0075170001946389675
1772541041395267800,8.512267822265626,-0.003863000078126788,-0.01228999998420477,0.010917999781668186
1772541041405177900,8.522177734375,-0.029360000044107437,-0.025884000584483147,0.031498998403549194
1772541041415087600,8.532087646484374,-0.039191000163555145,-0.03672099858522415,0.04994500055909157
1772541041424997600,8.54199755859375,-0.006639000028371811,-0.05289499834179878,0.04264700040221214
1772541041434908000,8.551907958984375,0.01130400039255619,-0.029025999829173088,0.014599000103771687
1772541041444818000,8.56181787109375,0.034056998789310455,-0.02967200055718422,-0.008425000123679638
1772541041454727700,8.571727783203125,0.030884999781847,-0.03254299983382225,0.007782000117003918
1772541041464637700,8.5816376953125,0.0297200009226799,-0.0018629999831318855,0.02506200037896633
1772541041474547700,8.591547607421875,0.017581000924110413,0.009991000406444073,0.049557000398635864
1772541041484457700,8.601457763671876,0.00007599999662488699,0.00787500012665987,0.06307400017976761
1772541041494368000,8.611367919921875,-0.01954299956560135,-0.01767599955201149,0.07075099647045135
1772541041504277800,8.62127783203125,-0.041280001401901245,-0.03574899956583977,0.05161700025200844
1772541041514188000,8.63118798828125,-0.06340199708938599,-0.02717299945652485,0.04936299845576286
1772541041524097800,8.641097900390625,-0.08755200356245041,-0.0444599986076355,0.05138000100851059
1772541041534008000,8.651008056640626,-0.08314500004053116,-0.06419199705123901,0.0463469997048378
1772541041543917800,8.660917724609375,-0.0468670018017292,-0.03931000083684921,0.015887999907135963
1772541041553827800,8.670827880859376,-0.00002099999983329326,0.051412999629974365,-0.006705000065267086
1772541041563737900,8.68073779296875,0.02388099953532219,0.11002500355243683,-0.052459001541137695
1772541041573648000,8.69064794921875,0.0021359999664127827,0.10420099645853043,-0.06978099793195724
1772541041583558000,8.700557861328125,-0.014937999658286572,0.09166699647903442,-0.0552619993686676
1772541041593468000,8.710468017578124,-0.025978000834584236,0.1059349998831749,-0.01825300045311451
1772541041603378000,8.7203779296875,-0.027069000527262688,0.10354600101709366,-0.012981999665498734
1772541041613288000,8.730287841796875,-0.012159000150859356,0.05798099935054779,-0.013069000095129013
1772541041623198000,8.740197998046876,-0.01923700049519539,-0.004098000004887581,-0.026607999578118324
1772541041633108000,8.75010791015625,0.014534000307321548,-0.059397999197244644,-0.03477099910378456
1772541041643018000,8.76001806640625,0.04339199885725975,-0.09361600130796432,-0.04444799944758415
1772541041652928000,8.769927978515625,0.03503600135445595,-0.11083900183439255,-0.03584799915552139
1772541041662837800,8.779837646484374,0.04927799850702286,-0.11865899711847305,-0.030257999897003174
1772541041672747800,8.789747802734375,0.061473000794649124,-0.08124800026416779,-0.018448999151587486
1772541041682657800,8.79965771484375,0.05359800159931183,-0.0011030000168830156,-0.037300001829862595
1772541041692567800,8.80956787109375,0.051663000136613846,0.05700000002980232,-0.07143300026655197
1772541041702477800,8.819477783203125,0.025551000609993935,0.07463899999856949,-0.08273699879646301
1772541041712387800,8.829387939453126,0.015046999789774418,0.06875800341367722,-0.05631300061941147
1772541041722297900,8.8392978515625,0.0035689999349415302,0.0704059973359108,-0.04109000042080879
1772541041732207900,8.849207763671876,0.015860000625252724,0.02901799976825714,-0.03659600019454956
1772541041742118000,8.859117919921875,0.010584999807178974,-0.031183000653982162,-0.03316099941730499
1772541041752028000,8.86902783203125,0.03481899946928024,-0.07731799781322479,-0.041287001222372055
1772541041761938000,8.87893798828125,0.02243800088763237,-0.1016480028629303,-0.04436200112104416
1772541041771848000,8.888847900390624,0.02883400022983551,-0.11159200221300125,-0.03657599911093712
1772541041781758000,8.898758056640625,0.027643000707030296,-0.09520299732685089,-0.027178000658750534
1772541041791668000,8.90866796875,0.008465999737381935,-0.052345000207424164,-0.03143800050020218
1772541041801578000,8.918577880859376,-0.018875999376177788,0.019464999437332153,-0.026006000116467476
1772541041811488000,8.928488037109375,-0.018532000482082367,0.06503000110387802,0.007292000111192465
1772541041821397800,8.938397705078126,-0.03869299963116646,0.06541100144386292,0.0340920016169548
1772541041831308000,8.94830810546875,-0.01930299960076809,0.06569000333547592,0.04784100130200386
1772541041841218000,8.958218017578124,-0.016544999554753304,0.056352999061346054,0.03120099939405918
1772541041851128000,8.968128173828125,-0.00011999999696854502,0.03259199857711792,0.03780199959874153
1772541041861037800,8.978037841796874,0.006550999823957682,0.008875000290572643,0.05303100124001503
1772541041870947800,8.98794775390625,0.015636000782251358,-0.036187998950481415,0.09203500300645828
1772541041880857900,8.99785791015625,0.01753699965775013,-0.06893900036811829,0.0929969996213913
1772541041890768000,9.007767822265626,0.017260000109672546,-0.08023399859666824,0.07636799663305283
1772541041900678000,9.017677978515625,-0.004821999929845333,-0.07220999896526337,0.05488499999046326
1772541041910588000,9.027587890625,-0.023468000814318657,-0.023538000881671906,0.02911500073969364
1772541041920498000,9.037497802734375,-0.03437599912285805,0.0059819999150931835,0.021292999386787415
1772541041930408000,9.047407958984374,-0.05089300125837326,0.023865999653935432,0.0339060015976429
1772541041940318000,9.05731787109375,-0.061948999762535095,0.05395599827170372,0.054326001554727554
1772541041950228000,9.06722802734375,-0.06171200051903725,0.09832199662923813,0.06238900125026703
1772541041960138000,9.077137939453126,-0.06406299769878387,0.13314500451087952,0.07423999905586243
1772541041970048000,9.087048095703125,-0.04177499935030937,0.10287799686193466,0.05248799920082092
1772541041979957800,9.096957763671876,-0.022902999073266983,0.04602200165390968,0.03678400069475174
1772541041989868000,9.106867919921875,-0.00584599981084466,0.053245000541210175,0.000981000019237399
1772541041999777800,9.11677783203125,-0.00827800016850233,0.07948300242424011,-0.009716000407934189
1772541042009687800,9.126687744140625,-0.010679000057280064,0.0771780014038086,0.010586000047624111
1772541042019597800,9.136597900390624,-0.007814000360667706,0.029680000618100166,0.034922998398542404
1772541042029507800,9.1465078125,0.0021869998890906572,-0.02490900084376335,0.04343299940228462
1772541042039417900,9.15641796875,0.007356999907642603,-0.05329800024628639,0.02265699952840805
1772541042049327900,9.166327880859376,0.05365600064396858,-0.08984100073575974,-0.01816900074481964
1772541042059238000,9.17623779296875,0.05459199845790863,-0.10972700268030167,-0.035666998475790024
1772541042069147600,9.186147705078126,0.046953000128269196,-0.12228299677371979,-0.03864099830389023
1772541042079057700,9.1960576171875,0.028999999165534973,-0.11536700278520584,-0.02798900008201599
1772541042088967700,9.2059677734375,0.02147899940609932,-0.11789999902248383,-0.026792999356985092
1772541042098877700,9.215877685546875,0.01850299909710884,-0.08464699983596802,-0.033920999616384506
1772541042108787700,9.22578759765625,0.03181000053882599,-0.013628999702632427,-0.0351409986615181
1772541042118697700,9.23569775390625,0.020912999287247658,0.06696899980306625,-0.020332999527454376
1772541042128607700,9.245607666015625,-0.0026680000592023134,0.1096310019493103,-0.002102999947965145
1772541042138517800,9.255517822265626,-0.032926999032497406,0.1289989948272705,0.020803000777959824
1772541042148427800,9.265427734375,-0.03420799970626831,0.1291790008544922,0.011222000233829021
1772541042158337800,9.275337890625,-0.030712999403476715,0.1148890033364296,-0.006461999844759703
1772541042168247800,9.285247802734375,-0.01998100057244301,0.04321099817752838,-0.005905999802052975
1772541042178157600,9.295157470703124,-0.0023590000346302986,-0.037939999252557755,0.004486999940127134
1772541042188067600,9.305067626953125,0.006018000189214945,-0.10208400338888168,0.02649099938571453
1772541042197977900,9.314977783203124,0.018400000408291817,-0.137595996260643,0.028913000598549843
1772541042207888000,9.324887939453125,0.03462199866771698,-0.1755490005016327,0.039333000779151917
1772541042217797600,9.334797607421875,0.05860099941492081,-0.21391500532627106,0.020316999405622482
1772541042227707600,9.344707763671876,0.0672840029001236,-0.2145259976387024,-0.033622000366449356
1772541042237617700,9.35461767578125,0.04601199924945831,-0.16269299387931824,-0.08393999934196472
1772541042247527700,9.364527587890626,0.0017869999865069985,-0.09612300246953964,-0.09827499836683273
1772541042257437700,9.374437744140625,-0.04809200018644333,-0.019101999700069427,-0.056276001036167145
1772541042267347700,9.38434765625,-0.05335099995136261,0.06273899972438812,-0.023936999961733818
1772541042277257700,9.3942578125,-0.05186299979686737,0.13240300118923187,0.014480999670922756
1772541042287167700,9.404167724609374,-0.030539000406861305,0.1756100058555603,0.04833199828863144
1772541042297077800,9.414077880859375,0.0009319999953731894,0.16114500164985657,0.061893999576568604
1772541042306987800,9.42398779296875,0.0470849983394146,0.08643999695777893,0.042539000511169434
1772541042316897800,9.433897705078126,0.0847100019454956,0.004352999851107597,0.03250399976968765
1772541042326807600,9.4438076171875,0.0938199982047081,-0.06580600142478943,0.004379999823868275
1772541042336717600,9.453717529296876,0.07999999821186066,-0.11954700201749802,-0.019780000671744347
1772541042346627600,9.463627685546875,0.04628700017929077,-0.14636600017547607,-0.030930999666452408
1772541042356537600,9.47353759765625,0.022040000185370445,-0.1368979960680008,-0.03009999915957451
1772541042366447600,9.483447509765625,-0.006597999949008226,-0.11285600066184998,-0.0568699985742569
1772541042376357600,9.493357666015624,-0.007201000116765499,-0.06275200098752975,-0.07187899947166443
1772541042386267400,9.503267333984375,-0.012827999889850616,-0.01027700025588274,-0.060823000967502594
1772541042396177700,9.513177734375,0.00254400004632771,0.056262001395225525,-0.028348000720143318
1772541042406087400,9.52308740234375,-0.022987000644207,0.08750200271606445,0.010153000243008137
1772541042415997400,9.53299755859375,-0.026180999353528023,0.07369299978017807,0.04919600114226341
1772541042425907500,9.542907470703126,-0.023902999237179756,0.03390999883413315,0.07989300042390823
1772541042435817500,9.5528173828125,0.011261999607086182,-0.006140999961644411,0.10735999792814255
1772541042445727500,9.5627275390625,0.03545999899506569,-0.06313200294971466,0.10995899885892868
1772541042455637500,9.572637451171875,0.05415499955415726,-0.13714200258255005,0.08576299995183945
1772541042465547300,9.58254736328125,0.06780900061130524,-0.2065819948911667,0.054455000907182693
1772541042475457500,9.59245751953125,0.0673459991812706,-0.22120800614356995,0.010654999874532223
1772541042485367300,9.6023671875,0.057642001658678055,-0.20024000108242035,-0.04194600135087967
1772541042495277300,9.61227734375,0.01743599958717823,-0.1456039994955063,-0.08707199990749359
1772541042505187300,9.622187255859375,-0.030827000737190247,-0.08569400012493134,-0.10124299675226212
1772541042515097300,9.632097412109376,-0.06881500035524368,-0.032388001680374146,-0.080765001475811
1772541042525007400,9.64200732421875,-0.07990200072526932,0.01158399973064661,-0.050616998225450516
1772541042534917400,9.65191748046875,-0.0667250007390976,0.0649539977312088,-0.020437000319361687
1772541042544827400,9.661827392578125,-0.033316001296043396,0.08659400045871735,-0.016553999856114388
1772541042554737400,9.6717373046875,-0.0030759999062865973,0.09580899775028229,-0.00871300045400858
1772541042564647200,9.681647216796875,0.007247000001370907,0.07140100002288818,-0.008324000053107738
1772541042574557200,9.69155712890625,0.006903999950736761,-0.0005119999987073243,0.0064849997870624065
1772541042584467200,9.70146728515625,0.029402000829577446,-0.07476899772882462,0.027730999514460564
1772541042594377200,9.711377197265625,0.03954999893903732,-0.12038899958133698,0.018221000209450722
1772541042604287200,9.721287353515624,0.04076699912548065,-0.16598699986934662,0.002686999971047044
1772541042614197200,9.731197265625,0.029441000893712044,-0.19931399822235107,-0.0033199999015778303
1772541042624107300,9.741107177734374,0.023343000560998917,-0.18961100280284882,-0.021764000877738
1772541042634017300,9.751017333984375,-0.009934999980032444,-0.0888419970870018,-0.03552800044417381
1772541042643927300,9.76092724609375,-0.019050000235438347,0.06641999632120132,-0.04867099970579147
1772541042653837300,9.77083740234375,-0.06583599746227264,0.17181000113487244,-0.046323999762535095
1772541042663747000,9.7807470703125,-0.0852769985795021,0.22952300310134888,-0.03268599882721901
1772541042673657000,9.790656982421876,-0.06862200051546097,0.265300989151001,-0.030691999942064285
1772541042683567000,9.800567138671875,-0.05585600063204765,0.2795509994029999,0.001281999982893467
1772541042693477000,9.81047705078125,-0.025647999718785286,0.20300200581550598,0.046330999583005905
1772541042703387100,9.82038720703125,0.04091599956154823,0.04722199961543083,0.0920569971203804
1772541042713297000,9.830296875,0.07102499902248383,-0.10130500048398972,0.09719400107860565
1772541042723207000,9.84020703125,0.10029800236225128,-0.20477600395679474,0.048725999891757965
1772541042733117000,9.850116943359374,0.11440599709749222,-0.23927100002765656,-0.000050999999075429514
1772541042743027000,9.86002685546875,0.1028899997472763,-0.23334099352359772,-0.050599999725818634
1772541042752937000,9.86993701171875,0.04994500055909157,-0.17427900433540344,-0.06721200048923492
1772541042762847000,9.879846923828126,0.00419900007545948,-0.04075299948453903,-0.06974399834871292
1772541042772757000,9.889757080078125,-0.05050700157880783,0.10996299982070923,-0.057169001549482346
1772541042782667000,9.8996669921875,-0.08667699992656708,0.22752100229263306,-0.03124300017952919
1772541042792576800,9.90957666015625,-0.12238100171089172,0.29565098881721497,0.02535800077021122
1772541042802486800,9.91948681640625,-0.10925199836492538,0.3231219947338104,0.06379099935293198
1772541042812396800,9.929396728515625,-0.07280900329351425,0.2857170104980469,0.08909399807453156
1772541042822306800,9.939306884765625,-0.018602000549435616,0.18309199810028076,0.08276499807834625
1772541042832216800,9.949216796875,0.030727999284863472,0.03695699945092201,0.06453599780797958
1772541042842126800,9.959126953125,0.07798600196838379,-0.09508100152015686,0.02201000042259693
1772541042852036900,9.969036865234376,0.08994799852371216,-0.21269699931144714,-0.003200999926775694
1772541042861946600,9.978946533203125,0.1017950028181076,-0.30638301372528076,-0.014171999879181385
1772541042871856600,9.988856689453126,0.07930199801921844,-0.3520190119743347,-0.0429919995367527
1772541042881766700,9.9987666015625,0.057252999395132065,-0.3117859959602356,-0.08552200347185135
1772541042891676700,10.0086767578125,0.01975099928677082,-0.1905059963464737,-0.14426599442958832
1772541042901586700,10.018586669921875,-0.016419000923633575,-0.06911399960517883,-0.1371680051088333
1772541042911496700,10.02849658203125,-0.05979900062084198,0.057739000767469406,-0.08148399740457535
1772541042921406500,10.038406494140625,-0.08068899810314178,0.15150000154972076,-0.03430100157856941
1772541042931316500,10.04831640625,-0.06373400241136551,0.21885600686073303,0.019708000123500824
1772541042941226500,10.0582265625,-0.023218000307679176,0.2688330113887787,0.04929700121283531
1772541042951136500,10.068136474609375,0.0051009999588131905,0.251585990190506,0.07338900119066238
1772541042961046500,10.078046630859374,0.030068999156355858,0.17467500269412994,0.10717400163412094
1772541042970956300,10.087956298828125,0.05963499844074249,0.02132599987089634,0.1188649982213974
1772541042980866600,10.097866455078124,0.07824400067329407,-0.13907299935817719,0.10197699815034866
1772541042990776300,10.1077763671875,0.09254799783229828,-0.258882999420166,0.06363900005817413
1772541043000686300,10.117686279296874,0.07210499793291092,-0.29712700843811035,0.026274999603629112
1772541043010596400,10.127596435546875,0.043083999305963516,-0.26352599263191223,-0.0018980000168085098
1772541043020506400,10.13750634765625,-0.021416999399662018,-0.20081299543380737,-0.009730000048875809
1772541043030416400,10.14741650390625,-0.09424799680709839,-0.11609700322151184,-0.022731000557541847
1772541043040326100,10.157326171875,-0.1297840029001236,-0.01684200018644333,-0.013503000140190125
1772541043050236200,10.167236083984376,-0.14576900005340576,0.07530400156974792,0.007435999810695648
1772541043060146200,10.177146240234375,-0.11564300209283829,0.11448200047016144,0.014045000076293945
1772541043070056200,10.18705615234375,-0.07773800194263458,0.08873800188302994,0.01090100035071373
1772541043079966200,10.19696630859375,-0.05012600123882294,-0.006556000094860792,-0.004220000002533197
1772541043089876200,10.206876220703125,-0.00949000008404255,-0.09951899945735931,0.00724499998614192
1772541043099786200,10.2167861328125,0.05533500015735626,-0.1787019968032837,0.00471000000834465
1772541043109696000,10.226696044921875,0.09899900108575821,-0.2059060037136078,-0.002816000021994114
1772541043119606000,10.23660595703125,0.09181900322437286,-0.15434999763965607,-0.022662999108433723
1772541043129516000,10.24651611328125,0.08295799791812897,-0.0336339995265007,-0.013830999843776226
1772541043139426000,10.256426025390626,0.04751100018620491,0.039650000631809235,0.010181000456213951
1772541043149336000,10.266336181640625,0.020008999854326248,0.01058799959719181,0.028185000643134117
1772541043159246000,10.27624609375,-0.011347999796271324,-0.10393500328063965,-0.0035510000307112932
1772541043169156000,10.286156005859375,-0.03096500039100647,-0.20613500475883484,-0.06327500194311142
1772541043179065900,10.29606591796875,0.006264000199735165,-0.23259900510311127,-0.11769700050354004
1772541043188975900,10.305975830078125,-0.005135000217705965,-0.13504600524902344,-0.15306299924850464
1772541043198886000,10.315885986328125,0.0036269999109208584,0.009828999638557434,-0.12959200143814087
1772541043208796000,10.3257958984375,-0.010494000278413296,0.1453849971294403,-0.05273500084877014
1772541043218706000,10.335705810546875,-0.02956799976527691,0.26007598638534546,0.0482730008661747
1772541043228615700,10.34561572265625,-0.04094700142741203,0.3109230101108551,0.14219500124454498
1772541043238525700,10.355525634765625,-0.0172169990837574,0.33275100588798523,0.20448699593544006
1772541043248435700,10.365435791015624,-0.0036609999369829893,0.3185949921607971,0.20646199584007263
1772541043258345700,10.375345703125,-0.021275000646710396,0.22079400718212128,0.1420699954032898
1772541043268255700,10.385255859375,-0.07208400219678879,0.03962700068950653,0.02344599924981594
1772541043278165800,10.395165771484375,-0.11778199672698975,-0.16982200741767883,-0.09944000095129013
1772541043288075500,10.405075439453125,-0.10287299752235413,-0.3075520098209381,-0.17621000111103058
1772541043297985500,10.414985595703126,-0.043219998478889465,-0.3663659989833832,-0.16223900020122528
1772541043307895600,10.4248955078125,0.027073999866843224,-0.299219012260437,-0.09444700181484222
1772541043317805600,10.4348056640625,0.09207700192928314,-0.1470640003681183,-0.020508000627160072
1772541043327715600,10.444715576171875,0.12034100294113159,0.08533000200986862,0.022828999906778336
1772541043337625300,10.454625244140624,0.08791500329971313,0.27434399724006653,0.027143999934196472
1772541043347535400,10.464535400390625,0.010885000228881836,0.4088689982891083,0.002397000091150403
1772541043357445400,10.4744453125,-0.06752800196409225,0.4513089954853058,-0.000018999999156221747
1772541043367355400,10.48435546875,-0.1403539925813675,0.36864399909973145,0.0013150000013411045
1772541043377265400,10.494265380859375,-0.1501139998435974,0.15569600462913513,0.03687899932265282
1772541043387175200,10.504175048828126,-0.0663440003991127,-0.08140099793672562,0.07930299639701843
1772541043397085200,10.514085205078125,0.0465410016477108,-0.22624599933624268,0.11165700107812881
1772541043406995200,10.5239951171875,0.19035999476909637,-0.27048999071121216,0.10989399999380112
1772541043416905200,10.5339052734375,0.27556899189949036,-0.2259790003299713,0.05885099992156029
1772541043426815200,10.543815185546874,0.25404998660087585,-0.08897899836301804,-0.007884000428020954
1772541043436725000,10.55372509765625,0.11262399703264236,0.035050999373197556,-0.06449300050735474
1772541043446635000,10.563635009765624,-0.07908400148153305,0.09965299814939499,-0.10555999726057053
1772541043456545000,10.573544921875,-0.23926900327205658,0.13818800449371338,-0.1221650019288063
1772541043466455000,10.583455078125,-0.32669898867607117,0.14475800096988678,-0.12779900431632996
1772541043476365000,10.593364990234376,-0.30044999718666077,0.12276999652385712,-0.06587900221347809
1772541043486275000,10.603275146484375,-0.18035300076007843,0.07562699913978577,0.01776999980211258
1772541043496184800,10.613184814453126,-0.012097000144422054,-0.00215000007301569,0.10122299939393997
1772541043506094800,10.6230947265625,0.13877299427986145,-0.06287200003862381,0.13277199864387512
1772541043516004900,10.6330048828125,0.25859999656677246,-0.12081299722194672,0.11713699996471405
1772541043525915000,10.642914794921875,0.27505800127983093,-0.1125430017709732,0.0767970010638237
1772541043535825000,10.652824951171874,0.17566999793052673,-0.07684700191020966,0.040376000106334686
1772541043545735000,10.66273486328125,0.00018000000272877514,-0.026325000450015068,0.040011998265981674
1772541043555644700,10.672644775390625,-0.1388770043849945,-0.023560000583529472,0.0437219999730587
1772541043565554700,10.6825546875,-0.22678300738334656,-0.04066599905490875,0.04035700112581253
1772541043575464700,10.692464599609375,-0.20346400141716003,-0.07727199792861938,0.025995999574661255
1772541043585374700,10.702374755859376,-0.11227700114250183,-0.11297000199556351,0.01703600026667118
1772541043595284500,10.712284423828125,0.03327399864792824,-0.13437899947166443,0.006666999775916338
1772541043605194500,10.722194580078124,0.13145500421524048,-0.0954589992761612,0.000004999999873689376
1772541043615104500,10.7321044921875,0.14445100724697113,0.009495999664068222,-0.039388999342918396
1772541043625014500,10.7420146484375,0.13064700365066528,0.0853710025548935,-0.06317900121212006
1772541043634924300,10.75192431640625,0.05045599862933159,0.11443600058555603,-0.07954999804496765
1772541043644834300,10.761834228515625,-0.029729999601840973,0.08540999889373779,-0.05089699849486351
1772541043654744300,10.771744384765626,-0.05922500044107437,0.009732999838888645,-0.006178999785333872
1772541043664654300,10.781654296875,-0.045308999717235565,-0.07981599867343903,0.041811998933553696
1772541043674564000,10.791564208984376,-0.027248000726103783,-0.14533300697803497,0.06288199871778488
1772541043684474000,10.80147412109375,-0.019277000799775124,-0.17490099370479584,0.07489600032567978
1772541043694384000,10.811384033203124,0.007519999984651804,-0.1740110069513321,0.04224900156259537
1772541043704294100,10.821294189453125,0.033257000148296356,-0.14284199476242065,0.004236000124365091
1772541043714204200,10.8312041015625,0.03377100080251694,-0.08124200254678726,-0.05768200010061264
1772541043724114200,10.8411142578125,0.026290999725461006,0.011095000430941582,-0.08238299936056137
1772541043734024200,10.851024169921875,-0.005876000039279461,0.09407699853181839,-0.0778139978647232
1772541043743934000,10.860933837890625,-0.03864699974656105,0.1870969980955124,-0.0447160005569458
1772541043753844000,10.870843994140625,-0.07745499908924103,0.23798799514770508,0.011506999842822552
1772541043763754000,10.88075390625,-0.07326900213956833,0.22703799605369568,0.06164399906992912
1772541043773664000,10.8906640625,-0.02707199938595295,0.14863599836826324,0.0736989974975586
1772541043783573800,10.90057373046875,0.04004399850964546,0.05243999883532524,0.04017899930477142
1772541043793483800,10.91048388671875,0.09395600110292435,-0.05660500004887581,-0.010724999941885471
1772541043803393800,10.920393798828124,0.10299800336360931,-0.14438700675964355,-0.06813199818134308
1772541043813303800,10.9303037109375,0.07535900175571442,-0.21022899448871613,-0.10745099931955338
1772541043823213800,10.9402138671875,0.024460000917315483,-0.22982899844646454,-0.12337899953126907
1772541043833123800,10.950123779296876,-0.013539000414311886,-0.198511004447937,-0.10246899724006653
1772541043843033600,10.96003369140625,-0.05352799966931343,-0.1162090003490448,-0.05650600045919418
1772541043852943600,10.969943603515626,-0.06129800155758858,0.00922400038689375,-0.01158900000154972
1772541043862853600,10.979853515625,-0.06660299748182297,0.16321399807929993,0.02811400033533573
1772541043872763600,10.989763671875,-0.07562699913978577,0.28117498755455017,0.04731300100684166
1772541043882673700,10.999673583984375,-0.08856700360774994,0.3156520128250122,0.06886199861764908
1772541043892583400,11.00958349609375,-0.05417200177907944,0.27564799785614014,0.08978699892759323
1772541043902493400,11.019493408203125,0.010696000419557095,0.19401100277900696,0.07317399978637695
1772541043912403200,11.0294033203125,0.0881659984588623,0.1062370017170906,0.02472499944269657
1772541043922313200,11.039313232421875,0.10805899649858475,-0.01996600069105625,0.0014590000500902534
1772541043932223200,11.04922314453125,0.1194010004401207,-0.15081000328063965,-0.014492000453174114
1772541043942133200,11.05913330078125,0.10277999937534332,-0.23815399408340454,-0.036090999841690063
1772541043952043300,11.069043212890625,0.05764500051736832,-0.2579050064086914,-0.07308000326156616
1772541043961953000,11.078953125,0.011730000376701355,-0.2246129959821701,-0.10835299640893936
1772541043971863000,11.088863037109375,-0.05307000130414963,-0.14268100261688232,-0.10439500212669373
1772541043981773000,11.09877294921875,-0.11665800213813782,-0.07173199951648712,-0.09111600369215012
1772541043991682800,11.108682861328125,-0.14866499602794647,-0.012059999629855156,-0.04789699986577034
1772541044001592800,11.1185927734375,-0.12622399628162384,0.052025001496076584,-0.02086699940264225
1772541044011502800,11.1285029296875,-0.08091100305318832,0.12250500172376633,0.006395999807864428
1772541044021412900,11.138412841796875,-0.03644900023937225,0.1755640059709549,0.0423940010368824
1772541044031323000,11.148322998046876,0.007811000104993582,0.1778549998998642,0.08141300082206726
1772541044041233000,11.15823291015625,0.04826299846172333,0.15101000666618347,0.1055229976773262
1772541044051143000,11.168142822265626,0.0882050022482872,0.06866499781608582,0.10263899713754654
1772541044061052700,11.178052734375,0.10432399809360504,-0.044748999178409576,0.0965690016746521
1772541044070962700,11.187962646484374,0.08824200183153152,-0.1600009948015213,0.0836310014128685
1772541044080872700,11.197872802734375,0.0791269987821579,-0.24629999697208405,0.058122001588344574
1772541044090782500,11.207782470703124,0.04297399893403053,-0.26993098855018616,0.019381999969482422
1772541044100692500,11.2176923828125,-0.005348000209778547,-0.2571609914302826,-0.01549100037664175
1772541044110602200,11.227602294921875,-0.056262001395225525,-0.21989700198173523,-0.03791800141334534
1772541044120512300,11.23751220703125,-0.08592099696397781,-0.14893199503421783,-0.048629000782966614
1772541044130422300,11.24742236328125,-0.08176299929618835,-0.04728800058364868,-0.04831299930810928
1772541044140332300,11.257332275390626,-0.07944100350141525,0.047015998512506485,-0.01898599974811077
1772541044150242300,11.2672421875,-0.06526300311088562,0.11710099875926971,0.00608400022611022
1772541044160152300,11.27715234375,-0.04397299885749817,0.1414099931716919,0.024793000891804695
1772541044170062000,11.28706201171875,-0.006690000183880329,0.09606199711561203,0.05864499881863594
1772541044179972000,11.29697216796875,0.03947100043296814,0.00010800000018207356,0.07089699804782867
1772541044189882000,11.306882080078125,0.0980599969625473,-0.09408699721097946,0.07020799815654755
1772541044199792000,11.316792236328125,0.13486400246620178,-0.17911100387573242,0.06425999850034714
1772541044209702000,11.326701904296876,0.12931600213050842,-0.20193199813365936,0.039096999913454056
1772541044219612000,11.33661181640625,0.0742029994726181,-0.20970100164413452,0.012059000320732594
1772541044229522000,11.34652197265625,0.0038920000661164522,-0.16872400045394897,-0.009929000400006771
1772541044239432000,11.356431884765625,-0.06491100043058395,-0.11733199656009674,-0.03152899816632271
1772541044249342000,11.366342041015624,-0.08688099682331085,-0.06353999674320221,-0.054836999624967575
1772541044259251700,11.376251708984375,-0.1053289994597435,-0.007249000016599894,-0.060380998998880386
1772541044269161700,11.38616162109375,-0.0792590007185936,0.04877400025725365,-0.017506999894976616
1772541044279071700,11.39607177734375,-0.035930000245571136,0.11587700247764587,0.013155999593436718
1772541044288981500,11.4059814453125,0.004139000084251165,0.17542800307273865,0.053578998893499374
1772541044298891500,11.4158916015625,0.04145500063896179,0.20593300461769104,0.08969300240278244
1772541044308801500,11.425801513671875,0.06158500164747238,0.17359499633312225,0.09083099663257599
1772541044318711600,11.435711669921876,0.09146600216627121,0.12382099777460098,0.043960001319646835
1772541044328621300,11.445621337890625,0.12348400056362152,0.08519300073385239,-0.01387799996882677
1772541044338531300,11.45553125,0.10927499830722809,0.06312499940395355,-0.08158300071954727
1772541044348441000,11.465441162109375,0.07244899868965149,0.05810000002384186,-0.12798500061035156
1772541044358351000,11.47535107421875,-0.012965000234544277,0.042764000594615936,-0.1749729961156845
1772541044368261000,11.48526123046875,-0.09405600279569626,0.04992600157856941,-0.16853199899196625
1772541044378171100,11.495171142578124,-0.13863299787044525,0.0436829999089241,-0.14927799999713898
1772541044388081200,11.5050810546875,-0.12664000689983368,0.04480399936437607,-0.09923599660396576
1772541044397991000,11.514990966796875,-0.0878629982471466,0.0696830004453659,-0.02556999959051609
1772541044407901000,11.52490087890625,-0.03355500102043152,0.08201300352811813,0.025838999077677727
1772541044417811000,11.53481103515625,0.002420000033453107,0.10095500200986862,0.03789899870753288
1772541044427721000,11.544720947265626,0.021870000287890434,0.0839110016822815,0.03233199939131737
1772541044437631000,11.554630859375,0.049306999891996384,0.08102600276470184,0.042791999876499176
1772541044447540700,11.564540771484374,0.05481699854135513,0.03720400109887123,0.05258699879050255
1772541044457450800,11.57445068359375,0.06066799908876419,-0.008834999985992908,0.06539600342512131
1772541044467360800,11.58436083984375,0.06447599828243256,-0.057110000401735306,0.07428699731826782
1772541044477270500,11.5942705078125,0.07438399642705917,-0.06954699754714966,0.08629100024700165
1772541044487180500,11.6041806640625,0.06302999705076218,-0.03872400149703026,0.10356199741363525
1772541044497090600,11.614090576171876,0.036896001547575,-0.031537000089883804,0.10181000083684921
1772541044507000600,11.62400048828125,-0.004344000015407801,-0.03125600144267082,0.08429300040006638
1772541044516910600,11.63391064453125,-0.04086900129914284,-0.018716000020503998,0.06105099990963936
1772541044526820400,11.6438203125,-0.05266600102186203,-0.013295999728143215,0.0459510013461113
1772541044536730400,11.65373046875,-0.06591399759054184,-0.01016599964350462,0.03647499904036522
1772541044546640100,11.66364013671875,-0.06430599838495255,-0.016025999560952187,0.03724300116300583
1772541044556550100,11.673550048828124,-0.04777200147509575,-0.010281000286340714,0.03175099939107895
1772541044566460200,11.683460205078125,-0.01759300008416176,-0.00266700005158782,0.031183000653982162
1772541044576370200,11.6933701171875,0.0037950000260025263,-0.03136799857020378,0.011157000437378883
1772541044586280200,11.7032802734375,0.022374000400304794,-0.12249100208282471,-0.009607000276446342
1772541044596190000,11.71318994140625,0.05848100036382675,-0.2379090040922165,-0.02916100062429905
1772541044606100000,11.723099853515626,0.07750900089740753,-0.33415400981903076,-0.028210999444127083
1772541044616009700,11.733009765625,0.09108199924230576,-0.37786000967025757,-0.036504000425338745
1772541044625919700,11.742919677734376,0.08370400220155716,-0.3902580142021179,-0.02693299949169159
1772541044635829800,11.752829833984375,0.05223499983549118,-0.3520300090312958,-0.026590999215841293
1772541044645739800,11.76273974609375,0.0014590000500902534,-0.31308698654174805,-0.027854999527335167
1772541044655649800,11.77264990234375,-0.027083000168204308,-0.29989999532699585,-0.013465999625623226
1772541044665559600,11.7825595703125,-0.025363000109791756,-0.25098299980163574,-0.012896999716758728
1772541044675469600,11.792469482421875,0.0031789999920874834,-0.16692300140857697,-0.016152000054717064
1772541044685379600,11.802379638671875,0.010135999880731106,-0.07605700194835663,-0.0053980001248419285
1772541044695289300,11.812289306640626,0.017192000523209572,-0.0022929999977350235,0.004819999914616346
1772541044705199400,11.822199462890625,-0.010835000313818455,-0.021302999928593636,0.013975000008940697
1772541044715109400,11.832109375,-0.02098800055682659,-0.13058599829673767,0.02347400039434433
1772541044725019100,11.84201904296875,0.03716500103473663,-0.25707000494003296,0.028534000739455223
1772541044734929200,11.85192919921875,0.08681400120258331,-0.33383798599243164,0.028030000627040863
1772541044744839200,11.861839111328125,0.1281840056180954,-0.38484400510787964,0.02267399989068508
1772541044754749200,11.871749267578124,0.12403400242328644,-0.3903680145740509,0.019632000476121902
1772541044764659000,11.881658935546875,0.08943899720907211,-0.3788340091705322,-0.008888999931514263
1772541044774569000,11.89156884765625,0.05595799908041954,-0.3838590085506439,-0.06485699862241745
1772541044784479000,11.90147900390625,0.0257750004529953,-0.39100000262260437,-0.10233800113201141
1772541044794389000,11.911388916015625,0.024454999715089798,-0.37428799271583557,-0.11191900074481964
1772541044804298800,11.921298828125,0.05961700156331062,-0.3248020112514496,-0.1113160029053688
1772541044814208800,11.931208740234375,0.046626001596450806,-0.24870100617408752,-0.05343899875879288
1772541044824118500,11.941118408203126,0.04250200092792511,-0.17957299947738647,-0.0005119999987073243
1772541044834028500,11.951028564453125,0.03816799819469452,-0.1557289958000183,0.03685399889945984
1772541044843938600,11.9609384765625,0.043460000306367874,-0.1821810007095337,0.03147599846124649
1772541044853848300,11.970848388671875,0.07955700159072876,-0.22096799314022064,0.0391400009393692
1772541044863758300,11.98075830078125,0.09384199976921082,-0.28589698672294617,0.0324379988014698
1772541044873668400,11.99066845703125,0.12805500626564026,-0.3343439996242523,0.023414000868797302
1772541044883578400,12.000578369140625,0.09035900235176086,-0.3632430136203766,0.019026000052690506
1772541044893488000,12.010488037109376,0.06185400113463402,-0.3942750096321106,-0.0033599999733269215
1772541044903398100,12.020398193359375,0.03512899950146675,-0.4369890093803406,-0.011242999695241451
1772541044913308200,12.03030810546875,0.026240000501275063,-0.46052199602127075,-0.05513399839401245
1772541044923218200,12.04021826171875,0.031139999628067017,-0.4601390063762665,-0.09162899851799011
1772541044933128000,12.0501279296875,0.05414700135588646,-0.4078829884529114,-0.1199750006198883
1772541044943038000,12.060037841796875,0.03861499950289726,-0.3270390033721924,-0.12304800003767014
1772541044952948000,12.069947998046874,0.012420999817550182,-0.25296199321746826,-0.08365599811077118
1772541044962858000,12.07985791015625,-0.0011119999689981341,-0.2120009958744049,-0.036607999354600906
1772541044972767700,12.089767822265625,0.009394999593496323,-0.18082599341869354,-0.008785000070929527
1772541044982677800,12.099677734375,0.03976299986243248,-0.1810780018568039,-0.01410400029271841
1772541044992587800,12.109587890625,0.04650000110268593,-0.23151500523090363,-0.010498999617993832
1772541045002497500,12.11949755859375,0.08111400157213211,-0.32276201248168945,-0.01696299947798252
1772541045012407600,12.129407470703125,0.08008900284767151,-0.4114510118961334,-0.013110999949276447
1772541045022317600,12.139317626953124,0.08493799716234207,-0.49270099401474,-0.010363999754190445
1772541045032227300,12.149227294921875,0.10081899911165237,-0.5334759950637817,-0.025761999189853668
1772541045042137300,12.159137451171874,0.11308199912309647,-0.5482349991798401,-0.04424599930644035
1772541045052047000,12.169047119140625,0.0889040008187294,-0.5196999907493591,-0.056370001286268234
1772541045061957000,12.17895703125,0.06372799724340439,-0.46456700563430786,-0.04498099908232689
1772541045071867100,12.1888671875,0.04861599951982498,-0.4141719937324524,-0.042764998972415924
1772541045081777200,12.198777099609375,0.012392000295221806,-0.3681589961051941,-0.04446699842810631
1772541045091687200,12.208687255859376,0.002974000060930848,-0.3267360031604767,-0.0239889994263649
1772541045101597000,12.218596923828125,0.01570500060915947,-0.2925899922847748,0.010359000414609909
1772541045111507000,12.2285068359375,0.040056999772787094,-0.28034400939941406,0.02418600022792816
1772541045121417000,12.2384169921875,0.04597499966621399,-0.35895299911499023,0.018705999478697777
1772541045131326700,12.24832666015625,0.08825299888849258,-0.49304598569869995,-0.009289000183343887
1772541045141237000,12.258237060546875,0.11516900360584259,-0.5866339802742004,-0.02247600071132183
1772541045151146800,12.268146728515624,0.13180799782276154,-0.6372489929199219,-0.03073599934577942
1772541045161056800,12.278056884765626,0.1427370011806488,-0.6544880270957947,-0.02959899976849556
1772541045170966500,12.287966552734375,0.12876200675964355,-0.6737719774246216,-0.015754999592900276
1772541045180876300,12.297876220703126,0.0811230018734932,-0.682699978351593,-0.01409200020134449
1772541045190786300,12.307786376953125,0.05731299892067909,-0.6769220232963562,-0.019094999879598618
1772541045200696300,12.3176962890625,0.03541899845004082,-0.6589639782905579,-0.0298250000923872
1772541045210606300,12.3276064453125,0.0457179993391037,-0.6197779774665833,-0.039090000092983246
1772541045220516400,12.337516357421874,0.06976799666881561,-0.5763869881629944,-0.04703199863433838
1772541045230426000,12.347426025390625,0.08875499665737152,-0.5311300158500671,-0.05597300082445145
1772541045240336100,12.357336181640624,0.11631499975919724,-0.500868022441864,-0.0614669993519783
1772541045250246000,12.367245849609375,0.11250700056552887,-0.48260799050331116,-0.05756000056862831
1772541045260156000,12.377156005859375,0.09854400157928467,-0.49741101264953613,-0.03439300134778023
1772541045270066000,12.38706591796875,0.08180399984121323,-0.5261269807815552,-0.008209999650716782
1772541045279976000,12.396975830078125,0.08007799834012985,-0.549884021282196,0.002672000089660287
1772541045289886000,12.406885986328126,0.11390099674463272,-0.5667210221290588,0.006031000055372715
1772541045299795700,12.416795654296875,0.11003799736499786,-0.6004570126533508,-0.035034000873565674
1772541045309705700,12.426705810546874,0.09191899746656418,-0.6411830186843872,-0.07051099836826324
