time,seconds_elapsed,z,y,x
1772541033100667000,0.2176669921875,10.014771461486816,0.6064630150794983,-0.5100539922714233
1772541033110576600,0.22757666015625,9.751407623291016,0.5777329802513123,-0.330487996339798
1772541033120486100,0.237486083984375,9.502410888671875,0.5968869924545288,-0.4645639955997467
1772541033130396400,0.247396484375,9.44016170501709,0.7213850021362305,-0.6944069862365723
1772541033140306200,0.25730615234375,9.770561218261719,1.0757269859313965,-0.8691840171813965
1772541033150216200,0.26721630859375,10.208700180053711,0.9823529720306396,-0.7494739890098572
1772541033160126000,0.2771259765625,10.4696683883667,0.8051819801330566,-0.8883370161056519
1772541033170035700,0.28703564453125,10.50318717956543,0.5609740018844604,-1.0319900512695312
1772541033179945700,0.29694580078125,10.405024528503418,0.5490019917488098,-0.7614449858665466
1772541033189855500,0.30685546875,10.249402046203613,0.6327999830245972,-0.5052649974822998
1772541033199765200,0.31676513671875,10.002799034118652,0.6423760056495667,-0.41189101338386536
1772541033209675300,0.32667529296875,9.796897888183594,0.7309619784355164,-0.2849990129470825
1772541033219585300,0.336585205078125,10.002799034118652,0.9129210114479065,-0.3209120035171509
1772541033229495000,0.3464951171875,10.37868881225586,1.1691009998321533,-0.5148419737815857
1772541033239404800,0.35640478515625,10.589378356933594,1.1930429935455322,-0.8811550140380859
1772541033249314800,0.366314697265625,10.151239395141602,0.7549039721488953,-1.2211320400238037
1772541033259224600,0.376224609375,9.650141716003418,0.8475080132484436,-1.482066035270691
1772541033269134600,0.386134521484375,9.571488380432129,0.9867749810218811,-1.8581899404525757
1772541033279044400,0.39604443359375,9.47008991241455,1.1318329572677612,-2.2530789375305176
1772541033288954000,0.4059541015625,9.356889724731445,1.274211049079895,-2.620116949081421
1772541033298864000,0.415864013671875,9.245266914367676,1.405135989189148,-2.9309749603271484
1772541033308774100,0.425774169921875,9.142783164978027,1.5195839405059814,-3.184393882751465
1772541033318684000,0.435683837890625,9.055013656616211,1.6152420043945312,-3.3819708824157715
1772541033328593700,0.44559375,8.975143432617188,1.6976959705352783,-3.5503039360046387
1772541033338503700,0.455503662109375,8.898372650146484,1.7717889547348022,-3.704015016555786
1772541033348413400,0.465413330078125,8.826123237609863,1.836487054824829,-3.842768907546997
1772541033358323500,0.475323486328125,8.756623268127441,1.8922959566116333,-3.9725000858306885
1772541033368233200,0.485233154296875,8.687703132629395,1.9420679807662964,-4.097827911376953
1772541033378143000,0.49514306640625,8.620587348937988,1.9868830442428589,-4.216370105743408
1772541033388053000,0.505052978515625,8.554656982421875,2.032248020172119,-4.3275628089904785
1772541033397962800,0.514962646484375,8.493512153625488,2.0742599964141846,-4.426928997039795
1772541033407872800,0.524872802734375,8.426362991333008,2.122347116470337,-4.531231880187988
1772541033417782800,0.53478271484375,8.35253620147705,2.166930913925171,-4.645378112792969
1772541033427692300,0.5446923828125,8.277963638305664,2.2079010009765625,-4.758203029632568
1772541033437602300,0.554602294921875,8.207398414611816,2.23740291595459,-4.865454196929932
1772541033447512300,0.56451220703125,8.134154319763184,2.252980947494507,-4.979920864105225
1772541033457422000,0.574422119140625,8.060774803161621,2.2650740146636963,-5.092480182647705
1772541033467332000,0.58433203125,8.048357963562012,2.333108901977539,-5.081387996673584
1772541033477241900,0.594241943359375,8.050501823425293,2.44535493850708,-5.024907112121582
1772541033487151600,0.604151611328125,8.058686256408691,2.53658390045166,-4.966218948364258
1772541033497061600,0.6140615234375,8.077803611755371,2.5795140266418457,-4.91275691986084
1772541033506971400,0.623971435546875,8.123469352722168,2.5819060802459717,-4.835600852966309
1772541033516881200,0.633881103515625,8.185112953186035,2.564976930618286,-4.739709854125977
1772541033526791400,0.64379150390625,8.248876571655273,2.537992000579834,-4.642693996429443
1772541033536701200,0.653701171875,8.307865142822266,2.502716064453125,-4.555854797363281
1772541033546611000,0.66361083984375,8.355866432189941,2.473155975341797,-4.483636856079102
1772541033556520700,0.673520751953125,8.39487075805664,2.465364933013916,-4.4145379066467285
1772541033566430700,0.6834306640625,8.406975746154785,2.4633541107177734,-4.392567157745361
1772541033576340500,0.693340576171875,8.408970832824707,2.439668893814087,-4.40195894241333
1772541033586250200,0.703250244140625,8.415450096130371,2.378000020980835,-4.423268795013428
1772541033596160500,0.713160400390625,8.448851585388184,2.2756450176239014,-4.413428783416748
1772541033606070300,0.7230703125,8.493897438049316,2.1551198959350586,-4.387386798858643
1772541033615980000,0.73297998046875,8.54731559753418,2.021976947784424,-4.346835136413574
1772541033625889800,0.742889892578125,8.612577438354492,1.8787850141525269,-4.281782150268555
1772541033635799800,0.7527998046875,8.687698364257812,1.7319680452346802,-4.190964221954346
1772541033645709800,0.762709716796875,8.764328002929688,1.5868819952011108,-4.087586879730225
1772541033655619600,0.77261962890625,8.833157539367676,1.44663405418396,-3.99031400680542
1772541033665529300,0.782529296875,8.896659851074219,1.3101409673690796,-3.8952488899230957
1772541033675439000,0.792439208984375,8.957084655761719,1.181615948677063,-3.7966320514678955
1772541033685349000,0.80234912109375,9.00881576538086,1.0630730390548706,-3.7082479000091553
1772541033695259000,0.8122587890625,9.058231353759766,0.9361500144004822,-3.6210598945617676
1772541033705169000,0.8221689453125,9.106284141540527,0.7759249806404114,-3.5374460220336914
1772541033715078700,0.83207861328125,9.145101547241211,0.5736939907073975,-3.475343942642212
1772541033724988700,0.84198876953125,9.171276092529297,0.342056006193161,-3.4366719722747803
1772541033734898400,0.8518984375,9.184934616088867,0.09718500077724457,-3.4157800674438477
1772541033744808200,0.86180810546875,9.189433097839355,-0.14313900470733643,-3.402031898498535
1772541033754718500,0.871718505859375,9.186141967773438,-0.3595530092716217,-3.394926071166992
1772541033764628200,0.881628173828125,9.182458877563477,-0.5400199890136719,-3.3809518814086914
1772541033774538200,0.891538330078125,9.189046859741211,-0.6835740208625793,-3.336785078048706
1772541033784448000,0.901447998046875,9.207454681396484,-0.8038700222969055,-3.258310079574585
1772541033794357800,0.911357666015625,9.235941886901855,-0.9160299897193909,-3.1461501121520996
1772541033804267800,0.921267822265625,9.272581100463867,-1.0252799987792969,-3.0013489723205566
1772541033814177500,0.931177490234375,9.312004089355469,-1.1324729919433594,-2.836211919784546
1772541033824087300,0.94108740234375,9.3477201461792,-1.239819049835205,-2.6688969135284424
1772541033833997300,0.950997314453125,9.376150131225586,-1.3548929691314697,-2.5084009170532227
1772541033843907000,0.960906982421875,9.394243240356445,-1.4836490154266357,-2.363677978515625
1772541033853816800,0.97081689453125,9.400592803955078,-1.6210030317306519,-2.24526309967041
1772541033863726800,0.980726806640625,9.394314765930176,-1.762699007987976,-2.1632730960845947
1772541033873636900,0.990636962890625,9.375959396362305,-1.903182029724121,-2.123512029647827
1772541033883546600,1.000546630859375,9.348763465881348,-2.040998935699463,-2.115415096282959
1772541033893456600,1.01045654296875,9.316593170166016,-2.176516056060791,-2.1222360134124756
1772541033903366400,1.020366455078125,9.28728199005127,-2.276650905609131,-2.145517110824585
1772541033913276200,1.030276123046875,9.265739440917969,-2.3613529205322266,-2.147110939025879
1772541033923186200,1.040186279296875,9.251605987548828,-2.4300549030303955,-2.13134503364563
1772541033933096000,1.050095947265625,9.240694046020508,-2.4870429039001465,-2.11286997795105
1772541033943006000,1.060005859375,9.227949142456055,-2.538019895553589,-2.1079330444335938
1772541033952915700,1.069915771484375,9.211136817932129,-2.5907790660858154,-2.117271900177002
1772541033962825500,1.079825439453125,9.188931465148926,-2.6512389183044434,-2.1388161182403564
1772541033972735500,1.089735595703125,9.157069206237793,-2.72462797164917,-2.1827750205993652
1772541033982645200,1.099645263671875,9.119535446166992,-2.80887508392334,-2.2325599193573
1772541033992555300,1.10955517578125,9.08292007446289,-2.892019033432007,-2.2752580642700195
1772541034002465300,1.11946533203125,9.048458099365234,-2.962538957595825,-2.3213789463043213
1772541034012375000,1.129375,9.016547203063965,-3.0179450511932373,-2.373581886291504
1772541034022284800,1.139284912109375,8.988802909851074,-3.0576930046081543,-2.427335023880005
1772541034032194800,1.14919482421875,8.965133666992188,-3.085127115249634,-2.4795949459075928
1772541034042104600,1.1591044921875,8.942910194396973,-3.1080470085144043,-2.5306999683380127
1772541034052014300,1.169014404296875,8.920774459838867,-3.1331288814544678,-2.5774600505828857
1772541034061924400,1.17892431640625,8.899080276489258,-3.1636319160461426,-2.6149160861968994
1772541034071834000,1.188834228515625,8.879043579101562,-3.2017199993133545,-2.6365859508514404
1772541034081744100,1.198744140625,8.860968589782715,-3.241929054260254,-2.648228883743286
1772541034091654000,1.20865380859375,8.843668937683105,-3.2820169925689697,-2.656665086746216
1772541034101564000,1.21856396484375,8.82614803314209,-3.320525884628296,-2.667064905166626
1772541034111473700,1.2284736328125,8.806790351867676,-3.3562850952148438,-2.686223030090332
1772541034121383700,1.2383837890625,8.784820556640625,-3.3929688930511475,-2.711958885192871
1772541034131293400,1.24829345703125,8.76059627532959,-3.4380691051483154,-2.733426094055176
1772541034141203500,1.258203369140625,8.73470687866211,-3.493886947631836,-2.7454800605773926
1772541034151113200,1.26811328125,8.7090425491333,-3.557076930999756,-2.7458670139312744
1772541034161023000,1.27802294921875,8.683107376098633,-3.6243560314178467,-2.740022897720337
1772541034170933000,1.28793310546875,8.655396461486816,-3.6947970390319824,-2.733607053756714
1772541034180842800,1.2978427734375,8.623305320739746,-3.770503044128418,-2.731652021408081
1772541034190752500,1.30775244140625,8.585991859436035,-3.855207920074463,-2.730963945388794
1772541034200662500,1.31766259765625,8.540852546691895,-3.9528090953826904,-2.732980966567993
1772541034210572300,1.327572265625,8.482438087463379,-4.066258907318115,-2.748414993286133
1772541034220482300,1.337482421875,8.405943870544434,-4.198959827423096,-2.7836809158325195
1772541034230392000,1.34739208984375,8.307470321655273,-4.354794025421143,-2.8393208980560303
1772541034240301800,1.3573017578125,8.217951774597168,-4.470499038696289,-2.918889045715332
1772541034250211800,1.3672119140625,8.112434387207031,-4.600603103637695,-3.0104548931121826
1772541034260121900,1.377121826171875,7.99441385269165,-4.74268913269043,-3.1042280197143555
1772541034270031600,1.387031494140625,7.866654872894287,-4.893243789672852,-3.1956090927124023
1772541034279941600,1.396941650390625,7.732316017150879,-5.046512126922607,-3.2839009761810303
1772541034289851400,1.406851318359375,7.5968427658081055,-5.198060989379883,-3.362751007080078
1772541034299761200,1.41676123046875,7.467291831970215,-5.342626094818115,-3.425766944885254
1772541034309671200,1.426671142578125,7.352069854736328,-5.473491191864014,-3.468135118484497
1772541034319581000,1.436580810546875,7.249409198760986,-5.5914177894592285,-3.4960110187530518
1772541034329490700,1.44649072265625,7.150807857513428,-5.702507972717285,-3.519566059112549
1772541034339400700,1.456400634765625,7.04888916015625,-5.813435077667236,-3.5436038970947266
1772541034349310500,1.466310546875,6.937623023986816,-5.928966999053955,-3.5716609954833984
1772541034359220200,1.47622021484375,6.808139801025391,-6.0547637939453125,-3.6095809936523438
1772541034369130200,1.486130126953125,6.653102874755859,-6.1940131187438965,-3.662024974822998
1772541034379040000,1.4960400390625,6.472576141357422,-6.346366882324219,-3.7241599559783936
1772541034388950000,1.505949951171875,6.270904064178467,-6.508354187011719,-3.7890748977661133
1772541034398860000,1.515860107421875,6.054790019989014,-6.676054000854492,-3.8483500480651855
1772541034408769800,1.525769775390625,5.831040859222412,-6.843326091766357,-3.899724006652832
1772541034418679600,1.535679443359375,5.601204872131348,-7.007719993591309,-3.944408893585205
1772541034428589600,1.545589599609375,5.368372917175293,-7.166855812072754,-3.98205304145813
1772541034438499300,1.555499267578125,5.134334087371826,-7.31760311126709,-4.016378879547119
1772541034448409000,1.5654091796875,4.893304824829102,-7.4603447914123535,-4.054480075836182
1772541034458319000,1.575319091796875,4.641171932220459,-7.597431182861328,-4.096162796020508
1772541034468228900,1.585228759765625,4.3779191970825195,-7.731777191162109,-4.134419918060303
1772541034478138600,1.595138671875,4.1002020835876465,-7.866261005401611,-4.165369033813477
1772541034488048600,1.605048583984375,3.8041210174560547,-7.997513771057129,-4.1962409019470215
1772541034497958400,1.61495849609375,3.5008020401000977,-8.116073608398438,-4.232460975646973
1772541034507868200,1.6248681640625,3.201404094696045,-8.214362144470215,-4.279634952545166
1772541034517778400,1.6347783203125,2.9141271114349365,-8.284436225891113,-4.349253177642822
1772541034527688200,1.644688232421875,2.639224052429199,-8.32819652557373,-4.440227031707764
1772541034537598000,1.654597900390625,2.372437000274658,-8.353531837463379,-4.5420308113098145
1772541034547508000,1.664508056640625,2.1102778911590576,-8.371088027954102,-4.638059139251709
1772541034557417700,1.674417724609375,1.8564939498901367,-8.391093254089355,-4.709880828857422
1772541034567327500,1.684327392578125,1.620911955833435,-8.420981407165527,-4.743384838104248
1772541034577237500,1.694237548828125,1.4086329936981201,-8.461708068847656,-4.7386932373046875
1772541034587147300,1.704147216796875,1.237373948097229,-8.504217147827148,-4.710328102111816
1772541034597057300,1.714057373046875,1.1088809967041016,-8.538249015808105,-4.680669784545898
1772541034606967000,1.723967041015625,1.0003910064697266,-8.562943458557129,-4.659961223602295
1772541034616876800,1.733876708984375,0.9150729775428772,-8.580554008483887,-4.645078182220459
1772541034626786800,1.743786865234375,0.8811799883842468,-8.610686302185059,-4.595606803894043
1772541034636696800,1.75369677734375,0.8384919762611389,-8.690242767333984,-4.45158576965332
1772541034646606600,1.763606689453125,0.7939670085906982,-8.764668464660645,-4.311639785766602
1772541034656516600,1.7735166015625,0.7691799998283386,-8.859733581542969,-4.117462158203125
1772541034666426400,1.78342626953125,0.7510989904403687,-8.920751571655273,-3.986984968185425
1772541034676336400,1.79333642578125,0.7379890084266663,-8.984416961669922,-3.8439080715179443
1772541034686246100,1.80324609375,0.7407600283622742,-9.041107177734375,-3.7080509662628174
1772541034696156200,1.81315625,0.7909500002861023,-9.066513061523438,-3.634932041168213
1772541034706066200,1.823066162109375,0.814765989780426,-9.084315299987793,-3.584881067276001
1772541034715975700,1.8329755859375,0.7825999855995178,-9.111467361450195,-3.522602081298828
1772541034725885700,1.8428857421875,0.7108169794082642,-9.142751693725586,-3.4561309814453125
1772541034735795700,1.852795654296875,0.6333360075950623,-9.166548728942871,-3.4078309535980225
1772541034745705200,1.862705322265625,0.5658000111579895,-9.174018859863281,-3.3995978832244873
1772541034755615200,1.872615234375,0.5133479833602905,-9.161511421203613,-3.4413959980010986
1772541034765525200,1.882525146484375,0.4927450120449066,-9.094788551330566,-3.616909980773926
1772541034775435000,1.89243505859375,0.49386000633239746,-9.042825698852539,-3.7447879314422607
1772541034785344800,1.9023447265625,0.5128350257873535,-8.984651565551758,-3.8798270225524902
1772541034795254800,1.9122548828125,0.5327110290527344,-8.930084228515625,-4.001224994659424
1772541034805164500,1.92216455078125,0.5300229787826538,-8.879351615905762,-4.112929821014404
1772541034815074300,1.93207421875,0.503279983997345,-8.840489387512207,-4.199102878570557
1772541034824984300,1.941984375,0.45738598704338074,-8.823014259338379,-4.240900039672852
1772541034834894000,1.95189404296875,0.380062997341156,-8.802962303161621,-4.28992223739624
1772541034844803800,1.961803955078125,0.30241501331329346,-8.788187026977539,-4.326240062713623
1772541034854713900,1.9717138671875,0.287445992231369,-8.764371871948242,-4.375288963317871
1772541034864623600,1.98162353515625,0.30184000730514526,-8.716632843017578,-4.46869421005249
1772541034874533600,1.99153369140625,0.32903799414634705,-8.659531593322754,-4.576488971710205
1772541034884443400,2.001443359375,0.36358198523521423,-8.585448265075684,-4.71146821975708
1772541034894353400,2.011353515625,0.37397798895835876,-8.514863967895508,-4.837071895599365
1772541034904263200,2.02126318359375,0.3991039991378784,-8.42205810546875,-4.994965076446533
1772541034914173200,2.031173095703125,0.43484199047088623,-8.306456565856934,-5.182054042816162
1772541034924083000,2.0410830078125,0.45844998955726624,-8.177231788635254,-5.381699085235596
1772541034933992700,2.05099267578125,0.45134198665618896,-8.053451538085938,-5.565804958343506
1772541034943902700,2.06090283203125,0.4161849915981293,-7.947311878204346,-5.719006061553955
1772541034953812500,2.0708125,0.3957110047340393,-7.8479509353637695,-5.856031894683838
1772541034963722500,2.080722412109375,0.4168129861354828,-7.747712135314941,-5.9865851402282715
1772541034973632300,2.09063232421875,0.4703260064125061,-7.646081924438477,-6.111976146697998
1772541034983542300,2.100542236328125,0.5269780158996582,-7.545650005340576,-6.231008052825928
1772541034993452000,2.1104521484375,0.5757870078086853,-7.449804782867432,-6.34104585647583
1772541035003361800,2.12036181640625,0.6105660200119019,-7.3509650230407715,-6.452173233032227
1772541035013271800,2.130271728515625,0.6165670156478882,-7.2595977783203125,-6.554241180419922
1772541035023181800,2.140181884765625,0.6376389861106873,-7.187097072601318,-6.6316728591918945
1772541035033091600,2.150091552734375,0.694267988204956,-7.108047962188721,-6.710710048675537
1772541035043001600,2.160001708984375,0.786076009273529,-7.0175862312316895,-6.795260906219482
1772541035052911400,2.169911376953125,0.8632040023803711,-6.912684917449951,-6.892724990844727
1772541035062821000,2.179821044921875,0.9389079809188843,-6.818641185760498,-6.976000785827637
1772541035072731100,2.189731201171875,1.0017039775848389,-6.7375640869140625,-7.045695781707764
1772541035082641000,2.199640869140625,1.012403964996338,-6.715612888336182,-7.065095901489258
1772541035092550700,2.209550537109375,0.9841049909591675,-6.707194805145264,-7.077081203460693
1772541035102461000,2.2194609375,0.9157810211181641,-6.722055912017822,-7.072150230407715
1772541035112370400,2.229370361328125,0.8534389734268188,-6.7711381912231445,-7.033017158508301
1772541035122280400,2.239280517578125,0.7952409982681274,-6.840446949005127,-6.972507953643799
1772541035132190500,2.2491904296875,0.7667149901390076,-6.942176818847656,-6.874470233917236
1772541035142100200,2.259100341796875,0.7810630202293396,-7.050539016723633,-6.761645793914795
1772541035152010000,2.269010009765625,0.8514509797096252,-7.150545120239258,-6.647160053253174
1772541035161920000,2.278919921875,0.9615920186042786,-7.234410762786865,-6.5405378341674805
1772541035171829800,2.288829833984375,1.0572099685668945,-7.31702995300293,-6.432991981506348
1772541035181739800,2.29873974609375,1.1223700046539307,-7.391557216644287,-6.336021900177002
1772541035191649500,2.3086494140625,1.1531599760055542,-7.457911968231201,-6.252182960510254
1772541035201559300,2.318559326171875,1.1606359481811523,-7.515222072601318,-6.181777000427246
1772541035211469300,2.32846923828125,1.1459269523620605,-7.5833940505981445,-6.100738048553467
1772541035221379300,2.33837939453125,1.1285209655761719,-7.647816181182861,-6.023067951202393
1772541035231289000,2.3482890625,1.1027079820632935,-7.727383136749268,-5.9255051612854
1772541035241199000,2.35819921875,1.0693379640579224,-7.790054798126221,-5.849065780639648
1772541035251108900,2.36810888671875,1.0292370319366455,-7.865116119384766,-5.755052089691162
1772541035261018600,2.3780185546875,0.9850590229034424,-7.948592185974121,-5.647085189819336
1772541035270928600,2.3879287109375,0.9384239912033081,-8.034375190734863,-5.532466888427734
1772541035280838400,2.39783837890625,0.8813599944114685,-8.116727828979492,-5.4205098152160645
1772541035290748200,2.407748046875,0.8163279891014099,-8.186765670776367,-5.324514865875244
1772541035300658200,2.417658203125,0.7432299852371216,-8.24488353729248,-5.244949817657471
1772541035310568000,2.42756787109375,0.6724550127983093,-8.288324356079102,-5.1857008934021
1772541035320477700,2.437477783203125,0.6261919736862183,-8.319428443908691,-5.141496181488037
1772541035330387700,2.4473876953125,0.5971459746360779,-8.347061157226562,-5.099999904632568
1772541035340297700,2.457297607421875,0.5839189887046814,-8.379161834716797,-5.048631191253662
1772541035350207500,2.46720751953125,0.5593400001525879,-8.422418594360352,-4.978952884674072
1772541035360117500,2.477117431640625,0.5093330144882202,-8.476113319396973,-4.892453193664551
1772541035370027300,2.48702734375,0.47228100895881653,-8.523730278015137,-4.812795162200928
1772541035379937300,2.496937255859375,0.44225600361824036,-8.55855655670166,-4.753478050231934
1772541035389847000,2.506846923828125,0.4447830021381378,-8.581151008605957,-4.7123260498046875
1772541035399757000,2.516757080078125,0.4446589946746826,-8.598750114440918,-4.680146217346191
1772541035409666800,2.526666748046875,0.36818400025367737,-8.620498657226562,-4.646659851074219
1772541035419576600,2.53657666015625,0.28551599383354187,-8.644922256469727,-4.606929779052734
1772541035429486800,2.54648681640625,0.22140300273895264,-8.665802955627441,-4.571086883544922
1772541035439396600,2.556396728515625,0.14011000096797943,-8.681985855102539,-4.543515205383301
1772541035449306400,2.566306396484375,0.07624699920415878,-8.693330764770508,-4.52329683303833
1772541035459216400,2.57621630859375,0.05966100096702576,-8.697943687438965,-4.51466703414917
1772541035469126100,2.586126220703125,0.07058899849653244,-8.698537826538086,-4.513364791870117
1772541035479036200,2.5960361328125,0.07579100131988525,-8.693246841430664,-4.523461818695068
1772541035488946000,2.60594580078125,0.0724169984459877,-8.684880256652832,-4.539560794830322
1772541035498855700,2.615855712890625,0.02954999916255474,-8.673819541931152,-4.561141014099121
1772541035508765700,2.625765625,-0.056088998913764954,-8.659235954284668,-4.588517189025879
1772541035518675500,2.635675537109375,-0.1643970012664795,-8.638131141662598,-4.625547885894775
1772541035528585500,2.64558544921875,-0.3153409957885742,-8.602448463439941,-4.683852195739746
1772541035538495500,2.65549560546875,-0.4134669899940491,-8.578134536743164,-4.720663070678711
1772541035548405200,2.6654052734375,-0.4794839918613434,-8.544235229492188,-4.775579929351807
1772541035558315000,2.67531494140625,-0.43562600016593933,-8.49677562713623,-4.863646030426025
1772541035568225000,2.68522509765625,-0.3972499966621399,-8.465428352355957,-4.9212517738342285
1772541035578134800,2.695134765625,-0.3701060116291046,-8.44229507446289,-4.962930202484131
1772541035588044800,2.705044921875,-0.32863301038742065,-8.42184829711914,-5.000446796417236
1772541035597954600,2.71495458984375,-0.28501400351524353,-8.393392562866211,-5.050714015960693
1772541035607864300,2.7248642578125,-0.23514799773693085,-8.354549407958984,-5.117247104644775
1772541035617774300,2.7347744140625,-0.1711769998073578,-8.31011962890625,-5.191589832305908
1772541035627684400,2.744684326171875,-0.09235700219869614,-8.258179664611816,-5.275784969329834
1772541035637594000,2.754593994140625,0.0019779999274760485,-8.202106475830078,-5.363344192504883
1772541035647504100,2.764504150390625,0.11503499746322632,-8.134702682495117,-5.4638261795043945
1772541035657414000,2.774413818359375,0.23691700398921967,-8.062483787536621,-5.565989017486572
1772541035667323600,2.78432373046875,0.2890709936618805,-8.003190040588379,-5.648486137390137
1772541035677233700,2.794233642578125,0.3371739983558655,-7.931311130523682,-5.7463579177856445
1772541035687143400,2.804143310546875,0.36654600501060486,-7.853678226470947,-5.85024881362915
1772541035697053200,2.81405322265625,0.37076398730278015,-7.782221794128418,-5.944709777832031
1772541035706963500,2.82396337890625,0.3657569885253906,-7.718358993530273,-6.0277018547058105
1772541035716873000,2.833873046875,0.32476699352264404,-7.667056083679199,-6.095145225524902
1772541035726783000,2.843782958984375,0.3436239957809448,-7.621746063232422,-6.150683879852295
1772541035736693000,2.85369287109375,0.4148859977722168,-7.588166236877441,-6.1876959800720215
1772541035746602800,2.863602783203125,0.516273021697998,-7.567169189453125,-6.205755233764648
1772541035756512500,2.873512451171875,0.635994017124176,-7.549569129943848,-6.216071128845215
1772541035766422500,2.883422607421875,0.7400019764900208,-7.521809101104736,-6.2381720542907715
1772541035776332300,2.893332275390625,0.8157100081443787,-7.490674018859863,-6.266133785247803
1772541035786242300,2.9032421875,0.8425319790840149,-7.475028991699219,-6.281249046325684
1772541035796152300,2.91315234375,0.8118339776992798,-7.476930141448975,-6.283029079437256
1772541035806062000,2.92306201171875,0.7528769969940186,-7.5037617683410645,-6.258335113525391
1772541035815971800,2.932971923828125,0.6628980040550232,-7.600581169128418,-6.150753021240234
1772541035825881900,2.9428818359375,0.6686919927597046,-7.665946960449219,-6.068452835083008
1772541035835791600,2.95279150390625,0.7338129878044128,-7.705295085906982,-6.01082181930542
1772541035845701600,2.96270166015625,0.8009240031242371,-7.721663951873779,-5.981173992156982
1772541035855611400,2.972611328125,0.8721269965171814,-7.729919910430908,-5.960512161254883
1772541035865521200,2.982521240234375,0.9332209825515747,-7.728384017944336,-5.953248977661133
1772541035875431200,2.99243115234375,0.9807459712028503,-7.720325946807861,-5.9560627937316895
1772541035885341000,3.0023408203125,0.9983879923820496,-7.707027912139893,-5.970338821411133
1772541035895251000,3.0122509765625,1.004323959350586,-7.702563762664795,-5.97510290145874
1772541035905161000,3.022160888671875,1.0033700466156006,-7.699386119842529,-5.979360103607178
1772541035915070500,3.032070556640625,0.9974740147590637,-7.700096130371094,-5.97943115234375
1772541035924980500,3.04198046875,0.9851559996604919,-7.714386940002441,-5.9630279541015625
1772541035934890500,3.051890380859375,0.9778640270233154,-7.716271877288818,-5.961790084838867
1772541035944800300,3.06180029296875,0.9683600068092346,-7.70517110824585,-5.9776787757873535
1772541035954710300,3.071710205078125,0.9649140238761902,-7.6953911781311035,-5.990818977355957
1772541035964620000,3.0816201171875,0.9482979774475098,-7.690149784088135,-6.000194072723389
1772541035974529800,3.09152978515625,0.9161450266838074,-7.685226917266846,-6.011488914489746
1772541035984439800,3.101439697265625,0.8641600012779236,-7.660758972167969,-6.050290107727051
1772541035994349800,3.111349853515625,0.7891349792480469,-7.59740686416626,-6.139763832092285
1772541036004259600,3.121259521484375,0.7068949937820435,-7.520985126495361,-6.243001937866211
1772541036014169300,3.13116943359375,0.6256110072135925,-7.410033226013184,-6.382791042327881
1772541036024079400,3.141079345703125,0.5815799832344055,-7.268964767456055,-6.547053813934326
1772541036033989000,3.150989013671875,0.6020879745483398,-7.08334493637085,-6.7456440925598145
1772541036043899100,3.160899169921875,0.6441299915313721,-6.862133979797363,-6.966794013977051
1772541036053809000,3.170808837890625,0.6812499761581421,-6.640972137451172,-7.174495220184326
1772541036063719000,3.180718994140625,0.6978830099105835,-6.4652252197265625,-7.33170223236084
1772541036073629000,3.19062890625,0.695406973361969,-6.360976219177246,-7.422558784484863
1772541036083538700,3.20053857421875,0.7148000001907349,-6.459545135498047,-7.335076808929443
1772541036093448700,3.21044873046875,0.8605480194091797,-6.7247138023376465,-7.076560020446777
1772541036103358500,3.2203583984375,0.9977999925613403,-6.87847900390625,-6.908757209777832
1772541036113268500,3.2302685546875,1.095747947692871,-6.952042102813721,-6.819713115692139
1772541036123178200,3.24017822265625,1.2249799966812134,-7.058036804199219,-6.687563896179199
1772541036133088000,3.250087890625,1.322782039642334,-7.190760135650635,-6.5255818367004395
1772541036142998000,3.259998046875,1.38884699344635,-7.346737861633301,-6.335343837738037
1772541036152908000,3.269907958984375,1.4254759550094604,-7.516510009765625,-6.124550819396973
1772541036162817800,3.27981787109375,1.4265789985656738,-7.694431781768799,-5.899200916290283
1772541036172727800,3.289727783203125,1.423699975013733,-7.871657848358154,-5.661279201507568
1772541036182637600,3.299637451171875,1.4493939876556396,-8.038288116455078,-5.415274143218994
1772541036192547300,3.30954736328125,1.5242359638214111,-8.18753433227539,-5.165366172790527
1772541036202457300,3.319457275390625,1.647758960723877,-8.312134742736816,-4.922733783721924
1772541036212367000,3.3293671875,1.8006709814071655,-8.401239395141602,-4.713465213775635
1772541036222277000,3.339277099609375,1.977094054222107,-8.452725410461426,-4.547807216644287
1772541036232187000,3.349186767578125,2.1610140800476074,-8.4839506149292,-4.40370512008667
1772541036242097000,3.359096923828125,2.278709888458252,-8.51720142364502,-4.278409957885742
1772541036252006700,3.369006591796875,2.270324945449829,-8.541050910949707,-4.235098838806152
1772541036261916700,3.378916748046875,2.19535493850708,-8.554326057434082,-4.2478132247924805
1772541036271826400,3.388826416015625,2.128880023956299,-8.548014640808105,-4.294105052947998
1772541036281736400,3.398736328125,2.0900330543518066,-8.505755424499512,-4.395896911621094
1772541036291646200,3.408646240234375,2.0482940673828125,-8.479342460632324,-4.466012954711914
1772541036301556000,3.418555908203125,1.970438003540039,-8.465374946594238,-4.527116775512695
1772541036311466000,3.428466064453125,1.8610279560089111,-8.466655731201172,-4.570810794830322
1772541036321376000,3.4383759765625,1.7558350563049316,-8.48648452758789,-4.575658798217773
1772541036331285800,3.44828564453125,1.6835299730300903,-8.511938095092773,-4.55550479888916
1772541036341195500,3.458195556640625,1.654966950416565,-8.543354988098145,-4.506906032562256
1772541036351105500,3.46810546875,1.6542329788208008,-8.589287757873535,-4.419013023376465
1772541036370925300,3.48792529296875,1.6698659658432007,-8.70994758605957,-4.169932842254639
1772541036380835000,3.4978349609375,1.6905180215835571,-8.764325141906738,-4.045829772949219
1772541036390744800,3.507744873046875,1.7268459796905518,-8.800960540771484,-3.949824094772339
1772541036400654800,3.51765478515625,1.771028995513916,-8.803024291992188,-3.9255850315093994
1772541036410564900,3.52756494140625,1.7980639934539795,-8.80858039855957,-3.9007558822631836
1772541036420474600,3.537474609375,1.8221379518508911,-8.807426452636719,-3.8921759128570557
1772541036430384600,3.547384521484375,1.8432339429855347,-8.787924766540527,-3.9261789321899414
1772541036440294400,3.55729443359375,1.8421770334243774,-8.772098541259766,-3.9619059562683105
1772541036450204400,3.567204345703125,1.8288600444793701,-8.781710624694824,-3.9467480182647705
1772541036470024000,3.58702392578125,1.7806400060653687,-8.834847450256348,-3.8489990234375
1772541036479933700,3.59693359375,1.7596230506896973,-8.880743026733398,-3.7518179416656494
1772541036489844000,3.606843994140625,1.705273985862732,-8.940445899963379,-3.633246898651123
1772541036499753700,3.616753662109375,1.648730993270874,-9.012554168701172,-3.47786808013916
1772541036509663500,3.62666357421875,1.61456298828125,-9.089900970458984,-3.287386894226074
1772541036519573500,3.636573486328125,1.5977330207824707,-9.167863845825195,-3.072053909301758
1772541036529483300,3.646483154296875,1.5841950178146362,-9.244264602661133,-2.841459035873413
1772541036539393300,3.656393310546875,1.5646439790725708,-9.317496299743652,-2.603101968765259
1772541036549303000,3.666302978515625,1.5416970252990723,-9.386358261108398,-2.357853889465332
1772541036559212800,3.676212890625,1.5191709995269775,-9.448958396911621,-2.10932993888855
1772541036569122800,3.686122802734375,1.5007359981536865,-9.502840042114258,-1.866502046585083
1772541036579032800,3.69603271484375,1.4869660139083862,-9.547229766845703,-1.6368780136108398
1772541036588942600,3.705942626953125,1.4745579957962036,-9.583185195922852,-1.4241609573364258
1772541036598852600,3.7158525390625,1.458333969116211,-9.613142013549805,-1.225072979927063
1772541036608762400,3.725762451171875,1.4768630266189575,-9.636323928833008,-1.0000640153884888
1772541036618672000,3.735672119140625,1.54579496383667,-9.651649475097656,-0.7044069766998291
1772541036628582100,3.74558203125,1.6017709970474243,-9.659482955932617,-0.4107789993286133
1772541036638492200,3.7554921875,1.6075010299682617,-9.665360450744629,-0.19177299737930298
1772541036648402200,3.765402099609375,1.5799570083618164,-9.670668601989746,-0.14811600744724274
1772541036658312000,3.77531201171875,1.568824052810669,-9.672826766967773,-0.12350799888372421
1772541036678131700,3.795131591796875,1.5909119844436646,-9.669875144958496,0.05006900057196617
1772541036688041500,3.80504150390625,1.5827300548553467,-9.669962882995605,0.16370099782943726
1772541036697951500,3.814951416015625,1.5600409507751465,-9.671384811401367,0.26566898822784424
1772541036707861200,3.824861328125,1.552575945854187,-9.67214298248291,0.2813810110092163
1772541036717771000,3.83477099609375,1.5604729652404785,-9.67141056060791,0.26215600967407227
1772541036727681000,3.844680908203125,1.5750709772109985,-9.67032241821289,0.20983099937438965
1772541036737591000,3.854591064453125,1.5919690132141113,-9.668708801269531,0.14725199341773987
1772541036747500800,3.864500732421875,1.611646056175232,-9.666420936584473,0.05408899858593941
1772541036757410800,3.874410888671875,1.6212749481201172,-9.664934158325195,-0.022985000163316727
1772541036767320600,3.884320556640625,1.6313279867172241,-9.6629056930542,-0.0837239995598793
1772541036777230300,3.894230224609375,1.6307320594787598,-9.662672996520996,-0.11603700369596481
1772541036787140400,3.904140380859375,1.6159889698028564,-9.664857864379883,-0.13834300637245178
1772541036797050000,3.914050048828125,1.6063100099563599,-9.666239738464355,-0.1536639928817749
1772541036806960400,3.92396044921875,1.6056009531021118,-9.665959358215332,-0.17689700424671173
1772541036816870100,3.9338701171875,1.6055489778518677,-9.665379524230957,-0.20652799308300018
1772541036826780000,3.94377978515625,1.6035139560699463,-9.66520881652832,-0.22915899753570557
1772541036836690000,3.95368994140625,1.5996509790420532,-9.665304183959961,-0.2510170042514801
1772541036846599700,3.963599609375,1.5974429845809937,-9.665067672729492,-0.27324798703193665
1772541036856509700,3.973509765625,1.5971269607543945,-9.664544105529785,-0.29290398955345154
1772541036866419500,3.98341943359375,1.5965420007705688,-9.664094924926758,-0.3104099929332733
1772541036876329200,3.9933291015625,1.5970710515975952,-9.663588523864746,-0.32321199774742126
1772541036886239500,4.003239501953125,1.598222017288208,-9.662947654724121,-0.33633899688720703
1772541036896149200,4.013149169921875,1.5989429950714111,-9.662359237670898,-0.34961000084877014
1772541036906059300,4.023059326171875,1.5994969606399536,-9.661678314208984,-0.36550799012184143
1772541036915969000,4.032968994140625,1.6001499891281128,-9.660816192626953,-0.38491499423980713
1772541036925878800,4.042878662109375,1.6015429496765137,-9.65992546081543,-0.40115100145339966
1772541036935789000,4.0527890625,1.600512981414795,-9.659534454345703,-0.41444098949432373
1772541036945698600,4.062698486328125,1.5995169878005981,-9.65907096862793,-0.4288730025291443
1772541036955608600,4.072608642578125,1.5988730192184448,-9.658556938171387,-0.4425710141658783
1772541036965518600,4.0825185546875,1.5992989540100098,-9.657844543457031,-0.45636799931526184
1772541036975428400,4.092428466796875,1.6002310514450073,-9.656962394714355,-0.47152000665664673
1772541036985338000,4.102338134765625,1.5968070030212402,-9.656425476074219,-0.4936020076274872
1772541036995248000,4.112248046875,1.5881849527359009,-9.656893730163574,-0.5119450092315674
1772541037015068000,4.13206787109375,1.572396993637085,-9.65764045715332,-0.5455120205879211
1772541037024977700,4.141977783203125,1.5752300024032593,-9.657039642333984,-0.5479480028152466
1772541037034887400,4.151887451171875,1.575835943222046,-9.6566801071167,-0.552528977394104
1772541037044797400,4.16179736328125,1.5734280347824097,-9.656636238098145,-0.5600860118865967
1772541037054707500,4.17170751953125,1.571956992149353,-9.65616512298584,-0.5722349882125854
1772541037064617200,4.1816171875,1.571423053741455,-9.655320167541504,-0.5877360105514526
1772541037074527000,4.19152685546875,1.57178795337677,-9.654288291931152,-0.6035060286521912
1772541037084437000,4.20143701171875,1.5730470418930054,-9.653453826904297,-0.6134870052337646
1772541037094346800,4.2113466796875,1.574517011642456,-9.652607917785645,-0.62295001745224
1772541037104256800,4.2212568359375,1.5762449502944946,-9.652117729187012,-0.6261680126190186
1772541037114166500,4.23116650390625,1.5828319787979126,-9.651105880737305,-0.625141978263855
1772541037124076300,4.241076171875,1.5898929834365845,-9.650325775146484,-0.6192589998245239
1772541037133986600,4.250986572265625,1.5972310304641724,-9.649398803710938,-0.6147950291633606
1772541037143896000,4.26089599609375,1.6025550365447998,-9.64860725402832,-0.6133379936218262
1772541037153806000,4.27080615234375,1.6060630083084106,-9.647635459899902,-0.6194620132446289
1772541037163715800,4.2807158203125,1.6075760126113892,-9.646531105041504,-0.6325650215148926
1772541037173625900,4.2906259765625,1.6039420366287231,-9.645984649658203,-0.6499080061912537
1772541037183535900,4.300535888671875,1.6024260520935059,-9.645052909851074,-0.6672490239143372
1772541037193445600,4.310445556640625,1.601166009902954,-9.644536018371582,-0.6776430010795593
1772541037203355400,4.32035546875,1.6007009744644165,-9.64405345916748,-0.6855679750442505
1772541037213265400,4.330265380859375,1.5994839668273926,-9.643803596496582,-0.6918860077857971
1772541037223175400,4.340175537109375,1.5974249839782715,-9.643648147583008,-0.6987919807434082
1772541037233085200,4.350085205078125,1.5954430103302002,-9.643325805664062,-0.7077249884605408
1772541037242995200,4.3599951171875,1.593250036239624,-9.64268970489502,-0.721189022064209
1772541037252905000,4.369905029296875,1.5934779644012451,-9.641441345214844,-0.737197995185852
1772541037262815000,4.37981494140625,1.594256043434143,-9.640437126159668,-0.7485449910163879
1772541037272724700,4.389724853515625,1.5952539443969727,-9.639633178710938,-0.756738007068634
1772541037282634800,4.399634765625,1.5977150201797485,-9.638474464416504,-0.766219973564148
1772541037292544500,4.40954443359375,1.6010459661483765,-9.637598037719727,-0.7703250050544739
1772541037302454300,4.419454345703125,1.6048599481582642,-9.636892318725586,-0.7711849808692932
1772541037312364300,4.4293642578125,1.607632040977478,-9.636748313903809,-0.7672029733657837
1772541037322274000,4.439274169921875,1.6100239753723145,-9.636554718017578,-0.7646309733390808
1772541037332184000,4.44918408203125,1.6109199523925781,-9.63765811920166,-0.7486670017242432
1772541037342094000,4.459093994140625,1.6095190048217773,-9.63878345489502,-0.7371090054512024
1772541037352003800,4.46900390625,1.6081080436706543,-9.639782905578613,-0.7270500063896179
1772541037361913900,4.478913818359375,1.6081620454788208,-9.640130996704102,-0.7222890257835388
1772541037371823600,4.48882373046875,1.6038450002670288,-9.640894889831543,-0.7216969728469849
1772541037381733400,4.4987333984375,1.5958939790725708,-9.642106056213379,-0.7231429815292358
1772541037391643400,4.508643310546875,1.5858089923858643,-9.643722534179688,-0.7237480282783508
1772541037401553200,4.51855322265625,1.5653120279312134,-9.647141456604004,-0.722802996635437
1772541037411463200,4.528463134765625,1.5518180131912231,-9.649429321289062,-0.7213960289955139
1772541037421373200,4.538373291015625,1.536890983581543,-9.651925086975098,-0.7199320197105408
1772541037431283000,4.548282958984375,1.527405023574829,-9.653676986694336,-0.7166270017623901
1772541037441192700,4.558192626953125,1.5225449800491333,-9.654894828796387,-0.7105439901351929
1772541037451102700,4.568102783203125,1.5259820222854614,-9.655501365661621,-0.6947730183601379
1772541037461012500,4.578012451171875,1.5502070188522339,-9.654237747192383,-0.6576889753341675
1772541037470922200,4.587922119140625,1.5645920038223267,-9.652937889099121,-0.6425390243530273
1772541037480832300,4.597832275390625,1.5791610479354858,-9.651444435119629,-0.6291890144348145
1772541037490742300,4.6077421875,1.59054696559906,-9.650057792663574,-0.621753990650177
1772541037500652000,4.617652099609375,1.5977749824523926,-9.648951530456543,-0.6203789710998535
1772541037510562000,4.62756201171875,1.6032229661941528,-9.648006439208984,-0.6210150122642517
1772541037520471800,4.637471923828125,1.6081260442733765,-9.646940231323242,-0.6248819828033447
1772541037530381800,4.6473818359375,1.6105819940567017,-9.645907402038574,-0.6344460248947144
1772541037540291600,4.65729150390625,1.6117039918899536,-9.644837379455566,-0.6476789712905884
1772541037550201300,4.667201416015625,1.6135859489440918,-9.643698692321777,-0.6598569750785828
1772541037560111400,4.677111328125,1.6180989742279053,-9.642380714416504,-0.6680240035057068
1772541037570021400,4.687021484375,1.6270699501037598,-9.640369415283203,-0.6752150058746338
1772541037579931100,4.69693115234375,1.633355975151062,-9.638775825500488,-0.6827759742736816
1772541037589841000,4.7068408203125,1.6323989629745483,-9.63815689086914,-0.6936960220336914
1772541037599751000,4.7167509765625,1.6262739896774292,-9.637985229492188,-0.710273027420044
1772541037609660700,4.72666064453125,1.6171469688415527,-9.637957572937012,-0.7311869859695435
1772541037619570700,4.73657080078125,1.6070150136947632,-9.6376953125,-0.7565280199050903
1772541037629480400,4.74648046875,1.6000920534133911,-9.637248039245605,-0.7766439914703369
1772541037639390500,4.756390380859375,1.5935859680175781,-9.636584281921387,-0.7979530096054077
1772541037649300200,4.76630029296875,1.5878969430923462,-9.63572883605957,-0.8193410038948059
1772541037659210200,4.776210205078125,1.5831760168075562,-9.634864807128906,-0.8384349942207336
1772541037669120000,4.7861201171875,1.5784269571304321,-9.634203910827637,-0.8548319935798645
1772541037679030000,4.796030029296875,1.5708409547805786,-9.633919715881348,-0.8718330264091492
1772541037688939800,4.805939697265625,1.5617380142211914,-9.634224891662598,-0.8847010135650635
1772541037698849500,4.815849609375,1.5545929670333862,-9.634480476379395,-0.8944519758224487
1772541037708759600,4.825759521484375,1.5500379800796509,-9.635027885437012,-0.8964589834213257
1772541037718669300,4.83566943359375,1.547374963760376,-9.63530158996582,-0.8981019854545593
1772541037728579300,4.845579345703125,1.5455479621887207,-9.635920524597168,-0.8945940136909485
1772541037738489000,4.855489013671875,1.545896053314209,-9.635766983032227,-0.8956680297851562
1772541037748399000,4.865399169921875,1.5452040433883667,-9.635639190673828,-0.898239016532898
1772541037758308900,4.875308837890625,1.5430389642715454,-9.635605812072754,-0.902305006980896
1772541037768219000,4.885218994140625,1.5383540391921997,-9.636078834533691,-0.905256986618042
1772541037778128600,4.895128662109375,1.5308209657669067,-9.637134552001953,-0.9067789912223816
1772541037788038700,4.90503857421875,1.5179599523544312,-9.638742446899414,-0.9112889766693115
1772541037797948400,4.914948486328125,1.5061440467834473,-9.640154838562012,-0.9159349799156189
1772541037807858400,4.9248583984375,1.4990580081939697,-9.64133071899414,-0.9152060151100159
1772541037817768400,4.9347685546875,1.4906469583511353,-9.643592834472656,-0.9050350189208984
1772541037827678200,4.94467822265625,1.4870589971542358,-9.64454174041748,-0.9008179903030396
1772541037837588200,4.954588134765625,1.4852900505065918,-9.645981788635254,-0.8882349729537964
1772541037847498000,4.964498046875,1.488237977027893,-9.647063255310059,-0.8713930249214172
1772541037857407700,4.97440771484375,1.4959089756011963,-9.647611618041992,-0.8519960045814514
1772541037867317800,4.98431787109375,1.5126069784164429,-9.647658348083496,-0.8214190006256104
1772541037877227800,4.994227783203125,1.5266940593719482,-9.647740364074707,-0.7939429879188538
1772541037887137500,5.004137451171875,1.5392229557037354,-9.647521018981934,-0.7721149921417236
1772541037897047600,5.014047607421875,1.5475870370864868,-9.647067070007324,-0.7609919905662537
1772541037906957300,5.023957275390625,1.5568549633026123,-9.646366119384766,-0.750901997089386
1772541037916867300,5.033867431640625,1.5651899576187134,-9.645573616027832,-0.7437040209770203
1772541037926777000,5.043777099609375,1.5734659433364868,-9.644591331481934,-0.738972008228302
1772541037936687000,5.05368701171875,1.5792700052261353,-9.64383602142334,-0.7364410161972046
1772541037946596900,5.063596923828125,1.581984043121338,-9.643531799316406,-0.7345870137214661
1772541037956507000,5.0735068359375,1.5824929475784302,-9.643450736999512,-0.734561026096344
1772541037966416600,5.083416748046875,1.5795730352401733,-9.643718719482422,-0.7373250126838684
1772541037976326700,5.09332666015625,1.5762909650802612,-9.643845558166504,-0.7426869869232178
1772541037996146400,5.113146484375,1.577265977859497,-9.642528533935547,-0.7575790286064148
1772541038006056400,5.123056396484375,1.5803680419921875,-9.641427040100098,-0.7650669813156128
1772541038015966200,5.13296630859375,1.5827909708023071,-9.640621185302734,-0.770209014415741
1772541038025876200,5.142876220703125,1.5833669900894165,-9.640243530273438,-0.7737330198287964
1772541038035786000,5.152785888671875,1.5815919637680054,-9.640410423278809,-0.7752910256385803
1772541038045696000,5.162696044921875,1.5774749517440796,-9.641151428222656,-0.7744479775428772
1772541038055605800,5.172605712890625,1.5645229816436768,-9.643770217895508,-0.7681099772453308
1772541038065515800,5.182515869140625,1.5496790409088135,-9.646976470947266,-0.7578610181808472
1772541038075425500,5.192425537109375,1.534235954284668,-9.650422096252441,-0.7452970147132874
1772541038085335600,5.20233544921875,1.5219719409942627,-9.653433799743652,-0.7313100099563599
1772541038095245300,5.212245361328125,1.5132039785385132,-9.655998229980469,-0.7154939770698547
1772541038105155300,5.2221552734375,1.506801962852478,-9.658243179321289,-0.6985160112380981
1772541038115065300,5.2320654296875,1.4998270273208618,-9.660637855529785,-0.6801789999008179
1772541038124975000,5.24197509765625,1.4892619848251343,-9.663531303405762,-0.6620219945907593
1772541038134885000,5.251885009765625,1.4771499633789062,-9.666304588317871,-0.6485480070114136
1772541038144795000,5.261794921875,1.4643679857254028,-9.668761253356934,-0.6408590078353882
1772541038154705000,5.271704833984375,1.451300024986267,-9.670727729797363,-0.6408920288085938
1772541038164615000,5.281614990234375,1.4403009414672852,-9.672019004821777,-0.6462299823760986
1772541038174524700,5.291524658203125,1.4303380250930786,-9.67319107055664,-0.6507880091667175
1772541038184434700,5.3014345703125,1.4215019941329956,-9.674310684204102,-0.6534860134124756
1772541038194344400,5.311344482421875,1.416869044303894,-9.674938201904297,-0.6542789936065674
1772541038204254200,5.321254150390625,1.4152179956436157,-9.675198554992676,-0.6539750099182129
1772541038214164200,5.331164306640625,1.4154560565948486,-9.67543888092041,-0.6498939990997314
1772541038224074200,5.34107421875,1.4190269708633423,-9.675337791442871,-0.6436039805412292
1772541038233984300,5.350984375,1.4252829551696777,-9.674842834472656,-0.6371970176696777
1772541038243894000,5.36089404296875,1.4329979419708252,-9.674060821533203,-0.631754994392395
1772541038253803800,5.3708037109375,1.4417890310287476,-9.67281436920166,-0.6308299899101257
1772541038263713800,5.3807138671875,1.450829029083252,-9.671151161193848,-0.635558009147644
1772541038273623800,5.390623779296875,1.4601529836654663,-9.66928768157959,-0.642536997795105
1772541038283533600,5.400533447265625,1.465283989906311,-9.66786003112793,-0.6522870063781738
1772541038293443600,5.410443603515625,1.4687080383300781,-9.666729927062988,-0.6612330079078674
1772541038303353300,5.420353271484375,1.4702529907226562,-9.665994644165039,-0.6685299873352051
1772541038313263400,5.430263427734375,1.4725450277328491,-9.665236473083496,-0.6744239926338196
1772541038323173400,5.44017333984375,1.4780759811401367,-9.66409683227539,-0.6786159873008728
1772541038333083100,5.450083251953125,1.4880390167236328,-9.662389755249023,-0.6811569929122925
1772541038342993200,5.4599931640625,1.5039050579071045,-9.659744262695312,-0.6838390231132507
1772541038352903000,5.46990283203125,1.5205219984054565,-9.656828880310059,-0.6882579922676086
1772541038362813000,5.47981298828125,1.5354310274124146,-9.653947830200195,-0.6955260038375854
1772541038372723000,5.489722900390625,1.544044017791748,-9.651896476745605,-0.704850971698761
1772541038382632700,5.4996328125,1.5465699434280396,-9.650906562805176,-0.7128430008888245
1772541038392542700,5.509542724609375,1.547387957572937,-9.650171279907227,-0.7209780216217041
1772541038402452500,5.519452392578125,1.5495309829711914,-9.649421691894531,-0.7263879776000977
1772541038412362500,5.529362548828125,1.5540460348129272,-9.648423194885254,-0.7299789786338806
1772541038422272500,5.5392724609375,1.5591180324554443,-9.64738941192627,-0.7328180074691772
1772541038432182300,5.549182373046875,1.562479019165039,-9.646744728088379,-0.7341709733009338
1772541038442092300,5.55909228515625,1.5643730163574219,-9.646488189697266,-0.7335039973258972
1772541038452002300,5.569002197265625,1.5635590553283691,-9.646805763244629,-0.7310540080070496
1772541038461912000,5.578912109375,1.5620150566101074,-9.6471529006958,-0.7297670245170593
1772541038471822000,5.588822021484375,1.559196949005127,-9.647714614868164,-0.728393018245697
1772541038481731800,5.59873193359375,1.5573110580444336,-9.648086547851562,-0.7274690270423889
1772541038491641900,5.608641845703125,1.5562629699707031,-9.64831256866455,-0.726718008518219
1772541038501551900,5.6185517578125,1.556596040725708,-9.648348808288574,-0.7255330085754395
1772541038511462000,5.6284619140625,1.5581870079040527,-9.648282051086426,-0.7230110168457031
1772541038521371600,5.63837158203125,1.558256983757019,-9.64849853515625,-0.7199530005455017
1772541038531281700,5.64828173828125,1.5573910474777222,-9.648816108703613,-0.7175580263137817
1772541038541191400,5.65819140625,1.5558969974517822,-9.649287223815918,-0.7144799828529358
1772541038551101400,5.668101318359375,1.554710030555725,-9.64963436126709,-0.7123649716377258
1772541038561011200,5.67801123046875,1.554394006729126,-9.649718284606934,-0.7119259834289551
1772541038570921200,5.687921142578125,1.5533430576324463,-9.649836540222168,-0.7126110196113586
1772541038580831200,5.697831298828125,1.5484100580215454,-9.650303840637207,-0.7170040011405945
1772541038590741200,5.7077412109375,1.541627049446106,-9.650867462158203,-0.7240070104598999
1772541038600651000,5.717651123046875,1.537484049797058,-9.650951385498047,-0.7316250205039978
1772541038610561000,5.72756103515625,1.5389080047607422,-9.650308609008789,-0.73710697889328
1772541038620470800,5.737470703125,1.544819951057434,-9.649351119995117,-0.737263023853302
1772541038630380800,5.747380859375,1.5520349740982056,-9.648441314697266,-0.7340260148048401
1772541038640290800,5.757290771484375,1.558501958847046,-9.647856712341309,-0.7279649972915649
1772541038650200800,5.767200927734375,1.5635850429534912,-9.647591590881348,-0.7205479741096497
1772541038660110600,5.777110595703125,1.5673279762268066,-9.647640228271484,-0.7117230296134949
1772541038670020400,5.787020263671875,1.5692429542541504,-9.647879600524902,-0.7042189836502075
1772541038679930400,5.796930419921875,1.5672889947891235,-9.648772239685059,-0.6962929964065552
1772541038689840400,5.80684033203125,1.564221978187561,-9.649736404418945,-0.6897810101509094
1772541038699750400,5.81675048828125,1.5625640153884888,-9.650376319885254,-0.684578001499176
1772541038709660200,5.82666015625,1.5612050294876099,-9.650864601135254,-0.6807990074157715
1772541038719570200,5.836570068359375,1.5610289573669434,-9.651152610778809,-0.6771010160446167
1772541038729480200,5.846480224609375,1.557108998298645,-9.652124404907227,-0.6722440123558044
1772541038739390000,5.856389892578125,1.552243947982788,-9.653227806091309,-0.6676430106163025
1772541038749300000,5.866300048828125,1.5471739768981934,-9.654343605041504,-0.6632530093193054
1772541038759210000,5.8762099609375,1.541293978691101,-9.65563678741455,-0.6581159830093384
1772541038769120000,5.8861201171875,1.5389330387115479,-9.656537055969238,-0.6504070162773132
1772541038779029800,5.89602978515625,1.5384769439697266,-9.656901359558105,-0.6460400223731995
1772541038788939800,5.905939697265625,1.5371040105819702,-9.657382011413574,-0.6421129703521729
1772541038798849800,5.915849853515625,1.5349140167236328,-9.65793228149414,-0.6390669941902161
1772541038808759600,5.925759521484375,1.532829999923706,-9.658327102661133,-0.6380850076675415
1772541038818669600,5.935669677734375,1.5300159454345703,-9.658644676208496,-0.6400550007820129
1772541038828579600,5.94557958984375,1.5270709991455078,-9.658808708190918,-0.6446020007133484
1772541038838489300,5.9554892578125,1.525961995124817,-9.658550262451172,-0.6510270237922668
1772541038848399400,5.9653994140625,1.5256329774856567,-9.658053398132324,-0.6591519713401794
1772541038858309400,5.975309326171875,1.5247670412063599,-9.657674789428711,-0.6666499972343445
1772541038868219400,5.985219482421875,1.523002028465271,-9.657569885253906,-0.6721799969673157
1772541038878129200,5.995129150390625,1.5218780040740967,-9.65746784210205,-0.6761729717254639
1772541038888039200,6.0050390625,1.5250240564346313,-9.656717300415039,-0.6798059940338135
1772541038897949200,6.01494921875,1.5291579961776733,-9.655753135681152,-0.6842079758644104
1772541038907859200,6.024859130859375,1.5316020250320435,-9.655077934265137,-0.6882699728012085
1772541038917769000,6.03476904296875,1.533661961555481,-9.654446601867676,-0.692516028881073
1772541038927679000,6.044678955078125,1.5336500406265259,-9.654144287109375,-0.696723997592926
1772541038937589000,6.054589111328125,1.5324560403823853,-9.654107093811035,-0.6998649835586548
1772541038947499000,6.0644990234375,1.5306529998779297,-9.654269218444824,-0.7015810012817383
1772541038957408800,6.07440869140625,1.5296189785003662,-9.65439510345459,-0.7021089792251587
1772541038967318800,6.08431884765625,1.5307819843292236,-9.6542387008667,-0.701708972454071
1772541038977228800,6.094228759765625,1.5347410440444946,-9.653575897216797,-0.702180027961731
1772541038987138600,6.104138671875,1.5378119945526123,-9.652900695800781,-0.7047320008277893
1772541038997048600,6.114048583984375,1.5415719747543335,-9.651890754699707,-0.7103340029716492
1772541039006958600,6.12395849609375,1.541437029838562,-9.651310920715332,-0.7184630036354065
1772541039016868400,6.133868408203125,1.5377130508422852,-9.651482582092285,-0.7241079807281494
1772541039026778400,6.1437783203125,1.5323950052261353,-9.652021408081055,-0.7281839847564697
1772541039036688400,6.1536884765625,1.5260920524597168,-9.652990341186523,-0.7285879850387573
1772541039046598400,6.163598388671875,1.5209619998931885,-9.653928756713867,-0.726876974105835
1772541039056508400,6.17350830078125,1.5185359716415405,-9.654438018798828,-0.725197970867157
1772541039066418400,6.18341845703125,1.5189189910888672,-9.654500961303711,-0.723550021648407
1772541039076328200,6.193328125,1.5212759971618652,-9.654265403747559,-0.7217440009117126
1772541039086238200,6.20323828125,1.5272010564804077,-9.6536226272583,-0.7178080081939697
1772541039096148200,6.213148193359375,1.5331439971923828,-9.652814865112305,-0.7160009741783142
1772541039106058000,6.22305810546875,1.5374850034713745,-9.652275085449219,-0.7139580249786377
1772541039115968000,6.232968017578125,1.5384529829025269,-9.652329444885254,-0.7111369967460632
1772541039125878000,6.2428779296875,1.5374749898910522,-9.652644157409668,-0.7089769840240479
1772541039135788000,6.2527880859375,1.5352859497070312,-9.653002738952637,-0.7088379859924316
1772541039145697800,6.26269775390625,1.537060022354126,-9.652528762817383,-0.7114490270614624
1772541039155607800,6.27260791015625,1.5416250228881836,-9.651402473449707,-0.7168470025062561
1772541039165517800,6.282517822265625,1.5444070100784302,-9.650351524353027,-0.7249469757080078
1772541039175427800,6.292427734375,1.5427210330963135,-9.650047302246094,-0.7325469851493835
1772541039185337900,6.302337890625,1.5387500524520874,-9.650264739990234,-0.7380110025405884
1772541039195247900,6.312247802734375,1.532217025756836,-9.65125560760498,-0.7386590242385864
1772541039205157600,6.32215771484375,1.5295510292053223,-9.651719093322754,-0.7381020188331604
1772541039215067600,6.332067626953125,1.5304009914398193,-9.651810646057129,-0.7351409792900085
1772541039224977700,6.341977783203125,1.5339159965515137,-9.651461601257324,-0.7324050068855286
1772541039234887700,6.3518876953125,1.5393329858779907,-9.650877952575684,-0.7287139892578125
1772541039244797400,6.36179736328125,1.5450990200042725,-9.650257110595703,-0.724731981754303
1772541039254707500,6.37170751953125,1.549880027770996,-9.64975643157959,-0.7211650013923645
1772541039264617500,6.381617431640625,1.5546350479125977,-9.649093627929688,-0.7198020219802856
1772541039274527500,6.391527587890625,1.5572429895401,-9.648930549621582,-0.7163469791412354
1772541039284437200,6.401437255859375,1.5570199489593506,-9.649258613586426,-0.7124130129814148
1772541039294347300,6.41134716796875,1.5554250478744507,-9.649949073791504,-0.7065029740333557
1772541039304257300,6.42125732421875,1.5532050132751465,-9.65058422088623,-0.7027159929275513
1772541039314167300,6.431167236328125,1.550676941871643,-9.651337623596191,-0.6979280114173889
1772541039324077300,6.441077392578125,1.5483160018920898,-9.65207290649414,-0.6929649710655212
1772541039333987000,6.450987060546875,1.5455169677734375,-9.652824401855469,-0.6887459754943848
1772541039343897300,6.4608974609375,1.542497992515564,-9.65346908569336,-0.6865050196647644
1772541039353807000,6.47080712890625,1.5387979745864868,-9.654031753540039,-0.6868749856948853
1772541039363717000,6.480717041015625,1.5346800088882446,-9.654618263244629,-0.6878319978713989
1772541039373627100,6.490627197265625,1.5310440063476562,-9.655131340026855,-0.6887570023536682
1772541039383537200,6.500537109375,1.5287530422210693,-9.65539836883545,-0.6900780200958252
1772541039393447200,6.510447265625,1.526710033416748,-9.655479431152344,-0.6934670209884644
1772541039403357200,6.520357177734375,1.523682951927185,-9.655627250671387,-0.6980460286140442
1772541039413267200,6.53026708984375,1.5214719772338867,-9.655637741088867,-0.7027239799499512
1772541039423177000,6.540177001953125,1.5194870233535767,-9.655643463134766,-0.7069299817085266
1772541039433087000,6.5500869140625,1.516234040260315,-9.655941009521484,-0.7098429799079895
1772541039442997000,6.5599970703125,1.510848045349121,-9.65660285949707,-0.7122799754142761
1772541039452907000,6.569906982421875,1.5054429769515991,-9.65722370147705,-0.715345025062561
1772541039462817000,6.579817138671875,1.5007749795913696,-9.657550811767578,-0.7206779718399048
1772541039472727000,6.58972705078125,1.4994189739227295,-9.657257080078125,-0.7274479866027832
1772541039482637000,6.599636962890625,1.500128984451294,-9.65674114227295,-0.7327970266342163
1772541039492546800,6.609546875,1.5048489570617676,-9.655317306518555,-0.7418429851531982
1772541039502456800,6.619456787109375,1.512395977973938,-9.653609275817871,-0.7486600279808044
1772541039512366800,6.629366943359375,1.5181770324707031,-9.652507781982422,-0.7511540055274963
1772541039522276900,6.63927685546875,1.5245150327682495,-9.65144157409668,-0.7520359754562378
1772541039532187000,6.649186767578125,1.5329480171203613,-9.650283813476562,-0.7497239708900452
1772541039542097000,6.659096923828125,1.5435889959335327,-9.648970603942871,-0.7447770237922668
1772541039552007000,6.6690068359375,1.5555609464645386,-9.647521018981934,-0.7386279702186584
1772541039561916700,6.678916748046875,1.5649709701538086,-9.646438598632812,-0.7328959703445435
1772541039571827000,6.688826904296875,1.5715810060501099,-9.645746231079102,-0.7278100252151489
1772541039581736700,6.69873681640625,1.5742249488830566,-9.645736694335938,-0.7222239971160889
1772541039591646700,6.708646728515625,1.5744580030441284,-9.646074295043945,-0.7171840071678162
1772541039601556700,6.718556640625,1.5741770267486572,-9.64651107788086,-0.7118890285491943
1772541039611466800,6.728466796875,1.574450969696045,-9.646859169006348,-0.7065730094909668
1772541039621376800,6.738376708984375,1.5760389566421509,-9.64704704284668,-0.7004340291023254
1772541039631286800,6.748286865234375,1.5786080360412598,-9.647244453430176,-0.6918839812278748
1772541039641196800,6.75819677734375,1.5854840278625488,-9.647311210632324,-0.6750109791755676
1772541039651106800,6.76810693359375,1.5928159952163696,-9.647315979003906,-0.6574659943580627
1772541039661016800,6.778016845703125,1.5984430313110352,-9.64719009399414,-0.6455420255661011
1772541039670926800,6.7879267578125,1.5966819524765015,-9.64769172668457,-0.6424000263214111
1772541039680836900,6.7978369140625,1.589792013168335,-9.648773193359375,-0.6432269811630249
1772541039690746600,6.80774658203125,1.5700299739837646,-9.651773452758789,-0.6467540264129639
1772541039700656600,6.81765673828125,1.5489150285720825,-9.65515422821045,-0.6472049951553345
1772541039710566700,6.827566650390625,1.5388239622116089,-9.656856536865234,-0.6458699703216553
1772541039720476700,6.8374765625,1.5319349765777588,-9.658276557922363,-0.6410040259361267
1772541039730386400,6.847386474609375,1.530303955078125,-9.659021377563477,-0.6336299777030945
1772541039740296400,6.85729638671875,1.5338859558105469,-9.658974647521973,-0.6256430149078369
1772541039750206500,6.86720654296875,1.5412670373916626,-9.658059120178223,-0.6216210126876831
1772541039760116500,6.877116455078125,1.5464999675750732,-9.65705680847168,-0.6241840124130249
1772541039770026500,6.887026611328125,1.5384639501571655,-9.658008575439453,-0.6293050050735474
1772541039779936500,6.8969365234375,1.5231120586395264,-9.660208702087402,-0.6328579783439636
1772541039789846500,6.906846435546875,1.5163739919662476,-9.661288261413574,-0.632561981678009
1772541039799756500,6.916756591796875,1.5170949697494507,-9.661216735839844,-0.6319310069084167
1772541039809666600,6.92666650390625,1.523911952972412,-9.660045623779297,-0.6334220170974731
1772541039819576300,6.936576416015625,1.532120943069458,-9.65836238861084,-0.6392850279808044
1772541039829486600,6.946486572265625,1.5368160009384155,-9.656984329223633,-0.648730993270874
1772541039839396600,6.956396728515625,1.535217046737671,-9.656391143798828,-0.6612210273742676
1772541039849306600,6.966306640625,1.528988003730774,-9.656658172607422,-0.6717050075531006
1772541039859216600,6.976216552734375,1.520190954208374,-9.657623291015625,-0.6777369976043701
1772541039869126700,6.986126708984375,1.5112760066986084,-9.6589994430542,-0.6780660152435303
1772541039879036700,6.99603662109375,1.5077749490737915,-9.659695625305176,-0.6759539842605591
1772541039888946400,7.005946533203125,1.5103689432144165,-9.659500122070312,-0.6729639768600464
1772541039898856400,7.0158564453125,1.517704963684082,-9.658507347106934,-0.6706960201263428
1772541039908766500,7.025766357421875,1.5275980234146118,-9.657029151916504,-0.6695359945297241
1772541039918676500,7.035676513671875,1.5271990299224854,-9.656800270080566,-0.6737149953842163
1772541039928586500,7.04558642578125,1.520346999168396,-9.657264709472656,-0.6825029850006104
1772541039938496500,7.05549658203125,1.5112730264663696,-9.657906532287598,-0.6934630274772644
1772541039948406500,7.065406494140625,1.508808970451355,-9.657889366149902,-0.6990659832954407
1772541039958316500,7.075316650390625,1.5093580484390259,-9.657478332519531,-0.7035380005836487
1772541039968226600,7.0852265625,1.5127660036087036,-9.65673828125,-0.7063760161399841
1772541039978136600,7.095136474609375,1.5192389488220215,-9.65560531616211,-0.7079390287399292
1772541039988046600,7.105046630859375,1.5273040533065796,-9.654211044311523,-0.7096279859542847
1772541039997956600,7.11495654296875,1.5356210470199585,-9.652791976928711,-0.7109490036964417
1772541040007866600,7.12486669921875,1.544334053993225,-9.651483535766602,-0.7098730206489563
1772541040017776600,7.134776611328125,1.5518239736557007,-9.650574684143066,-0.7059059739112854
1772541040027686700,7.144686767578125,1.5556190013885498,-9.65035629272461,-0.7004759907722473
1772541040037596700,7.1545966796875,1.5542800426483154,-9.650935173034668,-0.6954569816589355
1772541040047506700,7.164506591796875,1.5470590591430664,-9.65266227722168,-0.6875640153884888
1772541040057416700,7.174416748046875,1.5428440570831299,-9.653704643249512,-0.6823930144309998
1772541040067326500,7.184326416015625,1.5418339967727661,-9.654406547546387,-0.6746860146522522
1772541040077236500,7.194236572265625,1.5405839681625366,-9.655312538146973,-0.6645069718360901
1772541040087146500,7.204146484375,1.5403330326080322,-9.656071662902832,-0.6539480090141296
1772541040097056500,7.214056396484375,1.540761947631836,-9.656537055969238,-0.6460450291633606
1772541040106966500,7.223966552734375,1.5442559719085693,-9.656126022338867,-0.6438469886779785
1772541040116876500,7.23387646484375,1.5481289625167847,-9.655475616455078,-0.6442880034446716
1772541040126786600,7.24378662109375,1.5488409996032715,-9.65512752532959,-0.6477590203285217
1772541040136696600,7.253696533203125,1.545037031173706,-9.655401229858398,-0.6527500152587891
1772541040146606600,7.263606689453125,1.535277009010315,-9.65670108795166,-0.6565650105476379
1772541040156516600,7.2735166015625,1.5211750268936157,-9.658852577209473,-0.6577379703521729
1772541040166426600,7.283426513671875,1.510077953338623,-9.660694122314453,-0.6562430262565613
1772541040176336600,7.293336669921875,1.5079339742660522,-9.661148071289062,-0.6544950008392334
1772541040186246700,7.30324658203125,1.513645052909851,-9.660276412963867,-0.65419602394104
1772541040196156700,7.31315673828125,1.5243680477142334,-9.65849781036377,-0.6555730104446411
1772541040206066700,7.323066650390625,1.5380549430847168,-9.656126022338867,-0.6585040092468262
1772541040215976700,7.332976806640625,1.5458430051803589,-9.654699325561523,-0.661188006401062
1772541040225886700,7.34288671875,1.5519169569015503,-9.653435707092285,-0.6653980016708374
1772541040235796700,7.352796630859375,1.5561389923095703,-9.652405738830566,-0.6704620122909546
1772541040245706800,7.362706787109375,1.5592950582504272,-9.651581764221191,-0.6749799847602844
1772541040255616800,7.37261669921875,1.5598809719085693,-9.651156425476074,-0.6796740293502808
1772541040265526800,7.38252685546875,1.5606939792633057,-9.650347709655762,-0.6892309784889221
1772541040275436800,7.392436767578125,1.5656399726867676,-9.649094581604004,-0.6955310106277466
1772541040285346800,7.402346923828125,1.5750370025634766,-9.647601127624512,-0.6950399875640869
1772541040295256800,7.4122568359375,1.583279013633728,-9.646810531616211,-0.6872249841690063
1772541040305166800,7.422166748046875,1.5862090587615967,-9.646690368652344,-0.6821550130844116
1772541040315076900,7.432076904296875,1.5858429670333862,-9.64711856842041,-0.6769180297851562
1772541040324987000,7.44198681640625,1.582522988319397,-9.647947311401367,-0.672851026058197
1772541040334896600,7.451896728515625,1.5783900022506714,-9.648780822753906,-0.6706100106239319
1772541040344806700,7.461806640625,1.5725140571594238,-9.649826049804688,-0.6693869829177856
1772541040354716700,7.471716552734375,1.5655150413513184,-9.65102481842041,-0.6685109734535217
1772541040364626700,7.481626708984375,1.5574380159378052,-9.652338027954102,-0.6684200167655945
1772541040374537000,7.491536865234375,1.5495699644088745,-9.65359115600586,-0.6686099767684937
1772541040384446700,7.50144677734375,1.5356500148773193,-9.655755996704102,-0.6694790124893188
1772541040394356700,7.511356689453125,1.5292609930038452,-9.656678199768066,-0.6707919836044312
1772541040404266800,7.521266845703125,1.5214539766311646,-9.657760620117188,-0.6729559898376465
1772541040414177000,7.531177001953125,1.5173369646072388,-9.658400535583496,-0.6730509996414185
1772541040424086800,7.541086669921875,1.5197290182113647,-9.658259391784668,-0.6696860194206238
1772541040433996800,7.550996826171875,1.5257110595703125,-9.657646179199219,-0.6649100184440613
1772541040443906800,7.56090673828125,1.5298869609832764,-9.65737247467041,-0.6592609882354736
1772541040453816800,7.57081689453125,1.5315380096435547,-9.657438278198242,-0.6544340252876282
1772541040463726800,7.580726806640625,1.5340789556503296,-9.657097816467285,-0.6535210013389587
1772541040473636900,7.590636962890625,1.539270043373108,-9.65599536895752,-0.6575930118560791
1772541040483547000,7.600546875,1.5449880361557007,-9.654365539550781,-0.6680189967155457
1772541040493457000,7.610456787109375,1.548048973083496,-9.653020858764648,-0.6802380084991455
1772541040503367000,7.620366943359375,1.544098973274231,-9.652833938598633,-0.6918039917945862
1772541040513277000,7.63027685546875,1.5373810529708862,-9.653199195861816,-0.7015690207481384
1772541040523187000,7.64018701171875,1.5332130193710327,-9.653480529785156,-0.7068110108375549
1772541040533097000,7.650096923828125,1.5301189422607422,-9.653754234313965,-0.7097579836845398
1772541040543007000,7.660007080078125,1.530711054801941,-9.653746604919434,-0.7086139917373657
1772541040552917000,7.6699169921875,1.5383210182189941,-9.653087615966797,-0.7010489702224731
1772541040562827000,7.679826904296875,1.5467400550842285,-9.652420043945312,-0.691677987575531
1772541040572737000,7.689737060546875,1.5543630123138428,-9.651734352111816,-0.6840919852256775
1772541040582647000,7.69964697265625,1.5576289892196655,-9.651605606079102,-0.6784800291061401
1772541040592557000,7.70955712890625,1.558985948562622,-9.6515474319458,-0.6761900186538696
1772541040602467000,7.719467041015625,1.558688998222351,-9.651612281799316,-0.6759430170059204
1772541040612377000,7.729377197265625,1.5567350387573242,-9.651408195495605,-0.6833149790763855
1772541040622287000,7.739287109375,1.552569031715393,-9.651056289672852,-0.6975939869880676
1772541040632197000,7.749197021484375,1.5449179410934448,-9.650999069213867,-0.7151600122451782
1772541040642107100,7.759107177734375,1.5353260040283203,-9.651313781738281,-0.7313950061798096
1772541040652017200,7.76901708984375,1.5250799655914307,-9.652053833007812,-0.7429630160331726
1772541040661927200,7.77892724609375,1.5151690244674683,-9.653212547302246,-0.7481870055198669
1772541040671837200,7.788837158203125,1.5120749473571777,-9.653871536254883,-0.7459200024604797
1772541040681747200,7.798747314453125,1.5194380283355713,-9.653491020202637,-0.7358099818229675
1772541040691657200,7.8086572265625,1.5343780517578125,-9.652251243591309,-0.7209159731864929
1772541040701567200,7.818567138671875,1.5522600412368774,-9.650506019592285,-0.7058410048484802
1772541040711477200,7.828477294921875,1.5685240030288696,-9.648627281188965,-0.6955329775810242
1772541040721387300,7.83838720703125,1.5817430019378662,-9.64680290222168,-0.6908599734306335
1772541040731297300,7.84829736328125,1.5922969579696655,-9.644968032836914,-0.6922479867935181
1772541040741207300,7.858207275390625,1.5992939472198486,-9.64321517944336,-0.7004539966583252
1772541040751117300,7.868117431640625,1.5995479822158813,-9.642202377319336,-0.7137380242347717
1772541040761027300,7.87802734375,1.5905510187149048,-9.642487525939941,-0.7297989726066589
1772541040770937000,7.88793701171875,1.5833189487457275,-9.643074989318848,-0.7377030253410339
1772541040780847400,7.897847412109375,1.574766993522644,-9.644026756286621,-0.743552029132843
1772541040790757400,7.90775732421875,1.5632139444351196,-9.645451545715332,-0.749426007270813
1772541040800667100,7.917667236328125,1.5573079586029053,-9.64633560180664,-0.7503290176391602
1772541040810577200,7.9275771484375,1.557446002960205,-9.64664077758789,-0.7461199760437012
1772541040820487200,7.937487060546875,1.561745047569275,-9.646671295166016,-0.7366989850997925
1772541040830397200,7.947397216796875,1.5702439546585083,-9.646036148071289,-0.7268570065498352
1772541040840307500,7.957307373046875,1.5810290575027466,-9.644933700561523,-0.7180569767951965
1772541040850217200,7.96721728515625,1.5913200378417969,-9.643692016601562,-0.7119629979133606
1772541040860127200,7.977127197265625,1.595352053642273,-9.643473625183105,-0.7058789730072021
1772541040870037200,7.987037353515625,1.5914180278778076,-9.64459228515625,-0.6994779706001282
1772541040879947300,7.996947265625,1.5812760591506958,-9.646736145019531,-0.6928690075874329
1772541040899767600,8.016767578125,1.5677850246429443,-9.649176597595215,-0.6895509958267212
1772541040909677300,8.02667724609375,1.5628249645233154,-9.64988899230957,-0.6908220052719116
1772541040919587300,8.03658740234375,1.5565340518951416,-9.650686264038086,-0.6938719749450684
1772541040929497300,8.046497314453125,1.5507279634475708,-9.651372909545898,-0.6973400115966797
1772541040939407400,8.056407470703125,1.5462590456008911,-9.651942253112793,-0.6993680000305176
1772541040949317600,8.066317626953126,1.5441579818725586,-9.65237808227539,-0.6979789733886719
1772541040959227600,8.0762275390625,1.5470670461654663,-9.65239143371582,-0.6913340091705322
1772541040969137700,8.0861376953125,1.5574660301208496,-9.651897430419922,-0.6746649742126465
1772541040979047700,8.096047607421875,1.5688680410385132,-9.651264190673828,-0.6571140289306641
1772541040988957700,8.105957763671874,1.5762640237808228,-9.650993347167969,-0.6432399749755859
1772541040998867500,8.115867431640625,1.5783580541610718,-9.651135444641113,-0.6359289884567261
1772541041008777500,8.125777587890624,1.5750919580459595,-9.651605606079102,-0.6368759870529175
1772541041018687500,8.1356875,1.5657219886779785,-9.652668952941895,-0.6438300013542175
1772541041028597500,8.145597412109375,1.5528090000152588,-9.654183387756348,-0.6523339748382568
1772541041038507500,8.155507568359376,1.5374950170516968,-9.656170845031738,-0.6591590046882629
1772541041048417500,8.16541748046875,1.527519941329956,-9.657465934753418,-0.6633750200271606
1772541041058327600,8.17532763671875,1.5248730182647705,-9.657768249511719,-0.6650350093841553
1772541041068237600,8.185237548828125,1.5291130542755127,-9.6569185256958,-0.6676539778709412
1772541041078147600,8.195147705078124,1.5374679565429688,-9.655512809753418,-0.6687909960746765
1772541041088057600,8.2050576171875,1.544613003730774,-9.654443740844727,-0.667756974697113
1772541041097967600,8.214967529296874,1.5481499433517456,-9.654154777526855,-0.6637219786643982
1772541041107877600,8.224877685546875,1.5478459596633911,-9.654623985290527,-0.6575999855995178
1772541041117787600,8.23478759765625,1.5468820333480835,-9.655200004577637,-0.6513689756393433
1772541041127697700,8.24469775390625,1.5461570024490356,-9.65577220916748,-0.644565999507904
1772541041137607700,8.254607666015625,1.5461039543151855,-9.656034469604492,-0.6407639980316162
1772541041147517700,8.264517578125,1.5480600595474243,-9.655790328979492,-0.6397280097007751
1772541041157427700,8.274427734375,1.5524009466171265,-9.654851913452148,-0.6433500051498413
1772541041167337500,8.28433740234375,1.555832028388977,-9.653790473937988,-0.6509630084037781
1772541041177247500,8.29424755859375,1.55635404586792,-9.653120994567871,-0.6595889925956726
1772541041187157500,8.304157470703124,1.5545140504837036,-9.652847290039062,-0.6678799986839294
1772541041197067500,8.314067626953126,1.5521219968795776,-9.6527099609375,-0.6753910183906555
1772541041206977500,8.3239775390625,1.5499190092086792,-9.65255069732666,-0.6826890110969543
1772541041216887600,8.333887451171876,1.5516999959945679,-9.652061462402344,-0.6855340003967285
1772541041226797800,8.3437978515625,1.5589699745178223,-9.650838851928711,-0.686257004737854
1772541041236707600,8.35370751953125,1.568179965019226,-9.649361610412598,-0.6860100030899048
1772541041246617600,8.36361767578125,1.5759999752044678,-9.648269653320312,-0.6834740042686462
1772541041256527600,8.373527587890624,1.5840959548950195,-9.647146224975586,-0.6806139945983887
1772541041266437600,8.383437744140625,1.5886269807815552,-9.646476745605469,-0.6795169711112976
1772541041276347600,8.39334765625,1.5870070457458496,-9.64671516418457,-0.6799309849739075
1772541041286257700,8.403257568359376,1.5830539464950562,-9.647274017333984,-0.6812149882316589
1772541041296167700,8.413167724609375,1.5760350227355957,-9.648114204406738,-0.6855940222740173
1772541041306077700,8.42307763671875,1.5665910243988037,-9.649300575256348,-0.6905080080032349
1772541041315987700,8.43298779296875,1.5591219663619995,-9.650105476379395,-0.6961569786071777
1772541041325897700,8.442897705078124,1.55800199508667,-9.649896621704102,-0.701541006565094
1772541041335807700,8.452807861328125,1.5590449571609497,-9.649462699890137,-0.7051650285720825
1772541041345717800,8.4627177734375,1.5609819889068604,-9.648943901062012,-0.7079790234565735
1772541041355627800,8.472627685546875,1.5626699924468994,-9.648666381835938,-0.7080550193786621
1772541041365537800,8.482537841796875,1.5650360584259033,-9.64830207824707,-0.7077800035476685
1772541041375447800,8.49244775390625,1.5671969652175903,-9.647903442382812,-0.7084370255470276
1772541041395267800,8.512267822265626,1.5694949626922607,-9.6475830078125,-0.7077199816703796
1772541041405177900,8.522177734375,1.5662610530853271,-9.648354530334473,-0.7043589949607849
1772541041415087600,8.532087646484374,1.5617270469665527,-9.64948844909668,-0.6988630294799805
1772541041424997600,8.54199755859375,1.5602999925613403,-9.650074005126953,-0.6939589977264404
1772541041434908000,8.551907958984375,1.5615090131759644,-9.65000057220459,-0.6922479867935181
1772541041444818000,8.56181787109375,1.5650919675827026,-9.649354934692383,-0.6931639909744263
1772541041454727700,8.571727783203125,1.5682640075683594,-9.64887809753418,-0.6926130056381226
1772541041464637700,8.5816376953125,1.571823000907898,-9.648433685302734,-0.6907389760017395
1772541041474547700,8.591547607421875,1.5743860006332397,-9.648317337036133,-0.6865040063858032
1772541041484457700,8.601457763671876,1.5751320123672485,-9.648595809936523,-0.6808670163154602
1772541041494368000,8.611367919921875,1.5732040405273438,-9.64937973022461,-0.6741790175437927
1772541041504278000,8.621278076171874,1.5686039924621582,-9.650460243225098,-0.669409990310669
1772541041514188000,8.63118798828125,1.5619959831237793,-9.651853561401367,-0.664762020111084
1772541041524097800,8.641097900390625,1.5526269674301147,-9.65372085571289,-0.6595969796180725
1772541041534008000,8.651008056640626,1.5434319972991943,-9.655535697937012,-0.6545630097389221
1772541041543917800,8.660917724609375,1.5382779836654663,-9.656476020812988,-0.6528350114822388
1772541041553827800,8.670827880859376,1.5393160581588745,-9.656220436096191,-0.6541820168495178
1772541041563737900,8.68073779296875,1.5441440343856812,-9.654977798461914,-0.6611009836196899
1772541041573648000,8.69064794921875,1.5467350482940674,-9.653942108154297,-0.6701160073280334
1772541041583558000,8.700557861328125,1.547050952911377,-9.653377532958984,-0.6774510145187378
1772541041593468000,8.710468017578124,1.546120047569275,-9.653281211853027,-0.6809419989585876
1772541041603378000,8.7203779296875,1.5448169708251953,-9.653286933898926,-0.683817982673645
1772541041613288000,8.730287841796875,1.5442719459533691,-9.65321159362793,-0.6861259937286377
1772541041623198000,8.740197998046876,1.5417729616165161,-9.653380393981934,-0.6893460154533386
1772541041633108000,8.75010791015625,1.5415199995040894,-9.65314769744873,-0.6931549906730652
1772541041643018000,8.76001806640625,1.5437860488891602,-9.652448654174805,-0.6978430151939392
1772541041652928000,8.769927978515625,1.5449600219726562,-9.651984214782715,-0.7016549706459045
1772541041662837800,8.779837646484374,1.5474770069122314,-9.651347160339355,-0.7048500180244446
1772541041672747800,8.789747802734375,1.552042007446289,-9.65045166015625,-0.7070819735527039
1772541041682657800,8.79965771484375,1.5575230121612549,-9.64919376373291,-0.7121729850769043
1772541041692567800,8.80956787109375,1.5642449855804443,-9.647441864013672,-0.7211359739303589
1772541041702477800,8.819477783203125,1.568809986114502,-9.645927429199219,-0.7313799858093262
1772541041712387800,8.829387939453126,1.5721310377120972,-9.644835472106934,-0.7386500239372253
1772541041722297900,8.8392978515625,1.574031949043274,-9.644089698791504,-0.7442970275878906
1772541041732207900,8.849207763671876,1.5761070251464844,-9.643402099609375,-0.7487900257110596
1772541041742118000,8.859117919921875,1.5765939950942993,-9.64305591583252,-0.7522259950637817
1772541041752028000,8.86902783203125,1.5786950588226318,-9.642410278320312,-0.7560700178146362
1772541041761938000,8.87893798828125,1.5791059732437134,-9.642022132873535,-0.7601780295372009
1772541041771848000,8.888847900390624,1.5798920392990112,-9.641654968261719,-0.7631750106811523
1772541041781758000,8.898758056640625,1.5810840129852295,-9.641284942626953,-0.7653899788856506
1772541041791668000,8.90866796875,1.5811070203781128,-9.641046524047852,-0.7683129906654358
1772541041801578000,8.918577880859376,1.5797189474105835,-9.641032218933105,-0.7713509798049927
1772541041811488000,8.928488037109375,1.579375982284546,-9.641106605529785,-0.7711319923400879
1772541041821397800,8.938397705078126,1.5779880285263062,-9.641488075256348,-0.7692019939422607
1772541041831308000,8.94830810546875,1.5777519941329956,-9.641766548156738,-0.7661899924278259
1772541041841218000,8.958218017578124,1.577388048171997,-9.642006874084473,-0.763916015625
1772541041851128000,8.968128173828125,1.5777230262756348,-9.64218807220459,-0.7609400153160095
1772541041861037800,8.978037841796874,1.578233003616333,-9.642413139343262,-0.7570149898529053
1772541041870947800,8.98794775390625,1.578724980354309,-9.642839431762695,-0.7505289912223816
1772541041880857900,8.99785791015625,1.5792180299758911,-9.643607139587402,-0.7395210266113281
1772541041890768000,9.007767822265626,1.5794949531555176,-9.644282341003418,-0.7300739884376526
1772541041900678000,9.017677978515625,1.577636957168579,-9.645124435424805,-0.7229560017585754
1772541041910588000,9.027587890625,1.5747350454330444,-9.645912170410156,-0.7187340259552002
1772541041920498000,9.037497802734375,1.5712770223617554,-9.646702766418457,-0.7157009840011597
1772541041930408000,9.047407958984374,1.5662469863891602,-9.6478271484375,-0.7115539908409119
1772541041940318000,9.05731787109375,1.5605429410934448,-9.649186134338379,-0.7056379914283752
1772541041950228000,9.06722802734375,1.5555180311203003,-9.650457382202148,-0.6993359923362732
1772541041960138000,9.077137939453126,1.550686001777649,-9.651761054992676,-0.6920329928398132
1772541041970048000,9.087048095703125,1.5475519895553589,-9.652619361877441,-0.6870409846305847
1772541041979957800,9.096957763671876,1.5454390048980713,-9.653223991394043,-0.6833069920539856
1772541041989868000,9.106867919921875,1.5451409816741943,-9.653264045715332,-0.683417022228241
1772541041999777800,9.11677783203125,1.5451799631118774,-9.653166770935059,-0.684689998626709
1772541042009687800,9.126687744140625,1.5451860427856445,-9.653255462646484,-0.6834449768066406
1772541042019597800,9.136597900390624,1.5447150468826294,-9.653640747070312,-0.6790519952774048
1772541042029507800,9.1465078125,1.5442899465560913,-9.654118537902832,-0.6731969714164734
1772541042039417900,9.15641796875,1.543908953666687,-9.654458999633789,-0.6691809892654419
1772541042049327900,9.166327880859376,1.5478880405426025,-9.653828620910645,-0.6690549850463867
1772541042059238000,9.17623779296875,1.551740050315857,-9.653096199035645,-0.6707109808921814
1772541042069147600,9.186147705078126,1.5545909404754639,-9.652511596679688,-0.6725249886512756
1772541042079057700,9.1960576171875,1.555783987045288,-9.652244567871094,-0.6736000180244446
1772541042088967700,9.2059677734375,1.5561230182647705,-9.652106285095215,-0.6747959852218628
1772541042098877700,9.215877685546875,1.556704044342041,-9.651841163635254,-0.677245020866394
1772541042108787700,9.22578759765625,1.560155987739563,-9.651032447814941,-0.6808130145072937
1772541042118697700,9.23569775390625,1.5638710260391235,-9.650229454040527,-0.6836509704589844
1772541042128607700,9.245607666015625,1.565906047821045,-9.649795532226562,-0.6851209998130798
1772541042138517800,9.255517822265626,1.5650399923324585,-9.650010108947754,-0.6840860247612
1772541042148427800,9.265427734375,1.5639270544052124,-9.650190353393555,-0.6840819716453552
1772541042158337800,9.275337890625,1.5628260374069214,-9.650264739990234,-0.6855499744415283
1772541042168247800,9.285247802734375,1.5616710186004639,-9.65041446685791,-0.6861060261726379
1772541042178157600,9.295157470703124,1.5608079433441162,-9.650664329528809,-0.6845290064811707
1772541042188067600,9.305067626953125,1.5596129894256592,-9.651163101196289,-0.68019700050354
1772541042197977900,9.314977783203124,1.559201955795288,-9.651564598083496,-0.6754369735717773
1772541042207888000,9.324887939453125,1.5597389936447144,-9.651918411254883,-0.6690970063209534
1772541042217797600,9.334797607421875,1.5620959997177124,-9.651859283447266,-0.6644459962844849
1772541042227707600,9.344707763671876,1.565384030342102,-9.651248931884766,-0.665573000907898
1772541042237617700,9.35461767578125,1.5675020217895508,-9.650409698486328,-0.6727160215377808
1772541042247527700,9.364527587890626,1.5662380456924438,-9.649941444396973,-0.6823229789733887
1772541042257437700,9.374437744140625,1.5610519647598267,-9.650348663330078,-0.6884089708328247
1772541042267347700,9.38434765625,1.5567339658737183,-9.650787353515625,-0.6920179724693298
1772541042277257700,9.3942578125,1.555245041847229,-9.651019096374512,-0.6921290159225464
1772541042287167700,9.404167724609374,1.555469036102295,-9.651130676269531,-0.6900680065155029
1772541042297077800,9.414077880859375,1.5575159788131714,-9.651030540466309,-0.6868699789047241
1772541042306987800,9.42398779296875,1.561642050743103,-9.650546073913574,-0.6842740178108215
1772541042316897800,9.433897705078126,1.5671119689941406,-9.649862289428711,-0.6814219951629639
1772541042326807600,9.4438076171875,1.5723669528961182,-9.649133682250977,-0.6796339750289917
1772541042336717600,9.453717529296876,1.5790050029754639,-9.648064613342285,-0.6794149875640869
1772541042346627600,9.463627685546875,1.5815930366516113,-9.6475830078125,-0.6802350282669067
1772541042356537600,9.47353759765625,1.5818979740142822,-9.64747428894043,-0.6810659766197205
1772541042366447600,9.483447509765625,1.5794130563735962,-9.647573471069336,-0.6854209899902344
1772541042376357600,9.493357666015624,1.5776209831237793,-9.647398948669434,-0.691959023475647
1772541042386267400,9.503267333984375,1.576066017150879,-9.647201538085938,-0.6982269883155823
1772541042396177700,9.513177734375,1.5774519443511963,-9.64670467376709,-0.7019709944725037
1772541042406087400,9.52308740234375,1.5766470432281494,-9.646820068359375,-0.7021660208702087
1772541042415997400,9.53299755859375,1.5750529766082764,-9.64737606048584,-0.6981139779090881
1772541042425907500,9.542907470703126,1.572775959968567,-9.648294448852539,-0.6905030012130737
1772541042435817500,9.5528173828125,1.5735219717025757,-9.648943901062012,-0.6796630024909973
1772541042445727500,9.5627275390625,1.575659990310669,-9.6494140625,-0.6678969860076904
1772541042455637500,9.572637451171875,1.5785139799118042,-9.649624824523926,-0.6580659747123718
1772541042465547300,9.58254736328125,1.5816190242767334,-9.649616241455078,-0.6506999731063843
1772541042475457500,9.59245751953125,1.5844759941101074,-9.649354934692383,-0.6476020216941833
1772541042485367300,9.6023671875,1.5869979858398438,-9.648776054382324,-0.6500669717788696
1772541042495277300,9.61227734375,1.586501955986023,-9.648344993591309,-0.6576129794120789
1772541042505187300,9.622187255859375,1.5820939540863037,-9.648399353027344,-0.6673840284347534
1772541042515097300,9.632097412109376,1.5745919942855835,-9.649032592773438,-0.6758909821510315
1772541042525007400,9.64200732421875,1.5665249824523926,-9.649909973144531,-0.6820970177650452
1772541042534917400,9.65191748046875,1.5605310201644897,-9.65060806274414,-0.6859400272369385
1772541042544827400,9.661827392578125,1.5582469701766968,-9.650700569152832,-0.6898239850997925
1772541042554737400,9.6717373046875,1.5591310262680054,-9.650339126586914,-0.6928759813308716
1772541042564647200,9.681647216796875,1.560776948928833,-9.649872779846191,-0.6956589818000793
1772541042574557200,9.69155712890625,1.5611209869384766,-9.649785041809082,-0.6961039900779724
1772541042584467200,9.70146728515625,1.5625649690628052,-9.649746894836426,-0.6934080123901367
1772541042594377200,9.711377197265625,1.5643869638442993,-9.649617195129395,-0.6910809874534607
1772541042604287200,9.721287353515624,1.5655649900436401,-9.649510383605957,-0.6899120211601257
1772541042614197200,9.731197265625,1.5649199485778809,-9.649702072143555,-0.6886929869651794
1772541042624107300,9.741107177734374,1.5638350248336792,-9.64982795715332,-0.6894019842147827
1772541042634017300,9.751017333984375,1.5612009763717651,-9.650039672851562,-0.6923969984054565
1772541042643927300,9.76092724609375,1.5607390403747559,-9.649680137634277,-0.6984090209007263
1772541042653837300,9.77083740234375,1.5572479963302612,-9.649724960327148,-0.7055429816246033
1772541042663747000,9.7807470703125,1.5527470111846924,-9.649977684020996,-0.7119989991188049
1772541042673657000,9.790656982421876,1.5504560470581055,-9.649842262268066,-0.7187820076942444
1772541042683567000,9.800567138671875,1.5496619939804077,-9.649726867675781,-0.722025990486145
1772541042693477000,9.81047705078125,1.550577998161316,-9.649792671203613,-0.7191900014877319
1772541042703387100,9.82038720703125,1.555838942527771,-9.649635314941406,-0.709850013256073
1772541042713297000,9.830296875,1.5616430044174194,-9.649548530578613,-0.6982269883155823
1772541042723207000,9.84020703125,1.568282961845398,-9.649027824401855,-0.6904609799385071
1772541042733117000,9.850116943359374,1.5757230520248413,-9.648052215576172,-0.6871730089187622
1772541042743027000,9.86002685546875,1.5824509859085083,-9.646799087524414,-0.6892960071563721
1772541042752937000,9.86993701171875,1.585116982460022,-9.64600658416748,-0.6942319869995117
1772541042762847000,9.879846923828126,1.5853739976882935,-9.645456314086914,-0.7012770175933838
1772541042772757000,9.889757080078125,1.5826200246810913,-9.645339012145996,-0.7090629935264587
1772541042782667000,9.8996669921875,1.5780880451202393,-9.645581245422363,-0.7158359885215759
1772541042792577000,9.909576904296875,1.5706969499588013,-9.646673202514648,-0.7173709869384766
1772541042802486800,9.91948681640625,1.5647499561309814,-9.647807121276855,-0.7151029706001282
1772541042812396800,9.929396728515625,1.5618259906768799,-9.648711204528809,-0.7092810273170471
1772541042822306800,9.939306884765625,1.5626859664916992,-9.649035453796387,-0.7029520273208618
1772541042832216800,9.949216796875,1.5660279989242554,-9.648947715759277,-0.696694016456604
1772541042842126800,9.959126953125,1.569046974182129,-9.648589134216309,-0.6948699951171875
1772541042852036900,9.969036865234376,1.57145094871521,-9.648289680480957,-0.6935999989509583
1772541042861947000,9.97894677734375,1.5739690065383911,-9.647977828979492,-0.6922060251235962
1772541042871856600,9.988856689453126,1.5749150514602661,-9.647830963134766,-0.6921160221099854
1772541042881766700,9.9987666015625,1.5754159688949585,-9.64736270904541,-0.6974700093269348
1772541042891676700,10.0086767578125,1.5746099948883057,-9.646537780761719,-0.7105519771575928
1772541042901586700,10.018586669921875,1.5724740028381348,-9.645825386047363,-0.7248330116271973
1772541042911496700,10.02849658203125,1.5679700374603271,-9.645787239074707,-0.7350260019302368
1772541042921406500,10.038406494140625,1.5625239610671997,-9.646174430847168,-0.7415090203285217
1772541042931316500,10.04831640625,1.5599340200424194,-9.646492958068848,-0.7428460121154785
1772541042941226500,10.0582265625,1.5625139474868774,-9.646191596984863,-0.7413110136985779
1772541042951136500,10.068136474609375,1.5677119493484497,-9.64570426940918,-0.7366719841957092
1772541042961046500,10.078046630859374,1.5738680362701416,-9.645407676696777,-0.7273619771003723
1772541042970956300,10.087956298828125,1.5802160501480103,-9.645286560058594,-0.7151100039482117
1772541042980866600,10.097866455078124,1.585548996925354,-9.645298957824707,-0.7030109763145447
1772541042990776300,10.1077763671875,1.5903990268707275,-9.645198822021484,-0.6934030055999756
1772541043000686300,10.117686279296874,1.5916880369186401,-9.645261764526367,-0.6895580291748047
1772541043010596400,10.127596435546875,1.5919779539108276,-9.645343780517578,-0.687720000743866
1772541043020506400,10.13750634765625,1.5894429683685303,-9.645808219909668,-0.6870700120925903
1772541043030416400,10.14741650390625,1.583266019821167,-9.646726608276367,-0.688435971736908
1772541043040326100,10.157326171875,1.5757060050964355,-9.647820472717285,-0.6904799938201904
1772541043050236200,10.167236083984376,1.5677490234375,-9.648987770080566,-0.6922670006752014
1772541043060146200,10.177146240234375,1.5615650415420532,-9.649858474731445,-0.6940879821777344
1772541043070056200,10.18705615234375,1.5571789741516113,-9.650449752807617,-0.6957319974899292
1772541043079966200,10.19696630859375,1.5535080432891846,-9.650922775268555,-0.6973689794540405
1772541043089876200,10.206876220703125,1.551179051399231,-9.651333808898926,-0.6968650221824646
1772541043099786200,10.2167861328125,1.5533909797668457,-9.65116024017334,-0.694329023361206
1772541043109696000,10.226696044921875,1.5600049495697021,-9.650291442871094,-0.6915910243988037
1772541043119606000,10.23660595703125,1.5671859979629517,-9.649175643920898,-0.6908969879150391
1772541043129516000,10.24651611328125,1.5760459899902344,-9.647787094116211,-0.6901519894599915
1772541043139426000,10.256426025390626,1.5827640295028687,-9.646851539611816,-0.6878299713134766
1772541043149336000,10.266336181640625,1.5863239765167236,-9.646520614624023,-0.6842849850654602
1772541043159246000,10.27624609375,1.5841619968414307,-9.646918296813965,-0.6836730241775513
1772541043169156000,10.286156005859375,1.5774439573287964,-9.647668838500977,-0.6885920166969299
1772541043179065900,10.29606591796875,1.5737320184707642,-9.647541046142578,-0.6988130211830139
1772541043188975900,10.305975830078125,1.5707670450210571,-9.646931648254395,-0.7137259840965271
1772541043198886000,10.315885986328125,1.5715810060501099,-9.645760536193848,-0.727620005607605
1772541043208796000,10.3257958984375,1.5737320184707642,-9.644847869873047,-0.7350460290908813
1772541043218706000,10.335705810546875,1.5760459899902344,-9.644617080688477,-0.7331039905548096
1772541043228615700,10.34561572265625,1.577847957611084,-9.645186424255371,-0.7216809988021851
1772541043238525700,10.355525634765625,1.58045494556427,-9.645465850830078,-0.7121469974517822
1772541043248435700,10.365435791015624,1.58365797996521,-9.645675659179688,-0.7021499872207642
1772541043258345700,10.375345703125,1.5845119953155518,-9.646037101745605,-0.6952199935913086
1772541043268255700,10.385255859375,1.5802550315856934,-9.646828651428223,-0.6939120292663574
1772541043278165800,10.395165771484375,1.5708860158920288,-9.64806842803955,-0.6979179978370667
1772541043288075500,10.405075439453125,1.5607659816741943,-9.649202346801758,-0.7049440145492554
1772541043297985500,10.414985595703126,1.5489970445632935,-9.650243759155273,-0.7165210247039795
1772541043307895600,10.4248955078125,1.5457390546798706,-9.65035343170166,-0.7220640182495117
1772541043317805600,10.4348056640625,1.5525619983673096,-9.649279594421387,-0.7217829823493958
1772541043327715600,10.444715576171875,1.5673940181732178,-9.647041320800781,-0.719631016254425
1772541043337625300,10.454625244140624,1.5830609798431396,-9.644519805908203,-0.7191579937934875
1772541043347535400,10.464535400390625,1.5930520296096802,-9.64257526397705,-0.7231400012969971
1772541043357445400,10.4744453125,1.5948530435562134,-9.641919136047363,-0.7279059886932373
1772541043367355400,10.48435546875,1.5862749814987183,-9.643052101135254,-0.7316359877586365
1772541043377265400,10.494265380859375,1.5720939636230469,-9.64558219909668,-0.7288920283317566
1772541043387175200,10.504175048828126,1.5625430345535278,-9.647903442382812,-0.7186440229415894
1772541043397085200,10.514085205078125,1.5621850490570068,-9.649105072021484,-0.7031139731407166
1772541043406995200,10.5239951171875,1.5763829946517944,-9.647956848144531,-0.6869850158691406
1772541043416905200,10.5339052734375,1.601307988166809,-9.644583702087402,-0.6766440272331238
1772541043426815200,10.543815185546874,1.627614974975586,-9.640325546264648,-0.6745510101318359
1772541043436725000,10.55372509765625,1.6421489715576172,-9.63746452331543,-0.6801919937133789
1772541043446635000,10.563635009765624,1.6375329494476318,-9.637422561645508,-0.6917979717254639
1772541043456545000,10.573544921875,1.615757942199707,-9.640045166015625,-0.7063170075416565
1772541043466455000,10.583455078125,1.5834790468215942,-9.644220352172852,-0.7222309708595276
1772541043476365000,10.593364990234376,1.5524410009384155,-9.648569107055664,-0.7314779758453369
1772541043486275000,10.603275146484375,1.5328999757766724,-9.651703834533691,-0.7313309907913208
1772541043496184800,10.613184814453126,1.529844045639038,-9.652935028076172,-0.7214099764823914
1772541043506094800,10.6230947265625,1.5417790412902832,-9.652067184448242,-0.7074699997901917
1772541043516004900,10.6330048828125,1.5656050443649292,-9.64919376373291,-0.694229006767273
1772541043525915000,10.642914794921875,1.5922420024871826,-9.645492553710938,-0.685014009475708
1772541043535825000,10.652824951171874,1.6102269887924194,-9.642881393432617,-0.6797170042991638
1772541043545735000,10.66273486328125,1.6109410524368286,-9.643125534057617,-0.674564003944397
1772541043555644700,10.672644775390625,1.5967689752578735,-9.645890235900879,-0.6686969995498657
1772541043565554700,10.6825546875,1.5721490383148193,-9.650330543518066,-0.6629390120506287
1772541043575464700,10.692464599609375,1.5488289594650269,-9.654427528381348,-0.6581550240516663
1772541043585374700,10.702374755859376,1.5342559814453125,-9.657036781311035,-0.6539819836616516
1772541043595284500,10.712284423828125,1.534751057624817,-9.65717601776123,-0.6507959961891174
1772541043605194500,10.722194580078124,1.5467029809951782,-9.655393600463867,-0.6489229798316956
1772541043615104500,10.7321044921875,1.5624380111694336,-9.652610778808594,-0.6526240110397339
1772541043625014500,10.7420146484375,1.5786349773406982,-9.649477005004883,-0.659958004951477
1772541043634924300,10.75192431640625,1.5870009660720825,-9.647417068481445,-0.6699230074882507
1772541043644834300,10.761834228515625,1.5857850313186646,-9.64712142944336,-0.677029013633728
1772541043654744300,10.771744384765626,1.5793670415878296,-9.648058891296387,-0.678650975227356
1772541043664654300,10.781654296875,1.5726330280303955,-9.64948844909668,-0.6739709973335266
1772541043674564000,10.791564208984376,1.5665440559387207,-9.65101146697998,-0.6663100123405457
1772541043684474000,10.80147412109375,1.5609660148620605,-9.652565956115723,-0.6567760109901428
1772541043694384000,10.811384033203124,1.558109998703003,-9.653456687927246,-0.6504650115966797
1772541043704294100,10.821294189453125,1.558709979057312,-9.653502464294434,-0.6483650207519531
1772541043714204200,10.8312041015625,1.5605900287628174,-9.652851104736328,-0.6534839868545532
1772541043724114200,10.8411142578125,1.5632820129394531,-9.651815414428711,-0.6623020172119141
1772541043734024200,10.851024169921875,1.564324975013733,-9.651000022888184,-0.671658992767334
1772541043743934000,10.860933837890625,1.5635770559310913,-9.650647163391113,-0.6784210205078125
1772541043753844000,10.870843994140625,1.5592889785766602,-9.651259422302246,-0.6795790195465088
1772541043763754000,10.88075390625,1.5551040172576904,-9.652280807495117,-0.6746490001678467
1772541043773664000,10.8906640625,1.5543969869613647,-9.652887344360352,-0.6675500273704529
1772541043783573800,10.90057373046875,1.5591059923171997,-9.652459144592285,-0.6627609729766846
1772541043793483800,10.91048388671875,1.5674430131912231,-9.651152610778809,-0.6621339917182922
1772541043803393800,10.920393798828124,1.575160026550293,-9.649561882019043,-0.6669759750366211
1772541043813303800,10.9303037109375,1.5788569450378418,-9.64836311340332,-0.6755409836769104
1772541043823213800,10.9402138671875,1.577083945274353,-9.647916793823242,-0.685949981212616
1772541043833123800,10.950123779296876,1.5719879865646362,-9.648110389709473,-0.6948879957199097
1772541043843033600,10.96003369140625,1.564092993736267,-9.649009704589844,-0.7001500129699707
1772541043852943600,10.969943603515626,1.5574979782104492,-9.649945259094238,-0.7019720077514648
1772541043862853600,10.979853515625,1.5532259941101074,-9.65070629119873,-0.7009739875793457
1772541043872763600,10.989763671875,1.5502790212631226,-9.651350975036621,-0.6986240148544312
1772541043882673700,10.999673583984375,1.5464600324630737,-9.65230941772461,-0.6938380002975464
1772541043892583400,11.00958349609375,1.5455830097198486,-9.653006553649902,-0.6860319972038269
1772541043902493400,11.019493408203125,1.5501470565795898,-9.652772903442383,-0.6789960265159607
1772541043912403200,11.0294033203125,1.5612620115280151,-9.651189804077148,-0.6760370135307312
1772541043922313200,11.039313232421875,1.5724929571151733,-9.649484634399414,-0.6743190288543701
1772541043932223200,11.04922314453125,1.582698941230774,-9.647927284240723,-0.6727319955825806
1772541043942133200,11.05913330078125,1.589743971824646,-9.646774291992188,-0.6726809740066528
1772541043952043300,11.069043212890625,1.5917819738388062,-9.646177291870117,-0.6763929724693298
1772541043961953000,11.078953125,1.5898139476776123,-9.645950317382812,-0.6842160224914551
1772541043971863000,11.088863037109375,1.5827889442443848,-9.646479606628418,-0.6929619908332825
1772541043981773000,11.09877294921875,1.5697619915008545,-9.647995948791504,-0.7014529705047607
1772541043991682800,11.108682861328125,1.5538849830627441,-9.650208473205566,-0.7063649892807007
1772541044001592800,11.1185927734375,1.5410209894180298,-9.652044296264648,-0.7094519734382629
1772541044011502800,11.1285029296875,1.5340150594711304,-9.653092384338379,-0.7103800177574158
1772541044021412900,11.138412841796875,1.532649040222168,-9.65347957611084,-0.7080709934234619
1772541044031323000,11.148322998046876,1.5362720489501953,-9.653375625610352,-0.7016010284423828
1772541044041233000,11.15823291015625,1.5437040328979492,-9.652867317199707,-0.6921910047531128
1772541044051143000,11.168142822265626,1.5540399551391602,-9.651925086975098,-0.6821240186691284
1772541044061052700,11.178052734375,1.5642579793930054,-9.651037216186523,-0.6712660193443298
1772541044070962700,11.187962646484374,1.570762038230896,-9.650707244873047,-0.6607229709625244
1772541044080872700,11.197872802734375,1.5750889778137207,-9.650598526000977,-0.6519730091094971
1772541044090782500,11.207782470703124,1.5753289461135864,-9.650910377502441,-0.6467519998550415
1772541044100692500,11.2176923828125,1.5709799528121948,-9.65170955657959,-0.6453970074653625
1772541044110602200,11.227602294921875,1.5620390176773071,-9.653060913085938,-0.6469119787216187
1772541044120512300,11.23751220703125,1.550995945930481,-9.654593467712402,-0.6505659818649292
1772541044130422300,11.24742236328125,1.5420490503311157,-9.655680656433105,-0.6556699872016907
1772541044140332300,11.257332275390626,1.5349390506744385,-9.656611442565918,-0.6586610078811646
1772541044150242300,11.2672421875,1.5303380489349365,-9.657265663146973,-0.6597899794578552
1772541044160152300,11.27715234375,1.5282020568847656,-9.657632827758789,-0.6593459844589233
1772541044170062000,11.28706201171875,1.5292259454727173,-9.657773971557617,-0.6548900008201599
1772541044179972000,11.29697216796875,1.5333420038223267,-9.657588005065918,-0.6479889750480652
1772541044189882000,11.306882080078125,1.5417909622192383,-9.656765937805176,-0.6401169896125793
1772541044199792000,11.316792236328125,1.5528709888458252,-9.655540466308594,-0.6317750215530396
1772541044209702000,11.326701904296876,1.563207983970642,-9.654265403747559,-0.6257659792900085
1772541044219612000,11.33661181640625,1.5680420398712158,-9.653679847717285,-0.622668981552124
1772541044229522000,11.34652197265625,1.566527009010315,-9.653955459594727,-0.6222280263900757
1772541044239432000,11.356431884765625,1.5587170124053955,-9.655068397521973,-0.6245710253715515
1772541044249342000,11.366342041015624,1.5495619773864746,-9.656188011169434,-0.6299930214881897
1772541044259251700,11.376251708984375,1.5392800569534302,-9.6574125289917,-0.6364189982414246
1772541044269161700,11.38616162109375,1.5323630571365356,-9.658370018005371,-0.638592004776001
1772541044279071700,11.39607177734375,1.5321290493011475,-9.658434867858887,-0.6381319761276245
1772541044288981500,11.4059814453125,1.5351550579071045,-9.65813159942627,-0.6354590058326721
1772541044298891500,11.4158916015625,1.5409350395202637,-9.657511711120605,-0.6308720111846924
1772541044308801500,11.425801513671875,1.5519299507141113,-9.656298637390137,-0.6224330067634583
1772541044318711600,11.435711669921876,1.5651439428329468,-9.65440845489502,-0.6186569929122925
1772541044328621300,11.445621337890625,1.5810099840164185,-9.651693344116211,-0.6206730008125305
1772541044338531300,11.45553125,1.5952190160751343,-9.648778915405273,-0.6295830011367798
1772541044348441000,11.465441162109375,1.6057089567184448,-9.646148681640625,-0.6430360078811646
1772541044358351000,11.47535107421875,1.6073269844055176,-9.645177841186523,-0.6535090208053589
1772541044368261000,11.48526123046875,1.5998320579528809,-9.645156860351562,-0.6719210147857666
1772541044378171100,11.495171142578124,1.586948037147522,-9.646096229553223,-0.6887810230255127
1772541044388081200,11.5050810546875,1.5749560594558716,-9.647217750549316,-0.7005149722099304
1772541044397991000,11.514990966796875,1.567302942276001,-9.648154258728027,-0.7047500014305115
1772541044407901000,11.52490087890625,1.565667986869812,-9.648512840270996,-0.703486979007721
1772541044417811000,11.53481103515625,1.567999005317688,-9.64830207824707,-0.7011820077896118
1772541044427721000,11.544720947265626,1.5700969696044922,-9.648017883300781,-0.7004029750823975
1772541044437631000,11.554630859375,1.5737849473953247,-9.647525787353516,-0.6988919973373413
1772541044447540700,11.564540771484374,1.580245018005371,-9.64680004119873,-0.6943219900131226
1772541044457450800,11.57445068359375,1.586364984512329,-9.646249771118164,-0.6879780292510986
1772541044467360800,11.58436083984375,1.592134952545166,-9.645858764648438,-0.6801090240478516
1772541044477270500,11.5942705078125,1.598986029624939,-9.645392417907715,-0.6705660223960876
1772541044487180500,11.6041806640625,1.60555100440979,-9.64509105682373,-0.6591060161590576
1772541044497090600,11.614090576171876,1.6101380586624146,-9.645095825195312,-0.6477770209312439
1772541044507000600,11.62400048828125,1.6106770038604736,-9.645376205444336,-0.6422309875488281
1772541044516910600,11.63391064453125,1.608894944190979,-9.64594554901123,-0.638143002986908
1772541044526820400,11.6438203125,1.6063259840011597,-9.646577835083008,-0.635013997554779
1772541044536730400,11.65373046875,1.60281503200531,-9.647313117980957,-0.6327210068702698
1772541044546640100,11.66364013671875,1.5964189767837524,-9.648635864257812,-0.6287000179290771
1772541044556550100,11.673550048828124,1.5918550491333008,-9.649592399597168,-0.6256020069122314
1772541044566460200,11.683460205078125,1.5904079675674438,-9.650023460388184,-0.6226400136947632
1772541044576370200,11.6933701171875,1.5905660390853882,-9.650053024291992,-0.6217679977416992
1772541044586280200,11.7032802734375,1.5911400318145752,-9.649909019470215,-0.6225510239601135
1772541044596190000,11.71318994140625,1.5933409929275513,-9.6494140625,-0.6245440244674683
1772541044606100000,11.723099853515626,1.5958600044250488,-9.648937225341797,-0.6254940032958984
1772541044616009700,11.733009765625,1.5990469455718994,-9.648326873779297,-0.6267780065536499
1772541044625919700,11.742919677734376,1.6016370058059692,-9.64789867401123,-0.6267719864845276
1772541044635829800,11.752829833984375,1.6019810438156128,-9.647820472717285,-0.6271139979362488
1772541044645739800,11.76273974609375,1.5976910591125488,-9.648455619812012,-0.6282439827919006
1772541044655649800,11.77264990234375,1.5903199911117554,-9.649673461914062,-0.6282680034637451
1772541044665559600,11.7825595703125,1.5838119983673096,-9.650705337524414,-0.628836989402771
1772541044675469600,11.792469482421875,1.5816060304641724,-9.650967597961426,-0.6303709745407104
1772541044685379600,11.802379638671875,1.5818309783935547,-9.650854110717773,-0.6315479874610901
1772541044695289300,11.812289306640626,1.5843520164489746,-9.650397300720215,-0.6321899890899658
1772541044705199400,11.822199462890625,1.58364999294281,-9.650541305541992,-0.631767988204956
1772541044715109400,11.832109375,1.579437017440796,-9.651391983032227,-0.6292960047721863
1772541044725019100,11.84201904296875,1.5787440538406372,-9.651800155639648,-0.6247789859771729
1772541044734929200,11.85192919921875,1.5817680358886719,-9.651646614074707,-0.6194869875907898
1772541044744839200,11.861839111328125,1.5882819890975952,-9.650918960571289,-0.614130973815918
1772541044754749200,11.871749267578124,1.5948259830474854,-9.65018367767334,-0.6086949706077576
1772541044764659000,11.881658935546875,1.598296046257019,-9.64974594116211,-0.6065089702606201
1772541044774569000,11.89156884765625,1.5982580184936523,-9.64950942993164,-0.6103960275650024
1772541044784479000,11.90147900390625,1.5949230194091797,-9.649551391601562,-0.618403971195221
1772541044794389000,11.911388916015625,1.591454029083252,-9.649503707885742,-0.6279770135879517
1772541044804298800,11.921298828125,1.5922050476074219,-9.648712158203125,-0.6381570100784302
1772541044814208800,11.931208740234375,1.5932250022888184,-9.648199081420898,-0.64336097240448
1772541044824118500,11.941118408203126,1.594954013824463,-9.647894859313965,-0.6436169743537903
1772541044834028500,11.951028564453125,1.5968949794769287,-9.647796630859375,-0.6402819752693176
1772541044843938600,11.9609384765625,1.5987850427627563,-9.64768123626709,-0.6372979879379272
1772541044853848300,11.970848388671875,1.6033899784088135,-9.647201538085938,-0.6329920291900635
1772541044863758300,11.98075830078125,1.6058640480041504,-9.646915435791016,-0.6310780048370361
1772541044873668400,11.99066845703125,1.6099580526351929,-9.64635181427002,-0.6292359828948975
1772541044883578400,12.000578369140625,1.6117409467697144,-9.646183967590332,-0.6272420287132263
1772541044893488000,12.010488037109376,1.611515998840332,-9.646276473999023,-0.6264039874076843
1772541044903398100,12.020398193359375,1.6095110177993774,-9.646657943725586,-0.625702977180481
1772541044913308200,12.03030810546875,1.6064280271530151,-9.647067070007324,-0.6273019909858704
1772541044923218200,12.04021826171875,1.6015280485153198,-9.64745044708252,-0.6339020133018494
1772541044933128000,12.0501279296875,1.6000690460205078,-9.64703369140625,-0.6438639760017395
1772541044943038000,12.060037841796875,1.5988420248031616,-9.646474838256836,-0.6551560163497925
1772541044952948000,12.069947998046874,1.596305012702942,-9.646331787109375,-0.6634230017662048
1772541044962858000,12.07985791015625,1.5930800437927246,-9.646591186523438,-0.6673750281333923
1772541044972767700,12.089767822265625,1.592147946357727,-9.646641731262207,-0.6688629984855652
1772541044982677800,12.099677734375,1.592905044555664,-9.64638900756836,-0.6707260012626648
1772541044992587800,12.109587890625,1.5933510065078735,-9.646230697631836,-0.6719359755516052
1772541045002497500,12.11949755859375,1.5946500301361084,-9.645963668823242,-0.6726549863815308
1772541045012407600,12.129407470703125,1.595674991607666,-9.645859718322754,-0.6717190146446228
1772541045022317600,12.139317626953124,1.595615029335022,-9.646012306213379,-0.6696770191192627
1772541045032227300,12.149227294921875,1.5964930057525635,-9.645938873291016,-0.6686450242996216
1772541045042137300,12.159137451171874,1.5985950231552124,-9.64554500579834,-0.6693140268325806
1772541045052047000,12.169047119140625,1.598831057548523,-9.645350456237793,-0.6715559959411621
1772541045061957000,12.17895703125,1.5976699590682983,-9.645416259765625,-0.673367977142334
1772541045071867100,12.1888671875,1.5960229635238647,-9.645533561706543,-0.6755840182304382
1772541045081777200,12.198777099609375,1.5915460586547852,-9.646056175231934,-0.6786699891090393
1772541045091687200,12.208687255859376,1.5865989923477173,-9.646778106689453,-0.6799939870834351
1772541045101597000,12.218596923828125,1.5834449529647827,-9.647405624389648,-0.6784300208091736
1772541045111507000,12.2285068359375,1.5830349922180176,-9.647679328918457,-0.6754980087280273
1772541045121417000,12.2384169921875,1.5819050073623657,-9.648079872131348,-0.6724119782447815
1772541045131326700,12.24832666015625,1.5827219486236572,-9.648061752319336,-0.6707519888877869
1772541045141237000,12.258237060546875,1.5845370292663574,-9.647848129272461,-0.6695359945297241
1772541045151146800,12.268146728515624,1.5870510339736938,-9.647510528564453,-0.6684589982032776
1772541045161056800,12.278056884765626,1.590487003326416,-9.647031784057617,-0.6672019958496094
1772541045170966500,12.287966552734375,1.5924919843673706,-9.64690113067627,-0.6642869710922241
1772541045180876300,12.297876220703126,1.589851975440979,-9.647550582885742,-0.6611610054969788
1772541045190786300,12.307786376953125,1.5849319696426392,-9.648539543151855,-0.6585530042648315
1772541045200696300,12.3176962890625,1.5780960321426392,-9.649738311767578,-0.6573989987373352
1772541045210606300,12.3276064453125,1.5725849866867065,-9.650616645812988,-0.6577110290527344
1772541045220516400,12.337516357421874,1.5700830221176147,-9.650912284851074,-0.6593459844589233
1772541045230426000,12.347426025390625,1.5702500343322754,-9.650678634643555,-0.6623759865760803
1772541045240336100,12.357336181640624,1.5738149881362915,-9.64981746673584,-0.6664590239524841
1772541045250246000,12.367245849609375,1.5776230096817017,-9.64892292022705,-0.6703649759292603
1772541045260156000,12.377156005859375,1.5796140432357788,-9.64848518371582,-0.6719840168952942
1772541045270066000,12.38706591796875,1.5795949697494507,-9.64849853515625,-0.6718320250511169
1772541045279976000,12.396975830078125,1.5789270401000977,-9.648685455322266,-0.6707429885864258
1772541045289886000,12.406885986328126,1.581017017364502,-9.648606300354004,-0.666920006275177
1772541045299795700,12.416795654296875,1.5824849605560303,-9.648390769958496,-0.6665549874305725
1772541045309705700,12.426705810546874,1.5814510583877563,-9.648365020751953,-0.6693860292434692
1772541045319615700,12.43661572265625,1.577131986618042,-9.64872932434082,-0.6743170022964478
1772541045329525500,12.446525390625,1.5740940570831299,-9.648752212524414,-0.6810539960861206
1772541045339435500,12.456435546875,1.5739539861679077,-9.648350715637207,-0.6870390176773071
1772541045349345300,12.46634521484375,1.5764119625091553,-9.647566795349121,-0.6923800110816956
1772541045359255300,12.47625537109375,1.5779629945755005,-9.647056579589844,-0.6959549784660339
1772541045369165300,12.486165283203125,1.5789289474487305,-9.646666526794434,-0.6991519927978516
1772541045379075000,12.496074951171876,1.5805189609527588,-9.64625358581543,-0.7012640237808228
1772541045388985000,12.505985107421875,1.581889033317566,-9.646112442016602,-0.7001109719276428
1772541045398895000,12.51589501953125,1.5833879709243774,-9.646139144897461,-0.6963580250740051
1772541045408804900,12.525804931640625,1.5861519575119019,-9.645959854125977,-0.6925169825553894
1772541045418715000,12.53571484375,1.5877599716186523,-9.645938873291016,-0.6891239881515503
1772541045428625000,12.545625,1.5892349481582642,-9.646029472351074,-0.6844599843025208
1772541045438535000,12.555534912109374,1.5905389785766602,-9.646141052246094,-0.6798189878463745
1772541045448444700,12.565444580078125,1.5925699472427368,-9.646126747131348,-0.6752579808235168
1772541045458354700,12.575354736328125,1.59524405002594,-9.64587116241455,-0.6726019978523254
1772541045468264400,12.585264404296876,1.5974990129470825,-9.645450592041016,-0.6732850074768066
1772541045478174500,12.595174560546875,1.5996170043945312,-9.644810676574707,-0.6773800253868103
1772541045488084500,12.60508447265625,1.5996570587158203,-9.644401550292969,-0.6830919981002808
1772541045497994200,12.614994140625,1.5974260568618774,-9.644513130187988,-0.6867370009422302
1772541045507904300,12.624904296875,1.5921889543533325,-9.645325660705566,-0.6874949932098389
1772541045517814300,12.634814208984375,1.5881710052490234,-9.646071434020996,-0.6863409876823425
1772541045527724000,12.64472412109375,1.5870490074157715,-9.64642333984375,-0.6839730143547058
1772541045537634000,12.654634033203125,1.5898510217666626,-9.645995140075684,-0.6834949851036072
1772541045547544000,12.6645439453125,1.5953350067138672,-9.6449613571167,-0.6853190064430237
1772541045557454000,12.6744541015625,1.5993560552597046,-9.644195556640625,-0.6867160201072693
1772541045567363800,12.68436376953125,1.6018409729003906,-9.643808364868164,-0.6863530278205872
1772541045577273900,12.69427392578125,1.5998589992523193,-9.644244194030762,-0.6848549842834473
1772541045587183600,12.70418359375,1.5947669744491577,-9.64526653289795,-0.6823340058326721
1772541045597093600,12.71409375,1.5900410413742065,-9.646369934082031,-0.6777539849281311
1772541045607003400,12.72400341796875,1.587515950202942,-9.647150039672852,-0.6725260019302368
1772541045616913400,12.733913330078124,1.5860639810562134,-9.647677421569824,-0.6683940291404724
1772541045626823400,12.743823486328125,1.585387945175171,-9.647793769836426,-0.6682990193367004
1772541045636733400,12.7537333984375,1.585500955581665,-9.647555351257324,-0.6714770197868347
1772541045646643500,12.7636435546875,1.5864410400390625,-9.647088050842285,-0.6759399771690369
1772541045656553200,12.77355322265625,1.5872559547424316,-9.646838188171387,-0.6775969862937927
1772541045666463200,12.783463134765626,1.5864160060882568,-9.647110939025879,-0.6756889820098877
1772541045676373000,12.793373046875,1.5847680568695068,-9.647489547729492,-0.6741470098495483
1772541045686283000,12.803282958984376,1.585373044013977,-9.647407531738281,-0.6739019751548767
1772541045696193000,12.813193115234375,1.5891540050506592,-9.64659309387207,-0.6766560077667236
1772541045706102800,12.823102783203124,1.593762993812561,-9.645559310913086,-0.6805099844932556
1772541045716012800,12.8330126953125,1.5957850217819214,-9.645041465759277,-0.6831200122833252
1772541045725922800,12.8429228515625,1.5941790342330933,-9.645336151123047,-0.6827219724655151
1772541045735832600,12.85283251953125,1.5916969776153564,-9.645922660827637,-0.6802099943161011
