time,seconds_elapsed,z,y,x
1772721949181611800,0.04661181640625,0,0,0
1772721949191611600,0.056611572265625,0.044719696044921875,-0.04406929016113281,-0.05761611461639404
1772721949201611800,0.06661181640625,0.03977775573730469,0.1315312385559082,0.1332533359527588
1772721949211611600,0.076611572265625,0.06699752807617188,0.15047550201416016,0.08681273460388184
1772721949221611800,0.08661181640625,0.10457706451416016,0.0012445449829101562,-0.18395191431045532
1772721949231611600,0.096611572265625,-0.08701896667480469,-0.07537317276000977,-0.45381760597229004
1772721949241611800,0.10661181640625,-0.04251670837402344,-0.15051937103271484,-0.6360677480697632
1772721949251611600,0.116611572265625,-0.10631275177001953,-0.2713956832885742,-0.8189281821250916
1772721949261611800,0.12661181640625,-0.9199542999267578,-0.910245418548584,-0.9879441261291504
1772721949271611600,0.136611572265625,-1.7917118072509766,-1.9727115631103516,-0.8057255744934082
1772721949281611800,0.14661181640625,-1.6633930206298828,-2.135815382003784,0.05717426538467407
1772721949291611600,0.156611572265625,-0.7764163017272949,-0.9576363563537598,0.5343127846717834
1772721949301611800,0.16661181640625,-0.2204141616821289,0.017905712127685547,0.5339400172233582
1772721949311611600,0.176611572265625,-0.18079710006713867,-0.1618328094482422,0.7385752201080322
1772721949321611800,0.18661181640625,-0.09398317337036133,-0.23752737045288086,0.5018080472946167
1772721949331611600,0.196611572265625,0.41200685501098633,-0.09005594253540039,0.08614915609359741
1772721949341611800,0.20661181640625,0.5752263069152832,0.16290998458862305,-0.05314350128173828
1772721949351611600,0.216611572265625,0.7522478103637695,-0.0341181755065918,-0.10250407457351685
1772721949361611800,0.22661181640625,1.2159228324890137,-0.6209506988525391,-0.016448974609375
1772721949371611600,0.236611572265625,1.379770278930664,-1.0773077011108398,0.26610422134399414
1772721949381611800,0.24661181640625,0.9279499053955078,-0.7988739013671875,0.4850130081176758
1772721949391611600,0.256611572265625,1.2434797286987305,-0.6426892280578613,0.5983923673629761
1772721949401611800,0.26661181640625,1.009139060974121,-0.8917148113250732,0.4923001527786255
1772721949411611600,0.276611572265625,0.22251272201538086,-0.653895378112793,0.5399048328399658
1772721949421611800,0.28661181640625,0.1862807273864746,-0.4598417282104492,0.8642123937606812
1772721949431611600,0.296611572265625,0.5077857971191406,-0.613823413848877,0.7604191303253174
1772721949441611800,0.30661181640625,1.0329880714416504,-0.6385807991027832,0.19522452354431152
1772721949451611600,0.316611572265625,1.013967514038086,-0.9387335777282715,-0.20877838134765625
1772721949461611800,0.32661181640625,1.3297410011291504,-1.270801067352295,-0.24703049659729004
1772721949471611600,0.336611572265625,0.9248661994934082,-1.493213415145874,0.1578812599182129
1772721949481611800,0.34661181640625,-0.18754053115844727,-1.9212160110473633,0.5383515357971191
1772721949491611600,0.356611572265625,-0.8311052322387695,-2.35430908203125,0.4916706085205078
1772721949501611800,0.36661181640625,-0.890294075012207,-1.0431420803070068,1.442884922027588
1772721949511611600,0.376611572265625,-1.3592009544372559,-0.797797679901123,3.22347354888916
1772721949521611800,0.38661181640625,0.11705350875854492,-1.640578269958496,4.253108501434326
1772721949531611600,0.396611572265625,0.34537267684936523,-1.290313720703125,2.419189453125
1772721949541611800,0.40661181640625,-0.6650233268737793,-1.169034481048584,0.807652473449707
1772721949551611600,0.416611572265625,-1.4696292877197266,-1.375964641571045,-0.3426032066345215
1772721949561611800,0.42661181640625,-1.596804141998291,-1.3385875225067139,-1.0802807807922363
1772721949571611600,0.436611572265625,-1.1847286224365234,-1.121363639831543,-1.0915946960449219
1772721949581611800,0.44661181640625,-0.7294411659240723,-1.279470443725586,-0.6653933525085449
1772721949591611600,0.456611572265625,-0.5067496299743652,-1.1156682968139648,-0.2767906188964844
1772721949601611800,0.46661181640625,-0.06696557998657227,-1.1074225902557373,-0.07007265090942383
1772721949611611600,0.476611572265625,0.11177492141723633,-0.788081169128418,0.025730609893798828
1772721949621611800,0.48661181640625,-0.042319297790527344,-0.4552304744720459,-0.10154438018798828
1772721949631611600,0.496611572265625,-0.6049189567565918,-0.11679649353027344,-0.5462164878845215
1772721949641611800,0.50661181640625,-0.8690986633300781,-0.1295914649963379,-1.2518401145935059
1772721949651611600,0.516611572265625,-0.9635233879089355,0.02554154396057129,-2.174621105194092
1772721949661611800,0.52661181640625,-0.6192731857299805,0.06455016136169434,-2.554471015930176
1772721949671611600,0.536611572265625,-0.1275169849395752,0.41661620140075684,-1.9689035415649414
1772721949681611800,0.54661181640625,0.3089723587036133,0.33491992950439453,-1.1451692581176758
1772721949691611600,0.556611572265625,0.4426300525665283,0.8428828716278076,-0.4175443649291992
1772721949701611800,0.56661181640625,0.3572959899902344,1.2590669393539429,0.32848072052001953
1772721949711611600,0.576611572265625,-0.14125537872314453,1.4781687259674072,0.6597299575805664
1772721949721611800,0.58661181640625,-0.6643321514129639,1.7884025573730469,0.5273361206054688
1772721949731611600,0.596611572265625,-1.0275242328643799,1.7929829359054565,0.8319854736328125
1772721949741611800,0.60661181640625,-1.345280408859253,1.836601734161377,1.2901649475097656
1772721949751611600,0.616611572265625,-1.2268468141555786,1.8210957050323486,1.614767074584961
1772721949761611800,0.62661181640625,-0.5697066783905029,1.8201425075531006,1.6558408737182617
1772721949771611600,0.636611572265625,0.4699249267578125,2.2483508586883545,1.2305097579956055
1772721949781611800,0.64661181640625,1.3038829565048218,2.358362913131714,0.9885244369506836
1772721949791611600,0.656611572265625,1.5844900608062744,2.6063225269317627,1.0146903991699219
1772721949801611800,0.66661181640625,0.6943820714950562,2.646186113357544,0.6822977066040039
1772721949811611600,0.676611572265625,-0.44466960430145264,2.030447483062744,0.2876262664794922
1772721949821611800,0.68661181640625,-1.0426183938980103,1.1430773735046387,0.5386800765991211
1772721949831611600,0.696611572265625,-1.5905213356018066,0.43304991722106934,0.35073089599609375
1772721949841611800,0.70661181640625,-1.6064274311065674,-0.15749037265777588,0.15625286102294922
1772721949851611600,0.716611572265625,-1.2428853511810303,-0.6641117334365845,0.5743894577026367
1772721949861611800,0.72661181640625,-1.5157500505447388,-0.673445463180542,0.7828445434570312
1772721949871611600,0.736611572265625,-2.146359920501709,-0.3227735757827759,0.6922235488891602
1772721949881611800,0.74661181640625,-3.2955570220947266,0.1351156234741211,0.46518993377685547
1772721949891611600,0.756611572265625,-4.297425746917725,0.2731914520263672,-0.11198711395263672
1772721949901611800,0.76661181640625,-4.463011264801025,0.4477665424346924,-0.8602409362792969
1772721949911611600,0.776611572265625,-3.8632616996765137,0.8956739902496338,-1.0114026069641113
1772721949921611800,0.78661181640625,-2.878706455230713,1.1082746982574463,0.36851024627685547
1772721949931611600,0.796611572265625,-2.6915860176086426,1.3415526151657104,2.053339958190918
1772721949941611800,0.80661181640625,-2.883514404296875,1.7250492572784424,3.227752685546875
1772721949951611600,0.816611572265625,-3.256722927093506,2.099302053451538,3.8988285064697266
1772721949961611800,0.82661181640625,-3.0657706260681152,2.2644965648651123,3.878994941711426
1772721949971611600,0.836611572265625,-2.0529518127441406,2.2494874000549316,3.0237321853637695
1772721949981611800,0.84661181640625,-0.5876362323760986,1.9572455883026123,2.041581153869629
1772721949991611600,0.856611572265625,0.8685597777366638,1.5177351236343384,2.6484432220458984
1772721950001611800,0.86661181640625,1.199609637260437,0.7720081806182861,3.699845314025879
1772721950011611600,0.876611572265625,1.1748511791229248,1.2178361415863037,5.708719253540039
1772721950021611800,0.88661181640625,0.31185805797576904,0.8664312362670898,6.112778663635254
1772721950031611600,0.896611572265625,-0.7375097870826721,0.7900946140289307,6.197073936462402
1772721950041611800,0.90661181640625,-6.098709583282471,-0.8432083129882812,5.090317726135254
1772721950051611600,0.916611572265625,-10.340867042541504,-1.5294103622436523,0.865239143371582
1772721950061611800,0.92661181640625,-7.304055690765381,0.7271666526794434,-1.8516440391540527
1772721950071611600,0.936611572265625,-0.664597749710083,0.7915375232696533,0.17278289794921875
1772721950081611800,0.94661181640625,5.848696708679199,0.29496192932128906,3.21494197845459
1772721950091611600,0.956611572265625,6.122076034545898,-0.6361331939697266,4.4897918701171875
1772721950101611800,0.96661181640625,0.8731386661529541,-0.3531363010406494,3.546499252319336
1772721950111611600,0.976611572265625,-5.686084747314453,-0.8005518913269043,0.6343889236450195
1772721950121611800,0.98661181640625,-0.38130903244018555,-0.8111236095428467,1.3966045379638672
1772721950131611600,0.996611572265625,0.024770736694335938,0.05712723731994629,1.312972068786621
1772721950141611800,1.00661181640625,-2.1101582050323486,-0.4098355770111084,0.15805625915527344
1772721950151611600,1.016611572265625,-1.517939805984497,0.8792587518692017,-1.0652179718017578
1772721950161611800,1.02661181640625,-1.7461624145507812,0.1728062629699707,-0.7371997833251953
1772721950171611600,1.036611572265625,0.4145388603210449,-0.3587019443511963,1.078782081604004
1772721950181611800,1.04661181640625,1.3537145853042603,-0.7132439613342285,2.6031951904296875
1772721950191611600,1.056611572265625,2.4169418811798096,0.2525132894515991,2.693513870239258
1772721950201611800,1.06661181640625,2.490708112716675,0.6353903412818909,2.274233818054199
1772721950211611600,1.076611572265625,1.950350046157837,1.0622342824935913,1.1542177200317383
1772721950221611800,1.08661181640625,-0.03174543380737305,3.3008346557617188,-0.2763824462890625
1772721950231611600,1.096611572265625,-1.8249800205230713,4.34344482421875,-2.0621237754821777
1772721950241611800,1.10661181640625,-2.783761501312256,4.12225866317749,-3.5748043060302734
1772721950251611600,1.116611572265625,-4.650211334228516,2.890923023223877,-5.813170433044434
1772721950261611800,1.12661181640625,-8.587718963623047,2.139897108078003,-6.539772987365723
1772721950271611600,1.136611572265625,-2.595271348953247,2.253603219985962,-5.786317348480225
1772721950281611800,1.14661181640625,0.9966988563537598,0.08804166316986084,-3.7804198265075684
1772721950291611600,1.156611572265625,3.3083443641662598,-0.3920927047729492,-2.825972557067871
1772721950301611800,1.16661181640625,6.382946491241455,-1.1711374521255493,-1.5523881912231445
1772721950311611600,1.176611572265625,7.701930046081543,-1.8513405323028564,0.19143199920654297
1772721950321611800,1.18661181640625,7.120753288269043,-3.1979470252990723,1.3417863845825195
1772721950331611600,1.196611572265625,6.059488296508789,-4.58113431930542,1.3592348098754883
1772721950341611800,1.20661181640625,4.922396183013916,-5.220958232879639,0.10732364654541016
1772721950351611600,1.216611572265625,3.244781970977783,-6.587242126464844,-1.0867958068847656
1772721950361611800,1.22661181640625,0.03809821605682373,-6.610243797302246,-1.6066646575927734
1772721950371611600,1.236611572265625,-5.623436450958252,-7.59427547454834,-0.5168800354003906
1772721950381611800,1.24661181640625,-8.738038063049316,-7.938520908355713,1.539255142211914
1772721950391611600,1.256611572265625,-6.306970596313477,-7.754836082458496,2.965045928955078
1772721950401611800,1.26661181640625,-0.8628241419792175,-8.820392608642578,5.900137901306152
1772721950411611600,1.276611572265625,0.7716334462165833,-10.374163627624512,4.9778947830200195
1772721950421611800,1.28661181640625,0.754996120929718,-6.648715019226074,5.474067687988281
1772721950431611600,1.296611572265625,2.355994939804077,1.6770586967468262,3.991826057434082
1772721950441611800,1.30661181640625,0.3593454360961914,2.688621997833252,2.535816192626953
1772721950451611600,1.316611572265625,-2.6707763671875,1.77786123752594,2.652895927429199
1772721950461611800,1.32661181640625,-2.2713708877563477,1.2084403038024902,3.0837793350219727
1772721950471611600,1.336611572265625,-0.9243898391723633,0.43897175788879395,2.7794246673583984
1772721950481611800,1.34661181640625,-0.12578624486923218,-1.0789636373519897,2.4371776580810547
1772721950491611600,1.356611572265625,0.42885053157806396,-1.5427031517028809,2.1470861434936523
1772721950501611800,1.36661181640625,0.06099206209182739,-1.0242775678634644,1.3192825317382812
1772721950511611600,1.376611572265625,-1.8692667484283447,-0.05424761772155762,-0.4788818359375
1772721950521611800,1.38661181640625,-1.4381520748138428,1.4921963214874268,-1.638326644897461
1772721950531611600,1.396611572265625,0.28931599855422974,-0.68879234790802,-1.466970443725586
1772721950541611800,1.40661181640625,0.17510128021240234,-0.986829400062561,-1.292954444885254
1772721950551611600,1.416611572265625,-0.16028939187526703,0.3672751188278198,-1.014399528503418
1772721950561611800,1.42661181640625,1.1771053075790405,1.5056588649749756,-0.9322099685668945
1772721950571611600,1.436611572265625,2.2002816200256348,2.6094627380371094,-1.1746339797973633
1772721950581611800,1.44661181640625,1.767632246017456,2.975593090057373,-1.050088882446289
1772721950591611600,1.456611572265625,0.7626802325248718,2.6461315155029297,-0.42198848724365234
1772721950601611800,1.46661181640625,-0.27710703015327454,2.713104009628296,0.36632251739501953
1772721950611611600,1.476611572265625,-1.254295825958252,3.170464038848877,0.8434963226318359
1772721950621611800,1.48661181640625,-1.195683240890503,2.414956569671631,0.5546636581420898
1772721950631611600,1.496611572265625,-0.5680476427078247,0.28662705421447754,0.10277366638183594
1772721950641611800,1.50661181640625,1.0346684455871582,-1.5836970806121826,0.0005064010620117188
1772721950651611600,1.516611572265625,2.1130447387695312,-2.8400750160217285,0.02971172332763672
1772721950661611800,1.52661181640625,2.3231167793273926,-3.0792274475097656,0.7374563217163086
1772721950671611600,1.536611572265625,2.832819700241089,-1.7598662376403809,0.7429227828979492
1772721950681611800,1.54661181640625,1.8859739303588867,-1.7025647163391113,-0.7694540023803711
1772721950691611600,1.556611572265625,-0.3440150022506714,-1.255096673965454,-0.5704145431518555
1772721950701611800,1.56661181640625,-3.0255303382873535,0.19998085498809814,-1.062286376953125
1772721950711611600,1.576611572265625,-4.82595157623291,1.3425029516220093,-1.3616533279418945
1772721950721611800,1.58661181640625,-4.450677871704102,0.4638652801513672,-0.8292837142944336
1772721950731611600,1.596611572265625,-2.8428263664245605,-1.9925200939178467,0.04651069641113281
1772721950741611800,1.60661181640625,0.010257989168167114,-3.667389392852783,1.4784307479858398
1772721950751611600,1.616611572265625,2.639389753341675,-3.199277400970459,1.9519996643066406
1772721950761611800,1.62661181640625,3.4061014652252197,-2.9987473487854004,2.3884477615356445
1772721950771611600,1.636611572265625,2.0868077278137207,-3.8917670249938965,3.553727149963379
1772721950781611800,1.64661181640625,0.39535731077194214,-3.211658477783203,5.691438674926758
1772721950791611600,1.656611572265625,-0.015065193176269531,-2.9391396045684814,7.041852951049805
1772721950801611800,1.66661181640625,0.2676500082015991,-2.641740322113037,5.852741241455078
1772721950811611600,1.676611572265625,0.8068076372146606,-2.0982348918914795,4.451320648193359
1772721950821611800,1.68661181640625,0.7385026216506958,-1.8679617643356323,3.3643436431884766
1772721950831611600,1.696611572265625,-0.9447563886642456,-1.742092490196228,2.048280715942383
1772721950841611800,1.70661181640625,-5.147768497467041,-1.2981367111206055,-0.012991905212402344
1772721950851611600,1.716611572265625,-5.760322570800781,-0.3182717561721802,-1.7948083877563477
1772721950861611800,1.72661181640625,-3.2553517818450928,0.2048906683921814,-2.1894116401672363
1772721950871611600,1.736611572265625,-0.7916592359542847,0.7801283001899719,-2.194668769836426
1772721950881611800,1.74661181640625,0.5632168054580688,1.4023464918136597,-2.283698558807373
1772721950891611600,1.756611572265625,1.425321340560913,2.241685628890991,-2.538228988647461
1772721950901611800,1.76661181640625,0.6431736946105957,3.0094940662384033,-2.6082000732421875
1772721950911611600,1.776611572265625,-0.4750303030014038,3.303276538848877,-2.109358310699463
1772721950921611800,1.78661181640625,1.4295909404754639,2.8922975063323975,-1.0253305435180664
1772721950931611600,1.796611572265625,4.149911403656006,1.8464810848236084,0.6962432861328125
1772721950941611800,1.80661181640625,1.8985581398010254,2.629274845123291,1.6188278198242188
1772721950951611600,1.816611572265625,-0.7698329091072083,2.4261350631713867,1.6361083984375
1772721950961611800,1.82661181640625,-2.4102439880371094,1.197169542312622,1.3817710876464844
1772721950971611600,1.836611572265625,-3.055069923400879,-0.19791579246520996,0.6403627395629883
1772721950981611800,1.84661181640625,-2.137737274169922,-1.3641387224197388,0.18732357025146484
1772721950991611600,1.856611572265625,-1.196526288986206,-1.903449535369873,-0.008090019226074219
1772721951001611800,1.86661181640625,0.33127617835998535,-2.4225382804870605,0.13490009307861328
1772721951011611600,1.876611572265625,1.5525611639022827,-2.426788568496704,0.4047555923461914
1772721951021611800,1.88661181640625,2.3540031909942627,-2.214805841445923,0.9148664474487305
1772721951031611600,1.896611572265625,2.339060068130493,-1.7959587574005127,0.9302091598510742
1772721951041611800,1.90661181640625,1.579153060913086,-1.0000371932983398,0.4631071090698242
1772721951051611600,1.916611572265625,0.78495192527771,-0.3208237290382385,0.03399181365966797
1772721951061611800,1.92661181640625,0.1795179843902588,-0.027735412120819092,-0.17558002471923828
1772721951071611600,1.936611572265625,-0.33476686477661133,-0.06284677982330322,-0.2326040267944336
1772721951081611800,1.94661181640625,-0.6667144298553467,-0.24114543199539185,-0.10910797119140625
1772721951091611600,1.956611572265625,-0.6650232076644897,-0.4769695997238159,0.09464740753173828
1772721951101611800,1.96661181640625,-0.538042426109314,-0.614433228969574,0.22778034210205078
1772721951111611600,1.976611572265625,-0.3216794729232788,-0.5421037077903748,0.2601184844970703
1772721951121611800,1.98661181640625,-0.01774144172668457,-0.40882861614227295,0.3146524429321289
1772721951131611600,1.996611572265625,0.1657170057296753,-0.2905579209327698,0.340118408203125
1772721951141611800,2.00661181640625,0.21442067623138428,-0.15220212936401367,0.3694953918457031
1772721951151611600,2.016611572265625,0.20170807838439941,-0.08755654096603394,0.3734121322631836
1772721951161611800,2.02661181640625,0.17059993743896484,-0.03201186656951904,0.36767005920410156
1772721951171611600,2.036611572265625,0.13942670822143555,0.041681885719299316,0.33432483673095703
1772721951181611800,2.04661181640625,0.12636709213256836,0.11146658658981323,0.2731046676635742
1772721951191611600,2.056611572265625,0.12410259246826172,0.15964314341545105,0.22044849395751953
1772721951201611800,2.06661181640625,0.13426971435546875,0.15757596492767334,0.2151937484741211
1772721951211611600,2.076611572265625,0.185042142868042,0.14233964681625366,0.20677566528320312
1772721951221611800,2.08661181640625,0.19937849044799805,0.06068140268325806,0.2010059356689453
1772721951231611600,2.096611572265625,0.18921613693237305,-0.04959195852279663,0.21354293823242188
1772721951241611800,2.10661181640625,0.1313474178314209,-0.15592414140701294,0.1812601089477539
1772721951251611600,2.116611572265625,0.04663562774658203,-0.20816582441329956,0.14863872528076172
1772721951261611800,2.12661181640625,0.009057760238647461,-0.21460282802581787,0.15734004974365234
1772721951271611600,2.136611572265625,0.0065081119537353516,-0.2104325294494629,0.1988983154296875
1772721951281611800,2.14661181640625,0.0796198844909668,-0.26858770847320557,0.2268085479736328
1772721951291611600,2.156611572265625,0.10395431518554688,-0.3083559274673462,0.25871753692626953
1772721951301611800,2.16661181640625,0.11063337326049805,-0.32512009143829346,0.2406301498413086
1772721951311611600,2.176611572265625,0.09876441955566406,-0.30099785327911377,0.23870468139648438
1772721951321611800,2.18661181640625,0.09389162063598633,-0.2015538215637207,0.2071390151977539
1772721951331611600,2.196611572265625,0.06619930267333984,-0.04709571599960327,0.14469528198242188
1772721951341611800,2.20661181640625,-0.01615452766418457,0.0776137113571167,0.1541881561279297
1772721951351611600,2.216611572265625,-0.11238181591033936,0.06770294904708862,0.25774288177490234
1772721951361611800,2.22661181640625,-0.10696554183959961,-0.03533661365509033,0.18995952606201172
1772721951371611600,2.236611572265625,0.11683249473571777,0.07199782133102417,0.3180379867553711
1772721951381611800,2.24661181640625,-0.201904296875,0.19627341628074646,0.38472938537597656
1772721951391611600,2.256611572265625,-0.24582767486572266,0.16860345005989075,0.4561586380004883
1772721951401611800,2.26661181640625,0.026776790618896484,0.003079652786254883,0.41174983978271484
1772721951411611600,2.276611572265625,0.42627787590026855,-0.14079654216766357,0.3956480026245117
1772721951421611800,2.28661181640625,0.9062142372131348,-0.02530848979949951,0.5941314697265625
1772721951431611600,2.296611572265625,1.212798833847046,0.2771594226360321,0.6264123916625977
1772721951441611800,2.30661181640625,1.0568904876708984,0.8200024962425232,0.0333251953125
1772721951451611600,2.316611572265625,0.2040412425994873,0.8465167880058289,-0.26870250701904297
1772721951461611800,2.32661181640625,-0.4996849298477173,0.3531884551048279,0.06128692626953125
1772721951471611600,2.336611572265625,-0.7021160125732422,-0.015748322010040283,0.5173254013061523
1772721951481611800,2.34661181640625,-0.3910388946533203,-0.0572393536567688,0.5120067596435547
1772721951491611600,2.356611572265625,0.02182173728942871,0.02023446559906006,0.3270387649536133
1772721951501611800,2.36661181640625,0.02164149284362793,-0.04288327693939209,0.17940044403076172
1772721951511611600,2.376611572265625,-0.045697689056396484,-0.28582799434661865,0.1899423599243164
1772721951521611800,2.38661181640625,0.0994114875793457,-0.4439629316329956,0.24248504638671875
1772721951531611600,2.396611572265625,0.17951130867004395,-0.42073678970336914,0.2212047576904297
1772721951541611800,2.40661181640625,0.04130411148071289,-0.249273419380188,0.20946598052978516
1772721951551611600,2.416611572265625,-0.22756314277648926,-0.22076445817947388,0.242340087890625
1772721951561611800,2.42661181640625,-0.4080929756164551,-0.3423050045967102,0.3002920150756836
1772721951571611600,2.436611572265625,-0.27051830291748047,-0.4659191966056824,0.36864376068115234
1772721951581611800,2.44661181640625,-0.02567601203918457,-0.44638973474502563,0.3895530700683594
1772721951591611600,2.456611572265625,0.2323288917541504,-0.28904759883880615,0.2972221374511719
1772721951601611800,2.46661181640625,0.37761926651000977,-0.19919151067733765,0.21120643615722656
1772721951611611600,2.476611572265625,0.3061079978942871,-0.17292475700378418,0.21296977996826172
1772721951621611800,2.48661181640625,0.10285544395446777,-0.14899879693984985,0.2986593246459961
1772721951631611600,2.496611572265625,-0.07988095283508301,-0.12313085794448853,0.37680912017822266
1772721951641611800,2.50661181640625,-0.17792880535125732,-0.13975244760513306,0.3761568069458008
1772721951651611600,2.516611572265625,-0.14221227169036865,-0.17508959770202637,0.29688167572021484
1772721951661611800,2.52661181640625,0.020435571670532227,-0.1889338493347168,0.18300819396972656
1772721951671611600,2.536611572265625,0.08277058601379395,-0.22324061393737793,0.11898612976074219
1772721951681611800,2.54661181640625,0.09222841262817383,-0.23248010873794556,0.12646770477294922
1772721951691611600,2.556611572265625,0.01924443244934082,-0.19965338706970215,0.16170787811279297
1772721951701611800,2.56661181640625,-0.030063629150390625,-0.15062004327774048,0.17313766479492188
1772721951711611600,2.576611572265625,-0.050787925720214844,-0.06541812419891357,0.1219949722290039
1772721951721611800,2.58661181640625,-0.03235769271850586,0.044147789478302,0.09460735321044922
1772721951731611600,2.596611572265625,-0.003496408462524414,0.15011346340179443,0.13506793975830078
1772721951741611800,2.60661181640625,-0.0007984638214111328,0.19581973552703857,0.2151803970336914
1772721951751611600,2.616611572265625,0.019601821899414062,0.17613857984542847,0.24939250946044922
1772721951761611800,2.62661181640625,0.003850221633911133,0.13395410776138306,0.18493080139160156
1772721951771611600,2.636611572265625,-0.020169496536254883,0.05514669418334961,0.10490894317626953
1772721951781611800,2.64661181640625,-0.007048368453979492,0.010338366031646729,0.08305740356445312
1772721951791611600,2.656611572265625,-0.019608020782470703,0.000428617000579834,0.09533309936523438
1772721951801611800,2.66661181640625,-0.07871699333190918,0.017102479934692383,0.11433219909667969
1772721951811611600,2.676611572265625,-0.050826311111450195,0.028179287910461426,0.14545345306396484
1772721951821611800,2.68661181640625,-0.05032467842102051,0.029124021530151367,0.165435791015625
1772721951831611600,2.696611572265625,-0.00973653793334961,0.04357707500457764,0.16921234130859375
1772721951841611800,2.70661181640625,0.0010058879852294922,0.07056093215942383,0.15713787078857422
1772721951851611600,2.716611572265625,0.0009350776672363281,0.0739096999168396,0.14904022216796875
1772721951861611800,2.72661181640625,0.010608673095703125,0.051086366176605225,0.15052223205566406
1772721951871611600,2.736611572265625,0.03467679023742676,0.011845052242279053,0.11877822875976562
1772721951881611800,2.74661181640625,0.025274991989135742,-0.020022213459014893,0.0782308578491211
1772721951891611600,2.756611572265625,0.009783506393432617,-0.06966477632522583,0.04695320129394531
1772721951901611800,2.76661181640625,-0.02688002586364746,-0.09575653076171875,0.05576038360595703
1772721951911611600,2.776611572265625,-0.05248713493347168,-0.11309319734573364,0.06627273559570312
1772721951921611800,2.78661181640625,-0.05787527561187744,-0.10040193796157837,0.07701492309570312
1772721951931611600,2.796611572265625,-0.0660402774810791,-0.09135580062866211,0.07823467254638672
1772721951941611800,2.80661181640625,-0.052141666412353516,-0.07748645544052124,0.08405017852783203
1772721951951611600,2.816611572265625,-0.03703117370605469,-0.06332248449325562,0.10307121276855469
1772721951961611800,2.82661181640625,-0.012035608291625977,-0.034586429595947266,0.11445140838623047
1772721951971611600,2.836611572265625,-0.01638197898864746,-0.01174461841583252,0.1355600357055664
1772721951981611800,2.84661181640625,-0.005711555480957031,0.016894638538360596,0.14760303497314453
1772721951991611600,2.856611572265625,-0.011378049850463867,0.017252981662750244,0.13598251342773438
1772721952001611800,2.86661181640625,-0.008270502090454102,0.0029643774032592773,0.15007305145263672
1772721952011611600,2.876611572265625,-0.016850709915161133,-0.021557390689849854,0.1437215805053711
1772721952021611800,2.88661181640625,-0.010088205337524414,-0.0454745888710022,0.13473129272460938
1772721952031611600,2.896611572265625,-0.00570225715637207,-0.0498310923576355,0.13547611236572266
1772721952041611800,2.90661181640625,-0.021753311157226562,-0.061147332191467285,0.14803791046142578
1772721952051611600,2.916611572265625,-0.023273706436157227,-0.06506931781768799,0.15101337432861328
1772721952061611800,2.92661181640625,-0.02726006507873535,-0.05566900968551636,0.15345382690429688
1772721952071611600,2.936611572265625,-0.03427624702453613,-0.046462416648864746,0.1523914337158203
1772721952081611800,2.94661181640625,-0.035146236419677734,-0.031318068504333496,0.14234542846679688
1772721952091611600,2.956611572265625,-0.02369093894958496,-0.038181424140930176,0.10184097290039062
1772721952101611800,2.96661181640625,-0.020545244216918945,-0.03592836856842041,0.07924652099609375
1772721952111611600,2.976611572265625,-0.030112266540527344,-0.042920589447021484,0.07320117950439453
1772721952121611800,2.98661181640625,-0.046446919441223145,-0.07248836755752563,0.07745075225830078
1772721952131611600,2.996611572265625,-0.048220038414001465,-0.06341427564620972,0.09021377563476562
1772721952141611800,3.00661181640625,-0.03182387351989746,-0.04569727182388306,0.08888530731201172
1772721952151611600,3.016611572265625,-0.0072481632232666016,-0.03622335195541382,0.07491874694824219
1772721952161611800,3.02661181640625,-0.024773836135864258,-0.03459268808364868,0.0726022720336914
1772721952171611600,3.036611572265625,-0.030500173568725586,-0.019512712955474854,0.07572650909423828
1772721952181611800,3.04661181640625,-0.023270606994628906,0.0016715526580810547,0.05038166046142578
1772721952191611600,3.056611572265625,0.0011663436889648438,0.0197867751121521,0.06839847564697266
1772721952201611800,3.06661181640625,-0.004370927810668945,0.029375433921813965,0.07966232299804688
1772721952211611600,3.076611572265625,0.010220527648925781,0.03871417045593262,0.07454872131347656
1772721952221611800,3.08661181640625,0.0183560848236084,0.04487961530685425,0.0653829574584961
1772721952231611600,3.096611572265625,0.02029895782470703,0.038052499294281006,0.08982467651367188
1772721952241611800,3.10661181640625,0.027276039123535156,0.027882874011993408,0.10378837585449219
1772721952251611600,3.116611572265625,0.03953289985656738,0.0016982555389404297,0.09908390045166016
1772721952261611800,3.12661181640625,0.02740001678466797,0.0044214725494384766,0.0885171890258789
1772721952271611600,3.136611572265625,0.016853809356689453,-0.00435185432434082,0.06041145324707031
1772721952281611800,3.14661181640625,0.028528928756713867,-0.005057632923126221,0.04198741912841797
1772721952291611600,3.156611572265625,0.03192257881164551,0.0047266483306884766,0.05012226104736328
1772721952301611800,3.16661181640625,0.035831451416015625,0.004907190799713135,0.06465435028076172
1772721952311611600,3.176611572265625,0.031491756439208984,-0.0259854793548584,0.10365486145019531
1772721952321611800,3.18661181640625,0.021361351013183594,-0.05664736032485962,0.12134552001953125
1772721952331611600,3.196611572265625,0.022889375686645508,-0.07214057445526123,0.11474800109863281
1772721952341611800,3.20661181640625,0.02109527587890625,-0.05837732553482056,0.0903472900390625
1772721952351611600,3.216611572265625,0.03484034538269043,-0.02366572618484497,0.0463714599609375
1772721952361611800,3.22661181640625,0.045403480529785156,0.01421654224395752,0.013845443725585938
1772721952371611600,3.236611572265625,0.05300593376159668,0.04772132635116577,0.0053157806396484375
1772721952381611800,3.24661181640625,0.047370195388793945,0.050716519355773926,0.030714035034179688
1772721952391611600,3.256611572265625,0.0493009090423584,0.012553215026855469,0.05106353759765625
1772721952401611800,3.26661181640625,0.024847745895385742,-0.004380345344543457,0.07413578033447266
1772721952411611600,3.276611572265625,-0.000156402587890625,-0.009213507175445557,0.1063680648803711
1772721952421611800,3.28661181640625,-0.024446725845336914,-0.0003733038902282715,0.14232826232910156
1772721952431611600,3.296611572265625,-0.02359771728515625,-0.0012724995613098145,0.1630535125732422
1772721952441611800,3.30661181640625,-0.015655517578125,-0.01135164499282837,0.13889122009277344
1772721952451611600,3.316611572265625,0.027080535888671875,-0.029175877571105957,0.10239219665527344
1772721952461611800,3.32661181640625,0.057450294494628906,-0.03766971826553345,0.06526851654052734
1772721952471611600,3.336611572265625,0.08512711524963379,-0.04549968242645264,0.026276588439941406
1772721952481611800,3.34661181640625,0.08732819557189941,-0.05532073974609375,-0.0014743804931640625
1772721952491611600,3.356611572265625,0.0483555793762207,-0.04998236894607544,-0.007083892822265625
1772721952501611800,3.36661181640625,0.013287544250488281,-0.0543590784072876,-0.031317710876464844
1772721952511611600,3.376611572265625,0.014629602432250977,-0.0587959885597229,-0.05107593536376953
1772721952521611800,3.38661181640625,0.007333993911743164,-0.02983677387237549,-0.04201984405517578
1772721952531611600,3.396611572265625,-0.023481130599975586,-0.028673171997070312,-0.017696380615234375
1772721952541611800,3.40661181640625,-0.018281221389770508,-0.011661708354949951,-0.0008544921875
1772721952551611600,3.416611572265625,-0.018740177154541016,-0.00015980005264282227,-0.005629539489746094
1772721952561611800,3.42661181640625,0.021727323532104492,0.0067560672760009766,-0.0014429092407226562
1772721952571611600,3.436611572265625,0.05439257621765137,0.007044017314910889,0.03364372253417969
1772721952581611800,3.44661181640625,0.043408870697021484,0.0034915804862976074,0.027851104736328125
1772721952591611600,3.456611572265625,0.03781580924987793,0.021677494049072266,-0.01693248748779297
1772721952601611800,3.46661181640625,0.04751992225646973,0.04439842700958252,-0.053989410400390625
1772721952611611600,3.476611572265625,0.05144000053405762,0.06841599941253662,-0.08358001708984375
1772721952621611800,3.48661181640625,0.013894319534301758,0.05953556299209595,-0.097198486328125
1772721952631611600,3.496611572265625,0.019702911376953125,0.03119117021560669,-0.15476036071777344
1772721952641611800,3.50661181640625,0.028438806533813477,0.009826898574829102,-0.22015094757080078
1772721952651611600,3.516611572265625,0.0188596248626709,0.019181430339813232,-0.25685691833496094
1772721952661611800,3.52661181640625,-0.03420257568359375,0.009564578533172607,-0.2333841323852539
1772721952671611600,3.536611572265625,-0.07095623016357422,0.025397002696990967,-0.18171119689941406
1772721952681611800,3.54661181640625,-0.10168671607971191,0.028936445713043213,-0.14676284790039062
1772721952691611600,3.556611572265625,-0.08950209617614746,0.04128575325012207,-0.14061832427978516
1772721952701611800,3.56661181640625,-0.0712275505065918,0.02893650531768799,-0.12668418884277344
1772721952711611600,3.576611572265625,-0.05658841133117676,0.015439093112945557,-0.1008148193359375
1772721952721611800,3.58661181640625,-0.02135610580444336,0.0049076080322265625,-0.09796524047851562
1772721952731611600,3.596611572265625,-0.01818227767944336,0.014635026454925537,-0.08280658721923828
1772721952741611800,3.60661181640625,0.006495237350463867,0.016872525215148926,-0.06356334686279297
1772721952751611600,3.616611572265625,0.007462978363037109,0.037777483463287354,-0.05599021911621094
1772721952761611800,3.62661181640625,0.012969732284545898,0.04549717903137207,-0.05210590362548828
1772721952771611600,3.636611572265625,0.03461027145385742,0.026475846767425537,-0.0916585922241211
1772721952781611800,3.64661181640625,0.05093979835510254,0.012391746044158936,-0.14742660522460938
1772721952791611600,3.656611572265625,0.03821277618408203,0.005057692527770996,-0.21921730041503906
1772721952801611800,3.66661181640625,0.00804591178894043,0.011385679244995117,-0.23964881896972656
1772721952811611600,3.676611572265625,-0.04067730903625488,0.013769984245300293,-0.2413158416748047
1772721952821611800,3.68661181640625,-0.06869673728942871,0.025621891021728516,-0.25315093994140625
1772721952831611600,3.696611572265625,-0.06403923034667969,0.03882402181625366,-0.2823762893676758
1772721952841611800,3.70661181640625,-0.05910515785217285,0.044568419456481934,-0.2968721389770508
1772721952851611600,3.716611572265625,-0.0707852840423584,0.04120057821273804,-0.25322628021240234
1772721952861611800,3.72661181640625,-0.07580447196960449,0.01765042543411255,-0.17634868621826172
1772721952871611600,3.736611572265625,-0.08820247650146484,0.006669282913208008,-0.10361480712890625
1772721952881611800,3.74661181640625,-0.0762488842010498,0.0017128586769104004,-0.06902694702148438
1772721952891611600,3.756611572265625,-0.04167461395263672,-0.0005139708518981934,-0.03748798370361328
1772721952901611800,3.76661181640625,-0.017957210540771484,0.0028284788131713867,-0.06252193450927734
1772721952911611600,3.776611572265625,0.03763628005981445,0.016095280647277832,-0.11963272094726562
1772721952921611800,3.78661181640625,0.09220647811889648,0.0038742423057556152,-0.2199573516845703
1772721952931611600,3.796611572265625,0.09940624237060547,-0.00782686471939087,-0.28378868103027344
1772721952941611800,3.80661181640625,0.05808854103088379,-0.03141331672668457,-0.2885608673095703
1772721952951611600,3.816611572265625,-0.008493185043334961,-0.02286738157272339,-0.2858123779296875
1772721952961611800,3.82661181640625,-0.042109012603759766,-0.00525742769241333,-0.3016691207885742
1772721952971611600,3.836611572265625,-0.07852029800415039,0.020261764526367188,-0.309722900390625
1772721952981611800,3.84661181640625,-0.08675312995910645,0.03583043813705444,-0.27407264709472656
1772721952991611600,3.856611572265625,-0.08867263793945312,0.026239871978759766,-0.2151355743408203
1772721953001611800,3.86661181640625,-0.08296918869018555,-0.021512210369110107,-0.19040489196777344
1772721953011611600,3.876611572265625,-0.06597280502319336,-0.03374314308166504,-0.18636035919189453
1772721953021611800,3.88661181640625,-0.051035165786743164,-0.05683320760726929,-0.1841888427734375
1772721953031611600,3.896611572265625,-0.04083132743835449,-0.07578456401824951,-0.18315792083740234
1772721953041611800,3.90661181640625,0.012125968933105469,-0.06992888450622559,-0.1739673614501953
1772721953051611600,3.916611572265625,0.03688359260559082,-0.055384814739227295,-0.20929241180419922
1772721953061611800,3.92661181640625,0.02298736572265625,-0.03163313865661621,-0.2548542022705078
1772721953071611600,3.936611572265625,0.06047201156616211,-0.021260082721710205,-0.2731800079345703
1772721953081611800,3.94661181640625,0.028769493103027344,-0.00877690315246582,-0.2989835739135742
1772721953091611600,3.956611572265625,-0.01710963249206543,0.014308631420135498,-0.3432645797729492
1772721953101611800,3.96661181640625,-0.059354543685913086,0.0447809100151062,-0.42700862884521484
1772721953111611600,3.976611572265625,-0.12967705726623535,0.06563031673431396,-0.46887874603271484
1772721953121611800,3.98661181640625,-0.1877613067626953,0.06996411085128784,-0.46958160400390625
1772721953131611600,3.996611572265625,-0.22421705722808838,0.053195834159851074,-0.4327430725097656
1772721953141611800,4.00661181640625,-0.22660517692565918,0.021457195281982422,-0.3791360855102539
1772721953151611600,4.016611572265625,-0.21000170707702637,-0.0301017165184021,-0.31089305877685547
1772721953161611800,4.02661181640625,-0.19172775745391846,-0.05234569311141968,-0.224029541015625
1772721953171611600,4.036611572265625,-0.14782238006591797,-0.08983808755874634,-0.14641094207763672
1772721953181611800,4.04661181640625,-0.09108304977416992,-0.09900891780853271,-0.12680721282958984
1772721953191611600,4.056611572265625,-0.02239084243774414,-0.0924980640411377,-0.14484119415283203
1772721953201611800,4.06661181640625,0.05189228057861328,-0.07499408721923828,-0.22057437896728516
1772721953211611600,4.076611572265625,0.011493921279907227,-0.06842637062072754,-0.24923038482666016
1772721953221611800,4.08661181640625,-0.01332235336303711,-0.05440241098403931,-0.3156414031982422
1772721953231611600,4.096611572265625,-0.10156393051147461,-0.05417752265930176,-0.3370494842529297
1772721953241611800,4.10661181640625,-0.19679367542266846,-0.04821819067001343,-0.35637569427490234
1772721953251611600,4.116611572265625,-0.23522436618804932,-0.0077471137046813965,-0.3183279037475586
1772721953261611800,4.12661181640625,-0.26460838317871094,-0.012668192386627197,-0.27666378021240234
1772721953271611600,4.136611572265625,-0.2553856372833252,-0.006864488124847412,-0.24005603790283203
1772721953281611800,4.14661181640625,-0.22175168991088867,-0.011740386486053467,-0.19705581665039062
1772721953291611600,4.156611572265625,-0.18016719818115234,-0.022288084030151367,-0.14956951141357422
1772721953301611800,4.16661181640625,-0.10009551048278809,-0.0038415193557739258,-0.14309215545654297
1772721953311611600,4.176611572265625,-0.06084442138671875,0.002714097499847412,-0.1693286895751953
1772721953321611800,4.18661181640625,-0.036087989807128906,0.02017313241958618,-0.18210315704345703
1772721953331611600,4.196611572265625,-0.020851612091064453,0.04235595464706421,-0.1862030029296875
1772721953341611800,4.20661181640625,-0.0006628036499023438,0.04203486442565918,-0.15674304962158203
1772721953351611600,4.216611572265625,-0.017350196838378906,0.04831486940383911,-0.14564132690429688
1772721953361611800,4.22661181640625,-0.030283212661743164,0.06838500499725342,-0.17867279052734375
1772721953371611600,4.236611572265625,-0.05805850028991699,0.09662598371505737,-0.22382450103759766
1772721953381611800,4.24661181640625,-0.08356261253356934,0.13257789611816406,-0.27533817291259766
1772721953391611600,4.256611572265625,-0.09187579154968262,0.15760642290115356,-0.2958221435546875
1772721953401611800,4.26661181640625,-0.10184049606323242,0.14027827978134155,-0.24907493591308594
1772721953411611600,4.276611572265625,-0.0773324966430664,0.09822702407836914,-0.17859363555908203
1772721953421611800,4.28661181640625,-0.04718732833862305,0.05924099683761597,-0.14259910583496094
1772721953431611600,4.296611572265625,-0.01750636100769043,0.052470862865448,-0.1600809097290039
1772721953441611800,4.30661181640625,0.013941287994384766,0.0476229190826416,-0.22118473052978516
1772721953451611600,4.316611572265625,0.04169154167175293,0.060648441314697266,-0.2688741683959961
1772721953461611800,4.32661181640625,0.048397064208984375,0.037828028202056885,-0.2932758331298828
1772721953471611600,4.336611572265625,0.047815799713134766,0.009037315845489502,-0.3017425537109375
1772721953481611800,4.34661181640625,0.046094655990600586,0.007309675216674805,-0.31854820251464844
1772721953491611600,4.356611572265625,0.01951146125793457,0.006143808364868164,-0.34470367431640625
1772721953501611800,4.36661181640625,-0.0166623592376709,0.03375041484832764,-0.34324073791503906
1772721953511611600,4.376611572265625,-0.02605128288269043,0.04368317127227783,-0.3082237243652344
1772721953521611800,4.38661181640625,-0.04458212852478027,0.0378568172454834,-0.2623929977416992
1772721953531611600,4.396611572265625,-0.06061196327209473,-0.0038832426071166992,-0.21316051483154297
1772721953541611800,4.40661181640625,-0.05771636962890625,-0.030123472213745117,-0.17208480834960938
1772721953551611600,4.416611572265625,-0.06896591186523438,-0.04745107889175415,-0.1399068832397461
1772721953561611800,4.42661181640625,-0.06681084632873535,-0.06720823049545288,-0.10512733459472656
1772721953571611600,4.436611572265625,-0.0485990047454834,-0.08962017297744751,-0.11387920379638672
1772721953581611800,4.44661181640625,-0.018649578094482422,-0.0846337080001831,-0.15099048614501953
1772721953591611600,4.456611572265625,0.04631519317626953,-0.08684366941452026,-0.1967477798461914
1772721953601611800,4.46661181640625,0.0871734619140625,-0.04463094472885132,-0.24286937713623047
1772721953611611600,4.476611572265625,0.09354829788208008,-0.009261548519134521,-0.24128437042236328
1772721953621611800,4.48661181640625,0.06059908866882324,0.013495445251464844,-0.25168514251708984
1772721953631611600,4.496611572265625,0.04557085037231445,0.06850618124008179,-0.2635211944580078
1772721953641611800,4.50661181640625,0.0014355182647705078,0.06912356615066528,-0.25812816619873047
1772721953651611600,4.516611572265625,-0.04641008377075195,0.06510055065155029,-0.2157583236694336
1772721953661611800,4.52661181640625,-0.06847214698791504,0.06012570858001709,-0.16698741912841797
1772721953671611600,4.536611572265625,-0.07980108261108398,0.03580951690673828,-0.12934494018554688
1772721953681611800,4.54661181640625,-0.06768560409545898,0.026107072830200195,-0.10578250885009766
1772721953691611600,4.556611572265625,-0.0336763858795166,0.02298593521118164,-0.057181358337402344
1772721953701611800,4.56661181640625,-0.021369457244873047,0.027678966522216797,-0.007733345031738281
1772721953711611600,4.576611572265625,0.003438234329223633,0.03321397304534912,-0.004543304443359375
1772721953721611800,4.58661181640625,0.03963422775268555,0.03094017505645752,-0.026683807373046875
1772721953731611600,4.596611572265625,0.07851719856262207,0.021722853183746338,-0.08114051818847656
1772721953741611800,4.60661181640625,0.11846089363098145,0.027491092681884766,-0.14168071746826172
1772721953751611600,4.616611572265625,0.1033024787902832,0.04456138610839844,-0.17690181732177734
1772721953761611800,4.62661181640625,0.0837259292602539,0.05600661039352417,-0.19655704498291016
1772721953771611600,4.636611572265625,0.04221153259277344,0.07669705152511597,-0.22304725646972656
1772721953781611800,4.64661181640625,-0.016002893447875977,0.11625391244888306,-0.2165985107421875
1772721953791611600,4.656611572265625,-0.07085919380187988,0.13028228282928467,-0.21032238006591797
1772721953801611800,4.66661181640625,-0.11199951171875,0.13772594928741455,-0.18425464630126953
1772721953811611600,4.676611572265625,-0.136488676071167,0.11967259645462036,-0.15838050842285156
1772721953821611800,4.68661181640625,-0.13077211380004883,0.08914726972579956,-0.13873767852783203
1772721953831611600,4.696611572265625,-0.08765602111816406,0.04974484443664551,-0.09173393249511719
1772721953841611800,4.70661181640625,-0.02429485321044922,0.020051956176757812,-0.10146045684814453
1772721953851611600,4.716611572265625,0.015619516372680664,-0.006559431552886963,-0.09680843353271484
1772721953861611800,4.72661181640625,0.05254793167114258,-0.013048529624938965,-0.10252952575683594
1772721953871611600,4.736611572265625,0.055802345275878906,-0.014293909072875977,-0.10858440399169922
1772721953881611800,4.74661181640625,0.0522005558013916,-0.05032515525817871,-0.11587333679199219
1772721953891611600,4.756611572265625,0.041767120361328125,-0.07875758409500122,-0.1296682357788086
1772721953901611800,4.76661181640625,0.03391432762145996,-0.08471858501434326,-0.13508033752441406
1772721953911611600,4.776611572265625,0.017974853515625,-0.06821185350418091,-0.1175527572631836
1772721953921611800,4.78661181640625,0.014400720596313477,-0.04254204034805298,-0.09671497344970703
1772721953931611600,4.796611572265625,0.005638599395751953,-0.03427344560623169,-0.0849761962890625
1772721953941611800,4.80661181640625,-0.026992321014404297,-0.03220444917678833,-0.0867624282836914
1772721953951611600,4.816611572265625,-0.04151773452758789,-0.042955636978149414,-0.058689117431640625
1772721953961611800,4.82661181640625,-0.05567359924316406,-0.03219336271286011,-0.0027399063110351562
1772721953971611600,4.836611572265625,-0.05257296562194824,-0.048970699310302734,0.030074119567871094
1772721953981611800,4.84661181640625,-0.015798568725585938,-0.058204054832458496,0.018301963806152344
1772721953991611600,4.856611572265625,0.021540403366088867,-0.08134043216705322,0.013110160827636719
1772721954001611800,4.86661181640625,0.05344843864440918,-0.11206990480422974,-0.00933074951171875
1772721954011611600,4.876611572265625,0.05352330207824707,-0.11194115877151489,-0.059352874755859375
1772721954021611800,4.88661181640625,0.061206817626953125,-0.1021355390548706,-0.11461162567138672
1772721954031611600,4.896611572265625,0.06723761558532715,-0.06989824771881104,-0.13014984130859375
1772721954041611800,4.90661181640625,0.08140206336975098,-0.034410059452056885,-0.141204833984375
1772721954051611600,4.916611572265625,0.0733954906463623,-0.008347094058990479,-0.12371063232421875
1772721954061611800,4.92661181640625,0.027564048767089844,0.034489333629608154,-0.13242435455322266
1772721954071611600,4.936611572265625,-0.02564406394958496,0.0813589096069336,-0.1432809829711914
1772721954081611800,4.94661181640625,-0.07016134262084961,0.09833836555480957,-0.11447906494140625
1772721954091611600,4.956611572265625,-0.11512374877929688,0.10143029689788818,-0.06589126586914062
1772721954101611800,4.96661181640625,-0.12555527687072754,0.059133052825927734,-0.012359619140625
1772721954111611600,4.976611572265625,-0.09994745254516602,0.020319998264312744,-0.020854949951171875
1772721954121611800,4.98661181640625,-0.03875589370727539,-0.009277045726776123,-0.0269775390625
1772721954131611600,4.996611572265625,0.02474379539489746,-0.03577864170074463,-0.05256175994873047
1772721954141611800,5.00661181640625,0.057088375091552734,-0.05216503143310547,-0.07403850555419922
1772721954151611600,5.016611572265625,0.04928278923034668,-0.05803161859512329,-0.08100318908691406
1772721954161611800,5.02661181640625,0.04982924461364746,-0.05096149444580078,-0.10283756256103516
1772721954171611600,5.036611572265625,0.026676654815673828,-0.042408645153045654,-0.0983133316040039
1772721954181611800,5.04661181640625,-0.008645772933959961,-0.0162772536277771,-0.11173629760742188
1772721954191611600,5.056611572265625,-0.021758079528808594,-0.02208864688873291,-0.08993053436279297
1772721954201611800,5.06661181640625,-0.05791020393371582,-0.025355041027069092,-0.07531261444091797
1772721954211611600,5.076611572265625,-0.10509395599365234,-0.033101022243499756,-0.073028564453125
1772721954221611800,5.08661181640625,-0.1094210147857666,-0.030208468437194824,-0.04399394989013672
1772721954231611600,5.096611572265625,-0.10601139068603516,-0.02763652801513672,-0.0013628005981445312
1772721954241611800,5.10661181640625,-0.09278655052185059,-0.02612406015396118,0.023634910583496094
1772721954251611600,5.116611572265625,-0.022169828414916992,-0.009457588195800781,0.02622699737548828
1772721954261611800,5.12661181640625,0.016458988189697266,-0.02299290895462036,-0.011860847473144531
1772721954271611600,5.136611572265625,0.03531956672668457,-0.040989041328430176,-0.028593063354492188
1772721954281611800,5.14661181640625,0.038453102111816406,-0.060750722885131836,-0.042923927307128906
1772721954291611600,5.156611572265625,0.021013975143432617,-0.056114912033081055,-0.04093742370605469
1772721954301611800,5.16661181640625,0.00274658203125,-0.05305349826812744,-0.06258487701416016
1772721954311611600,5.176611572265625,-0.03509950637817383,-0.049846649169921875,-0.1115255355834961
1772721954321611800,5.18661181640625,-0.06979060173034668,-0.021071672439575195,-0.14520645141601562
1772721954331611600,5.196611572265625,-0.09595394134521484,-0.0060465335845947266,-0.10998725891113281
1772721954341611800,5.20661181640625,-0.10610675811767578,0.008058667182922363,-0.020864486694335938
1772721954351611600,5.216611572265625,-0.10836505889892578,-0.002469658851623535,0.0567169189453125
1772721954361611800,5.22661181640625,-0.08349013328552246,-0.025575578212738037,0.07454395294189453
1772721954371611600,5.236611572265625,-0.02725076675415039,-0.02391725778579712,0.07507896423339844
1772721954381611800,5.24661181640625,0.023108243942260742,-0.009701192378997803,0.07699298858642578
1772721954391611600,5.256611572265625,0.049896240234375,0.010879874229431152,0.03540515899658203
1772721954401611800,5.26661181640625,0.06253218650817871,-0.005720853805541992,-0.010183334350585938
1772721954411611600,5.276611572265625,0.058264732360839844,-0.016883432865142822,-0.05551338195800781
1772721954421611800,5.28661181640625,0.048567771911621094,-0.010650813579559326,-0.07832813262939453
1772721954431611600,5.296611572265625,0.009749889373779297,-0.004800319671630859,-0.09334373474121094
1772721954441611800,5.30661181640625,-0.04069924354553223,0.010357916355133057,-0.09616470336914062
1772721954451611600,5.316611572265625,-0.06153678894042969,0.013100206851959229,-0.10473251342773438
1772721954461611800,5.32661181640625,-0.07326173782348633,0.02593940496444702,-0.09900188446044922
1772721954471611600,5.336611572265625,-0.07735729217529297,0.034782588481903076,-0.1142721176147461
1772721954481611800,5.34661181640625,-0.0671834945678711,0.003337383270263672,-0.0655527114868164
1772721954491611600,5.356611572265625,-0.06035900115966797,0.013590574264526367,-0.028260231018066406
1772721954501611800,5.36661181640625,-0.06228017807006836,0.0064855217933654785,0.01519775390625
1772721954511611600,5.376611572265625,-0.038288116455078125,0.006355762481689453,0.045104026794433594
1772721954521611800,5.38661181640625,0.019073486328125,0.00884389877319336,0.033530235290527344
1772721954531611600,5.396611572265625,0.042043447494506836,0.021878063678741455,-0.0009565353393554688
1772721954541611800,5.40661181640625,0.07582569122314453,0.02116185426712036,-0.059729576110839844
1772721954551611600,5.416611572265625,0.05821728706359863,0.022424519062042236,-0.109649658203125
1772721954561611800,5.42661181640625,0.045165061950683594,0.048837363719940186,-0.15520572662353516
1772721954571611600,5.436611572265625,-0.010717391967773438,0.05503726005554199,-0.15303802490234375
1772721954581611800,5.44661181640625,-0.06903886795043945,0.08206939697265625,-0.16380023956298828
1772721954591611600,5.456611572265625,-0.12587213516235352,0.10710346698760986,-0.14799976348876953
1772721954601611800,5.46661181640625,-0.13576960563659668,0.09027642011642456,-0.1317005157470703
1772721954611611600,5.476611572265625,-0.12162280082702637,0.03781616687774658,-0.10802555084228516
1772721954621611800,5.48661181640625,-0.10501718521118164,0.0080641508102417,-0.0628814697265625
1772721954631611600,5.496611572265625,-0.05259132385253906,0.01866823434829712,-0.0084686279296875
1772721954641611800,5.50661181640625,-0.0451960563659668,0.029760420322418213,0.02164936065673828
1772721954651611600,5.516611572265625,-0.01833486557006836,0.022687792778015137,0.0650177001953125
1772721954661611800,5.52661181640625,0.025318145751953125,0.02520078420639038,0.08064651489257812
1772721954671611600,5.536611572265625,0.07193636894226074,0.022886157035827637,0.0770273208618164
1772721954681611800,5.54661181640625,0.10175085067749023,0.018584728240966797,0.034667015075683594
1772721954691611600,5.556611572265625,0.0666799545288086,0.032473862171173096,-0.004979133605957031
1772721954701611800,5.56661181640625,0.028365612030029297,0.02160501480102539,-0.012219429016113281
1772721954711611600,5.576611572265625,-0.05045437812805176,0.0330013632774353,-0.016340255737304688
1772721954721611800,5.58661181640625,-0.0914773941040039,0.045371830463409424,-0.03663444519042969
1772721954731611600,5.596611572265625,-0.10428690910339355,0.06142646074295044,-0.08020687103271484
1772721954741611800,5.60661181640625,-0.0926370620727539,0.0642157793045044,-0.13722610473632812
1772721954751611600,5.616611572265625,-0.06920361518859863,0.04301095008850098,-0.16577434539794922
1772721954761611800,5.62661181640625,-0.06209373474121094,0.006445646286010742,-0.14693737030029297
1772721954771611600,5.636611572265625,-0.05425691604614258,-0.012012302875518799,-0.1033782958984375
1772721954781611800,5.64661181640625,-0.06247377395629883,0.0023422837257385254,-0.07451057434082031
1772721954791611600,5.656611572265625,-0.07381105422973633,0.013519883155822754,-0.050393104553222656
1772721954801611800,5.66661181640625,-0.06356120109558105,0.013070225715637207,-0.046143531799316406
1772721954811611600,5.676611572265625,-0.039006948471069336,0.024396002292633057,-0.08024120330810547
1772721954821611800,5.68661181640625,0.007513523101806641,0.03083980083465576,-0.1093912124633789
1772721954831611600,5.696611572265625,0.021829843521118164,0.025768518447875977,-0.09998607635498047
1772721954841611800,5.70661181640625,0.005989789962768555,0.02727574110031128,-0.0638284683227539
1772721954851611600,5.716611572265625,-0.02823472023010254,0.022861778736114502,-0.024817466735839844
1772721954861611800,5.72661181640625,-0.07572531700134277,0.028171539306640625,-0.016811370849609375
1772721954871611600,5.736611572265625,-0.10744357109069824,0.02097100019454956,-0.0203857421875
1772721954881611800,5.74661181640625,-0.09438180923461914,-0.012422323226928711,-0.014293670654296875
1772721954891611600,5.756611572265625,-0.09363055229187012,-0.012894272804260254,-0.013987541198730469
1772721954901611800,5.76661181640625,-0.07770490646362305,-0.03429615497589111,-0.0012521743774414062
1772721954911611600,5.776611572265625,-0.06051158905029297,-0.02301323413848877,-0.02574634552001953
1772721954921611800,5.78661181640625,-0.004581451416015625,0.0018224716186523438,-0.05491352081298828
1772721954931611600,5.796611572265625,0.038315534591674805,0.015305399894714355,-0.08196544647216797
1772721954941611800,5.80661181640625,0.07068753242492676,0.025244712829589844,-0.1198740005493164
1772721954951611600,5.816611572265625,0.07930731773376465,0.033778369426727295,-0.1430215835571289
1772721954961611800,5.82661181640625,0.03732442855834961,0.022282660007476807,-0.11998653411865234
1772721954971611600,5.836611572265625,-0.05564379692077637,-0.0005361437797546387,-0.05238914489746094
1772721954981611800,5.84661181640625,-0.11081767082214355,-0.01386880874633789,0.0024652481079101562
1772721954991611600,5.856611572265625,-0.12543344497680664,-0.018476486206054688,0.04560375213623047
1772721955001611800,5.86661181640625,-0.1373288631439209,-0.023089587688446045,0.07056617736816406
1772721955011611600,5.876611572265625,-0.13276171684265137,-0.013101577758789062,0.0859518051147461
1772721955021611800,5.88661181640625,-0.07483863830566406,0.002182304859161377,0.09101581573486328
1772721955031611600,5.896611572265625,-0.020784854888916016,0.036317646503448486,0.09226512908935547
1772721955041611800,5.90661181640625,0.05102658271789551,0.056955814361572266,0.10239696502685547
1772721955051611600,5.916611572265625,0.10354995727539062,0.04434692859649658,0.07690048217773438
1772721955061611800,5.92661181640625,0.11241507530212402,0.013422608375549316,0.05685615539550781
1772721955071611600,5.936611572265625,0.1474156379699707,-0.03153961896896362,0.01621723175048828
1772721955081611800,5.94661181640625,0.13169288635253906,-0.062168240547180176,-0.01788616180419922
1772721955091611600,5.956611572265625,0.07599616050720215,-0.06860411167144775,-0.03264141082763672
1772721955101611800,5.96661181640625,0.015275239944458008,-0.020573556423187256,-0.04254722595214844
1772721955111611600,5.976611572265625,-0.05677533149719238,-0.006846129894256592,-0.04307842254638672
1772721955121611800,5.98661181640625,-0.09452080726623535,0.011678099632263184,-0.036914825439453125
1772721955131611600,5.996611572265625,-0.1040952205657959,-0.0026988983154296875,-0.0007991790771484375
1772721955141611800,6.00661181640625,-0.08972644805908203,0.001153707504272461,0.03740882873535156
1772721955151611600,6.016611572265625,-0.06148791313171387,-0.024378478527069092,0.08373260498046875
1772721955161611800,6.02661181640625,-0.034186601638793945,-0.04135066270828247,0.1259899139404297
1772721955171611600,6.036611572265625,0.01886606216430664,-0.05252492427825928,0.16723155975341797
1772721955181611800,6.04661181640625,0.062307119369506836,-0.06874817609786987,0.20352745056152344
1772721955191611600,6.056611572265625,0.1278994083404541,-0.07978510856628418,0.19033241271972656
1772721955201611800,6.06661181640625,0.17985844612121582,-0.10104095935821533,0.13859081268310547
1772721955211611600,6.076611572265625,0.20422577857971191,-0.10300397872924805,0.05625629425048828
1772721955221611800,6.08661181640625,0.17177224159240723,-0.09588569402694702,-0.015331268310546875
1772721955231611600,6.096611572265625,0.08121013641357422,-0.061006367206573486,-0.05062103271484375
1772721955241611800,6.10661181640625,-0.0010247230529785156,-0.04786217212677002,-0.08092975616455078
1772721955251611600,6.116611572265625,-0.05435895919799805,-0.049655258655548096,-0.09000968933105469
1772721955261611800,6.12661181640625,-0.09563684463500977,-0.046170949935913086,-0.08019638061523438
1772721955271611600,6.136611572265625,-0.07099461555480957,-0.034537315368652344,-0.04650115966796875
1772721955281611800,6.14661181640625,-0.06405496597290039,-0.00713270902633667,-0.013627052307128906
1772721955291611600,6.156611572265625,-0.07534956932067871,0.027081668376922607,0.012331008911132812
1772721955301611800,6.16661181640625,-0.0606389045715332,0.03284496068954468,0.053023338317871094
1772721955311611600,6.176611572265625,-0.027472734451293945,0.009553730487823486,0.085052490234375
1772721955321611800,6.18661181640625,0.025183916091918945,0.0013360977172851562,0.07740974426269531
1772721955331611600,6.196611572265625,0.0831003189086914,-0.029415786266326904,0.033710479736328125
1772721955341611800,6.20661181640625,0.14383745193481445,-0.0375211238861084,-0.02195262908935547
1772721955351611600,6.216611572265625,0.15933561325073242,-0.042156100273132324,-0.061575889587402344
1772721955361611800,6.22661181640625,0.14371061325073242,-0.03643989562988281,-0.1025686264038086
1772721955371611600,6.236611572265625,0.08261346817016602,-0.007829546928405762,-0.1208639144897461
1772721955381611800,6.24661181640625,0.005580425262451172,0.02226412296295166,-0.1448078155517578
1772721955391611600,6.256611572265625,-0.03860211372375488,0.013505518436431885,-0.1490468978881836
1772721955401611800,6.26661181640625,-0.061547279357910156,-0.014295578002929688,-0.15545082092285156
1772721955411611600,6.276611572265625,-0.0702965259552002,-0.034291863441467285,-0.11741447448730469
1772721955421611800,6.28661181640625,-0.06699943542480469,-0.0372580885887146,-0.06235027313232422
1772721955431611600,6.296611572265625,-0.06423544883728027,-0.0213431715965271,-0.010702133178710938
1772721955441611800,6.30661181640625,-0.0732126235961914,-0.02322673797607422,-0.01900482177734375
1772721955451611600,6.316611572265625,-0.042600393295288086,-0.020254015922546387,-0.022838592529296875
1772721955461611800,6.32661181640625,-0.002200603485107422,-0.03296816349029541,-0.028974533081054688
1772721955471611600,6.336611572265625,0.044869422912597656,-0.04764968156814575,-0.013111114501953125
1772721955481611800,6.34661181640625,0.08598470687866211,-0.07203912734985352,-0.020208358764648438
1772721955491611600,6.356611572265625,0.10972118377685547,-0.058364689350128174,-0.01964282989501953
1772721955501611800,6.36661181640625,0.0858614444732666,-0.04175764322280884,-0.031409263610839844
1772721955511611600,6.376611572265625,0.05076026916503906,-0.01207798719406128,-0.053381919860839844
1772721955521611800,6.38661181640625,-0.011321306228637695,0.015303373336791992,-0.0630807876586914
1772721955531611600,6.396611572265625,-0.05457019805908203,0.0636526346206665,-0.09108924865722656
1772721955541611800,6.40661181640625,-0.09676766395568848,0.0895923376083374,-0.08436298370361328
1772721955551611600,6.416611572265625,-0.10108160972595215,0.07890200614929199,-0.07448577880859375
1772721955561611800,6.42661181640625,-0.0874166488647461,0.05646413564682007,-0.050811767578125
1772721955571611600,6.436611572265625,-0.06112408638000488,0.029943466186523438,-0.018360137939453125
1772721955581611800,6.44661181640625,-0.05768108367919922,-0.00011324882507324219,0.02484893798828125
1772721955591611600,6.456611572265625,-0.009153127670288086,-0.015111446380615234,0.0592041015625
1772721955601611800,6.46661181640625,0.008634805679321289,-0.020725905895233154,0.07811450958251953
1772721955611611600,6.476611572265625,0.031970977783203125,-0.006679534912109375,0.049282073974609375
1772721955621611800,6.48661181640625,0.04118680953979492,0.03628659248352051,-0.030950546264648438
1772721955631611600,6.496611572265625,0.026079893112182617,0.0584336519241333,-0.06403350830078125
1772721955641611800,6.50661181640625,-0.005242347717285156,0.07738161087036133,-0.037003517150878906
1772721955651611600,6.516611572265625,-0.040252685546875,0.06741076707839966,0.00026226043701171875
1772721955661611800,6.52661181640625,-0.07197403907775879,0.04926764965057373,0.02371692657470703
1772721955671611600,6.536611572265625,-0.06968092918395996,0.04562687873840332,0.04248046875
1772721955681611800,6.54661181640625,-0.04894900321960449,0.03518414497375488,0.06981468200683594
1772721955691611600,6.556611572265625,-0.0473322868347168,0.017974674701690674,0.1152334213256836
1772721955701611800,6.56661181640625,-0.02371835708618164,0.009328484535217285,0.1328411102294922
1772721955711611600,6.576611572265625,-0.0024018287658691406,-0.02615731954574585,0.14522075653076172
1772721955721611800,6.58661181640625,0.048746347427368164,-0.0557553768157959,0.10158538818359375
1772721955731611600,6.596611572265625,0.04866957664489746,-0.05102795362472534,0.03236961364746094
1772721955741611800,6.60661181640625,0.0595393180847168,-0.03674757480621338,-0.039834022521972656
1772721955751611600,6.616611572265625,0.06477713584899902,-0.02274143695831299,-0.06527996063232422
1772721955761611800,6.62661181640625,0.024776697158813477,-0.011396408081054688,-0.07016849517822266
1772721955771611600,6.636611572265625,-0.009137392044067383,-0.007029116153717041,-0.046751976013183594
1772721955781611800,6.64661181640625,-0.06078457832336426,0.0023856759071350098,-0.023400306701660156
1772721955791611600,6.656611572265625,-0.09759950637817383,0.0049782395362854,-0.0006160736083984375
1772721955801611800,6.66661181640625,-0.12131428718566895,-0.002161264419555664,0.04199409484863281
1772721955811611600,6.676611572265625,-0.08979129791259766,-0.018368065357208252,0.08399391174316406
1772721955821611800,6.68661181640625,-0.08211302757263184,-0.03767603635787964,0.11270809173583984
1772721955831611600,6.696611572265625,-0.05123186111450195,-0.049234867095947266,0.11145305633544922
1772721955841611800,6.70661181640625,-0.003448963165283203,-0.05130481719970703,0.11211872100830078
1772721955851611600,6.716611572265625,0.04766225814819336,-0.049219369888305664,0.08321475982666016
1772721955861611800,6.72661181640625,0.10579609870910645,-0.05931061506271362,0.05450725555419922
1772721955871611600,6.736611572265625,0.1362764835357666,-0.06446480751037598,-0.004626274108886719
1772721955881611800,6.74661181640625,0.12077689170837402,-0.035698652267456055,-0.058312416076660156
1772721955891611600,6.756611572265625,0.0934140682220459,-0.0182456374168396,-0.10660076141357422
1772721955901611800,6.76661181640625,0.02292180061340332,0.00869518518447876,-0.11978435516357422
1772721955911611600,6.776611572265625,-0.039465904235839844,0.026762187480926514,-0.14298725128173828
1772721955921611800,6.78661181640625,-0.07817387580871582,0.040105223655700684,-0.1738567352294922
1772721955931611600,6.796611572265625,-0.10168290138244629,0.06392699480056763,-0.1775684356689453
1772721955941611800,6.80661181640625,-0.13173174858093262,0.05918002128601074,-0.12378215789794922
1772721955951611600,6.816611572265625,-0.09408116340637207,0.02063673734664917,-0.06812667846679688
1772721955961611800,6.82661181640625,-0.03668642044067383,-0.006949067115783691,-0.04262828826904297
1772721955971611600,6.836611572265625,-0.006910562515258789,-0.026497066020965576,-0.004961967468261719
1772721955981611800,6.84661181640625,0.014079809188842773,-0.013245880603790283,0.03896903991699219
1772721955991611600,6.856611572265625,0.05461573600769043,-0.0047356486320495605,0.0674905776977539
1772721956001611800,6.86661181640625,0.05958199501037598,-0.008110642433166504,0.09696197509765625
1772721956011611600,6.876611572265625,0.06029868125915527,-0.026249289512634277,0.10608959197998047
1772721956021611800,6.88661181640625,0.07287406921386719,-0.020336270332336426,0.07704448699951172
1772721956031611600,6.896611572265625,0.08446598052978516,0.0018687248229980469,0.029932022094726562
1772721956041611800,6.90661181640625,0.08870649337768555,0.02332693338394165,-0.00041294097900390625
1772721956051611600,6.916611572265625,0.05075812339782715,0.03381842374801636,0.0035257339477539062
1772721956061611800,6.92661181640625,0.015234708786010742,0.02118086814880371,-0.0031032562255859375
1772721956071611600,6.936611572265625,0.000990152359008789,0.012431979179382324,-0.021772384643554688
1772721956081611800,6.94661181640625,-0.008930206298828125,0.0037000179290771484,-0.0340576171875
1772721956091611600,6.956611572265625,-0.04403972625732422,-0.006297171115875244,-0.018962860107421875
1772721956101611800,6.96661181640625,-0.05629706382751465,-0.0017684102058410645,-0.008479118347167969
1772721956111611600,6.976611572265625,-0.02466440200805664,-0.002101421356201172,-0.015314102172851562
1772721956121611800,6.98661181640625,-0.00008487701416015625,-0.003608226776123047,-0.006585121154785156
1772721956131611600,6.996611572265625,0.022328853607177734,0.0010985732078552246,0.0038471221923828125
1772721956141611800,7.00661181640625,0.04936790466308594,-0.017604351043701172,0.011396408081054688
1772721956151611600,7.016611572265625,0.05037379264831543,-0.02386873960494995,0.013730049133300781
1772721956161611800,7.02661181640625,0.058757781982421875,-0.028724193572998047,0.008753776550292969
1772721956171611600,7.036611572265625,0.05085873603820801,-0.01307070255279541,0.013375282287597656
1772721956181611800,7.04661181640625,0.0354459285736084,0.006103515625,0.020394325256347656
1772721956191611600,7.056611572265625,0.022048234939575195,0.0422552227973938,0.03759002685546875
1772721956201611800,7.06661181640625,0.002149820327758789,0.04459565877914429,0.05376434326171875
1772721956211611600,7.076611572265625,-0.005915641784667969,0.006527364253997803,0.05142402648925781
1772721956221611800,7.08661181640625,-0.0042040348052978516,-0.016204893589019775,0.08307170867919922
1772721956231611600,7.096611572265625,0.03472399711608887,-0.0175398588180542,0.07744789123535156
1772721956241611800,7.10661181640625,0.04027199745178223,0.0006926655769348145,0.05960273742675781
1772721956251611600,7.116611572265625,0.048445701599121094,0.02326071262359619,0.060329437255859375
1772721956261611800,7.12661181640625,0.058167219161987305,0.048618972301483154,0.059599876403808594
1772721956271611600,7.136611572265625,0.057969093322753906,0.05875694751739502,0.02310943603515625
1772721956281611800,7.14661181640625,0.07142496109008789,0.039925575256347656,-0.03976726531982422
1772721956291611600,7.156611572265625,0.07763147354125977,0.060806453227996826,-0.06879425048828125
1772721956301611800,7.16661181640625,0.07676291465759277,0.07061487436294556,-0.10268974304199219
1772721956311611600,7.176611572265625,0.04167437553405762,0.06739038228988647,-0.10838127136230469
1772721956321611800,7.18661181640625,-0.012901544570922852,0.040364205837249756,-0.10664653778076172
1772721956331611600,7.196611572265625,-0.054033756256103516,0.03192341327667236,-0.08103179931640625
1772721956341611800,7.20661181640625,-0.0643622875213623,0.03175002336502075,-0.05498981475830078
1772721956351611600,7.216611572265625,-0.06465935707092285,0.03971052169799805,-0.034435272216796875
1772721956361611800,7.22661181640625,-0.04654669761657715,0.06273835897445679,-0.004607200622558594
1772721956371611600,7.236611572265625,-0.027841567993164062,0.058932721614837646,0.01827716827392578
1772721956381611800,7.24661181640625,-0.005648136138916016,0.057497262954711914,0.0635528564453125
1772721956391611600,7.256611572265625,0.021341323852539062,0.04829239845275879,0.09203147888183594
1772721956401611800,7.26661181640625,0.06450510025024414,0.025558531284332275,0.08149337768554688
1772721956411611600,7.276611572265625,0.10121560096740723,0.003476083278656006,0.0719289779663086
1772721956421611800,7.28661181640625,0.12815189361572266,-0.015045464038848877,0.048264503479003906
1772721956431611600,7.296611572265625,0.12555623054504395,-0.02146279811859131,0.0042362213134765625
1772721956441611800,7.30661181640625,0.09077715873718262,-0.008396685123443604,-0.04994964599609375
1772721956451611600,7.316611572265625,0.014859676361083984,0.009137094020843506,-0.07003116607666016
1772721956461611800,7.32661181640625,-0.048313140869140625,0.011807084083557129,-0.05467796325683594
1772721956471611600,7.336611572265625,-0.09444189071655273,0.00416642427444458,-0.03296470642089844
1772721956481611800,7.34661181640625,-0.09393596649169922,0.00790327787399292,-0.028777122497558594
1772721956491611600,7.356611572265625,-0.07904434204101562,-0.0003135204315185547,-0.022055625915527344
1772721956501611800,7.36661181640625,-0.038648128509521484,0.017827510833740234,-0.00220489501953125
1772721956511611600,7.376611572265625,0.0005638599395751953,0.013258755207061768,0.03014373779296875
1772721956521611800,7.38661181640625,0.015100479125976562,-0.007078230381011963,0.043007850646972656
1772721956531611600,7.396611572265625,0.029433012008666992,-0.011322259902954102,0.048211097717285156
1772721956541611800,7.40661181640625,0.03967452049255371,-0.003977179527282715,0.06136512756347656
1772721956551611600,7.416611572265625,0.03601551055908203,0.003925919532775879,0.08139228820800781
1772721956561611800,7.42661181640625,0.03799319267272949,-0.003377258777618408,0.08294200897216797
1772721956571611600,7.436611572265625,0.04574441909790039,-0.0027831196784973145,0.054111480712890625
1772721956581611800,7.44661181640625,0.027953147888183594,-0.018390297889709473,0.013554573059082031
1772721956591611600,7.456611572265625,0.012977361679077148,-0.017788052558898926,0.008133888244628906
1772721956601611800,7.46661181640625,-0.001199483871459961,-0.011584937572479248,0.004235267639160156
1772721956611611600,7.476611572265625,-0.009764432907104492,0.0006608366966247559,-0.010875701904296875
1772721956621611800,7.48661181640625,-0.026833295822143555,-0.0053237080574035645,-0.016954421997070312
1772721956631611600,7.496611572265625,-0.025098800659179688,0.006035327911376953,-0.03130054473876953
1772721956641611800,7.50661181640625,-0.024349689483642578,0.00950998067855835,-0.02413654327392578
1772721956651611600,7.516611572265625,-0.0035278797149658203,0.01662677526473999,-0.022535324096679688
1772721956661611800,7.52661181640625,0.0155487060546875,0.007892906665802002,-0.019989013671875
1772721956671611600,7.536611572265625,0.0411224365234375,0.007890701293945312,-0.033283233642578125
1772721956681611800,7.54661181640625,0.05333971977233887,0.011754751205444336,-0.05709362030029297
1772721956691611600,7.556611572265625,0.04130911827087402,0.014917433261871338,-0.05495738983154297
1772721956701611800,7.56661181640625,0.02171802520751953,0.00999075174331665,-0.07175350189208984
1772721956711611600,7.576611572265625,-0.010942459106445312,0.006350994110107422,-0.09570598602294922
1772721956721611800,7.58661181640625,-0.033631086349487305,0.002541661262512207,-0.13202571868896484
1772721956731611600,7.596611572265625,-0.04051542282104492,0.0037387609481811523,-0.13117408752441406
1772721956741611800,7.60661181640625,-0.05602407455444336,0.026812970638275146,-0.15400981903076172
1772721956751611600,7.616611572265625,-0.055651187896728516,0.0312311053276062,-0.15150737762451172
1772721956761611800,7.62661181640625,-0.06748080253601074,0.05209308862686157,-0.11702442169189453
1772721956771611600,7.636611572265625,-0.07553482055664062,0.058009982109069824,-0.03948020935058594
1772721956781611800,7.64661181640625,-0.09055638313293457,0.05130302906036377,0.037360191345214844
1772721956791611600,7.656611572265625,-0.0761725902557373,0.04385876655578613,0.0813436508178711
1772721956801611800,7.66661181640625,-0.039251089096069336,0.034184396266937256,0.1074819564819336
1772721956811611600,7.676611572265625,-0.008309125900268555,0.012228906154632568,0.1284475326538086
1772721956821611800,7.68661181640625,0.022060632705688477,-0.0028859376907348633,0.14159297943115234
1772721956831611600,7.696611572265625,0.05002093315124512,-0.01188117265701294,0.1325969696044922
1772721956841611800,7.70661181640625,0.06069159507751465,-0.023680686950683594,0.11698246002197266
1772721956851611600,7.716611572265625,0.036391496658325195,-0.026035666465759277,0.08083724975585938
1772721956861611800,7.72661181640625,0.05509209632873535,-0.01608097553253174,0.06520748138427734
1772721956871611600,7.736611572265625,0.03242182731628418,0.007806658744812012,0.01969623565673828
1772721956881611800,7.74661181640625,0.014928340911865234,0.02087301015853882,-0.02653980255126953
1772721956891611600,7.756611572265625,-0.02917933464050293,0.030561506748199463,-0.03174591064453125
1772721956901611800,7.76661181640625,-0.06776762008666992,0.03006690740585327,-0.02562713623046875
1772721956911611600,7.776611572265625,-0.09068083763122559,0.03962850570678711,-0.005413055419921875
1772721956921611800,7.78661181640625,-0.12537693977355957,0.03553682565689087,0.019548416137695312
1772721956931611600,7.796611572265625,-0.10318398475646973,0.030542731285095215,0.04365253448486328
1772721956941611800,7.80661181640625,-0.08432698249816895,0.01710224151611328,0.08362388610839844
1772721956951611600,7.816611572265625,-0.01997208595275879,0.00016057491302490234,0.08368110656738281
1772721956961611800,7.82661181640625,0.030542850494384766,-0.03227365016937256,0.08747577667236328
1772721956971611600,7.836611572265625,0.05820417404174805,-0.0284612774848938,0.08199119567871094
1772721956981611800,7.84661181640625,0.06594228744506836,-0.030293166637420654,0.06287670135498047
1772721956991611600,7.856611572265625,0.05315709114074707,-0.039711713790893555,0.023096084594726562
1772721957001611800,7.86661181640625,0.04228806495666504,-0.03434491157531738,-0.021950721740722656
1772721957011611600,7.876611572265625,0.036836862564086914,-0.00698244571685791,-0.05719566345214844
1772721957021611800,7.88661181640625,-0.005898475646972656,-0.006121516227722168,-0.03725719451904297
1772721957031611600,7.896611572265625,-0.07298660278320312,0.004292011260986328,0.019609451293945312
1772721957041611800,7.90661181640625,-0.10813212394714355,-0.004862785339355469,0.07894611358642578
1772721957051611600,7.916611572265625,-0.13815021514892578,-0.014274775981903076,0.08766841888427734
1772721957061611800,7.92661181640625,-0.12155556678771973,-0.003732442855834961,0.07436370849609375
1772721957071611600,7.936611572265625,-0.05105733871459961,-0.003571808338165283,0.04161262512207031
1772721957081611800,7.94661181640625,0.020879268646240234,-0.003637552261352539,0.00930023193359375
1772721957091611600,7.956611572265625,0.058884382247924805,-0.007479429244995117,-0.024641036987304688
1772721957101611800,7.96661181640625,0.07429647445678711,-0.025445103645324707,-0.06413078308105469
1772721957111611600,7.976611572265625,0.05568265914916992,-0.0348239541053772,-0.08756065368652344
1772721957121611800,7.98661181640625,0.04123640060424805,-0.03763490915298462,-0.10458660125732422
1772721957131611600,7.996611572265625,0.007133007049560547,-0.03459954261779785,-0.12748146057128906
1772721957141611800,8.00661181640625,-0.02062511444091797,-0.014328420162200928,-0.10829448699951172
1772721957151611600,8.016611572265624,-0.0447385311126709,-0.0034279823303222656,-0.07245254516601562
1772721957161611800,8.02661181640625,-0.06363320350646973,-0.016346096992492676,-0.04337596893310547
1772721957171611600,8.036611572265626,-0.054187774658203125,-0.024017035961151123,0.006572723388671875
1772721957181611800,8.04661181640625,-0.04294276237487793,-0.03989458084106445,0.032772064208984375
1772721957191611600,8.056611572265625,-0.0075206756591796875,-0.04894012212753296,0.026409149169921875
1772721957201611800,8.06661181640625,0.01231241226196289,-0.054014623165130615,0.008158683776855469
1772721957211611600,8.076611572265625,0.04897117614746094,-0.05866420269012451,-0.012338638305664062
1772721957221611800,8.08661181640625,0.06368541717529297,-0.06146925687789917,-0.039727210998535156
1772721957231611600,8.096611572265624,0.05895519256591797,-0.06853896379470825,-0.050736427307128906
1772721957241611800,8.10661181640625,0.05884146690368652,-0.06579607725143433,-0.07688713073730469
1772721957251611600,8.116611572265626,0.06184959411621094,-0.05789309740066528,-0.10097789764404297
1772721957261611800,8.12661181640625,0.04459023475646973,-0.061716318130493164,-0.09053993225097656
1772721957271611600,8.136611572265625,-0.004591464996337891,-0.023772060871124268,-0.053623199462890625
1772721957281611800,8.14661181640625,-0.06575727462768555,-0.021057188510894775,0.013295173645019531
1772721957291611600,8.156611572265625,-0.09115004539489746,-0.021881103515625,0.07274532318115234
1772721957301611800,8.16661181640625,-0.0674285888671875,-0.012149333953857422,0.061745643615722656
1772721957311611600,8.176611572265625,-0.007971763610839844,-0.014990925788879395,0.046759605407714844
1772721957321611800,8.18661181640625,0.0295865535736084,-0.002213120460510254,0.05348491668701172
1772721957331611600,8.196611572265626,0.06191849708557129,-0.02408921718597412,0.053168296813964844
1772721957341611800,8.20661181640625,0.06910443305969238,-0.05305451154708862,0.045210838317871094
1772721957351611600,8.216611572265625,0.05973029136657715,-0.043956756591796875,0.008370399475097656
1772721957361611800,8.22661181640625,0.04040670394897461,-0.040928006172180176,-0.02104949951171875
1772721957371611600,8.236611572265625,0.04731464385986328,-0.03277081251144409,-0.04779529571533203
1772721957381611800,8.24661181640625,0.019626855850219727,-0.0016248822212219238,-0.09196662902832031
1772721957391611600,8.256611572265625,-0.019082069396972656,0.029051661491394043,-0.1168365478515625
1772721957401611800,8.26661181640625,-0.056833744049072266,0.05140697956085205,-0.08374404907226562
1772721957411611600,8.276611572265624,-0.09673619270324707,0.047109246253967285,-0.009304046630859375
1772721957421611800,8.28661181640625,-0.08539748191833496,0.013957858085632324,0.03016376495361328
1772721957431611600,8.296611572265626,-0.04507803916931152,-0.011591792106628418,-0.0038623809814453125
1772721957441611800,8.30661181640625,0.0007627010345458984,-0.021877169609069824,-0.03267192840576172
1772721957461611800,8.32661181640625,0.033600568771362305,-0.067047119140625,-0.0375213623046875
1772721957471611600,8.336611572265625,0.007008075714111328,-0.03422647714614868,-0.05555915832519531
1772721957481611800,8.34661181640625,-0.004397153854370117,-0.016106605529785156,-0.08751392364501953
1772721957491611600,8.356611572265624,-0.003408670425415039,0.004736721515655518,-0.12272262573242188
1772721957501611800,8.36661181640625,-0.020950794219970703,0.007680714130401611,-0.15572166442871094
1772721957511611600,8.376611572265626,-0.03136301040649414,0.023976385593414307,-0.1420135498046875
1772721957521611800,8.38661181640625,-0.059243202209472656,0.03577113151550293,-0.08776473999023438
1772721957531611600,8.396611572265625,-0.0850226879119873,0.0448264479637146,-0.03742408752441406
1772721957541611800,8.40661181640625,-0.0974280834197998,0.04208493232727051,-0.00894927978515625
1772721957551611600,8.416611572265625,-0.06969571113586426,0.018259167671203613,0.04069805145263672
1772721957561611800,8.42661181640625,-0.03147602081298828,-0.0014969110488891602,0.06356430053710938
1772721957571611600,8.436611572265624,0.018931150436401367,-0.018523216247558594,0.09199810028076172
1772721957581611800,8.44661181640625,0.03966355323791504,-0.03172039985656738,0.09051895141601562
1772721957591611600,8.456611572265626,0.05279660224914551,-0.04320812225341797,0.0975332260131836
1772721957601611800,8.46661181640625,0.04826188087463379,-0.036871254444122314,0.0765676498413086
1772721957611611600,8.476611572265625,0.03535318374633789,-0.022588133811950684,0.03821086883544922
1772721957621611800,8.48661181640625,0.010288238525390625,0.007695972919464111,-0.022255897521972656
1772721957631611600,8.496611572265625,0.010589122772216797,0.03631371259689331,-0.07877349853515625
1772721957641611800,8.50661181640625,-0.004282474517822266,0.039078474044799805,-0.06967449188232422
1772721957651611600,8.516611572265624,-0.032659053802490234,0.04778784513473511,-0.00632476806640625
1772721957661611800,8.52661181640625,-0.045301198959350586,0.038096487522125244,0.022238731384277344
1772721957671611600,8.536611572265626,-0.04433321952819824,0.008663833141326904,0.05619049072265625
1772721957681611800,8.54661181640625,-0.015390157699584961,0.0020638704299926758,0.0680990219116211
1772721957691611600,8.556611572265625,0.027680158615112305,-0.001446545124053955,0.06255722045898438
1772721957701611800,8.56661181640625,0.060329437255859375,-0.006626605987548828,0.06572437286376953
1772721957711611600,8.576611572265625,0.06949877738952637,0.014427602291107178,0.0865325927734375
1772721957721611800,8.58661181640625,0.0660855770111084,-0.002622842788696289,0.13266563415527344
1772721957731611600,8.596611572265624,0.06054329872131348,-0.01306760311126709,0.16448307037353516
1772721957741611800,8.60661181640625,0.061127424240112305,-0.010750293731689453,0.17792892456054688
1772721957751611600,8.616611572265626,0.06594228744506836,0.0012639164924621582,0.17224693298339844
1772721957761611800,8.62661181640625,0.07608342170715332,0.02427518367767334,0.14895153045654297
1772721957771611600,8.636611572265625,0.08838868141174316,0.04888200759887695,0.13504695892333984
1772721957781611800,8.64661181640625,0.08169698715209961,0.050986528396606445,0.1065225601196289
1772721957791611600,8.656611572265625,0.0714406967163086,0.024215519428253174,0.05623435974121094
1772721957801611800,8.66661181640625,0.040940046310424805,-0.004030048847198486,-0.0074138641357421875
1772721957811611600,8.676611572265625,-0.005835294723510742,-0.020650625228881836,-0.03173637390136719
1772721957821611800,8.68661181640625,-0.03324770927429199,-0.0447690486907959,-0.039412498474121094
1772721957831611600,8.696611572265626,-0.03964805603027344,-0.03912091255187988,-0.07764148712158203
1772721957841611800,8.70661181640625,-0.0229952335357666,-0.006281018257141113,-0.11625194549560547
1772721957851611600,8.716611572265625,-0.04854464530944824,0.03191101551055908,-0.08895015716552734
1772721957861611800,8.72661181640625,-0.07859659194946289,0.08592069149017334,-0.03373527526855469
1772721957871611600,8.736611572265625,-0.13041901588439941,0.10253709554672241,-0.0032196044921875
1772721957881611800,8.74661181640625,-0.1486988067626953,0.0733138918876648,-0.015081405639648438
1772721957891611600,8.756611572265625,-0.13712263107299805,0.04280269145965576,-0.038125038146972656
1772721957901611800,8.76661181640625,-0.10300540924072266,0.017744064331054688,-0.07535266876220703
1772721957911611600,8.776611572265624,-0.044837236404418945,0.011811971664428711,-0.0825204849243164
1772721957921611800,8.78661181640625,-0.016309738159179688,0.012975931167602539,-0.06596088409423828
1772721957931611600,8.796611572265626,0.0004093647003173828,0.031740427017211914,-0.04810142517089844
1772721957941611800,8.80661181640625,-0.007417917251586914,0.031505584716796875,-0.024831771850585938
1772721957951611600,8.816611572265625,-0.01194310188293457,0.03132271766662598,-0.04039192199707031
1772721957961611800,8.82661181640625,-0.031968116760253906,0.019884169101715088,-0.06592941284179688
1772721957971611600,8.836611572265625,-0.04338407516479492,0.012179374694824219,-0.05749702453613281
1772721957981611800,8.84661181640625,-0.07163429260253906,-0.004053950309753418,-0.027680397033691406
1772721957991611600,8.856611572265624,-0.06764388084411621,-0.027336537837982178,-0.034084320068359375
1772721958001611800,8.86661181640625,-0.07181072235107422,-0.011996030807495117,-0.07346439361572266
1772721958011611600,8.876611572265626,-0.062459468841552734,-0.0027336478233337402,-0.14193153381347656
1772721958021611800,8.88661181640625,-0.07278990745544434,0.0075650811195373535,-0.1622476577758789
1772721958031611600,8.896611572265625,-0.0757303237915039,0.004118502140045166,-0.13945579528808594
1772721958041611800,8.90661181640625,-0.044689178466796875,-0.01350945234298706,-0.11378955841064453
1772721958051611600,8.916611572265625,-0.015152692794799805,0.004311978816986084,-0.12342548370361328
1772721958061611800,8.92661181640625,-0.01389932632446289,0.03006887435913086,-0.14769458770751953
1772721958071611600,8.936611572265624,-0.037041664123535156,0.05710935592651367,-0.13378334045410156
1772721958081611800,8.94661181640625,-0.06817770004272461,0.0652766227722168,-0.05588531494140625
1772721958091611600,8.956611572265626,-0.09374284744262695,0.06660294532775879,0.014660835266113281
1772721958101611800,8.96661181640625,-0.08544230461120605,0.051126301288604736,0.045311927795410156
1772721958111611600,8.976611572265625,-0.05667471885681152,0.014540433883666992,0.04354381561279297
1772721958121611800,8.98661181640625,-0.006829023361206055,-0.011727750301361084,0.023906707763671875
1772721958131611600,8.996611572265625,0.0427098274230957,-0.018080413341522217,0.008055686950683594
1772721958141611800,9.00661181640625,0.057039499282836914,-0.029939770698547363,0.0080108642578125
1772721958151611600,9.016611572265624,0.06837892532348633,-0.01947784423828125,-0.02311992645263672
1772721958161611800,9.02661181640625,0.05078577995300293,-0.023615658283233643,-0.030941009521484375
1772721958171611600,9.036611572265626,0.014367341995239258,0.005561411380767822,-0.018642425537109375
1772721958181611800,9.04661181640625,-0.01287841796875,0.0150260329246521,-0.013960838317871094
1772721958191611600,9.056611572265625,-0.037506103515625,0.02659362554550171,-0.03353118896484375
1772721958201611800,9.06661181640625,-0.06069016456604004,0.03454279899597168,-0.011821746826171875
1772721958211611600,9.076611572265625,-0.06828832626342773,0.014660120010375977,0.03209972381591797
1772721958221611800,9.08661181640625,-0.055808305740356445,-0.008450627326965332,0.08378982543945312
1772721958231611600,9.096611572265624,-0.04227948188781738,-0.007206618785858154,0.11226272583007812
1772721958241611800,9.10661181640625,-0.02974700927734375,-0.004193544387817383,0.139007568359375
1772721958251611600,9.116611572265626,0.0017905235290527344,0.004277408123016357,0.14740562438964844
1772721958261611800,9.12661181640625,0.04606747627258301,-0.02097761631011963,0.13062763214111328
1772721958271611600,9.136611572265625,0.06819677352905273,-0.017267286777496338,0.09237861633300781
1772721958281611800,9.14661181640625,0.08022713661193848,0.0009600520133972168,0.04571342468261719
1772721958291611600,9.156611572265625,0.06796956062316895,0.026759624481201172,0.05312347412109375
1772721958301611800,9.16661181640625,0.04841494560241699,0.03313678503036499,0.08288955688476562
1772721958311611600,9.176611572265625,0.04213738441467285,0.009472787380218506,0.06821537017822266
1772721958321611800,9.18661181640625,-0.000015020370483398438,0.007809817790985107,0.040019989013671875
1772721958331611600,9.196611572265626,-0.04251527786254883,0.0326380729675293,0.018494606018066406
1772721958341611800,9.20661181640625,-0.09036087989807129,0.02637380361557007,0.06096649169921875
1772721958351611600,9.216611572265625,-0.10719513893127441,-0.006368696689605713,0.13988780975341797
1772721958361611800,9.22661181640625,-0.06228184700012207,-0.04545152187347412,0.16773414611816406
1772721958371611600,9.236611572265625,0.02437591552734375,-0.08617156744003296,0.09304618835449219
1772721958381611800,9.24661181640625,0.10506939888000488,-0.08964776992797852,0.006496429443359375
1772721958391611600,9.256611572265625,0.15116572380065918,-0.09796929359436035,-0.03616142272949219
1772721958401611800,9.26661181640625,0.16647863388061523,-0.11360311508178711,-0.034384727478027344
1772721958411611600,9.276611572265624,0.13479304313659668,-0.11866652965545654,-0.027654647827148438
1772721958421611800,9.28661181640625,0.07933497428894043,-0.12855350971221924,-0.035628318786621094
1772721958431611600,9.296611572265626,0.06590628623962402,-0.11392533779144287,-0.07114982604980469
1772721958441611800,9.30661181640625,0.03737139701843262,-0.06929683685302734,-0.15125370025634766
1772721958451611600,9.316611572265625,0.018459796905517578,-0.036486804485321045,-0.1909933090209961
1772721958461611800,9.32661181640625,0.00985264778137207,-0.04120051860809326,-0.22947025299072266
1772721958471611600,9.336611572265625,0.002637147903442383,-0.05998814105987549,-0.2583427429199219
1772721958481611800,9.34661181640625,0.006566047668457031,-0.06842935085296631,-0.2676992416381836
1772721958501611800,9.36661181640625,-0.061736106872558594,-0.06969833374023438,-0.18219280242919922
1772721958511611600,9.376611572265626,-0.08100605010986328,-0.04920029640197754,-0.10803604125976562
1772721958521611800,9.38661181640625,-0.10327315330505371,-0.05623972415924072,-0.044612884521484375
1772721958531611600,9.396611572265625,-0.10053849220275879,-0.05207383632659912,-0.038071632385253906
1772721958541611800,9.40661181640625,-0.04517340660095215,-0.06226778030395508,-0.07230949401855469
1772721958551611600,9.416611572265625,0.05414319038391113,-0.05910515785217285,-0.14976215362548828
1772721958561611800,9.42661181640625,0.14464688301086426,0.0025435686111450195,-0.19415855407714844
1772721958571611600,9.436611572265624,0.11125612258911133,0.04400676488876343,-0.23227596282958984
1772721958581611800,9.44661181640625,0.07519650459289551,0.08004915714263916,-0.2778635025024414
1772721958591611600,9.456611572265626,0.0005538463592529297,0.11591219902038574,-0.3481788635253906
1772721958601611800,9.46661181640625,-0.018099546432495117,0.14226877689361572,-0.3548727035522461
1772721958611611600,9.476611572265625,-0.05489063262939453,0.21188336610794067,-0.36594486236572266
1772721958621611800,9.48661181640625,-0.17024827003479004,0.15653157234191895,-0.29630470275878906
1772721958631611600,9.496611572265625,-0.17919325828552246,0.07999718189239502,-0.22285079956054688
1772721958641611800,9.50661181640625,-0.10829639434814453,0.05095374584197998,-0.17484092712402344
1772721958651611600,9.516611572265624,-0.056561946868896484,0.04316896200180054,-0.16727066040039062
1772721958661611800,9.52661181640625,-0.029206275939941406,0.05694687366485596,-0.17992591857910156
1772721958671611600,9.536611572265626,0.008797645568847656,0.04629361629486084,-0.21760845184326172
1772721958681611800,9.54661181640625,0.024775981903076172,0.04016005992889404,-0.2666339874267578
1772721958691611600,9.556611572265625,0.05007004737854004,0.011093497276306152,-0.3225412368774414
1772721958701611800,9.56661181640625,0.021575212478637695,-0.00552898645401001,-0.3360004425048828
1772721958711611600,9.576611572265625,0.03138256072998047,-0.026518583297729492,-0.3139333724975586
1772721958721611800,9.58661181640625,0.012324333190917969,-0.026396214962005615,-0.2806396484375
1772721958731611600,9.596611572265624,-0.011593341827392578,-0.030119597911834717,-0.25338268280029297
1772721958741611800,9.60661181640625,-0.05235719680786133,-0.008336484432220459,-0.2440948486328125
1772721958751611600,9.616611572265626,-0.10014963150024414,0.026541531085968018,-0.2673196792602539
1772721958761611800,9.62661181640625,-0.10885500907897949,0.03750622272491455,-0.2775745391845703
1772721958771611600,9.636611572265625,-0.15681171417236328,-0.0043222904205322266,-0.2876453399658203
1772721958781611800,9.64661181640625,-0.0972588062286377,-0.020649313926696777,-0.25156211853027344
1772721958791611600,9.656611572265625,-0.09585833549499512,0.0005096793174743652,-0.2255849838256836
1772721958801611800,9.66661181640625,-0.13387131690979004,-0.03413659334182739,-0.22640514373779297
1772721958811611600,9.676611572265625,-0.13829493522644043,-0.08189249038696289,-0.24098777770996094
1772721958821611800,9.68661181640625,-0.10654401779174805,-0.0629158616065979,-0.28400325775146484
1772721958831611600,9.696611572265626,-0.04246878623962402,-0.04846471548080444,-0.31110095977783203
1772721958841611800,9.70661181640625,-0.02393507957458496,-0.015700578689575195,-0.35498905181884766
1772721958851611600,9.716611572265625,-0.004923343658447266,0.1201816201210022,-0.17613792419433594
1772721958861611800,9.72661181640625,-0.08641457557678223,0.0794593095779419,-0.31035614013671875
1772721958871611600,9.736611572265625,-0.1344156265258789,0.08701229095458984,-0.35880374908447266
1772721958881611800,9.74661181640625,-0.14527034759521484,0.07921957969665527,-0.30097389221191406
1772721958891611600,9.756611572265625,-0.11999034881591797,0.08363062143325806,-0.20513629913330078
1772721958901611800,9.76661181640625,-0.059847354888916016,0.09829437732696533,-0.12889957427978516
1772721958911611600,9.776611572265624,-0.0752570629119873,0.1365652084350586,-0.15981006622314453
1772721958921611800,9.78661181640625,-0.06414532661437988,0.21029740571975708,-0.15910816192626953
1772721958931611600,9.796611572265626,-0.04130077362060547,0.15959739685058594,-0.2130422592163086
1772721958941611800,9.80661181640625,-0.0550990104675293,0.10224777460098267,-0.27788543701171875
1772721958951611600,9.816611572265625,-0.05895495414733887,0.05804407596588135,-0.29180145263671875
1772721958961611800,9.82661181640625,-0.054099082946777344,0.047677457332611084,-0.2771024703979492
1772721958971611600,9.836611572265625,-0.04496908187866211,0.012973368167877197,-0.21442413330078125
1772721958981611800,9.84661181640625,-0.02268528938293457,0.015918314456939697,-0.1985635757446289
1772721958991611600,9.856611572265624,0.013382196426391602,0.023433148860931396,-0.2274932861328125
1772721959001611800,9.86661181640625,0.002834320068359375,0.007500708103179932,-0.26679229736328125
1772721959011611600,9.876611572265626,-0.04652690887451172,0.01639533042907715,-0.32635974884033203
1772721959021611800,9.88661181640625,-0.11260724067687988,0.20983505249023438,-0.28098106384277344
1772721959031611600,9.896611572265625,-0.0838618278503418,0.14690876007080078,-0.20915603637695312
1772721959041611800,9.90661181640625,-0.0326838493347168,0.09322941303253174,-0.2980365753173828
1772721959051611600,9.916611572265625,-0.03217363357543945,0.03233921527862549,-0.3708934783935547
1772721959061611800,9.92661181640625,-0.07398223876953125,-0.008721113204956055,-0.4018583297729492
1772721959071611600,9.936611572265624,-0.03320932388305664,-0.034810662269592285,-0.3844585418701172
1772721959081611800,9.94661181640625,-0.03989911079406738,-0.04535019397735596,-0.35936546325683594
1772721959091611600,9.956611572265626,-0.19781041145324707,-0.07031595706939697,-0.29797840118408203
1772721959101611800,9.96661181640625,-0.19197392463684082,-0.04782658815383911,-0.21598339080810547
1772721959111611600,9.976611572265625,-0.06893467903137207,-0.02619224786758423,-0.17681407928466797
1772721959121611800,9.98661181640625,0.09463000297546387,0.008776187896728516,-0.1864461898803711
1772721959131611600,9.996611572265625,0.13634991645812988,0.02948707342147827,-0.19605350494384766
1772721959141611800,10.00661181640625,-0.021305322647094727,0.008793830871582031,-0.2111654281616211
1772721959151611600,10.016611572265624,-0.09633779525756836,0.0038442611694335938,-0.19996261596679688
1772721959161611800,10.02661181640625,-0.1536412239074707,-0.0041922926902771,-0.20012569427490234
1772721959171611600,10.036611572265626,-0.10147643089294434,0.00856715440750122,-0.21591854095458984
1772721959181611800,10.04661181640625,-0.05043363571166992,0.020056426525115967,-0.21285057067871094
1772721959191611600,10.056611572265625,-0.03752732276916504,0.011025190353393555,-0.20726299285888672
1772721959201611800,10.06661181640625,-0.029221296310424805,-0.03792625665664673,-0.2031688690185547
1772721959211611600,10.076611572265625,-0.015117168426513672,-0.03597527742385864,-0.24333763122558594
1772721959221611800,10.08661181640625,-0.10343313217163086,-0.006540238857269287,-0.23643207550048828
1772721959231611600,10.096611572265624,-0.14196515083312988,0.057956039905548096,-0.22141742706298828
1772721959241611800,10.10661181640625,-0.1266472339630127,0.042960941791534424,-0.23852062225341797
1772721959251611600,10.116611572265626,-0.034223318099975586,-0.02895045280456543,-0.2441844940185547
1772721959261611800,10.12661181640625,-0.10787630081176758,0.08486396074295044,-0.2155618667602539
1772721959271611600,10.136611572265625,0.0752403736114502,0.1452464461326599,-0.06157398223876953
1772721959281611800,10.14661181640625,0.2085115909576416,-0.16278648376464844,-0.2787809371948242
1772721959291611600,10.156611572265625,0.03915715217590332,0.0007652640342712402,-0.45128726959228516
1772721959301611800,10.16661181640625,-0.19647431373596191,0.20079225301742554,-0.07331466674804688
1772721959311611600,10.176611572265625,-0.1393444538116455,0.20368361473083496,0.22470951080322266
1772721959321611800,10.18661181640625,-0.4221076965332031,0.3776785135269165,0.09507274627685547
1772721959331611600,10.196611572265626,-0.6337027549743652,0.2945913076400757,0.030562400817871094
1772721959341611800,10.20661181640625,-0.5686485767364502,0.4232593774795532,-0.024664878845214844
1772721959351611600,10.216611572265625,-0.21920108795166016,0.1718319058418274,-0.17912578582763672
1772721959361611800,10.22661181640625,0.07801580429077148,-0.0920557975769043,-0.6295442581176758
1772721959371611600,10.236611572265625,0.30567240715026855,-0.3752506971359253,-0.8973922729492188
1772721959381611800,10.24661181640625,0.45470094680786133,-0.730711817741394,-1.0588665008544922
1772721959391611600,10.256611572265625,0.5244419574737549,-0.7823271751403809,-0.9182405471801758
1772721959401611800,10.26661181640625,0.3839869499206543,-0.5353641510009766,-0.3960409164428711
1772721959411611600,10.276611572265624,0.1294863224029541,-0.11699032783508301,-0.07373905181884766
1772721959421611800,10.28661181640625,-0.05673503875732422,0.3066462278366089,0.056990623474121094
1772721959431611600,10.296611572265626,-0.22605085372924805,0.6164016723632812,0.027629852294921875
1772721959441611800,10.30661181640625,-0.3155636787414551,0.5839667320251465,-0.07485675811767578
1772721959451611600,10.316611572265625,-0.31215596199035645,0.18126314878463745,-0.014484405517578125
1772721959461611800,10.32661181640625,-0.04751992225646973,-0.16264557838439941,-0.0967702865600586
1772721959471611600,10.336611572265625,0.11972761154174805,-0.2165336012840271,-0.2694873809814453
1772721959481611800,10.34661181640625,0.12174081802368164,-0.03984344005584717,-0.25379467010498047
1772721959491611600,10.356611572265624,0.001073598861694336,0.07406538724899292,-0.1261425018310547
1772721959501611800,10.36661181640625,-0.06675267219543457,0.07714802026748657,-0.0947713851928711
1772721959511611600,10.376611572265626,-0.0684971809387207,0.019356489181518555,-0.09629631042480469
1772721959521611800,10.38661181640625,-0.08259034156799316,-0.03397238254547119,-0.14014339447021484
1772721959531611600,10.396611572265625,-0.07540702819824219,0.004387557506561279,-0.16404342651367188
1772721959541611800,10.40661181640625,-0.09579849243164062,0.024704277515411377,-0.13548851013183594
1772721959551611600,10.416611572265625,-0.1795647144317627,-0.07408332824707031,-0.17296886444091797
1772721959561611800,10.42661181640625,-0.14330840110778809,-0.12796586751937866,-0.27030467987060547
1772721959571611600,10.436611572265624,-0.010396242141723633,-0.11496955156326294,-0.28577518463134766
1772721959581611800,10.44661181640625,0.03922462463378906,-0.08618837594985962,-0.17911243438720703
1772721959591611600,10.456611572265626,-0.06113076210021973,0.011753737926483154,-0.11351585388183594
1772721959601611800,10.46661181640625,-0.12999272346496582,0.10156673192977905,-0.06631660461425781
1772721959611611600,10.476611572265625,-0.07025456428527832,0.10649776458740234,-0.00540924072265625
1772721959621611800,10.48661181640625,0.005225658416748047,0.02083587646484375,-0.033832550048828125
1772721959631611600,10.496611572265625,0.06794333457946777,-0.061348915100097656,-0.060004234313964844
1772721959641611800,10.50661181640625,0.08155441284179688,-0.1497017741203308,-0.06020927429199219
1772721959651611600,10.516611572265624,0.06377577781677246,-0.1502421498298645,-0.12276458740234375
1772721959661611800,10.52661181640625,0.05869102478027344,-0.10092949867248535,-0.20474529266357422
1772721959671611600,10.536611572265626,0.004105567932128906,-0.08691900968551636,-0.21538734436035156
1772721959681611800,10.54661181640625,-0.0653696060180664,-0.0071086883544921875,-0.2223043441772461
1772721959691611600,10.556611572265625,-0.1353449821472168,0.033873915672302246,-0.22045040130615234
1772721959701611800,10.56661181640625,-0.15609121322631836,0.020104646682739258,-0.18534088134765625
1772721959711611600,10.576611572265625,-0.11728644371032715,0.014651596546173096,-0.18897151947021484
1772721959721611800,10.58661181640625,-0.050406455993652344,0.02264559268951416,-0.15561485290527344
1772721959731611600,10.596611572265624,0.011436223983764648,-0.022074759006500244,-0.12905597686767578
1772721959741611800,10.60661181640625,0.05360126495361328,-0.06835067272186279,-0.09912490844726562
1772721959751611600,10.616611572265626,0.05907130241394043,-0.056971609592437744,-0.057094573974609375
1772721959761611800,10.62661181640625,0.025932788848876953,-0.044134557247161865,0.02653789520263672
1772721959771611600,10.636611572265625,-0.05682539939880371,0.02928847074508667,0.14524364471435547
1772721959781611800,10.64661181640625,-0.14525318145751953,0.05989307165145874,0.13054943084716797
1772721959791611600,10.656611572265625,-0.1305549144744873,0.09758967161178589,-0.06539630889892578
1772721959801611800,10.66661181640625,-0.08537721633911133,0.03011530637741089,-0.14206314086914062
1772721959811611600,10.676611572265625,-0.05224490165710449,-0.13087618350982666,-0.14745426177978516
1772721959821611800,10.68661181640625,0.10075712203979492,-0.15371400117874146,-0.24408340454101562
1772721959831611600,10.696611572265626,0.2037827968597412,-0.11962807178497314,-0.24486827850341797
1772721959841611800,10.70661181640625,0.2145853042602539,-0.09839588403701782,-0.15598201751708984
1772721959851611600,10.716611572265625,0.16829419136047363,0.07475179433822632,-0.13836383819580078
1772721959861611800,10.72661181640625,-0.030846595764160156,0.27140066027641296,-0.17513465881347656
1772721959871611600,10.736611572265625,-0.259014368057251,0.2750544250011444,-0.20148277282714844
1772721959881611800,10.74661181640625,-0.31577014923095703,0.2181050181388855,-0.10461997985839844
1772721959891611600,10.756611572265625,-0.2840310335159302,0.1509978175163269,-0.062254905700683594
1772721959901611800,10.76661181640625,-0.22290754318237305,0.045293569564819336,-0.053821563720703125
1772721959911611600,10.776611572265624,-0.15887188911437988,-0.05981636047363281,0.0021371841430664062
1772721959921611800,10.78661181640625,-0.007886648178100586,-0.06319522857666016,-0.11442852020263672
1772721959931611600,10.796611572265626,0.07909536361694336,-0.04266560077667236,-0.14386558532714844
1772721959941611800,10.80661181640625,0.12289714813232422,-0.036365628242492676,-0.06993484497070312
1772721959951611600,10.816611572265625,0.1058816909790039,-0.03518003225326538,-0.12901973724365234
1772721959961611800,10.82661181640625,0.014801740646362305,-0.06376713514328003,-0.25681591033935547
1772721959971611600,10.836611572265625,-0.05389738082885742,-0.09296774864196777,-0.23276710510253906
1772721959981611800,10.84661181640625,-0.17366623878479004,-0.11711567640304565,-0.1450481414794922
1772721959991611600,10.856611572265624,-0.279451847076416,-0.07667618989944458,-0.09331607818603516
1772721960001611800,10.86661181640625,-0.2931985855102539,-0.004935204982757568,0.043028831481933594
1772721960011611600,10.876611572265626,-0.37428760528564453,0.0021954774856567383,0.1600637435913086
1772721960021611800,10.88661181640625,-0.3971283435821533,0.01578754186630249,0.07911968231201172
1772721960031611600,10.896611572265625,-0.15529251098632812,0.0205954909324646,-0.13956260681152344
1772721960041611800,10.90661181640625,0.12577319145202637,0.1040041446685791,-0.3426494598388672
1772721960051611600,10.916611572265625,0.24481821060180664,0.11111500859260559,-0.4472370147705078
1772721960061611800,10.92661181640625,0.2686929702758789,0.10826879739761353,-0.41883373260498047
1772721960071611600,10.936611572265624,0.3390505313873291,0.1383771300315857,-0.22455215454101562
1772721960081611800,10.94661181640625,0.3574204444885254,0.25898808240890503,-0.08500385284423828
1772721960091611600,10.956611572265626,0.16782164573669434,0.33719876408576965,-0.02776622772216797
1772721960101611800,10.96661181640625,-0.21352291107177734,0.271616131067276,-0.02637958526611328
1772721960111611600,10.976611572265625,-0.3835291862487793,0.17530947923660278,0.13060760498046875
1772721960121611800,10.98661181640625,-0.41166234016418457,0.10268396139144897,0.27185916900634766
1772721960131611600,10.996611572265625,-0.268479585647583,0.04887959361076355,0.21610736846923828
1772721960141611800,11.00661181640625,-0.21587514877319336,-0.12281376123428345,0.11963844299316406
1772721960151611600,11.016611572265624,-0.1455233097076416,-0.28002050518989563,-0.059078216552734375
1772721960161611800,11.02661181640625,0.03199887275695801,-0.34252092242240906,-0.21691608428955078
1772721960171611600,11.036611572265626,0.38743162155151367,-0.34719187021255493,-0.23642253875732422
1772721960181611800,11.04661181640625,0.6742277145385742,-0.23733258247375488,-0.32773876190185547
1772721960191611600,11.056611572265625,0.620821475982666,-0.12071630358695984,-0.3845701217651367
1772721960201611800,11.06661181640625,0.3891332149505615,-0.008031457662582397,-0.3885936737060547
1772721960211611600,11.076611572265625,0.21506953239440918,0.16611376404762268,-0.4414701461791992
1772721960221611800,11.08661181640625,-0.01029205322265625,0.29910069704055786,-0.4219322204589844
1772721960231611600,11.096611572265624,-0.34014391899108887,0.350067675113678,-0.41359519958496094
1772721960241611800,11.10661181640625,-0.5798730850219727,0.2870548367500305,-0.35475826263427734
1772721960251611600,11.116611572265626,-0.6387497186660767,0.16172143816947937,-0.14526939392089844
1772721960261611800,11.12661181640625,-0.41220521926879883,-0.15801814198493958,0.5227079391479492
1772721960271611600,11.136611572265625,-0.15766024589538574,-0.5317041873931885,1.3929100036621094
1772721960281611800,11.14661181640625,-0.0709695816040039,-0.34786754846572876,1.0142240524291992
1772721960291611600,11.156611572265625,0.2307274341583252,0.09129352867603302,0.18179607391357422
1772721960301611800,11.16661181640625,0.5232601165771484,0.012624770402908325,0.39875030517578125
1772721960311611600,11.176611572265625,-0.13100647926330566,0.029708296060562134,0.17412090301513672
1772721960321611800,11.18661181640625,0.3343508243560791,0.3363754153251648,-0.045187950134277344
1772721960331611600,11.196611572265626,0.2743349075317383,0.2667004466056824,0.45072174072265625
1772721960341611800,11.20661181640625,-0.08746981620788574,-0.23841795325279236,0.9528112411499023
1772721960351611600,11.216611572265625,-0.7856546640396118,-0.40343767404556274,0.40706348419189453
1772721960361611800,11.22661181640625,0.05818438529968262,-0.13370925188064575,-0.5865592956542969
1772721960371611600,11.236611572265625,0.5432941913604736,0.014152050018310547,-0.7481718063354492
1772721960381611800,11.24661181640625,0.41661906242370605,-0.020168423652648926,-0.49354076385498047
1772721960391611600,11.256611572265625,0.35640406608581543,0.09101799130439758,-0.04404449462890625
1772721960401611800,11.26661181640625,0.12894344329833984,0.263092577457428,0.22705936431884766
1772721960411611600,11.276611572265624,-0.1638627052307129,0.2768183648586273,0.4997367858886719
1772721960421611800,11.28661181640625,-0.1335296630859375,0.23137032985687256,0.47502899169921875
1772721960431611600,11.296611572265626,-0.044313907623291016,0.1783646047115326,0.3221464157104492
1772721960441611800,11.30661181640625,0.33072853088378906,0.18178018927574158,0.15319061279296875
1772721960451611600,11.316611572265625,0.39253997802734375,0.09406718611717224,-0.37903785705566406
1772721960461611800,11.32661181640625,0.3978264331817627,0.1191125214099884,-0.6336498260498047
1772721960471611600,11.336611572265625,0.2126607894897461,0.13668492436408997,-0.35413074493408203
1772721960481611800,11.34661181640625,0.18130946159362793,-0.01941964030265808,-0.15732288360595703
1772721960491611600,11.356611572265624,0.31278204917907715,-0.17262321710586548,-0.1177825927734375
1772721960501611800,11.36661181640625,0.3412363529205322,-0.23780271410942078,-0.07202434539794922
1772721960511611600,11.376611572265626,-0.07767963409423828,-0.34765467047691345,0.022176742553710938
1772721960521611800,11.38661181640625,-0.38533568382263184,-0.3921622931957245,0.15394306182861328
1772721960531611600,11.396611572265625,-0.39798176288604736,-0.4779323935508728,0.09855842590332031
1772721960541611800,11.40661181640625,0.06424832344055176,-0.615776777267456,-0.07855796813964844
1772721960551611600,11.416611572265625,0.33028697967529297,-0.4967997670173645,-0.3771839141845703
1772721960561611800,11.42661181640625,-0.03791165351867676,0.33772915601730347,-0.032683372497558594
1772721960571611600,11.436611572265624,-0.3788571357727051,0.4463391602039337,-0.28349876403808594
1772721960581611800,11.44661181640625,-0.5593624114990234,0.49129945039749146,-0.25815773010253906
1772721960591611600,11.456611572265626,-0.30802011489868164,0.3981670141220093,-0.5411796569824219
1772721960601611800,11.46661181640625,-0.48071885108947754,0.481044203042984,0.1612701416015625
1772721960611611600,11.476611572265625,0.1658768653869629,-0.24201416969299316,0.7899112701416016
1772721960621611800,11.48661181640625,0.28102731704711914,-0.34810978174209595,0.2483377456665039
1772721960631611600,11.496611572265625,0.3294031620025635,0.05457603931427002,-0.21601200103759766
1772721960641611800,11.50661181640625,0.2516181468963623,-0.004785865545272827,-0.09704303741455078
1772721960651611600,11.516611572265624,0.16383862495422363,-0.26440659165382385,0.020938873291015625
1772721960661611800,11.52661181640625,0.026160240173339844,-0.23548823595046997,-0.10783004760742188
1772721960671611600,11.536611572265626,0.3562612533569336,0.07010620832443237,-0.06373023986816406
1772721960681611800,11.54661181640625,-0.39623141288757324,0.37935036420822144,-0.8520965576171875
1772721960691611600,11.556611572265625,-0.6536844968795776,0.2781285047531128,0.4618406295776367
1772721960701611800,11.56661181640625,-0.22804367542266846,-0.6659623384475708,0.2534294128417969
1772721960711611600,11.576611572265625,0.08327889442443848,-0.32349348068237305,-0.2676076889038086
1772721960721611800,11.58661181640625,0.25583696365356445,0.1723547875881195,-0.3005056381225586
1772721960731611600,11.596611572265624,0.9726738929748535,0.38700070977211,-0.6263151168823242
1772721960741611800,11.60661181640625,-0.8370230197906494,-0.19916516542434692,0.45827198028564453
1772721960751611600,11.616611572265626,-0.046698808670043945,-0.24931052327156067,0.7187862396240234
1772721960761611800,11.62661181640625,0.05634284019470215,-0.12819036841392517,0.2435436248779297
1772721960771611600,11.636611572265625,-0.06768178939819336,-0.13749000430107117,-0.12677383422851562
1772721960781611800,11.64661181640625,-0.0987539291381836,0.11723461747169495,-0.17439651489257812
1772721960791611600,11.656611572265625,-0.2619314193725586,0.14613470435142517,-0.08078956604003906
1772721960801611800,11.66661181640625,-0.21742701530456543,0.1961425244808197,0.06367015838623047
1772721960811611600,11.676611572265625,-0.10390782356262207,0.2111552208662033,-0.1268472671508789
1772721960821611800,11.68661181640625,-0.02687239646911621,-0.32257622480392456,-0.254486083984375
1772721960831611600,11.696611572265626,-0.025528907775878906,-0.35262730717658997,-0.16129112243652344
1772721960841611800,11.70661181640625,-0.6602997779846191,-0.23557046055793762,-0.26937389373779297
1772721960851611600,11.716611572265625,-0.3840978145599365,-0.11710008978843689,0.10010051727294922
1772721960861611800,11.72661181640625,0.31244850158691406,0.04632747173309326,0.15826797485351562
1772721960871611600,11.736611572265625,0.23692035675048828,0.27550753951072693,-0.02245616912841797
1772721960881611800,11.74661181640625,-0.04942011833190918,0.42430850863456726,-0.3380289077758789
1772721960891611600,11.756611572265625,0.33627820014953613,0.4965364336967468,-0.5590906143188477
1772721960901611800,11.76661181640625,0.049384117126464844,0.3767535090446472,-0.7489585876464844
1772721960911611600,11.776611572265624,-0.05251622200012207,0.24445120990276337,-0.8712863922119141
1772721960921611800,11.78661181640625,0.4355769157409668,-0.19653847813606262,-0.8601388931274414
1772721960931611600,11.796611572265626,0.3352038860321045,-0.7936106324195862,-0.5145959854125977
1772721960941611800,11.80661181640625,-0.14445531368255615,-0.9017535448074341,0.242889404296875
1772721960951611600,11.816611572265625,-0.4505246877670288,-0.7181878089904785,0.9312877655029297
1772721960961611800,11.82661181640625,-0.9505515098571777,-0.37627607583999634,1.462050437927246
1772721960971611600,11.836611572265625,-1.174285888671875,-0.12419217824935913,2.2794313430786133
1772721960981611800,11.84661181640625,-1.3554604053497314,-0.3075762987136841,2.728748321533203
1772721960991611600,11.856611572265624,-1.2810325622558594,0.19960550963878632,2.264066696166992
1772721961001611800,11.86661181640625,-1.3411259651184082,1.5147199630737305,1.7047224044799805
1772721961011611600,11.876611572265626,-0.7431674003601074,0.3360540270805359,2.52738094329834
1772721961021611800,11.88661181640625,0.7957334518432617,-1.146316409111023,2.8643312454223633
1772721961031611600,11.896611572265625,1.2278859615325928,-1.6407430171966553,2.753385543823242
1772721961041611800,11.90661181640625,0.7083470821380615,-2.1976895332336426,2.1597747802734375
1772721961051611600,11.916611572265625,0.9132115840911865,-2.020482063293457,1.8727197647094727
1772721961061611800,11.92661181640625,1.746715784072876,-1.6379413604736328,1.705794334411621
1772721961071611600,11.936611572265624,2.03297758102417,-2.3062899112701416,2.0447778701782227
1772721961081611800,11.94661181640625,2.3244993686676025,-2.37069034576416,2.1664085388183594
1772721961091611600,11.956611572265626,1.5941908359527588,-2.3673229217529297,2.084012985229492
1772721961101611800,11.96661181640625,0.5394952297210693,-2.627288818359375,1.7792329788208008
1772721961111611600,11.976611572265625,-0.15584659576416016,-2.898408889770508,2.0947656631469727
1772721961121611800,11.98661181640625,-0.09378647804260254,-3.085090160369873,1.9124736785888672
1772721961131611600,11.996611572265625,0.6080539226531982,-3.1743826866149902,1.5775527954101562
1772721961141611800,12.00661181640625,0.5443487167358398,-3.5506372451782227,0.6484804153442383
1772721961151611600,12.016611572265624,-0.41381049156188965,-4.055688381195068,-0.4495553970336914
1772721961161611800,12.02661181640625,-0.6518716812133789,-4.220004081726074,-1.0621042251586914
1772721961171611600,12.036611572265626,-0.579392671585083,-4.4674224853515625,-2.2616090774536133
1772721961181611800,12.04661181640625,-0.12004256248474121,-4.809607028961182,-2.763530731201172
1772721961191611600,12.056611572265625,0.11104941368103027,-4.094746112823486,-2.4563021659851074
1772721961201611800,12.06661181640625,-0.383450984954834,-4.291313648223877,-2.792397975921631
1772721961211611600,12.076611572265625,-0.6996898651123047,-4.937363624572754,-2.8635196685791016
1772721961221611800,12.08661181640625,-0.5719301700592041,-5.348194122314453,-0.37619590759277344
1772721961231611600,12.096611572265624,-1.0013179779052734,-4.180669784545898,0.5237979888916016
1772721961241611800,12.10661181640625,-1.587364673614502,-2.331770658493042,-0.05726146697998047
1772721961251611600,12.116611572265626,-2.7429263591766357,-1.2950375080108643,0.03470897674560547
1772721961261611800,12.12661181640625,-3.4926609992980957,-0.6408510208129883,0.2929563522338867
1772721961271611600,12.136611572265625,-3.511068344116211,-0.18946099281311035,0.7294425964355469
1772721961281611800,12.14661181640625,-1.6304951906204224,0.44106030464172363,0.7802085876464844
1772721961291611600,12.156611572265625,0.0018770694732666016,1.6138920783996582,0.7748193740844727
1772721961301611800,12.16661181640625,1.3384344577789307,1.14516282081604,1.7360477447509766
1772721961311611600,12.176611572265625,3.1088387966156006,2.928255081176758,1.597060203552246
