time,seconds_elapsed,z,y,x
1772721949179860500,0.044860595703125,0.46914416551589966,0.11911863088607788,-0.14599667489528656
1772721949197206800,0.062206787109375,0.4251618981361389,-0.12278381735086441,-0.1484401375055313
1772721949214553000,0.079552978515625,0.4838049113750458,-0.5986474752426147,-0.2724456787109375
1772721949231899400,0.0968994140625,0.5632173418998718,-1.4825688600540161,-0.2706131041049957
1772721949249245700,0.11424560546875,0.6359102129936218,-2.363435745239258,-0.0409279391169548
1772721949266592000,0.131592041015625,0.7648026943206787,-2.227212905883789,0.2260199636220932
1772721949283938000,0.14893798828125,0.6444623470306396,-0.8564324378967285,0.185092031955719
1772721949301284400,0.166284423828125,0.7086031436920166,-0.4263836145401001,0.04276053607463837
1772721949318630700,0.183630615234375,0.6890554428100586,-0.4105011224746704,-0.14477495849132538
1772721949335977000,0.20097705078125,0.8032872080802917,-0.7006618976593018,-0.23212862014770508
1772721949353323300,0.2183232421875,0.9596685767173767,-1.1924080848693848,-0.1380554437637329
1772721949370669600,0.235669677734375,1.0958913564682007,-1.5375466346740723,0.2254091054201126
1772721949388015900,0.253015869140625,1.2913681268692017,-1.2382229566574097,0.7507528066635132
1772721949405362200,0.270362060546875,1.3878847360610962,-1.5051708221435547,0.8826996088027954
1772721949422708500,0.28770849609375,1.2644901275634766,-1.757457971572876,0.8918625712394714
1772721949440054800,0.3050546875,1.2156208753585815,-2.464839458465576,1.1337649822235107
1772721949457401000,0.322401123046875,1.6517783403396606,-3.257741928100586,1.3878847360610962
1772721949474747400,0.339747314453125,2.2919647693634033,-3.8747153282165527,1.3457350730895996
1772721949492093700,0.35709375,2.99751353263855,-3.546070098876953,1.4886775016784668
1772721949509440000,0.37443994140625,2.5772385597229004,-2.548527956008911,1.9107850790023804
1772721949526786300,0.391786376953125,1.518609881401062,-2.1795654296875,1.877798318862915
1772721949544132600,0.409132568359375,1.728136420249939,-1.8307617902755737,2.0109667778015137
1772721949561479000,0.42647900390625,2.1636829376220703,-1.4019346237182617,1.7171409130096436
1772721949578825200,0.4438251953125,2.748891592025757,-1.3090832233428955,1.4703515768051147
1772721949596171500,0.461171630859375,3.1691665649414062,-1.0519092082977295,1.3164136409759521
1772721949613517800,0.478517822265625,3.252855062484741,-1.451414704322815,1.3194679021835327
1772721949630864000,0.49586376953125,3.21864652633667,-1.9914191961288452,1.3671153783798218
1772721949648210200,0.513210205078125,3.3518149852752686,-2.371987819671631,1.380554437637329
1772721949665556500,0.530556396484375,3.7097818851470947,-2.587623119354248,1.398269534111023
1772721949682902800,0.54790283203125,3.880823850631714,-2.4373505115509033,1.5412118434906006
1772721949700249000,0.5652490234375,3.8624980449676514,-2.0268492698669434,1.7525711059570312
1772721949717595400,0.582595458984375,3.7042839527130127,-1.6132938861846924,1.8240422010421753
1772721949734941700,0.599941650390625,3.5527894496917725,-1.278540015220642,1.747684121131897
1772721949752288000,0.6172880859375,3.3457064628601074,-0.8075632452964783,1.563202977180481
1772721949769634300,0.63463427734375,3.1807730197906494,-0.37629270553588867,1.601076602935791
1772721949786980600,0.651980712890625,3.0219480991363525,-0.758694052696228,2.008523464202881
1772721949804327000,0.669326904296875,2.8093671798706055,-1.3518437147140503,2.497826099395752
1772721949821673200,0.686673095703125,2.7317872047424316,-1.4013237953186035,2.5741841793060303
1772721949839019500,0.70401953125,2.6590943336486816,-0.7812960743904114,2.486830472946167
1772721949856365800,0.72136572265625,2.5014913082122803,-0.6035344004631042,2.364046812057495
1772721949873712000,0.738712158203125,2.229656457901001,-0.5852084755897522,2.3536620140075684
1772721949891058400,0.756058349609375,2.061668634414673,-0.41355544328689575,1.9914191961288452
1772721949908404700,0.77340478515625,2.1532983779907227,-0.4221075773239136,1.2712095975875854
1772721949925751000,0.7907509765625,2.1325290203094482,-0.758694052696228,0.9963204264640808
1772721949943097300,0.808097412109375,1.6493349075317383,-1.1172716617584229,0.8436042666435242
1772721949960443600,0.825443603515625,1.0696241855621338,-1.2095122337341309,0.41783151030540466
1772721949977790000,0.8427900390625,0.7544180154800415,-1.3500111103057861,0.16249002516269684
1772721949995136300,0.86013623046875,0.8112284541130066,-1.8002184629440308,0.31520622968673706
1772721950012482600,0.877482666015625,0.5864301919937134,-1.981034517288208,0.6365211009979248
1772721950029828900,0.894828857421875,0.0256563201546669,-1.9584324359893799,0.7415898442268372
1772721950047175200,0.912175048828125,-0.47464191913604736,-1.119104266166687,-0.38728827238082886
1772721950064521500,0.929521484375,-0.1795942485332489,-0.9578359723091125,-1.5332705974578857
1772721950081867800,0.94686767578125,-0.3610210716724396,-2.557080030441284,-0.6365211009979248
1772721950099214000,0.964214111328125,-0.8216131329536438,-1.9889757633209229,0.15210533142089844
1772721950116560400,0.981560302734375,-0.8222240209579468,0.09590577334165573,-0.7641918659210205
1772721950133906700,0.99890673828125,-1.2315033674240112,-0.9456186890602112,-0.5955931544303894
1772721950151253000,1.0162529296875,-1.4043781757354736,-1.9926408529281616,-0.6786707639694214
1772721950168599000,1.03359912109375,-1.4624103307724,-2.140470266342163,-0.9016364216804504
1772721950185945300,1.0509453125,-1.6957606077194214,-0.6139190793037415,-1.0189224481582642
1772721950203291600,1.068291748046875,-2.212552309036255,1.1026109457015991,-0.7929024696350098
1772721950220638000,1.085637939453125,-2.736063241958618,1.4147628545761108,-0.6493492722511292
1772721950237984300,1.102984375,-2.9859070777893066,1.1184934377670288,-0.778241753578186
1772721950255330600,1.12033056640625,-2.867399215698242,0.5827649831771851,-1.5986331701278687
1772721950272676900,1.1376767578125,-1.8735222816467285,0.7776308655738831,-2.6816964149475098
1772721950290024200,1.155024169921875,-0.9217949509620667,2.5882341861724854,-2.7165157794952393
1772721950307369500,1.172369384765625,-0.22663083672523499,3.6389214992523193,-1.7776165008544922
1772721950324715800,1.1897158203125,-0.002443459117785096,3.2925610542297363,-0.5577195286750793
1772721950342062000,1.20706201171875,0.37201663851737976,1.6426154375076294,0.7538071274757385
1772721950359408400,1.224408447265625,1.2076796293258667,-0.6933315396308899,1.7782273292541504
1772721950376754700,1.241754638671875,1.6462805271148682,-0.13500112295150757,1.7305799722671509
1772721950394101000,1.25910107421875,1.9303326606750488,1.0250310897827148,1.0580178499221802
1772721950411447300,1.276447265625,1.7788382768630981,-0.39278605580329895,1.2095122337341309
1772721950428793600,1.293793701171875,1.4184280633926392,-1.4398082494735718,0.5907062292098999
1772721950446140000,1.311139892578125,1.3322961330413818,-1.045189619064331,-0.08674279600381851
1772721950463486200,1.328486328125,0.9792162179946899,0.9517273306846619,-0.45326167345046997
1772721950480832500,1.34583251953125,0.5137372612953186,0.9046907424926758,-0.6438514590263367
1772721950498178800,1.3631787109375,-0.04276053607463837,-0.17043127119541168,-0.08796452730894089
1772721950515525000,1.380525146484375,0.23029601573944092,0.35735589265823364,-0.2516762912273407
1772721950532871400,1.397871337890625,0.3341430425643921,1.026863694190979,-0.1545487940311432
1772721950550217700,1.4152177734375,0.5998691916465759,1.592524528503418,0.17287473380565643
1772721950567564000,1.43256396484375,0.759304940700531,1.3854413032531738,0.4355465769767761
1772721950584910300,1.449910400390625,0.9578359723091125,0.2932150959968567,0.5137372612953186
1772721950602256600,1.467256591796875,0.7721330523490906,-0.10506874322891235,0.39828383922576904
1772721950619603000,1.48460302734375,0.08979712426662445,-0.017104214057326317,0.3237583339214325
1772721950636949200,1.50194921875,0.24984370172023773,0.026878049597144127,0.583375871181488
1772721950654295600,1.519295654296875,0.6780598759651184,0.023823726922273636,1.1447606086730957
1772721950671641900,1.536641845703125,-0.17348559200763702,0.1545487940311432,2.372598886489868
1772721950688988200,1.55398828125,-1.0360267162322998,-0.10995566099882126,2.9327619075775146
1772721950706334200,1.571334228515625,-0.8918625712394714,-0.8863648176193237,2.184452533721924
1772721950723680500,1.588680419921875,-1.0580178499221802,-0.6029235124588013,1.1142174005508423
1772721950741026800,1.60602685546875,-1.5222749710083008,-0.08491020649671555,0.5131264328956604
1772721950758373000,1.623373046875,-0.1649334877729416,-0.5076286196708679,0.13500112295150757
1772721950775719700,1.6407197265625,0.17898337543010712,-0.21502439677715302,0.0818558782339096
1772721950793065700,1.658065673828125,0.027488915249705315,-0.12950333952903748,-0.22174391150474548
1772721950810412000,1.675412109375,-0.27855435013771057,-0.9211840629577637,-0.6438514590263367
1772721950827758300,1.69275830078125,-0.4007273018360138,-1.0189224481582642,-0.6701186895370483
1772721950845105000,1.71010498046875,-0.27427828311920166,1.163697361946106,-0.13988803327083588
1772721950862451000,1.727450927734375,-0.23029601573944092,2.654818296432495,0.02932151034474373
1772721950879797200,1.74479736328125,-0.7629700899124146,2.8295257091522217,0.6365211009979248
1772721950897143600,1.7621435546875,-0.9755510687828064,2.0720534324645996,1.1239912509918213
1772721950914489900,1.77948974609375,-0.5681042671203613,2.028071165084839,1.4617993831634521
1772721950931836200,1.796836181640625,-0.2834412455558777,-0.42088583111763,0.1954767256975174
1772721950949182500,1.814182373046875,0.04153880476951599,-0.38179048895835876,0.48075059056282043
1772721950966528800,1.83152880859375,0.35674503445625305,0.36774060130119324,0.3543015718460083
1772721950983875000,1.848875,0.2364046722650528,1.0873392820358276,0.30970844626426697
1772721951001221400,1.866221435546875,0.04886918142437935,1.1197150945663452,0.17226386070251465
1772721951018567700,1.883567626953125,-0.03237583488225937,0.535728394985199,0.09834922850131989
1772721951035914000,1.9009140625,-0.17837251722812653,0.018325943499803543,0.10873392969369888
1772721951053260300,1.91826025390625,-0.1233946830034256,-0.21502439677715302,-0.07024945318698883
1772721951070606600,1.935606689453125,-0.053145237267017365,-0.28588470816612244,-0.21319180727005005
1772721951087953000,1.952952880859375,-0.01588248461484909,-0.12583814561367035,-0.23029601573944092
1772721951105299200,1.97029931640625,-0.036651886999607086,0.0360410213470459,-0.17348559200763702
1772721951122645500,1.9876455078125,-0.053145237267017365,0.07391463965177536,-0.15699224174022675
1772721951139991800,2.00499169921875,-0.046425722539424896,0.07880155742168427,-0.13744457066059113
1772721951157338000,2.022338134765625,-0.043982263654470444,0.04886918142437935,-0.13072505593299866
1772721951174684400,2.039684326171875,-0.043982263654470444,0.01588248461484909,-0.13622283935546875
1772721951192030700,2.05703076171875,-0.024434590712189674,0.006108647678047419,-0.12644900381565094
1772721951209377000,2.074376953125,-0.013439024798572063,0.007330377586185932,-0.11484257876873016
1772721951226723300,2.091723388671875,-0.007941242307424545,-0.014049889519810677,-0.10567960888147354
1772721951244069600,2.109069580078125,-0.010995565913617611,-0.011606430634856224,-0.08918625861406326
1772721951261416000,2.126416015625,-0.017104214057326317,0.02260199747979641,-0.07269290834665298
1772721951278762200,2.14376220703125,-0.01893680728971958,0.05436696484684944,-0.06780599057674408
1772721951296108500,2.161108642578125,-0.029932374134659767,0.05742128938436508,-0.06475166976451874
1772721951313454800,2.178454833984375,-0.039706211537122726,0.05070177838206291,-0.056199558079242706
1772721951330801200,2.19580126953125,-0.053756099194288254,0.03298669680953026,-0.02871064469218254
1772721951348147500,2.2131474609375,-0.05070177838206291,0.01649334840476513,-0.006108647678047419
1772721951365493800,2.23049365234375,-0.07574722915887833,0.013439024798572063,0.004886918235570192
1772721951382840000,2.247840087890625,-0.07024945318698883,0.023823726922273636,0.05558869615197182
1772721951400186400,2.265186279296875,-0.017715077847242355,0.24373504519462585,-0.007330377586185932
1772721951417532700,2.28253271484375,0.03176496922969818,0.22846342623233795,-0.13255766034126282
1772721951434879000,2.29987890625,-0.08429934084415436,-0.08002328872680664,-0.16065743565559387
1772721951452225300,2.317225341796875,-0.0030543238390237093,-0.2889390289783478,-0.05070177838206291
1772721951469571600,2.334571533203125,0.0409279391169548,-0.04214967042207718,0.02626718580722809
1772721951486918000,2.35191796875,0.023823726922273636,0.046425722539424896,0.03848448023200035
1772721951504264200,2.36926416015625,0.017715077847242355,-0.013439024798572063,0.05558869615197182
1772721951521610500,2.386610595703125,0.017715077847242355,0.030543239787220955,0.05925388261675835
1772721951538956800,2.403956787109375,0.004276053514331579,-0.03481929376721382,0.08552107214927673
1772721951556303000,2.42130322265625,0.02260199747979641,-0.031154103577136993,0.11667517572641373
1772721951573649400,2.4386494140625,0.006719512399286032,0.053756099194288254,0.11239911615848541
1772721951590995700,2.45599560546875,-0.026878049597144127,0.04825831577181816,0.0769689604640007
1772721951608342000,2.473342041015625,-0.013439024798572063,-0.026878049597144127,0.053145237267017365
1772721951625688300,2.490688232421875,0.001832594396546483,-0.05925388261675835,0.04764745384454727
1772721951643034600,2.50803466796875,0.010995565913617611,-0.04581485688686371,0.02932151034474373
1772721951660381000,2.525380859375,0.006719512399286032,-0.037262752652168274,-0.001832594396546483
1772721951677727200,2.542727294921875,0.002443459117785096,-0.06108647957444191,-0.01954767294228077
1772721951695073500,2.560073486328125,0.003665188793092966,-0.06108647957444191,-0.017104214057326317
1772721951712419800,2.577419921875,-0.003665188793092966,-0.04764745384454727,-0.010384701192378998
1772721951729766100,2.59476611328125,-0.009162971749901772,-0.04520399495959282,-0.007941242307424545
1772721951747112400,2.612112548828125,-0.000610864779446274,-0.04764745384454727,-0.01282816007733345
1772721951764458800,2.629458740234375,0.009162971749901772,-0.046425722539424896,0
1772721951781805000,2.64680517578125,0.010995565913617611,-0.0360410213470459,0.007941242307424545
1772721951799151400,2.6641513671875,0.006108647678047419,-0.023823726922273636,0.017715077847242355
1772721951816497700,2.68149755859375,0.0030543238390237093,-0.014049889519810677,0.021991131827235222
1772721951833844000,2.698843994140625,-0.002443459117785096,-0.007330377586185932,0.028099779039621353
1772721951851190300,2.716190185546875,-0.001832594396546483,-0.0030543238390237093,0.03481929376721382
1772721951868536600,2.73353662109375,-0.004276053514331579,-0.0030543238390237093,0.036651886999607086
1772721951885883000,2.7508828125,-0.003665188793092966,-0.007330377586185932,0.03298669680953026
1772721951903229200,2.768229248046875,-0.003665188793092966,-0.0054977829568088055,0.028099779039621353
1772721951920575500,2.785575439453125,-0.004276053514331579,-0.0030543238390237093,0.0256563201546669
1772721951937921800,2.802921875,-0.0054977829568088055,-0.000610864779446274,0.024434590712189674
1772721951955268000,2.82026806640625,-0.006108647678047419,0,0.023212861269712448
1772721951972614400,2.837614501953125,-0.009162971749901772,-0.004276053514331579,0.023212861269712448
1772721951989960700,2.854960693359375,-0.006719512399286032,-0.004276053514331579,0.025045456364750862
1772721952007307000,2.87230712890625,-0.004276053514331579,-0.006108647678047419,0.02871064469218254
1772721952024653300,2.8896533203125,-0.0030543238390237093,-0.008552107028663158,0.027488915249705315
1772721952041999600,2.90699951171875,-0.002443459117785096,-0.006108647678047419,0.03298669680953026
1772721952059346000,2.924345947265625,-0.004886918235570192,-0.007941242307424545,0.03481929376721382
1772721952076692200,2.941692138671875,-0.007330377586185932,-0.010384701192378998,0.03176496922969818
1772721952094038500,2.95903857421875,-0.007330377586185932,-0.010384701192378998,0.031154103577136993
1772721952111384800,2.976384765625,-0.007941242307424545,-0.01588248461484909,0.02871064469218254
1772721952128731100,2.993731201171875,-0.007330377586185932,-0.014049889519810677,0.02626718580722809
1772721952146077400,3.011077392578125,-0.009773836471140385,-0.0054977829568088055,0.02871064469218254
1772721952163423700,3.028423828125,-0.008552107028663158,0,0.033597562462091446
1772721952180770000,3.04577001953125,-0.011606430634856224,-0.001221729558892548,0.02932151034474373
1772721952198116400,3.063116455078125,-0.010384701192378998,-0.002443459117785096,0.03298669680953026
1772721952215462700,3.080462646484375,-0.007941242307424545,0.001221729558892548,0.040317077189683914
1772721952232809000,3.09780908203125,-0.004276053514331579,-0.001832594396546483,0.04214967042207718
1772721952250155300,3.1151552734375,-0.002443459117785096,0.000610864779446274,0.043371398001909256
1772721952267501600,3.13250146484375,0.001221729558892548,0.003665188793092966,0.047036588191986084
1772721952284847900,3.149847900390625,0.002443459117785096,0.0030543238390237093,0.050090912729501724
1772721952302194200,3.167194091796875,0.0030543238390237093,-0.002443459117785096,0.05070177838206291
1772721952319540500,3.18454052734375,0.002443459117785096,-0.006108647678047419,0.04520399495959282
1772721952336886800,3.20188671875,-0.000610864779446274,0.004886918235570192,0.04214967042207718
1772721952354233000,3.219233154296875,-0.001221729558892548,0.017715077847242355,0.043982263654470444
1772721952371579400,3.236579345703125,-0.000610864779446274,0.017715077847242355,0.040317077189683914
1772721952388925700,3.25392578125,0.0054977829568088055,0.011606430634856224,0.03787361457943916
1772721952406272000,3.27127197265625,0.010995565913617611,0.007330377586185932,0.04153880476951599
1772721952423618300,3.288618408203125,0.009773836471140385,0.012217295356094837,0.04459312930703163
1772721952440964600,3.305964599609375,0.009773836471140385,0.01588248461484909,0.03848448023200035
1772721952458311000,3.323310791015625,0.004886918235570192,0.010995565913617611,0.030543239787220955
1772721952475657200,3.3406572265625,-0.001832594396546483,-0.0030543238390237093,0.027488915249705315
1772721952493003500,3.35800341796875,-0.004276053514331579,-0.0054977829568088055,0.027488915249705315
1772721952510349800,3.375349853515625,-0.006108647678047419,-0.001221729558892548,0.02260199747979641
1772721952527696100,3.392696044921875,-0.002443459117785096,0.001221729558892548,0.01954767294228077
1772721952545042400,3.41004248046875,-0.000610864779446274,0.004886918235570192,0.01649334840476513
1772721952562388700,3.427388671875,0.001832594396546483,0,0.011606430634856224
1772721952579735000,3.444735107421875,-0.000610864779446274,-0.006108647678047419,0.010384701192378998
1772721952597081300,3.462081298828125,-0.004276053514331579,-0.007941242307424545,0.006719512399286032
1772721952614427600,3.479427734375,-0.003665188793092966,-0.006108647678047419,0.01282816007733345
1772721952631774000,3.49677392578125,-0.000610864779446274,0.001832594396546483,0.014049889519810677
1772721952649120300,3.514120361328125,0.000610864779446274,-0.004276053514331579,0.010995565913617611
1772721952666466600,3.531466552734375,0.001221729558892548,-0.008552107028663158,0.010995565913617611
1772721952683812900,3.548812744140625,-0.000610864779446274,-0.000610864779446274,0.010384701192378998
1772721952701159200,3.5661591796875,-0.001221729558892548,0.000610864779446274,0.007330377586185932
1772721952718505500,3.58350537109375,0.001832594396546483,0.006108647678047419,0.008552107028663158
1772721952735851800,3.600851806640625,0.004276053514331579,0.0030543238390237093,0.009162971749901772
1772721952753198000,3.618197998046875,0.003665188793092966,0,0.007941242307424545
1772721952770544600,3.635544677734375,0.001832594396546483,-0.004886918235570192,0.0054977829568088055
1772721952787891000,3.652890869140625,-0.001221729558892548,-0.014660755172371864,0.004886918235570192
1772721952805237200,3.6702373046875,-0.002443459117785096,-0.020769402384757996,0.006719512399286032
1772721952822583600,3.68758349609375,-0.001832594396546483,-0.014049889519810677,0.006108647678047419
1772721952839929900,3.704929931640625,-0.001832594396546483,-0.010995565913617611,0.0054977829568088055
1772721952857276200,3.722276123046875,0.004276053514331579,-0.0054977829568088055,0.004886918235570192
1772721952874622500,3.73962255859375,0.010384701192378998,0.003665188793092966,0.009162971749901772
1772721952891968800,3.75696875,0.011606430634856224,0.004886918235570192,0.011606430634856224
1772721952909315000,3.774315185546875,0.007330377586185932,-0.002443459117785096,0.009773836471140385
1772721952926661400,3.791661376953125,0.003665188793092966,-0.01893680728971958,0.011606430634856224
1772721952944007700,3.809007568359375,0.001832594396546483,-0.026878049597144127,0.017104214057326317
1772721952961354000,3.82635400390625,-0.000610864779446274,-0.01649334840476513,0.021991131827235222
1772721952978700300,3.8437001953125,0.001832594396546483,-0.007941242307424545,0.0256563201546669
1772721952996046600,3.861046630859375,0.009162971749901772,0.001221729558892548,0.0256563201546669
1772721953013393000,3.878392822265625,0.014049889519810677,0.001221729558892548,0.02626718580722809
1772721953030739200,3.8957392578125,0.017715077847242355,-0.000610864779446274,0.028099779039621353
1772721953048085500,3.91308544921875,0.01649334840476513,-0.009162971749901772,0.03298669680953026
1772721953065431800,3.930431884765625,0.01282816007733345,-0.020769402384757996,0.037262752652168274
1772721953082778000,3.947778076171875,0.010995565913617611,-0.024434590712189674,0.05070177838206291
1772721953100124400,3.96512451171875,0.014660755172371864,-0.008552107028663158,0.06597339361906052
1772721953117470700,3.982470703125,0.026878049597144127,0.014660755172371864,0.07819069176912308
1772721953134817000,3.999817138671875,0.04764745384454727,0.056810423731803894,0.0873536616563797
1772721953152163300,4.017163330078125,0.059864748269319534,0.0818558782339096,0.08857539296150208
1772721953169509600,4.034509521484375,0.06230820715427399,0.09346231073141098,0.08429934084415436
1772721953186856000,4.05185595703125,0.047036588191986084,0.08979712426662445,0.07147117704153061
1772721953204202200,4.0692021484375,0.034208428114652634,0.05497783049941063,0.053145237267017365
1772721953221548500,4.086548583984375,0.026878049597144127,0.02626718580722809,0.03298669680953026
1772721953238894800,4.103894775390625,0.020769402384757996,0.008552107028663158,0.013439024798572063
1772721953256241200,4.1212412109375,0.01893680728971958,0.020769402384757996,-0.004886918235570192
1772721953273587500,4.13858740234375,0.020158538594841957,0.03543015569448471,-0.021991131827235222
1772721953290933800,4.155933837890625,0.01954767294228077,0.040317077189683914,-0.037262752652168274
1772721953308280000,4.173280029296875,0.010995565913617611,0.029932374134659767,-0.04886918142437935
1772721953325626400,4.19062646484375,0.001832594396546483,0.01588248461484909,-0.053145237267017365
1772721953342972700,4.20797265625,-0.004886918235570192,-0.000610864779446274,-0.0513126403093338
1772721953360319000,4.225319091796875,-0.009162971749901772,-0.009162971749901772,-0.04520399495959282
1772721953377665300,4.242665283203125,-0.012217295356094837,-0.0054977829568088055,-0.03298669680953026
1772721953395011600,4.260011474609375,-0.009162971749901772,0.008552107028663158,-0.023212861269712448
1772721953412358000,4.27735791015625,-0.002443459117785096,0.01649334840476513,-0.018325943499803543
1772721953429704200,4.2947041015625,-0.001832594396546483,0.023212861269712448,-0.006108647678047419
1772721953447050800,4.31205078125,-0.001221729558892548,0.0256563201546669,0.000610864779446274
1772721953464396800,4.329396728515625,0.000610864779446274,0.025045456364750862,0.004886918235570192
1772721953481743000,4.3467431640625,0.001832594396546483,0.023823726922273636,0.012217295356094837
1772721953499089400,4.36408935546875,0.0030543238390237093,0.026878049597144127,0.021380268037319183
1772721953516436000,4.38143603515625,0.009162971749901772,0.039706211537122726,0.02871064469218254
1772721953533782300,4.3987822265625,0.014660755172371864,0.0513126403093338,0.02626718580722809
1772721953551128600,4.416128662109375,0.014660755172371864,0.05497783049941063,0.01893680728971958
1772721953568475000,4.433474853515625,0.011606430634856224,0.056199558079242706,0.008552107028663158
1772721953585821200,4.4508212890625,0.002443459117785096,0.05436696484684944,-0.001832594396546483
1772721953603167500,4.46816748046875,-0.011606430634856224,0.043371398001909256,-0.001832594396546483
1772721953620513800,4.485513671875,-0.020158538594841957,0.027488915249705315,-0.000610864779446274
1772721953637860000,4.502860107421875,-0.020158538594841957,0.013439024798572063,-0.003665188793092966
1772721953655206400,4.520206298828125,-0.010384701192378998,0.012217295356094837,-0.0030543238390237093
1772721953672552700,4.537552734375,0.000610864779446274,0.017104214057326317,-0.0030543238390237093
1772721953689899000,4.55489892578125,0.0054977829568088055,0.014660755172371864,-0.002443459117785096
1772721953707245300,4.572245361328125,0.007330377586185932,0.008552107028663158,-0.006108647678047419
1772721953724591600,4.589591552734375,0.004276053514331579,-0.001221729558892548,-0.012217295356094837
1772721953741938000,4.60693798828125,-0.004276053514331579,-0.017104214057326317,-0.010995565913617611
1772721953759284200,4.6242841796875,-0.010384701192378998,-0.0360410213470459,-0.006719512399286032
1772721953776630500,4.641630615234375,-0.014660755172371864,-0.04825831577181816,0.004276053514331579
1772721953793976800,4.658976806640625,-0.010995565913617611,-0.04764745384454727,0.010384701192378998
1772721953811323100,4.6763232421875,0.001832594396546483,-0.024434590712189674,0.017715077847242355
1772721953828669400,4.69366943359375,0.011606430634856224,0.000610864779446274,0.026878049597144127
1772721953846015700,4.711015625,0.020158538594841957,0.0054977829568088055,0.03543015569448471
1772721953863362000,4.728362060546875,0.01954767294228077,-0.001221729558892548,0.040317077189683914
1772721953880708400,4.745708251953125,0.014660755172371864,-0.009162971749901772,0.03909534588456154
1772721953898054700,4.7630546875,0.009773836471140385,-0.014660755172371864,0.03787361457943916
1772721953915401000,4.78040087890625,0.007941242307424545,-0.01282816007733345,0.033597562462091446
1772721953932747300,4.797747314453125,0.007330377586185932,-0.020769402384757996,0.029932374134659767
1772721953950093800,4.81509375,0.007330377586185932,-0.02260199747979641,0.02626718580722809
1772721953967440100,4.832440185546875,0.011606430634856224,-0.018325943499803543,0.020158538594841957
1772721953984786200,4.8497861328125,0.015271619893610477,-0.020158538594841957,0.009773836471140385
1772721954002132500,4.867132568359375,0.014049889519810677,-0.028099779039621353,0.0030543238390237093
1772721954019479000,4.88447900390625,0.003665188793092966,-0.04276053607463837,-0.0030543238390237093
1772721954036825300,4.901825439453125,-0.0030543238390237093,-0.05253437161445618,-0.002443459117785096
1772721954054171600,4.919171630859375,-0.008552107028663158,-0.07086031138896942,-0.006108647678047419
1772721954071518000,4.93651806640625,-0.007941242307424545,-0.06597339361906052,-0.001221729558892548
1772721954088864300,4.9538642578125,0.001221729558892548,-0.05253437161445618,0.0054977829568088055
1772721954106210600,4.97121044921875,0.009162971749901772,-0.02871064469218254,0.01282816007733345
1772721954123556900,4.988556884765625,0.014049889519810677,-0.021380268037319183,0.017104214057326317
1772721954140903200,5.005903076171875,0.012217295356094837,-0.03237583488225937,0.01588248461484909
1772721954158249500,5.02324951171875,0.004886918235570192,-0.04276053607463837,0.013439024798572063
1772721954175595800,5.040595703125,-0.002443459117785096,-0.04520399495959282,0.01588248461484909
1772721954192942000,5.057942138671875,-0.0030543238390237093,-0.036651886999607086,0.023212861269712448
1772721954210288400,5.075288330078125,0.000610864779446274,-0.026878049597144127,0.02626718580722809
1772721954227634700,5.092634765625,0.004886918235570192,-0.01893680728971958,0.028099779039621353
1772721954244981000,5.10998095703125,0.004276053514331579,-0.017715077847242355,0.024434590712189674
1772721954262327300,5.127327392578125,0.000610864779446274,-0.023212861269712448,0.021380268037319183
1772721954279673600,5.144673583984375,-0.004276053514331579,-0.03848448023200035,0.01588248461484909
1772721954297020000,5.16202001953125,-0.009162971749901772,-0.03909534588456154,0.015271619893610477
1772721954314366200,5.1793662109375,-0.012217295356094837,-0.036651886999607086,0.015271619893610477
1772721954331712500,5.19671240234375,-0.009773836471140385,-0.031154103577136993,0.014660755172371864
1772721954349058800,5.214058837890625,-0.003665188793092966,-0.020158538594841957,0.011606430634856224
1772721954366405000,5.231405029296875,0,-0.01649334840476513,0.010384701192378998
1772721954383751700,5.248751708984375,-0.0030543238390237093,-0.023823726922273636,0.006719512399286032
1772721954401098000,5.266097900390625,-0.007330377586185932,-0.03848448023200035,0.003665188793092966
1772721954418444300,5.2834443359375,-0.012217295356094837,-0.04520399495959282,0.001221729558892548
1772721954435790600,5.30079052734375,-0.014660755172371864,-0.04276053607463837,0.0054977829568088055
1772721954453137000,5.318136962890625,-0.011606430634856224,-0.030543239787220955,0.008552107028663158
1772721954470483200,5.335483154296875,-0.008552107028663158,-0.01588248461484909,0.007941242307424545
1772721954487829500,5.35282958984375,-0.006108647678047419,-0.011606430634856224,0.003665188793092966
1772721954505175800,5.37017578125,-0.0030543238390237093,-0.007941242307424545,0.000610864779446274
1772721954522522000,5.387522216796875,-0.004276053514331579,-0.011606430634856224,-0.000610864779446274
1772721954539868400,5.404868408203125,-0.009162971749901772,-0.01282816007733345,0.000610864779446274
1772721954557214700,5.422214599609375,-0.014049889519810677,-0.01893680728971958,0.003665188793092966
1772721954574561000,5.43956103515625,-0.013439024798572063,-0.020158538594841957,0.014049889519810677
1772721954591907300,5.4569072265625,-0.008552107028663158,-0.009162971749901772,0.01893680728971958
1772721954609253600,5.474253662109375,-0.002443459117785096,0.004276053514331579,0.021380268037319183
1772721954626600000,5.491599853515625,0.003665188793092966,0.01893680728971958,0.027488915249705315
1772721954643946200,5.5089462890625,0.010384701192378998,0.03298669680953026,0.033597562462091446
1772721954661292500,5.52629248046875,0.009773836471140385,0.033597562462091446,0.031154103577136993
1772721954678638800,5.543638916015625,0.0030543238390237093,0.013439024798572063,0.025045456364750862
1772721954695985200,5.560985107421875,-0.001221729558892548,-0.0030543238390237093,0.021991131827235222
1772721954713331500,5.57833154296875,-0.001832594396546483,-0.006719512399286032,0.023823726922273636
1772721954730677800,5.595677734375,-0.001221729558892548,-0.000610864779446274,0.026878049597144127
1772721954748024000,5.613024169921875,0.000610864779446274,0,0.023823726922273636
1772721954765370400,5.630370361328125,0.001832594396546483,0.000610864779446274,0.020769402384757996
1772721954782717000,5.647717041015625,0.000610864779446274,0.007330377586185932,0.023823726922273636
1772721954800063200,5.665063232421875,0.000610864779446274,0.01649334840476513,0.02871064469218254
1772721954817409500,5.682409423828125,-0.001832594396546483,0.020158538594841957,0.029932374134659767
1772721954834755800,5.699755859375,-0.003665188793092966,0.008552107028663158,0.02871064469218254
1772721954852102100,5.71710205078125,-0.004276053514331579,-0.000610864779446274,0.024434590712189674
1772721954869448400,5.734448486328125,0.001832594396546483,0.001221729558892548,0.01893680728971958
1772721954886794800,5.751794677734375,0.0054977829568088055,0.01588248461484909,0.021991131827235222
1772721954904141000,5.76914111328125,0.008552107028663158,0.03909534588456154,0.029932374134659767
1772721954921487400,5.7864873046875,0.003665188793092966,0.04764745384454727,0.034208428114652634
1772721954938833700,5.803833740234375,-0.001832594396546483,0.031154103577136993,0.031154103577136993
1772721954956180000,5.821179931640625,-0.007330377586185932,0.001221729558892548,0.023823726922273636
1772721954973526300,5.8385263671875,-0.003665188793092966,-0.01282816007733345,0.020158538594841957
1772721954990872600,5.85587255859375,0.003665188793092966,0.000610864779446274,0.031154103577136993
1772721955008219000,5.873218994140625,0.010995565913617611,0.023823726922273636,0.04276053607463837
1772721955025565200,5.890565185546875,0.014049889519810677,0.040317077189683914,0.046425722539424896
1772721955042911500,5.907911376953125,0.014049889519810677,0.03543015569448471,0.047036588191986084
1772721955060257800,5.9252578125,0.01282816007733345,0.0256563201546669,0.04214967042207718
1772721955077604000,5.94260400390625,0.006719512399286032,0.002443459117785096,0.039706211537122726
1772721955094950400,5.959950439453125,0.001832594396546483,-0.008552107028663158,0.04214967042207718
1772721955112296700,5.977296630859375,0.002443459117785096,0,0.04459312930703163
1772721955129643300,5.994643310546875,0.009773836471140385,0.017104214057326317,0.04581485688686371
1772721955146989600,6.011989501953125,0.01954767294228077,0.029932374134659767,0.043371398001909256
1772721955164335900,6.0293359375,0.024434590712189674,0.03787361457943916,0.0360410213470459
1772721955181682200,6.04668212890625,0.023823726922273636,0.031154103577136993,0.029932374134659767
1772721955199028500,6.064028564453125,0.018325943499803543,0.01282816007733345,0.023212861269712448
1772721955216374800,6.081374755859375,0.007330377586185932,-0.021991131827235222,0.01649334840476513
1772721955233721000,6.09872119140625,0,-0.03543015569448471,0.010995565913617611
1772721955251067400,6.1160673828125,-0.000610864779446274,-0.02871064469218254,0.009162971749901772
1772721955268413700,6.13341357421875,0,-0.014049889519810677,0.006108647678047419
1772721955285760000,6.150760009765625,0.003665188793092966,-0.000610864779446274,0.004886918235570192
1772721955303106300,6.168106201171875,0.012217295356094837,0.010995565913617611,0.001221729558892548
1772721955320452600,6.18545263671875,0.015271619893610477,0.01649334840476513,0.003665188793092966
1772721955337799000,6.202798828125,0.008552107028663158,0.006108647678047419,0.003665188793092966
1772721955355145200,6.220145263671875,-0.001221729558892548,-0.01282816007733345,0.002443459117785096
1772721955372491500,6.237491455078125,-0.0054977829568088055,-0.020769402384757996,0.003665188793092966
1772721955389838000,6.254838134765625,-0.002443459117785096,-0.015271619893610477,0.007330377586185932
1772721955407184100,6.27218408203125,0.001832594396546483,-0.006719512399286032,0.0054977829568088055
1772721955424530700,6.28953076171875,0.009162971749901772,0,0.001832594396546483
1772721955441877000,6.306876953125,0.014660755172371864,0.007330377586185932,-0.004886918235570192
1772721955459223300,6.324223388671875,0.01893680728971958,0.013439024798572063,-0.010995565913617611
1772721955476569600,6.341569580078125,0.014660755172371864,0.009162971749901772,-0.014049889519810677
1772721955493916000,6.358916015625,0.004886918235570192,-0.011606430634856224,-0.012217295356094837
1772721955511262200,6.37626220703125,-0.000610864779446274,-0.01893680728971958,-0.006108647678047419
1772721955528608500,6.3936083984375,-0.003665188793092966,-0.01649334840476513,0.001221729558892548
1772721955545954800,6.410954833984375,0,0,0.0054977829568088055
1772721955563301000,6.428301025390625,0.006108647678047419,0.008552107028663158,0.003665188793092966
1772721955580647400,6.4456474609375,0.010995565913617611,0.010995565913617611,0.001832594396546483
1772721955597993700,6.46299365234375,0.008552107028663158,0.008552107028663158,0.0054977829568088055
1772721955615340000,6.480340087890625,0.002443459117785096,0.001832594396546483,0.013439024798572063
1772721955632686300,6.497686279296875,-0.001221729558892548,-0.010995565913617611,0.01954767294228077
1772721955650032600,6.51503271484375,0,-0.007330377586185932,0.02626718580722809
1772721955667379000,6.53237890625,0.003665188793092966,0.003665188793092966,0.031154103577136993
1772721955684725200,6.549725341796875,0.006719512399286032,0.014049889519810677,0.03481929376721382
1772721955702071600,6.567071533203125,0.007941242307424545,0.021380268037319183,0.036651886999607086
1772721955719418000,6.584418212890625,0.001832594396546483,0.01649334840476513,0.039706211537122726
1772721955736764400,6.601764404296875,-0.004276053514331579,0.006108647678047419,0.039706211537122726
1772721955754110700,6.61911083984375,-0.01282816007733345,-0.014049889519810677,0.037262752652168274
1772721955771457000,6.63645703125,-0.01282816007733345,-0.014660755172371864,0.03787361457943916
1772721955788803300,6.65380322265625,-0.010384701192378998,-0.006108647678047419,0.0360410213470459
1772721955806149600,6.671149658203125,-0.003665188793092966,0.007330377586185932,0.02932151034474373
1772721955823496000,6.688495849609375,0.001832594396546483,0.01954767294228077,0.023823726922273636
1772721955840842200,6.70584228515625,0.003665188793092966,0.024434590712189674,0.017715077847242355
1772721955858188500,6.7231884765625,-0.0030543238390237093,0.010995565913617611,0.010384701192378998
1772721955875534800,6.740534912109375,-0.014660755172371864,-0.015271619893610477,0.0030543238390237093
1772721955892881200,6.757881103515625,-0.0256563201546669,-0.03298669680953026,0.003665188793092966
1772721955910227500,6.7752275390625,-0.02932151034474373,-0.029932374134659767,0.0054977829568088055
1772721955927573800,6.79257373046875,-0.021991131827235222,-0.010384701192378998,0.010384701192378998
1772721955944920000,6.809920166015625,-0.010384701192378998,0.009773836471140385,0.004886918235570192
1772721955962266400,6.827266357421875,-0.004886918235570192,0.023212861269712448,0.007330377586185932
1772721955979613000,6.844613037109375,-0.004276053514331579,0.01893680728971958,0.006108647678047419
1772721955996959200,6.861959228515625,-0.003665188793092966,0.014049889519810677,0.009773836471140385
1772721956014305500,6.879305419921875,-0.004886918235570192,0.0054977829568088055,0.007941242307424545
1772721956031651800,6.89665185546875,-0.008552107028663158,-0.000610864779446274,0.009162971749901772
1772721956048998100,6.913998046875,-0.010995565913617611,-0.0054977829568088055,0.011606430634856224
1772721956066344400,6.931344482421875,-0.009773836471140385,-0.003665188793092966,0.012217295356094837
1772721956083690800,6.948690673828125,-0.0054977829568088055,0.002443459117785096,0.01588248461484909
1772721956101037000,6.966037109375,-0.000610864779446274,0.01282816007733345,0.015271619893610477
1772721956118383400,6.98338330078125,0.001221729558892548,0.021991131827235222,0.014049889519810677
1772721956135729700,7.000729736328125,0.003665188793092966,0.020769402384757996,0.01282816007733345
1772721956153076000,7.018075927734375,0.001221729558892548,0.010995565913617611,0.010995565913617611
1772721956170422300,7.03542236328125,-0.0030543238390237093,0.003665188793092966,0.009773836471140385
1772721956187768600,7.0527685546875,-0.006108647678047419,-0.001221729558892548,0.004276053514331579
1772721956205115000,7.070114990234375,-0.003665188793092966,0.002443459117785096,0.001832594396546483
1772721956222461200,7.087461181640625,0.000610864779446274,0.012217295356094837,0
1772721956239807500,7.104807373046875,0,0.011606430634856224,-0.001221729558892548
1772721956257153800,7.12215380859375,-0.0030543238390237093,0.002443459117785096,-0.002443459117785096
1772721956274500400,7.139500244140625,-0.006108647678047419,-0.000610864779446274,-0.001832594396546483
1772721956291846700,7.1568466796875,-0.010384701192378998,-0.004886918235570192,0.006108647678047419
1772721956309193000,7.17419287109375,-0.009773836471140385,-0.011606430634856224,0.007941242307424545
1772721956326539300,7.191539306640625,-0.006108647678047419,-0.012217295356094837,0.009773836471140385
1772721956343885600,7.208885498046875,-0.000610864779446274,-0.004276053514331579,0.009162971749901772
1772721956361232000,7.22623193359375,0.006108647678047419,0.007330377586185932,0.007941242307424545
1772721956378578200,7.243578125,0.012217295356094837,0.017715077847242355,0.009162971749901772
1772721956395924500,7.260924560546875,0.015271619893610477,0.02260199747979641,0.012217295356094837
1772721956413270800,7.278270751953125,0.011606430634856224,0.014049889519810677,0.01649334840476513
1772721956430617000,7.2956171875,0,-0.014049889519810677,0.017104214057326317
1772721956447963400,7.31296337890625,-0.0054977829568088055,-0.033597562462091446,0.017715077847242355
1772721956465309700,7.330309814453125,-0.006108647678047419,-0.033597562462091446,0.017715077847242355
1772721956482656000,7.347656005859375,-0.001221729558892548,-0.01893680728971958,0.017104214057326317
1772721956500002300,7.365002197265625,0.004276053514331579,-0.01282816007733345,0.017104214057326317
1772721956517348600,7.3823486328125,0.007330377586185932,-0.01588248461484909,0.01588248461484909
1772721956534695200,7.399695068359375,0.007941242307424545,-0.02626718580722809,0.017104214057326317
1772721956552041500,7.41704150390625,0.0054977829568088055,-0.03848448023200035,0.017104214057326317
1772721956569387800,7.4343876953125,-0.001832594396546483,-0.047036588191986084,0.01649334840476513
1772721956586734000,7.451734130859375,-0.007330377586185932,-0.05497783049941063,0.017104214057326317
1772721956604080400,7.469080322265625,-0.010995565913617611,-0.056199558079242706,0.01893680728971958
1772721956621426700,7.4864267578125,-0.010995565913617611,-0.05436696484684944,0.018325943499803543
1772721956638773000,7.50377294921875,-0.007941242307424545,-0.05070177838206291,0.01649334840476513
1772721956656119300,7.521119384765625,-0.006108647678047419,-0.049480047076940536,0.014660755172371864
1772721956673465600,7.538465576171875,-0.007330377586185932,-0.056810423731803894,0.011606430634856224
1772721956690812000,7.55581201171875,-0.004276053514331579,-0.06414080411195755,0.010384701192378998
1772721956708158200,7.573158203125,-0.002443459117785096,-0.06475166976451874,0.009162971749901772
1772721956725504500,7.59050439453125,-0.003665188793092966,-0.0616973415017128,0.008552107028663158
1772721956742850800,7.607850830078125,-0.006108647678047419,-0.05497783049941063,0.010384701192378998
1772721956760197000,7.625197021484375,-0.004276053514331579,-0.04764745384454727,0.014049889519810677
1772721956777543400,7.64254345703125,0.0030543238390237093,-0.026878049597144127,0.01954767294228077
1772721956794890000,7.659889892578125,0.010995565913617611,-0.007941242307424545,0.023823726922273636
1772721956812236300,7.677236328125,0.014049889519810677,-0.006719512399286032,0.023823726922273636
1772721956829582600,7.69458251953125,0.009773836471140385,-0.015271619893610477,0.021991131827235222
1772721956846929000,7.711928955078125,0.002443459117785096,-0.031154103577136993,0.020158538594841957
1772721956864275200,7.729275146484375,-0.007330377586185932,-0.0409279391169548,0.025045456364750862
1772721956881621500,7.74662158203125,-0.009162971749901772,-0.05070177838206291,0.0256563201546669
1772721956898967800,7.7639677734375,-0.006719512399286032,-0.05192350596189499,0.025045456364750862
1772721956916314000,7.781314208984375,0.001832594396546483,-0.03176496922969818,0.029932374134659767
1772721956933660400,7.798660400390625,0.010384701192378998,-0.01282816007733345,0.02932151034474373
1772721956951006700,7.8160068359375,0.01282816007733345,-0.004886918235570192,0.025045456364750862
1772721956968353000,7.83335302734375,0.010384701192378998,-0.010995565913617611,0.021991131827235222
1772721956985699300,7.85069921875,0.003665188793092966,-0.025045456364750862,0.017104214057326317
1772721957003045600,7.868045654296875,-0.002443459117785096,-0.03543015569448471,0.01649334840476513
1772721957020392000,7.885391845703125,-0.004276053514331579,-0.03543015569448471,0.01893680728971958
1772721957037738500,7.902738525390625,-0.002443459117785096,-0.02871064469218254,0.01954767294228077
1772721957055084800,7.920084716796875,0.004886918235570192,-0.006108647678047419,0.021380268037319183
1772721957072431000,7.93743115234375,0.010384701192378998,0.003665188793092966,0.025045456364750862
1772721957089777400,7.95477734375,0.008552107028663158,-0.007941242307424545,0.020769402384757996
1772721957107123700,7.972123779296875,0.0030543238390237093,-0.023212861269712448,0.01588248461484909
1772721957124470000,7.989469970703125,0,-0.028099779039621353,0.020158538594841957
1772721957141816300,8.00681640625,0.0030543238390237093,-0.018325943499803543,0.02260199747979641
1772721957159162600,8.02416259765625,0.009162971749901772,-0.004886918235570192,0.024434590712189674
1772721957176509000,8.041509033203125,0.015271619893610477,-0.001221729558892548,0.021380268037319183
1772721957193855200,8.058855224609376,0.014660755172371864,0,0.015271619893610477
1772721957211201500,8.076201416015625,0.012217295356094837,-0.004886918235570192,0.007330377586185932
1772721957228547800,8.0935478515625,0.006108647678047419,-0.01588248461484909,0.006719512399286032
1772721957245894100,8.11089404296875,-0.001832594396546483,-0.017715077847242355,0.003665188793092966
1772721957263240400,8.128240478515625,-0.0030543238390237093,-0.020158538594841957,0.003665188793092966
1772721957280586800,8.145586669921874,0.0054977829568088055,-0.004276053514331579,0.007941242307424545
1772721957297933300,8.162933349609375,0.010384701192378998,0.010995565913617611,0.007330377586185932
1772721957315279600,8.180279541015626,0.011606430634856224,0.009162971749901772,0.006108647678047419
1772721957332626000,8.1976259765625,0.008552107028663158,-0.008552107028663158,-0.000610864779446274
1772721957349972200,8.21497216796875,0.003665188793092966,-0.021991131827235222,0
1772721957367318500,8.232318603515624,-0.001221729558892548,-0.027488915249705315,0.004276053514331579
1772721957384664800,8.249664794921875,-0.003665188793092966,-0.023212861269712448,0.012217295356094837
1772721957402011100,8.26701123046875,0.003665188793092966,-0.013439024798572063,0.013439024798572063
1772721957419357400,8.284357421875,0.012217295356094837,0.0030543238390237093,0.01893680728971958
1772721957436703700,8.301703857421876,0.01588248461484909,0.008552107028663158,0.01954767294228077
1772721957454050000,8.319050048828124,0.014049889519810677,-0.004276053514331579,0.013439024798572063
1772721957471396400,8.336396240234375,0.007941242307424545,-0.017104214057326317,0.009162971749901772
1772721957488742700,8.35374267578125,0.002443459117785096,-0.020158538594841957,0.014660755172371864
1772721957506089000,8.3710888671875,-0.002443459117785096,-0.01893680728971958,0.01893680728971958
1772721957523435500,8.388435546875,-0.000610864779446274,-0.013439024798572063,0.025045456364750862
1772721957540781800,8.40578173828125,0.006719512399286032,0,0.025045456364750862
1772721957558128000,8.423128173828125,0.01282816007733345,0.006719512399286032,0.021991131827235222
1772721957575474400,8.440474365234374,0.014660755172371864,-0.001221729558892548,0.01588248461484909
1772721957592820700,8.45782080078125,0.009773836471140385,-0.013439024798572063,0.013439024798572063
1772721957610167000,8.4751669921875,0.001221729558892548,-0.02260199747979641,0.015271619893610477
1772721957627513300,8.492513427734375,-0.0054977829568088055,-0.02626718580722809,0.017715077847242355
1772721957644859600,8.509859619140625,-0.006108647678047419,-0.026878049597144127,0.021380268037319183
1772721957662206000,8.5272060546875,-0.001832594396546483,-0.014660755172371864,0.023212861269712448
1772721957679552300,8.54455224609375,0.002443459117785096,-0.009162971749901772,0.025045456364750862
1772721957696898600,8.561898681640624,0.006108647678047419,-0.010384701192378998,0.024434590712189674
1772721957714244900,8.579244873046875,0.006108647678047419,-0.017104214057326317,0.025045456364750862
1772721957731591400,8.59659130859375,0.006108647678047419,-0.01649334840476513,0.03237583488225937
1772721957748937700,8.613937744140625,0.004886918235570192,-0.010995565913617611,0.04581485688686371
1772721957766284000,8.631283935546875,0.004276053514331579,-0.009773836471140385,0.056810423731803894
1772721957783630300,8.64863037109375,-0.000610864779446274,-0.015271619893610477,0.05925388261675835
1772721957800976600,8.6659765625,-0.006108647678047419,-0.02260199747979641,0.05925388261675835
1772721957818323000,8.683322998046876,-0.004886918235570192,-0.01588248461484909,0.056810423731803894
1772721957835669200,8.700669189453125,-0.003665188793092966,-0.002443459117785096,0.056199558079242706
1772721957853015600,8.718015625,0.002443459117785096,-0.004276053514331579,0.056199558079242706
1772721957870361900,8.73536181640625,0.014049889519810677,0.002443459117785096,0.05192350596189499
1772721957887708200,8.752708251953125,0.021991131827235222,0.018325943499803543,0.046425722539424896
1772721957905054500,8.770054443359374,0.023212861269712448,0.029932374134659767,0.04459312930703163
1772721957922400800,8.78740087890625,0.018325943499803543,0.024434590712189674,0.039706211537122726
1772721957939747000,8.8047470703125,0.013439024798572063,0.020158538594841957,0.03176496922969818
1772721957957093400,8.82209326171875,0.010995565913617611,0.008552107028663158,0.026878049597144127
1772721957974439700,8.839439697265625,0.009773836471140385,0.007330377586185932,0.020769402384757996
1772721957991786200,8.8567861328125,0.009773836471140385,0.009773836471140385,0.017715077847242355
1772721958009132500,8.874132568359375,0.007941242307424545,0.004276053514331579,0.01282816007733345
1772721958026478800,8.891478759765626,0.0054977829568088055,-0.003665188793092966,0.004886918235570192
1772721958043825200,8.9088251953125,0.007330377586185932,0.001221729558892548,0.001832594396546483
1772721958061171500,8.92617138671875,0.006108647678047419,-0.0030543238390237093,0.0030543238390237093
1772721958078517800,8.943517822265624,0.009162971749901772,-0.000610864779446274,0.007330377586185932
1772721958095864000,8.960864013671875,0.014660755172371864,0.01588248461484909,0.013439024798572063
1772721958113210400,8.97821044921875,0.017104214057326317,0.021991131827235222,0.014049889519810677
1772721958130556700,8.995556640625,0.014049889519810677,0.011606430634856224,0.014049889519810677
1772721958147903000,9.012903076171876,0.008552107028663158,-0.001221729558892548,0.014049889519810677
1772721958165249300,9.030249267578125,0.007330377586185932,-0.009773836471140385,0.017715077847242355
1772721958182595600,9.047595703125,0.006719512399286032,-0.008552107028663158,0.021380268037319183
1772721958199942100,9.064942138671874,0.010384701192378998,-0.002443459117785096,0.025045456364750862
1772721958217288400,9.082288330078125,0.01588248461484909,0.006719512399286032,0.029932374134659767
1772721958234634800,9.099634765625,0.020769402384757996,0.013439024798572063,0.028099779039621353
1772721958251981000,9.11698095703125,0.024434590712189674,0.012217295356094837,0.024434590712189674
1772721958269327400,9.134327392578125,0.01893680728971958,0.004276053514331579,0.023212861269712448
1772721958286673700,9.151673583984374,0.011606430634856224,-0.010995565913617611,0.023212861269712448
1772721958304020000,9.16902001953125,0.0054977829568088055,-0.017104214057326317,0.021380268037319183
1772721958321366300,9.1863662109375,0,-0.025045456364750862,0.023823726922273636
1772721958338712600,9.203712646484375,0.0030543238390237093,-0.021380268037319183,0.0256563201546669
1772721958356059000,9.221058837890626,0.01282816007733345,-0.001832594396546483,0.02260199747979641
1772721958373405200,9.2384052734375,0.017715077847242355,0.0054977829568088055,0.011606430634856224
1772721958390751500,9.25575146484375,0.015271619893610477,-0.014049889519810677,-0.006108647678047419
1772721958408097800,9.273097900390624,0.001832594396546483,-0.034208428114652634,-0.013439024798572063
1772721958425444000,9.290444091796875,-0.011606430634856224,-0.043982263654470444,-0.018325943499803543
1772721958442790700,9.307790771484376,-0.017715077847242355,-0.05192350596189499,-0.02626718580722809
1772721958460137000,9.325136962890625,-0.010995565913617611,-0.05070177838206291,-0.043982263654470444
1772721958477483300,9.342483154296875,0.000610864779446274,-0.043982263654470444,-0.06047561392188072
1772721958494829600,9.35982958984375,0.007941242307424545,-0.046425722539424896,-0.07269290834665298
1772721958512175900,9.37717578125,0.010384701192378998,-0.040317077189683914,-0.0665842592716217
1772721958529522200,9.394522216796876,0.009162971749901772,-0.01954767294228077,-0.053145237267017365
1772721958546868500,9.411868408203125,0.000610864779446274,0.000610864779446274,-0.04214967042207718
1772721958564214800,9.42921484375,-0.002443459117785096,-0.028099779039621353,-0.043371398001909256
1772721958581561000,9.44656103515625,-0.004276053514331579,-0.0360410213470459,-0.04581485688686371
1772721958598907400,9.463907470703125,-0.004276053514331579,-0.021991131827235222,-0.039706211537122726
1772721958616253700,9.481253662109374,0.004886918235570192,-0.030543239787220955,-0.015271619893610477
1772721958633600000,9.49860009765625,0.015271619893610477,-0.002443459117785096,-0.000610864779446274
1772721958650946300,9.5159462890625,0.025045456364750862,0.014660755172371864,0.008552107028663158
1772721958668292900,9.53329296875,0.0256563201546669,0.018325943499803543,0.006719512399286032
1772721958685639200,9.55063916015625,0.01954767294228077,0.010384701192378998,0.006108647678047419
1772721958702985500,9.5679853515625,0.010384701192378998,0.0030543238390237093,0.0054977829568088055
1772721958720331800,9.585331787109375,0.0030543238390237093,-0.014660755172371864,0.001832594396546483
1772721958737678000,9.602677978515626,0.002443459117785096,-0.021991131827235222,-0.000610864779446274
1772721958755024400,9.6200244140625,0.006719512399286032,-0.017104214057326317,-0.009162971749901772
1772721958772370700,9.63737060546875,0.014049889519810677,0.010384701192378998,-0.02260199747979641
1772721958789717000,9.654717041015624,0.013439024798572063,-0.004886918235570192,-0.02260199747979641
1772721958807063300,9.672063232421875,0.009773836471140385,0.004276053514331579,-0.011606430634856224
1772721958824409600,9.68940966796875,-0.006719512399286032,0.001832594396546483,-0.006108647678047419
1772721958841756000,9.706755859375,-0.013439024798572063,-0.01282816007733345,-0.0054977829568088055
1772721958859102500,9.7241025390625,-0.01282816007733345,-0.021380268037319183,0
1772721958876448800,9.74144873046875,-0.0054977829568088055,-0.013439024798572063,0.009162971749901772
1772721958893795000,9.758795166015625,0.003665188793092966,-0.0054977829568088055,0.010384701192378998
1772721958911141400,9.776141357421874,0.001221729558892548,-0.023823726922273636,0.014660755172371864
1772721958928487700,9.79348779296875,0.007330377586185932,-0.027488915249705315,0.01893680728971958
1772721958945834000,9.810833984375,0.007941242307424545,-0.03176496922969818,0.021991131827235222
1772721958963180300,9.82818017578125,0.014049889519810677,-0.021991131827235222,0.018325943499803543
1772721958980526600,9.845526611328125,0.014660755172371864,-0.01282816007733345,0.014660755172371864
1772721958997873000,9.862872802734374,0.008552107028663158,-0.0256563201546669,0.015271619893610477
1772721959015219200,9.88021923828125,0.007941242307424545,-0.029932374134659767,0.020769402384757996
1772721959032565500,9.8975654296875,0.027488915249705315,-0.01649334840476513,0.010384701192378998
1772721959049911800,9.914911865234375,0.03237583488225937,-0.027488915249705315,0.010384701192378998
1772721959067258000,9.932258056640626,0.030543239787220955,-0.003665188793092966,0.014049889519810677
1772721959084604400,9.9496044921875,0.013439024798572063,-0.01588248461484909,0.043982263654470444
1772721959101951000,9.966950927734375,0.006108647678047419,0.023212861269712448,0.0665842592716217
1772721959119297300,9.98429736328125,0.012217295356094837,0.004276053514331579,0.04276053607463837
1772721959136643600,10.0016435546875,0.017715077847242355,-0.03909534588456154,0.011606430634856224
1772721959153990000,10.018989990234376,0.023823726922273636,-0.03787361457943916,0
1772721959171336200,10.036336181640625,0.028099779039621353,-0.009773836471140385,-0.004886918235570192
1772721959188682500,10.0536826171875,0.031154103577136993,-0.010384701192378998,-0.015271619893610477
1772721959206028800,10.07102880859375,0.0256563201546669,-0.013439024798572063,-0.026878049597144127
1772721959223375000,10.088375,0.03298669680953026,-0.006108647678047419,-0.03909534588456154
1772721959240721400,10.105721435546876,0.04764745384454727,0.008552107028663158,-0.040317077189683914
1772721959258067700,10.123067626953125,0.046425722539424896,-0.013439024798572063,-0.047036588191986084
1772721959275414000,10.1404140625,0.07024945318698883,0,-0.08429934084415436
1772721959292760300,10.15776025390625,0.05558869615197182,-0.0769689604640007,-0.09834922850131989
1772721959310106600,10.175106689453125,0.11423171311616898,0.007330377586185932,-0.08063415437936783
1772721959327453200,10.192453125,0.1747073233127594,0.1637117564678192,-0.01588248461484909
1772721959344799500,10.209799560546875,0.2211330533027649,0.22479823231697083,0.020158538594841957
1772721959362145800,10.227145751953126,0.13500112295150757,0.20341797173023224,0.003665188793092966
1772721959379492000,10.2444921875,0.014049889519810677,0.10018182545900345,0.025045456364750862
1772721959396838400,10.26183837890625,-0.07880155742168427,-0.0054977829568088055,0.034208428114652634
1772721959414184700,10.279184814453124,-0.09651663154363632,-0.015271619893610477,0.023823726922273636
1772721959431531000,10.296531005859375,-0.037262752652168274,-0.018325943499803543,0.020158538594841957
1772721959448877300,10.313877197265626,0.021991131827235222,0.007330377586185932,0.018325943499803543
1772721959466223600,10.3312236328125,0.001832594396546483,0.02626718580722809,0.02932151034474373
1772721959483570000,10.34856982421875,-0.0054977829568088055,-0.009773836471140385,0.04520399495959282
1772721959500916200,10.365916259765624,0.008552107028663158,-0.014660755172371864,0.037262752652168274
1772721959518262800,10.3832626953125,0.010384701192378998,-0.009773836471140385,0.040317077189683914
1772721959535608800,10.40060888671875,0.009773836471140385,-0.0030543238390237093,0.05864302068948746
1772721959552955100,10.417955078125,-0.006108647678047419,0.028099779039621353,0.06780599057674408
1772721959570301700,10.4353017578125,-0.02932151034474373,0.043982263654470444,0.059864748269319534
1772721959587648000,10.45264794921875,-0.034208428114652634,0.028099779039621353,0.06230820715427399
1772721959604994300,10.469994384765625,-0.020158538594841957,0.056810423731803894,0.03848448023200035
1772721959622340600,10.487340576171874,-0.012217295356094837,0.053145237267017365,0.03176496922969818
1772721959639687000,10.50468701171875,-0.017715077847242355,0.012217295356094837,0.04886918142437935
1772721959657033200,10.522033203125,-0.036651886999607086,-0.01588248461484909,0.0616973415017128
1772721959674379500,10.539379638671875,-0.04764745384454727,-0.02260199747979641,0.08002328872680664
1772721959691725800,10.556725830078125,-0.05070177838206291,-0.001832594396546483,0.09040798991918564
1772721959709072100,10.574072021484374,-0.04581485688686371,0.03481929376721382,0.08124501258134842
1772721959726418400,10.59141845703125,-0.03848448023200035,0.040317077189683914,0.06841685622930527
1772721959743764700,10.6087646484375,-0.043982263654470444,0.01588248461484909,0.053145237267017365
1772721959761111300,10.626111328125,-0.03237583488225937,-0.004276053514331579,0.053145237267017365
1772721959778457600,10.64345751953125,-0.006719512399286032,0.0054977829568088055,0.06719512492418289
1772721959795804000,10.660803955078125,0.001221729558892548,0.021991131827235222,0.0824667438864708
1772721959813150200,10.678150146484375,-0.02626718580722809,0.043982263654470444,0.0616973415017128
1772721959830496500,10.69549658203125,-0.049480047076940536,0.05192350596189499,0.02871064469218254
1772721959847842800,10.7128427734375,-0.05742128938436508,-0.007330377586185932,0.018325943499803543
1772721959865189000,10.730189208984376,-0.03176496922969818,-0.03298669680953026,0.02871064469218254
1772721959882535400,10.747535400390625,-0.010995565913617611,0.001832594396546483,0.031154103577136993
1772721959899881700,10.7648818359375,-0.0030543238390237093,0.043982263654470444,0.049480047076940536
1772721959917228000,10.78222802734375,-0.009162971749901772,0.09162971377372742,0.06475166976451874
1772721959934574300,10.79957421875,-0.01649334840476513,0.07757982611656189,0.08857539296150208
1772721959951921000,10.8169208984375,-0.04581485688686371,0.017104214057326317,0.12156209349632263
1772721959969267200,10.83426708984375,-0.07147117704153061,-0.0256563201546669,0.17226386070251465
1772721959986613500,10.851613525390626,-0.08491020649671555,-0.003665188793092966,0.23884813487529755
1772721960003959800,10.868959716796875,-0.06291907280683517,0.06841685622930527,0.2889390289783478
1772721960021306000,10.88630615234375,-0.06291907280683517,0.2107483446598053,0.2767217457294464
1772721960038652400,10.90365234375,-0.06352993845939636,0.2730565667152405,0.24312418699264526
1772721960055998700,10.920998779296875,-0.06536252796649933,0.19364413619041443,0.2260199636220932
1772721960073345000,10.938344970703126,-0.05070177838206291,0.09468404203653336,0.19181154668331146
1772721960090691300,10.95569140625,-0.025045456364750862,-0.049480047076940536,0.21258094906806946
1772721960108037600,10.97303759765625,-0.011606430634856224,-0.04153880476951599,0.21807873249053955
1772721960125384200,10.99038427734375,0.007330377586185932,0.07635809481143951,0.21319180727005005
1772721960142730200,11.007730224609375,0.026878049597144127,0.1441640853881836,0.21685700118541718
1772721960160076500,11.02507666015625,-0.01588248461484909,0.2315177470445633,0.18631376326084137
1772721960177423000,11.042423095703125,-0.07819069176912308,0.13194678723812103,0.17837251722812653
1772721960194769400,11.059769287109376,-0.12461641430854797,-0.08063415437936783,0.20952661335468292
1772721960212115700,11.07711572265625,-0.13683371245861053,-0.18387030065059662,0.21258094906806946
1772721960229462000,11.0944619140625,-0.10995566099882126,-0.23029601573944092,0.22663083672523499
1772721960246808300,11.111808349609374,-0.05070177838206291,-0.12156209349632263,0.22785256803035736
1772721960264154600,11.129154541015625,-0.010384701192378998,-0.04214967042207718,0.20769402384757996
1772721960281501000,11.1465009765625,-0.12034036219120026,0.18325942754745483,0.17898337543010712
1772721960298847200,11.16384716796875,-0.06291907280683517,0.06902772188186646,0.19669845700263977
1772721960316193500,11.181193603515625,-0.06108647957444191,0.20830489695072174,0.1081230640411377
1772721960333539800,11.198539794921874,0.03848448023200035,-0.010384701192378998,0.12644900381565094
1772721960350886100,11.21588623046875,-0.030543239787220955,0.25045454502105713,0.029932374134659767
1772721960368232400,11.233232421875,-0.03298669680953026,0.25045454502105713,0.02626718580722809
1772721960385579000,11.2505791015625,-0.04764745384454727,-0.015271619893610477,0.03298669680953026
1772721960402925300,11.26792529296875,-0.030543239787220955,-0.11545344442129135,0.020158538594841957
1772721960420271600,11.285271728515625,0.01954767294228077,-0.056810423731803894,-0.05803215503692627
1772721960437618000,11.302617919921875,0.053756099194288254,-0.029932374134659767,-0.17226386070251465
1772721960454964200,11.319964111328124,0.04459312930703163,-0.15515965223312378,-0.22724169492721558
1772721960472310500,11.337310546875,0.04214967042207718,-0.2883281707763672,-0.21319180727005005
1772721960489656800,11.35465673828125,0.02871064469218254,-0.3970620930194855,-0.17653992772102356
1772721960507003100,11.372003173828125,0.008552107028663158,-0.46975502371788025,-0.06963858753442764
1772721960524349400,11.389349365234375,0,-0.24006985127925873,-0.12156209349632263
1772721960541695700,11.40669580078125,-0.06536252796649933,-0.11667517572641373,-0.1740964651107788
1772721960559042000,11.4240419921875,-0.10751219838857651,-0.2370155304670334,-0.04520399495959282
1772721960576388600,11.441388671875,-0.06230820715427399,-0.2608392536640167,-0.049480047076940536
1772721960593735000,11.45873486328125,0.011606430634856224,-0.3237583339214325,-0.07330377399921417
1772721960611081200,11.476081298828126,0.08307760953903198,-0.14477495849132538,-0.0873536616563797
1772721960628427500,11.493427490234374,0.06108647957444191,-0.1802051067352295,-0.04825831577181816
1772721960645773800,11.51077392578125,0.06230820715427399,-0.21441353857517242,-0.09834922850131989
1772721960663120100,11.5281201171875,0.049480047076940536,-0.15638138353824615,-0.12705987691879272
1772721960680466400,11.545466552734375,0.029932374134659767,-0.389120876789093,0.04214967042207718
1772721960697812700,11.562812744140626,0.056810423731803894,-0.0824667438864708,-0.11056652665138245
1772721960715159000,11.580158935546875,-0.027488915249705315,-0.1178968995809555,-0.03176496922969818
1772721960732505300,11.59750537109375,-0.040317077189683914,-0.26878049969673157,0.10506874322891235
1772721960749851600,11.6148515625,-0.006719512399286032,0.011606430634856224,-0.12644900381565094
1772721960767198000,11.632197998046875,0.009773836471140385,0.036651886999607086,-0.07941242307424545
1772721960784544300,11.649544189453126,-0.014660755172371864,-0.018325943499803543,-0.06780599057674408
1772721960801890600,11.666890625,-0.007330377586185932,0.05192350596189499,-0.07574722915887833
1772721960819237000,11.684237060546875,-0.000610864779446274,0.18570289015769958,0.13072505593299866
1772721960836583400,11.70158349609375,-0.039706211537122726,0.020769402384757996,0.33169957995414734
1772721960853929700,11.7189296875,-0.11056652665138245,0.49602219462394714,0.2626718580722809
1772721960871276000,11.736276123046874,-0.07880155742168427,0.30115634202957153,0.18570289015769958
1772721960888622300,11.753622314453125,-0.11911863088607788,0.1185077652335167,0.08368847519159317
1772721960905968600,11.77096875,-0.17104214429855347,-0.1747073233127594,0.03176496922969818
1772721960923315000,11.78831494140625,-0.18570289015769958,-0.3084867000579834,-0.03237583488225937
1772721960940661200,11.8056611328125,-0.13439024984836578,-0.34147340059280396,-0.07269290834665298
1772721960958007600,11.823007568359374,-0.17592905461788177,0.2205221801996231,-0.036651886999607086
1772721960975353900,11.840353759765625,0.0818558782339096,0.7660244107246399,0.13927717506885529
1772721960992700400,11.857700439453126,0.5082395076751709,1.3292417526245117,0.30054548382759094
1772721961010046700,11.875046630859375,1.2143992185592651,1.2980875968933105,0.07391463965177536
1772721961027393000,11.89239306640625,1.255937933921814,0.3451386094093323,-0.4471530318260193
1772721961044739300,11.9097392578125,0.861319363117218,-0.12950333952903748,-0.7043271064758301
1772721961062085600,11.927085693359375,0.7189878225326538,-0.30604326725006104,-0.6359102129936218
1772721961079432000,11.944431884765624,0.6921098232269287,-0.7330377101898193,-0.401949018239975
1772721961096778200,11.9617783203125,0.6365211009979248,-1.0091485977172852,-0.2626718580722809
1772721961114124500,11.97912451171875,0.5400044918060303,-0.3329212963581085,-0.6017017960548401
1772721961131470800,11.996470947265625,0.39278605580329895,0.3194822669029236,-0.6731730103492737
1772721961148817200,12.013817138671875,0.5247328281402588,0.6743947267532349,-0.7812960743904114
1772721961166163700,12.031163818359374,0.6780598759651184,1.1948515176773071,-1.0861176252365112
1772721961183510000,12.048510009765625,1.056185245513916,1.2834268808364868,-1.1270455121994019
1772721961200856300,12.065856201171876,1.3078614473342896,1.1465932130813599,-1.1508692502975464
1772721961218202600,12.08320263671875,1.7892229557037354,0.6792816519737244,-1.1954623460769653
1772721961235549000,12.100548828125,1.64872407913208,0.37140578031539917,-1.1410953998565674
1772721961252895200,12.117895263671874,1.525940179824829,-0.043371398001909256,-1.4856231212615967
1772721961270241500,12.135241455078125,1.450192928314209,-0.33108872175216675,-2.168570041656494
1772721961287587800,12.152587890625,1.489288330078125,-0.6444623470306396,-2.3988659381866455
1772721961304934100,12.16993408203125,1.4159845113754272,-1.4062107801437378,-2.160017967224121
1772721961322280400,12.187280517578126,1.553429126739502,-1.9535455703735352,-1.489288330078125
1772721961339626800,12.204626708984375,1.5943571329116821,-2.394589900970459,-1.0360267162322998
1772721961356973000,12.22197314453125,1.0952805280685425,-2.142913579940796,-1.194240689277649
1772721961374319600,12.239319580078124,-0.33597561717033386,0.34636032581329346,-3.556454658508301
1772721961391666000,12.256666015625,-2.167959213256836,0.9792162179946899,-4.390895843505859
1772721961409012200,12.27401220703125,-3.1593925952911377,0.7751874327659607,-3.739103317260742
1772721961426358500,12.291358642578125,-3.067762851715088,0.42882707715034485,-2.3658792972564697
1772721961443704800,12.308704833984375,-2.7427828311920166,-0.5748237371444702,-0.8576541543006897
1772721961461051100,12.326051025390624,-3.266294002532959,-1.6908737421035767,-0.20341797173023224
1772721961478397400,12.3433974609375,-4.7763519287109375,-2.014021158218384,-0.48441576957702637
1772721961495743700,12.36074365234375,-6.612611293792725,-0.5430588126182556,-1.6047418117523193
1772721961513090000,12.378090087890625,-7.743932723999023,2.1105377674102783,-2.9639158248901367
1772721961530436400,12.395436279296876,-8.155044555664062,3.9095346927642822,-3.3212718963623047
1772721961547782700,12.41278271484375,-8.161153793334961,4.200306415557861,-2.9376487731933594
1772721961565129200,12.430129150390625,-8.062804222106934,3.2950046062469482,-2.8344125747680664
1772721961582475500,12.4474755859375,-7.849612236022949,2.4880521297454834,-3.316995859146118
1772721961599821800,12.46482177734375,-7.0371623039245605,3.5949392318725586,-4.199695587158203
1772721961617168100,12.482168212890626,-5.739685535430908,5.217396259307861,-4.638906955718994
1772721961634514400,12.499514404296875,-4.787958145141602,5.746405124664307,-4.433656692504883
1772721961651860700,12.51686083984375,-4.4159417152404785,4.826442718505859,-4.089739799499512
1772721961669207000,12.53420703125,-4.520399570465088,3.657858371734619,-3.741546869277954
1772721961686553300,12.55155322265625,-4.00177526473999,2.7012441158294678,-3.360978126525879
1772721961703899600,12.568899658203126,-3.1337363719940186,2.3701553344726562,-2.768439292907715
1772721961721246000,12.586245849609375,-2.3237295150756836,2.0696098804473877,-1.8026620149612427
1772721961738592300,12.60359228515625,-1.6914845705032349,1.3261874914169312,-0.9217949509620667
1772721961755938800,12.620938720703125,-1.2626575231552124,1.1948515176773071,-0.5235111117362976
1772721961773285000,12.63828515625,-1.0219768285751343,0.8998038172721863,-0.5497782826423645
1772721961790631400,12.65563134765625,-0.5589412450790405,-0.017104214057326317,-0.22907429933547974
1772721961807977700,12.672977783203125,0.034208428114652634,-0.31154105067253113,-0.08857539296150208
1772721961825324000,12.690323974609376,0.10384701192378998,-0.3225366175174713,0.27366742491722107
1772721961842670300,12.70767041015625,0.10629047453403473,-0.12156209349632263,1.4648537635803223
1772721961860016600,12.7250166015625,0.06841685622930527,-0.46608981490135193,2.6444337368011475
1772721961877363000,12.742363037109374,0.1081230640411377,-1.416595458984375,3.020115375518799
1772721961894709200,12.759709228515625,0.2987128794193268,-2.35305118560791,2.2791364192962646
1772721961912055600,12.7770556640625,0.5351175665855408,-1.8613049983978271,1.1239912509918213
1772721961929401900,12.79440185546875,0.5595521330833435,0.012217295356094837,0.07941242307424545
1772721961946748200,12.811748046875,0.4361574649810791,1.9394956827163696,-0.5992583632469177
1772721961964094500,12.829094482421874,0.07086031138896942,1.8741331100463867,-1.1038326025009155
1772721961981441000,12.84644091796875,-0.3799578845500946,0.6236929297447205,-1.1575887203216553
1772721961998787300,12.863787353515624,-0.545502245426178,0.6609556674957275,-0.6548470258712769
1772721962016133600,12.881133544921875,-0.28466299176216125,1.3933825492858887,-0.337808221578598
1772721962033480000,12.89847998046875,0.12644900381565094,1.6029092073440552,-0.17898337543010712
1772721962050826200,12.915826171875,0.14233149588108063,1.2168426513671875,-0.06597339361906052
1772721962068172500,12.933172607421875,-0.06597339361906052,0.7086031436920166,0.28527384996414185
1772721962085518800,12.950518798828124,-0.21135921776294708,0.3231474757194519,0.685390293598175
1772721962102865200,12.967865234375,-0.12644900381565094,0.12461641430854797,0.7525854110717773
1772721962120211500,12.98521142578125,0.1490510106086731,0.17898337543010712,0.555276095867157
1772721962137557800,13.002557861328125,0.26022839546203613,0.40255987644195557,0.29565855860710144
1772721962154904000,13.019904052734375,0.1490510106086731,0.5687150955200195,0.25961753726005554
1772721962172250400,13.03725048828125,0.031154103577136993,0.5131264328956604,0.32620179653167725
1772721962189597000,13.054596923828125,-0.02932151034474373,0.5137372612953186,0.34697118401527405
1772721962206943200,13.071943115234374,-0.004276053514331579,0.5308414697647095,0.2516762912273407
1772721962224289500,13.08928955078125,0.06963858753442764,0.4459312856197357,0.2003636509180069
1772721962241635800,13.1066357421875,0.08613193035125732,0.3451386094093323,0.2974911332130432
1772721962258982100,13.123982177734375,0.07880155742168427,0.37690356373786926,0.31459537148475647
1772721962276328400,13.141328369140625,0.07452550530433655,0.4972439408302307,0.33658650517463684
1772721962293674800,13.1586748046875,0.03909534588456154,0.12461641430854797,0.3298669755458832
1772721962311021000,13.17602099609375,0.1288924664258957,-0.06108647957444191,0.2669478952884674
1772721962328367400,13.193367431640626,0.09346231073141098,0.11972949653863907,0.11178825795650482
1772721962345713700,13.210713623046875,-0.1386663019657135,0.4001164436340332,0.13683371245861053
