time,seconds_elapsed,z,y,x
1772721949179860500,0.044860595703125,0.46715885400772095,0.12812888622283936,-0.16126830875873566
1772721949197206800,0.062206787109375,0.4231765866279602,-0.11377356201410294,-0.1637117564678192
1772721949214553000,0.079552978515625,0.48181959986686707,-0.5896372199058533,-0.2877173125743866
1772721949231899400,0.0968994140625,0.5612320303916931,-1.4735585451126099,-0.28588470816612244
1772721949249245700,0.11424560546875,0.6339249014854431,-2.3544256687164307,-0.056199558079242706
1772721949266592000,0.131592041015625,0.7628173828125,-2.218202829360962,0.2107483446598053
1772721949283938000,0.14893798828125,0.6424770355224609,-0.847422182559967,0.1698204129934311
1772721949301284400,0.166284423828125,0.7066178321838379,-0.4173733592033386,0.027488915249705315
1772721949318630700,0.183630615234375,0.6870701313018799,-0.40149086713790894,-0.16004657745361328
1772721949335977000,0.20097705078125,0.801301896572113,-0.6916516423225403,-0.24740023910999298
1772721949353323300,0.2183232421875,0.957683265209198,-1.1833977699279785,-0.1533270627260208
1772721949370669600,0.235669677734375,1.093906044960022,-1.5285364389419556,0.2101374864578247
1772721949388015900,0.253015869140625,1.289382815361023,-1.2292126417160034,0.7354812026023865
1772721949405362200,0.270362060546875,1.3858994245529175,-1.4961605072021484,0.8674280047416687
1772721949422708500,0.28770849609375,1.2625048160552979,-1.7484476566314697,0.8765909671783447
1772721949440054800,0.3050546875,1.2136355638504028,-2.45582914352417,1.1184934377670288
1772721949457401000,0.322401123046875,1.649793028831482,-3.2487316131591797,1.3726131916046143
1772721949474747400,0.339747314453125,2.2899794578552246,-3.8657050132751465,1.3304635286331177
1772721949492093700,0.35709375,2.995528221130371,-3.537059783935547,1.4734058380126953
1772721949509440000,0.37443994140625,2.5752532482147217,-2.539517641067505,1.8955134153366089
1772721949526786300,0.391786376953125,1.5166245698928833,-2.170555353164673,1.8625266551971436
1772721949544132600,0.409132568359375,1.7261511087417603,-1.8217514753341675,1.9956952333450317
1772721949561479000,0.42647900390625,2.1616976261138916,-1.392924427986145,1.701869249343872
1772721949578825200,0.4438251953125,2.746906280517578,-1.3000729084014893,1.4550799131393433
1772721949596171500,0.461171630859375,3.1671812534332275,-1.0428988933563232,1.3011419773101807
1772721949613517800,0.478517822265625,3.2508697509765625,-1.4424045085906982,1.3041963577270508
1772721949630864000,0.49586376953125,3.216661214828491,-1.982408881187439,1.3518437147140503
1772721949648210200,0.513210205078125,3.34982967376709,-2.3629777431488037,1.3652827739715576
1772721949665556500,0.530556396484375,3.707796573638916,-2.578613042831421,1.3829978704452515
1772721949682902800,0.54790283203125,3.878838539123535,-2.428340196609497,1.525940179824829
1772721949700249000,0.5652490234375,3.8605127334594727,-2.017839193344116,1.7372994422912598
1772721949717595400,0.582595458984375,3.702298641204834,-1.6042835712432861,1.8087706565856934
1772721949734941700,0.599941650390625,3.5508041381835938,-1.2695297002792358,1.7324124574661255
1772721949752288000,0.6172880859375,3.3437211513519287,-0.7985529899597168,1.5479313135147095
1772721949769634300,0.63463427734375,3.1787877082824707,-0.3672824501991272,1.5858049392700195
1772721949786980600,0.651980712890625,3.019962787628174,-0.7496837973594666,1.9932518005371094
1772721949804327000,0.669326904296875,2.8073818683624268,-1.3428335189819336,2.4825544357299805
1772721949821673200,0.686673095703125,2.729801893234253,-1.3923135995864868,2.558912515640259
1772721949839019500,0.70401953125,2.657109022140503,-0.7722858190536499,2.4715588092803955
1772721949856365800,0.72136572265625,2.4995059967041016,-0.5945241451263428,2.3487751483917236
1772721949873712000,0.738712158203125,2.2276711463928223,-0.5761982202529907,2.338390350341797
1772721949891058400,0.756058349609375,2.059683322906494,-0.4045451879501343,1.9761475324630737
1772721949908404700,0.77340478515625,2.151313066482544,-0.4130973219871521,1.255937933921814
1772721949925751000,0.7907509765625,2.1305437088012695,-0.7496837973594666,0.9810488224029541
1772721949943097300,0.808097412109375,1.6473495960235596,-1.1082614660263062,0.8283326625823975
1772721949960443600,0.825443603515625,1.067638874053955,-1.2005020380020142,0.40255987644195557
1772721949977790000,0.8427900390625,0.7524327039718628,-1.3410009145736694,0.14721840620040894
1772721949995136300,0.86013623046875,0.8092431426048279,-1.791208267211914,0.29993459582328796
1772721950012482600,0.877482666015625,0.5844448804855347,-1.9720242023468018,0.6212494969367981
1772721950029828900,0.894828857421875,0.02367101050913334,-1.9494222402572632,0.7263182401657104
1772721950047175200,0.912175048828125,-0.4766272306442261,-1.1100940704345703,-0.40255987644195557
1772721950064521500,0.929521484375,-0.1815795600414276,-0.9488257169723511,-1.5485422611236572
1772721950081867800,0.94686767578125,-0.3630063831806183,-2.548069715499878,-0.6517927050590515
1772721950099214000,0.964214111328125,-0.8235984444618225,-1.9799654483795166,0.13683371245861053
1772721950116560400,0.981560302734375,-0.8242093324661255,0.1049160286784172,-0.7794634699821472
1772721950133906700,0.99890673828125,-1.23348867893219,-0.9366084337234497,-0.6108647584915161
1772721950151253000,1.0162529296875,-1.4063634872436523,-1.983630657196045,-0.6939423680305481
1772721950168599000,1.03359912109375,-1.4643956422805786,-2.131459951400757,-0.9169080257415771
1772721950185945300,1.0509453125,-1.6977459192276,-0.60490882396698,-1.0341941118240356
1772721950203291600,1.068291748046875,-2.2145376205444336,1.1116211414337158,-0.8081740736961365
1772721950220638000,1.085637939453125,-2.738048553466797,1.4237730503082275,-0.6646208763122559
1772721950237984300,1.102984375,-2.9878923892974854,1.1275036334991455,-0.7935133576393127
1772721950255330600,1.12033056640625,-2.869384527206421,0.5917752385139465,-1.6139047145843506
1772721950272676900,1.1376767578125,-1.8755075931549072,0.7866411209106445,-2.6969680786132812
1772721950290024200,1.155024169921875,-0.9237802624702454,2.5972442626953125,-2.7317872047424316
1772721950307369500,1.172369384765625,-0.2286161482334137,3.6479318141937256,-1.7928881645202637
1772721950324715800,1.1897158203125,-0.004428769461810589,3.3015713691711426,-0.5729911923408508
1772721950342062000,1.20706201171875,0.37003132700920105,1.651625633239746,0.7385355234146118
1772721950359408400,1.224408447265625,1.205694317817688,-0.6843212842941284,1.7629557847976685
1772721950376754700,1.241754638671875,1.6442952156066895,-0.1259908676147461,1.7153083086013794
1772721950394101000,1.25910107421875,1.9283473491668701,1.034041404724121,1.0427461862564087
1772721950411447300,1.276447265625,1.7768529653549194,-0.3837758004665375,1.194240689277649
1772721950428793600,1.293793701171875,1.4164427518844604,-1.430798053741455,0.5754346251487732
1772721950446140000,1.311139892578125,1.3303108215332031,-1.0361794233322144,-0.10201441496610641
1772721950463486200,1.328486328125,0.9772309064865112,0.9607375860214233,-0.4685332775115967
1772721950480832500,1.34583251953125,0.5117519497871399,0.9137009978294373,-0.6591231226921082
1772721950498178800,1.3631787109375,-0.04474584385752678,-0.1614210158586502,-0.10323614627122879
1772721950515525000,1.380525146484375,0.2283107042312622,0.3663661479949951,-0.2669478952884674
1772721950532871400,1.397871337890625,0.3321577310562134,1.0358740091323853,-0.1698204129934311
1772721950550217700,1.4152177734375,0.5978838801383972,1.6015347242355347,0.15760311484336853
1772721950567564000,1.43256396484375,0.7573196291923523,1.39445161819458,0.4202749729156494
1772721950584910300,1.449910400390625,0.9558506608009338,0.30222535133361816,0.4984656572341919
1772721950602256600,1.467256591796875,0.7701478004455566,-0.09605848789215088,0.38301220536231995
1772721950619603000,1.48460302734375,0.08781181275844574,-0.008093958720564842,0.3084867000579834
1772721950636949200,1.50194921875,0.24785839021205902,0.03588830679655075,0.5681042671203613
1772721950654295600,1.519295654296875,0.6760746240615845,0.03283398225903511,1.1294889450073242
1772721950671641900,1.536641845703125,-0.17547090351581573,0.16355904936790466,2.3573272228240967
1772721950688988200,1.55398828125,-1.0380120277404785,-0.10094540566205978,2.917490243911743
1772721950706334200,1.571334228515625,-0.8938478827476501,-0.8773545622825623,2.1691808700561523
1772721950723680500,1.588680419921875,-1.0600031614303589,-0.5939132571220398,1.0989457368850708
1772721950741026800,1.60602685546875,-1.5242602825164795,-0.07589995115995407,0.4978547990322113
1772721950758373000,1.623373046875,-0.1669187992811203,-0.49861836433410645,0.11972949653863907
1772721950775719700,1.6407197265625,0.1769980639219284,-0.20601414144039154,0.0665842592716217
1772721950793065700,1.658065673828125,0.025503603741526604,-0.1204930767416954,-0.2370155304670334
1772721950810412000,1.675412109375,-0.2805396616458893,-0.9121738076210022,-0.6591231226921082
1772721950827758300,1.69275830078125,-0.4027126133441925,-1.0099122524261475,-0.685390293598175
1772721950845105000,1.71010498046875,-0.27626359462738037,1.1727076768875122,-0.15515965223312378
1772721950862451000,1.727450927734375,-0.23228132724761963,2.6638286113739014,0.014049889519810677
1772721950879797200,1.74479736328125,-0.7649554014205933,2.838536024093628,0.6212494969367981
1772721950897143600,1.7621435546875,-0.9775363802909851,2.0810635089874268,1.1087195873260498
1772721950914489900,1.77948974609375,-0.57008957862854,2.037081241607666,1.4465278387069702
1772721950931836200,1.796836181640625,-0.2854265570640564,-0.41187557578086853,0.1802051067352295
1772721950949182500,1.814182373046875,0.03955349326133728,-0.3727802336215973,0.46547895669937134
1772721950966528800,1.83152880859375,0.35475972294807434,0.3767508566379547,0.3390299379825592
1772721950983875000,1.848875,0.23441936075687408,1.0963495969772339,0.29443681240081787
1772721951001221400,1.866221435546875,0.046883873641490936,1.1287254095077515,0.15699224174022675
1772721951018567700,1.883567626953125,-0.03436114266514778,0.5447386503219604,0.08307760953903198
1772721951035914000,1.9009140625,-0.18035782873630524,0.027336198836565018,0.09346231073141098
1772721951053260300,1.91826025390625,-0.1253799945116043,-0.20601414144039154,-0.08552107214927673
1772721951070606600,1.935606689453125,-0.05513054504990578,-0.27687445282936096,-0.22846342623233795
1772721951087953000,1.952952880859375,-0.017867794260382652,-0.11682789027690887,-0.24556763470172882
1772721951105299200,1.97029931640625,-0.0386371985077858,0.04505127668380737,-0.18875721096992493
1772721951122645500,1.9876455078125,-0.05513054504990578,0.08292489498853683,-0.17226386070251465
1772721951139991800,2.00499169921875,-0.04841103404760361,0.08781181275844574,-0.15271618962287903
1772721951157338000,2.022338134765625,-0.045967575162649155,0.05787943676114082,-0.14599667489528656
1772721951174684400,2.039684326171875,-0.045967575162649155,0.024892739951610565,-0.15149445831775665
1772721951192030700,2.05703076171875,-0.026419902220368385,0.01511890348047018,-0.14172062277793884
1772721951209377000,2.074376953125,-0.0154243353754282,0.016340631991624832,-0.13011419773101807
1772721951226723300,2.091723388671875,-0.009926552884280682,-0.005039634648710489,-0.12095122784376144
1772721951244069600,2.109069580078125,-0.012980876490473747,-0.0025961752980947495,-0.10445787757635117
1772721951261416000,2.126416015625,-0.01908952370285988,0.031612250953912735,-0.08796452730894089
1772721951278762200,2.14376220703125,-0.020922118797898293,0.06337722390890121,-0.08307760953903198
1772721951296108500,2.161108642578125,-0.03191768378019333,0.06643154472112656,-0.08002328872680664
1772721951313454800,2.178454833984375,-0.04169152304530144,0.05971203371882439,-0.07147117704153061
1772721951330801200,2.19580126953125,-0.055741410702466965,0.04199695214629173,-0.043982263654470444
1772721951348147500,2.2131474609375,-0.052687086164951324,0.025503603741526604,-0.021380268037319183
1772721951365493800,2.23049365234375,-0.07773254066705704,0.022449281066656113,-0.010384701192378998
1772721951382840000,2.247840087890625,-0.07223475724458694,0.03283398225903511,0.040317077189683914
1772721951400186400,2.265186279296875,-0.019700389355421066,0.25274530053138733,-0.02260199747979641
1772721951417532700,2.28253271484375,0.02977965772151947,0.23747368156909943,-0.14782927930355072
1772721951434879000,2.29987890625,-0.08628465235233307,-0.07101303339004517,-0.17592905461788177
1772721951452225300,2.317225341796875,-0.005039634648710489,-0.2799287736415863,-0.06597339361906052
1772721951469571600,2.334571533203125,0.03894263133406639,-0.033139415085315704,0.010995565913617611
1772721951486918000,2.35191796875,0.021838415414094925,0.05543597787618637,0.023212861269712448
1772721951504264200,2.36926416015625,0.015729768201708794,-0.004428769461810589,0.040317077189683914
1772721951521610500,2.386610595703125,0.015729768201708794,0.03955349326133728,0.043982263654470444
1772721951538956800,2.403956787109375,0.002290742937475443,-0.025809036567807198,0.07024945318698883
1772721951556303000,2.42130322265625,0.0206166859716177,-0.02214384824037552,0.10140355676412582
1772721951573649400,2.4386494140625,0.004734201822429895,0.06276635825634003,0.09712749719619751
1772721951590995700,2.45599560546875,-0.028863361105322838,0.057268574833869934,0.0616973415017128
1772721951608342000,2.473342041015625,-0.0154243353754282,-0.017867794260382652,0.03787361457943916
1772721951625688300,2.490688232421875,-0.0001527161948615685,-0.05024362727999687,0.03237583488225937
1772721951643034600,2.50803466796875,0.009010255336761475,-0.036804601550102234,0.014049889519810677
1772721951660381000,2.525380859375,0.004734201822429895,-0.02825249545276165,-0.017104214057326317
1772721951677727200,2.542727294921875,0.00045814859913662076,-0.052076224237680435,-0.03481929376721382
1772721951695073500,2.560073486328125,0.001679878099821508,-0.052076224237680435,-0.03237583488225937
1772721951712419800,2.577419921875,-0.005650499369949102,-0.0386371985077858,-0.0256563201546669
1772721951729766100,2.59476611328125,-0.011148282326757908,-0.036193739622831345,-0.023212861269712448
1772721951747112400,2.612112548828125,-0.0025961752980947495,-0.0386371985077858,-0.028099779039621353
1772721951764458800,2.629458740234375,0.007177661173045635,-0.03741546720266342,-0.015271619893610477
1772721951781805000,2.64680517578125,0.009010255336761475,-0.027030766010284424,-0.007330377586185932
1772721951799151400,2.6641513671875,0.004123337101191282,-0.014813470654189587,0.002443459117785096
1772721951816497700,2.68149755859375,0.0010690133785828948,-0.005039634648710489,0.006719512399286032
1772721951833844000,2.698843994140625,-0.004428769461810589,0.001679878099821508,0.01282816007733345
1772721951851190300,2.716190185546875,-0.0038179049734026194,0.005955931730568409,0.01954767294228077
1772721951868536600,2.73353662109375,-0.0062613640911877155,0.005955931730568409,0.021380268037319183
1772721951885883000,2.7508828125,-0.005650499369949102,0.001679878099821508,0.017715077847242355
1772721951903229200,2.768229248046875,-0.005650499369949102,0.003512472379952669,0.01282816007733345
1772721951920575500,2.785575439453125,-0.0062613640911877155,0.005955931730568409,0.010384701192378998
1772721951937921800,2.802921875,-0.007483093533664942,0.008399390615522861,0.009162971749901772
1772721951955268000,2.82026806640625,-0.008093958720564842,0.009010255336761475,0.007941242307424545
1772721951972614400,2.837614501953125,-0.011148282326757908,0.004734201822429895,0.007941242307424545
1772721951989960700,2.854960693359375,-0.008704823441803455,0.004734201822429895,0.009773836471140385
1772721952007307000,2.87230712890625,-0.0062613640911877155,0.002901607658714056,0.013439024798572063
1772721952024653300,2.8896533203125,-0.005039634648710489,0.00045814859913662076,0.012217295356094837
1772721952041999600,2.90699951171875,-0.004428769461810589,0.002901607658714056,0.017715077847242355
1772721952059346000,2.924345947265625,-0.006872228812426329,0.0010690133785828948,0.01954767294228077
1772721952076692200,2.941692138671875,-0.009315688163042068,-0.0013744457392022014,0.01649334840476513
1772721952094038500,2.95903857421875,-0.009315688163042068,-0.0013744457392022014,0.01588248461484909
1772721952111384800,2.976384765625,-0.009926552884280682,-0.006872228812426329,0.013439024798572063
1772721952128731100,2.993731201171875,-0.009315688163042068,-0.005039634648710489,0.010995565913617611
1772721952146077400,3.011077392578125,-0.011759147047996521,0.003512472379952669,0.013439024798572063
1772721952163423700,3.028423828125,-0.010537417605519295,0.009010255336761475,0.018325943499803543
1772721952180770000,3.04577001953125,-0.01359174121171236,0.007788525894284248,0.014049889519810677
1772721952198116400,3.063116455078125,-0.012370011769235134,0.006566796451807022,0.017715077847242355
1772721952215462700,3.080462646484375,-0.009926552884280682,0.0102319847792387,0.025045456364750862
1772721952232809000,3.09780908203125,-0.0062613640911877155,0.007177661173045635,0.026878049597144127
1772721952250155300,3.1151552734375,-0.004428769461810589,0.009621120058000088,0.028099779039621353
1772721952267501600,3.13250146484375,-0.0007635809597559273,0.012675444595515728,0.03176496922969818
1772721952284847900,3.149847900390625,0.00045814859913662076,0.01206457894295454,0.03481929376721382
1772721952302194200,3.167194091796875,0.0010690133785828948,0.006566796451807022,0.03543015569448471
1772721952319540500,3.18454052734375,0.00045814859913662076,0.002901607658714056,0.029932374134659767
1772721952336886800,3.20188671875,-0.0025961752980947495,0.013897174037992954,0.026878049597144127
1772721952354233000,3.219233154296875,-0.0032070400193333626,0.02672533318400383,0.02871064469218254
1772721952371579400,3.236579345703125,-0.0025961752980947495,0.02672533318400383,0.025045456364750862
1772721952388925700,3.25392578125,0.003512472379952669,0.0206166859716177,0.02260199747979641
1772721952406272000,3.27127197265625,0.009010255336761475,0.016340631991624832,0.02626718580722809
1772721952423618300,3.288618408203125,0.007788525894284248,0.021227551624178886,0.02932151034474373
1772721952440964600,3.305964599609375,0.007788525894284248,0.024892739951610565,0.023212861269712448
1772721952458311000,3.323310791015625,0.002901607658714056,0.02000582218170166,0.015271619893610477
1772721952475657200,3.3406572265625,-0.0038179049734026194,0.005955931730568409,0.012217295356094837
1772721952493003500,3.35800341796875,-0.0062613640911877155,0.003512472379952669,0.012217295356094837
1772721952510349800,3.375349853515625,-0.008093958720564842,0.007788525894284248,0.007330377586185932
1772721952527696100,3.392696044921875,-0.004428769461810589,0.0102319847792387,0.004276053514331579
1772721952545042400,3.41004248046875,-0.0025961752980947495,0.013897174037992954,0.001221729558892548
1772721952562388700,3.427388671875,-0.0001527161948615685,0.009010255336761475,-0.003665188793092966
1772721952579735000,3.444735107421875,-0.0025961752980947495,0.002901607658714056,-0.004886918235570192
1772721952597081300,3.462081298828125,-0.0062613640911877155,0.0010690133785828948,-0.008552107028663158
1772721952614427600,3.479427734375,-0.005650499369949102,0.002901607658714056,-0.002443459117785096
1772721952631774000,3.49677392578125,-0.0025961752980947495,0.010842849500477314,-0.001221729558892548
1772721952649120300,3.514120361328125,-0.0013744457392022014,0.004734201822429895,-0.004276053514331579
1772721952666466600,3.531466552734375,-0.0007635809597559273,0.00045814859913662076,-0.004276053514331579
1772721952683812900,3.548812744140625,-0.0025961752980947495,0.008399390615522861,-0.004886918235570192
1772721952701159200,3.5661591796875,-0.0032070400193333626,0.009621120058000088,-0.007941242307424545
1772721952718505500,3.58350537109375,-0.0001527161948615685,0.01511890348047018,-0.006719512399286032
1772721952735851800,3.600851806640625,0.002290742937475443,0.01206457894295454,-0.006108647678047419
1772721952753198000,3.618197998046875,0.001679878099821508,0.009010255336761475,-0.007330377586185932
1772721952770544600,3.635544677734375,-0.0001527161948615685,0.004123337101191282,-0.009773836471140385
1772721952787891000,3.652890869140625,-0.0032070400193333626,-0.005650499369949102,-0.010384701192378998
1772721952805237200,3.6702373046875,-0.004428769461810589,-0.011759147047996521,-0.008552107028663158
1772721952822583600,3.68758349609375,-0.0038179049734026194,-0.005039634648710489,-0.009162971749901772
1772721952839929900,3.704929931640625,-0.0038179049734026194,-0.0019853105768561363,-0.009773836471140385
1772721952857276200,3.722276123046875,0.002290742937475443,0.003512472379952669,-0.010384701192378998
1772721952874622500,3.73962255859375,0.008399390615522861,0.012675444595515728,-0.006108647678047419
1772721952891968800,3.75696875,0.009621120058000088,0.013897174037992954,-0.003665188793092966
1772721952909315000,3.774315185546875,0.005345067009329796,0.006566796451807022,-0.0054977829568088055
1772721952926661400,3.791661376953125,0.001679878099821508,-0.009926552884280682,-0.003665188793092966
1772721952944007700,3.809007568359375,-0.0001527161948615685,-0.017867794260382652,0.001832594396546483
1772721952961354000,3.82635400390625,-0.0025961752980947495,-0.007483093533664942,0.006719512399286032
1772721952978700300,3.8437001953125,-0.0001527161948615685,0.0010690133785828948,0.010384701192378998
1772721952996046600,3.861046630859375,0.007177661173045635,0.0102319847792387,0.010384701192378998
1772721953013393000,3.878392822265625,0.01206457894295454,0.0102319847792387,0.010995565913617611
1772721953030739200,3.8957392578125,0.015729768201708794,0.008399390615522861,0.01282816007733345
1772721953048085500,3.91308544921875,0.014508038759231567,-0.0001527161948615685,0.017715077847242355
1772721953065431800,3.930431884765625,0.010842849500477314,-0.011759147047996521,0.021991131827235222
1772721953082778000,3.947778076171875,0.009010255336761475,-0.0154243353754282,0.03543015569448471
1772721953100124400,3.96512451171875,0.012675444595515728,0.00045814859913662076,0.05070177838206291
1772721953117470700,3.982470703125,0.024892739951610565,0.02367101050913334,0.06291907280683517
1772721953134817000,3.999817138671875,0.04566214233636856,0.06582067906856537,0.0720820426940918
1772721953152163300,4.017163330078125,0.05787943676114082,0.09086613357067108,0.07330377399921417
1772721953169509600,4.034509521484375,0.060322895646095276,0.10247256606817245,0.06902772188186646
1772721953186856000,4.05185595703125,0.04505127668380737,0.09880737960338593,0.056199558079242706
1772721953204202200,4.0692021484375,0.03222311660647392,0.0639880821108818,0.03787361457943916
1772721953221548500,4.086548583984375,0.024892739951610565,0.03527744114398956,0.017715077847242355
1772721953238894800,4.103894775390625,0.018784092739224434,0.017562363296747208,-0.001832594396546483
1772721953256241200,4.1212412109375,0.01695149764418602,0.02977965772151947,-0.020158538594841957
1772721953273587500,4.13858740234375,0.018173227086663246,0.044440411031246185,-0.037262752652168274
1772721953290933800,4.155933837890625,0.017562363296747208,0.04932733252644539,-0.05253437161445618
1772721953308280000,4.173280029296875,0.009010255336761475,0.03894263133406639,-0.06414080411195755
1772721953325626400,4.19062646484375,-0.0001527161948615685,0.024892739951610565,-0.06841685622930527
1772721953342972700,4.20797265625,-0.006872228812426329,0.008399390615522861,-0.0665842592716217
1772721953360319000,4.225319091796875,-0.011148282326757908,-0.0001527161948615685,-0.06047561392188072
1772721953377665300,4.242665283203125,-0.014202605932950974,0.003512472379952669,-0.04825831577181816
1772721953395011600,4.260011474609375,-0.011148282326757908,0.017562363296747208,-0.03848448023200035
1772721953412358000,4.27735791015625,-0.004428769461810589,0.025503603741526604,-0.033597562462091446
1772721953429704200,4.2947041015625,-0.0038179049734026194,0.03222311660647392,-0.021380268037319183
1772721953447050800,4.31205078125,-0.0032070400193333626,0.034666575491428375,-0.014660755172371864
1772721953464396800,4.329396728515625,-0.0013744457392022014,0.03405570983886719,-0.010384701192378998
1772721953481743000,4.3467431640625,-0.0001527161948615685,0.03283398225903511,-0.0030543238390237093
1772721953499089400,4.36408935546875,0.0010690133785828948,0.03588830679655075,0.006108647678047419
1772721953516436000,4.38143603515625,0.007177661173045635,0.0487164668738842,0.013439024798572063
1772721953533782300,4.3987822265625,0.012675444595515728,0.060322895646095276,0.010995565913617611
1772721953551128600,4.416128662109375,0.012675444595515728,0.0639880821108818,0.003665188793092966
1772721953568475000,4.433474853515625,0.009621120058000088,0.06520981341600418,-0.006719512399286032
1772721953585821200,4.4508212890625,0.00045814859913662076,0.06337722390890121,-0.017104214057326317
1772721953603167500,4.46816748046875,-0.01359174121171236,0.05238165333867073,-0.017104214057326317
1772721953620513800,4.485513671875,-0.02214384824037552,0.03649916872382164,-0.01588248461484909
1772721953637860000,4.502860107421875,-0.02214384824037552,0.022449281066656113,-0.01893680728971958
1772721953655206400,4.520206298828125,-0.012370011769235134,0.021227551624178886,-0.018325943499803543
1772721953672552700,4.537552734375,-0.0013744457392022014,0.02611446939408779,-0.018325943499803543
1772721953689899000,4.55489892578125,0.003512472379952669,0.02367101050913334,-0.017715077847242355
1772721953707245300,4.572245361328125,0.005345067009329796,0.017562363296747208,-0.021380268037319183
1772721953724591600,4.589591552734375,0.002290742937475443,0.007788525894284248,-0.027488915249705315
1772721953741938000,4.60693798828125,-0.0062613640911877155,-0.008093958720564842,-0.02626718580722809
1772721953759284200,4.6242841796875,-0.012370011769235134,-0.027030766010284424,-0.021991131827235222
1772721953776630500,4.641630615234375,-0.016646064817905426,-0.039248060435056686,-0.010995565913617611
1772721953793976800,4.658976806640625,-0.012980876490473747,-0.0386371985077858,-0.004886918235570192
1772721953811323100,4.6763232421875,-0.0001527161948615685,-0.0154243353754282,0.002443459117785096
1772721953828669400,4.69366943359375,0.009621120058000088,0.009621120058000088,0.011606430634856224
1772721953846015700,4.711015625,0.018173227086663246,0.014508038759231567,0.020158538594841957
1772721953863362000,4.728362060546875,0.017562363296747208,0.007788525894284248,0.025045456364750862
1772721953880708400,4.745708251953125,0.012675444595515728,-0.0001527161948615685,0.023823726922273636
1772721953898054700,4.7630546875,0.007788525894284248,-0.005650499369949102,0.02260199747979641
1772721953915401000,4.78040087890625,0.005955931730568409,-0.0038179049734026194,0.018325943499803543
1772721953932747300,4.797747314453125,0.005345067009329796,-0.011759147047996521,0.014660755172371864
1772721953950093800,4.81509375,0.005345067009329796,-0.01359174121171236,0.010995565913617611
1772721953967440100,4.832440185546875,0.009621120058000088,-0.009315688163042068,0.004886918235570192
1772721953984786200,4.8497861328125,0.013286309316754341,-0.011148282326757908,-0.0054977829568088055
1772721954002132500,4.867132568359375,0.01206457894295454,-0.01908952370285988,-0.012217295356094837
1772721954019479000,4.88447900390625,0.001679878099821508,-0.03375028073787689,-0.018325943499803543
1772721954036825300,4.901825439453125,-0.005039634648710489,-0.0435241162776947,-0.017715077847242355
1772721954054171600,4.919171630859375,-0.010537417605519295,-0.061850059777498245,-0.021380268037319183
1772721954071518000,4.93651806640625,-0.009926552884280682,-0.05696314200758934,-0.01649334840476513
1772721954088864300,4.9538642578125,-0.0007635809597559273,-0.0435241162776947,-0.009773836471140385
1772721954106210600,4.97121044921875,0.007177661173045635,-0.019700389355421066,-0.002443459117785096
1772721954123556900,4.988556884765625,0.01206457894295454,-0.012370011769235134,0.001832594396546483
1772721954140903200,5.005903076171875,0.0102319847792387,-0.023365577682852745,0.000610864779446274
1772721954158249500,5.02324951171875,0.002901607658714056,-0.03375028073787689,-0.001832594396546483
1772721954175595800,5.040595703125,-0.004428769461810589,-0.036193739622831345,0.000610864779446274
1772721954192942000,5.057942138671875,-0.005039634648710489,-0.02764163166284561,0.007941242307424545
1772721954210288400,5.075288330078125,-0.0013744457392022014,-0.017867794260382652,0.010995565913617611
1772721954227634700,5.092634765625,0.002901607658714056,-0.009926552884280682,0.01282816007733345
1772721954244981000,5.10998095703125,0.002290742937475443,-0.008704823441803455,0.009162971749901772
1772721954262327300,5.127327392578125,-0.0013744457392022014,-0.014202605932950974,0.006108647678047419
1772721954279673600,5.144673583984375,-0.0062613640911877155,-0.029474224895238876,0.000610864779446274
1772721954297020000,5.16202001953125,-0.011148282326757908,-0.030085090547800064,0
1772721954314366200,5.1793662109375,-0.014202605932950974,-0.02764163166284561,0
1772721954331712500,5.19671240234375,-0.011759147047996521,-0.02214384824037552,-0.000610864779446274
1772721954349058800,5.214058837890625,-0.005650499369949102,-0.011148282326757908,-0.003665188793092966
1772721954366405000,5.231405029296875,-0.0019853105768561363,-0.007483093533664942,-0.004886918235570192
1772721954383751700,5.248751708984375,-0.005039634648710489,-0.014813470654189587,-0.008552107028663158
1772721954401098000,5.266097900390625,-0.009315688163042068,-0.029474224895238876,-0.011606430634856224
1772721954418444300,5.2834443359375,-0.014202605932950974,-0.036193739622831345,-0.014049889519810677
1772721954435790600,5.30079052734375,-0.016646064817905426,-0.03375028073787689,-0.009773836471140385
1772721954453137000,5.318136962890625,-0.01359174121171236,-0.02153298258781433,-0.006719512399286032
1772721954470483200,5.335483154296875,-0.010537417605519295,-0.006872228812426329,-0.007330377586185932
1772721954487829500,5.35282958984375,-0.008093958720564842,-0.0025961752980947495,-0.011606430634856224
1772721954505175800,5.37017578125,-0.005039634648710489,0.0010690133785828948,-0.014660755172371864
1772721954522522000,5.387522216796875,-0.0062613640911877155,-0.0025961752980947495,-0.01588248461484909
1772721954539868400,5.404868408203125,-0.011148282326757908,-0.0038179049734026194,-0.014660755172371864
1772721954557214700,5.422214599609375,-0.016035201027989388,-0.009926552884280682,-0.011606430634856224
1772721954574561000,5.43956103515625,-0.0154243353754282,-0.011148282326757908,-0.001221729558892548
1772721954591907300,5.4569072265625,-0.010537417605519295,-0.0001527161948615685,0.003665188793092966
1772721954609253600,5.474253662109375,-0.004428769461810589,0.013286309316754341,0.006108647678047419
1772721954626600000,5.491599853515625,0.001679878099821508,0.027947064489126205,0.012217295356094837
1772721954643946200,5.5089462890625,0.008399390615522861,0.04199695214629173,0.018325943499803543
1772721954661292500,5.52629248046875,0.007788525894284248,0.04260781779885292,0.01588248461484909
1772721954678638800,5.543638916015625,0.0010690133785828948,0.022449281066656113,0.009773836471140385
1772721954695985200,5.560985107421875,-0.0032070400193333626,0.005955931730568409,0.006719512399286032
1772721954713331500,5.57833154296875,-0.0038179049734026194,0.002290742937475443,0.008552107028663158
1772721954730677800,5.595677734375,-0.0032070400193333626,0.008399390615522861,0.011606430634856224
1772721954748024000,5.613024169921875,-0.0013744457392022014,0.009010255336761475,0.008552107028663158
1772721954765370400,5.630370361328125,-0.0001527161948615685,0.009621120058000088,0.0054977829568088055
1772721954782717000,5.647717041015625,-0.0013744457392022014,0.016340631991624832,0.008552107028663158
1772721954800063200,5.665063232421875,-0.0013744457392022014,0.025503603741526604,0.013439024798572063
1772721954817409500,5.682409423828125,-0.0038179049734026194,0.02916879393160343,0.014660755172371864
1772721954834755800,5.699755859375,-0.005650499369949102,0.017562363296747208,0.013439024798572063
1772721954852102100,5.71710205078125,-0.0062613640911877155,0.008399390615522861,0.009162971749901772
1772721954869448400,5.734448486328125,-0.0001527161948615685,0.0102319847792387,0.003665188793092966
1772721954886794800,5.751794677734375,0.003512472379952669,0.024892739951610565,0.006719512399286032
1772721954904141000,5.76914111328125,0.006566796451807022,0.04810560122132301,0.014660755172371864
1772721954921487400,5.7864873046875,0.001679878099821508,0.056657709181308746,0.01893680728971958
1772721954938833700,5.803833740234375,-0.0038179049734026194,0.04016435891389847,0.01588248461484909
1772721954956180000,5.821179931640625,-0.009315688163042068,0.0102319847792387,0.008552107028663158
1772721954973526300,5.8385263671875,-0.005650499369949102,-0.0038179049734026194,0.004886918235570192
1772721954990872600,5.85587255859375,0.001679878099821508,0.009621120058000088,0.01588248461484909
1772721955008219000,5.873218994140625,0.009010255336761475,0.03283398225903511,0.027488915249705315
1772721955025565200,5.890565185546875,0.01206457894295454,0.04932733252644539,0.031154103577136993
1772721955042911500,5.907911376953125,0.01206457894295454,0.044440411031246185,0.03176496922969818
1772721955060257800,5.9252578125,0.010842849500477314,0.034666575491428375,0.026878049597144127
1772721955077604000,5.94260400390625,0.004734201822429895,0.011453714221715927,0.024434590712189674
1772721955094950400,5.959950439453125,-0.0001527161948615685,0.00045814859913662076,0.026878049597144127
1772721955112296700,5.977296630859375,0.00045814859913662076,0.009010255336761475,0.02932151034474373
1772721955129643300,5.994643310546875,0.007788525894284248,0.02611446939408779,0.030543239787220955
1772721955146989600,6.011989501953125,0.017562363296747208,0.03894263133406639,0.028099779039621353
1772721955164335900,6.0293359375,0.022449281066656113,0.046883873641490936,0.020769402384757996
1772721955181682200,6.04668212890625,0.021838415414094925,0.04016435891389847,0.014660755172371864
1772721955199028500,6.064028564453125,0.016340631991624832,0.021838415414094925,0.007941242307424545
1772721955216374800,6.081374755859375,0.005345067009329796,-0.012980876490473747,0.001221729558892548
1772721955233721000,6.09872119140625,-0.0019853105768561363,-0.026419902220368385,-0.004276053514331579
1772721955251067400,6.1160673828125,-0.0025961752980947495,-0.019700389355421066,-0.006108647678047419
1772721955268413700,6.13341357421875,-0.0019853105768561363,-0.005039634648710489,-0.009162971749901772
1772721955285760000,6.150760009765625,0.001679878099821508,0.008399390615522861,-0.010384701192378998
1772721955303106300,6.168106201171875,0.0102319847792387,0.02000582218170166,-0.014049889519810677
1772721955320452600,6.18545263671875,0.013286309316754341,0.025503603741526604,-0.011606430634856224
1772721955337799000,6.202798828125,0.006566796451807022,0.01511890348047018,-0.011606430634856224
1772721955355145200,6.220145263671875,-0.0032070400193333626,-0.0038179049734026194,-0.01282816007733345
1772721955372491500,6.237491455078125,-0.007483093533664942,-0.011759147047996521,-0.011606430634856224
1772721955389838000,6.254838134765625,-0.004428769461810589,-0.0062613640911877155,-0.007941242307424545
1772721955407184100,6.27218408203125,-0.0001527161948615685,0.002290742937475443,-0.009773836471140385
1772721955424530700,6.28953076171875,0.007177661173045635,0.009010255336761475,-0.013439024798572063
1772721955441877000,6.306876953125,0.012675444595515728,0.016340631991624832,-0.020158538594841957
1772721955459223300,6.324223388671875,0.01695149764418602,0.022449281066656113,-0.02626718580722809
1772721955476569600,6.341569580078125,0.012675444595515728,0.018173227086663246,-0.02932151034474373
1772721955493916000,6.358916015625,0.002901607658714056,-0.0025961752980947495,-0.027488915249705315
1772721955511262200,6.37626220703125,-0.0025961752980947495,-0.009926552884280682,-0.021380268037319183
1772721955528608500,6.3936083984375,-0.005650499369949102,-0.007483093533664942,-0.014049889519810677
1772721955545954800,6.410954833984375,-0.0019853105768561363,0.009010255336761475,-0.009773836471140385
1772721955563301000,6.428301025390625,0.004123337101191282,0.017562363296747208,-0.011606430634856224
1772721955580647400,6.4456474609375,0.009010255336761475,0.02000582218170166,-0.013439024798572063
1772721955597993700,6.46299365234375,0.006566796451807022,0.017562363296747208,-0.009773836471140385
1772721955615340000,6.480340087890625,0.00045814859913662076,0.010842849500477314,-0.001832594396546483
1772721955632686300,6.497686279296875,-0.0032070400193333626,-0.0019853105768561363,0.004276053514331579
1772721955650032600,6.51503271484375,-0.0019853105768561363,0.001679878099821508,0.010995565913617611
1772721955667379000,6.53237890625,0.001679878099821508,0.012675444595515728,0.01588248461484909
1772721955684725200,6.549725341796875,0.004734201822429895,0.02306014485657215,0.01954767294228077
1772721955702071600,6.567071533203125,0.005955931730568409,0.030390523374080658,0.021380268037319183
1772721955719418000,6.584418212890625,-0.0001527161948615685,0.025503603741526604,0.024434590712189674
1772721955736764400,6.601764404296875,-0.0062613640911877155,0.01511890348047018,0.024434590712189674
1772721955754110700,6.61911083984375,-0.014813470654189587,-0.005039634648710489,0.021991131827235222
1772721955771457000,6.63645703125,-0.014813470654189587,-0.005650499369949102,0.02260199747979641
1772721955788803300,6.65380322265625,-0.012370011769235134,0.002901607658714056,0.020769402384757996
1772721955806149600,6.671149658203125,-0.005650499369949102,0.016340631991624832,0.014049889519810677
1772721955823496000,6.688495849609375,-0.0001527161948615685,0.028557928279042244,0.008552107028663158
1772721955840842200,6.70584228515625,0.001679878099821508,0.0334448479115963,0.002443459117785096
1772721955858188500,6.7231884765625,-0.005039634648710489,0.02000582218170166,-0.004886918235570192
1772721955875534800,6.740534912109375,-0.016646064817905426,-0.0062613640911877155,-0.012217295356094837
1772721955892881200,6.757881103515625,-0.02764163166284561,-0.023976443335413933,-0.011606430634856224
1772721955910227500,6.7752275390625,-0.03130681812763214,-0.020922118797898293,-0.009773836471140385
1772721955927573800,6.79257373046875,-0.023976443335413933,-0.0013744457392022014,-0.004886918235570192
1772721955944920000,6.809920166015625,-0.012370011769235134,0.018784092739224434,-0.010384701192378998
1772721955962266400,6.827266357421875,-0.006872228812426329,0.03222311660647392,-0.007941242307424545
1772721955979613000,6.844613037109375,-0.0062613640911877155,0.027947064489126205,-0.009162971749901772
1772721955996959200,6.861959228515625,-0.005650499369949102,0.02306014485657215,-0.0054977829568088055
1772721956014305500,6.879305419921875,-0.006872228812426329,0.014508038759231567,-0.007330377586185932
1772721956031651800,6.89665185546875,-0.010537417605519295,0.008399390615522861,-0.006108647678047419
1772721956048998100,6.913998046875,-0.012980876490473747,0.003512472379952669,-0.003665188793092966
1772721956066344400,6.931344482421875,-0.011759147047996521,0.005345067009329796,-0.0030543238390237093
1772721956083690800,6.948690673828125,-0.007483093533664942,0.011453714221715927,0.000610864779446274
1772721956101037000,6.966037109375,-0.0025961752980947495,0.021838415414094925,0
1772721956118383400,6.98338330078125,-0.0007635809597559273,0.031001387163996696,-0.001221729558892548
1772721956135729700,7.000729736328125,0.001679878099821508,0.02977965772151947,-0.002443459117785096
1772721956153076000,7.018075927734375,-0.0007635809597559273,0.02000582218170166,-0.004276053514331579
1772721956170422300,7.03542236328125,-0.005039634648710489,0.012675444595515728,-0.0054977829568088055
1772721956187768600,7.0527685546875,-0.008093958720564842,0.007788525894284248,-0.010995565913617611
1772721956205115000,7.070114990234375,-0.005650499369949102,0.011453714221715927,-0.013439024798572063
1772721956222461200,7.087461181640625,-0.0013744457392022014,0.021227551624178886,-0.015271619893610477
1772721956239807500,7.104807373046875,-0.0019853105768561363,0.0206166859716177,-0.01649334840476513
1772721956257153800,7.12215380859375,-0.005039634648710489,0.011453714221715927,-0.017715077847242355
1772721956274500400,7.139500244140625,-0.008093958720564842,0.008399390615522861,-0.017104214057326317
1772721956291846700,7.1568466796875,-0.012370011769235134,0.004123337101191282,-0.009162971749901772
1772721956309193000,7.17419287109375,-0.011759147047996521,-0.0025961752980947495,-0.007330377586185932
1772721956326539300,7.191539306640625,-0.008093958720564842,-0.0032070400193333626,-0.0054977829568088055
1772721956343885600,7.208885498046875,-0.0025961752980947495,0.004734201822429895,-0.006108647678047419
1772721956361232000,7.22623193359375,0.004123337101191282,0.016340631991624832,-0.007330377586185932
1772721956378578200,7.243578125,0.0102319847792387,0.02672533318400383,-0.006108647678047419
1772721956395924500,7.260924560546875,0.013286309316754341,0.031612250953912735,-0.0030543238390237093
1772721956413270800,7.278270751953125,0.009621120058000088,0.02306014485657215,0.001221729558892548
1772721956430617000,7.2956171875,-0.0019853105768561363,-0.005039634648710489,0.001832594396546483
1772721956447963400,7.31296337890625,-0.007483093533664942,-0.02458730712532997,0.002443459117785096
1772721956465309700,7.330309814453125,-0.008093958720564842,-0.02458730712532997,0.002443459117785096
1772721956482656000,7.347656005859375,-0.0032070400193333626,-0.009926552884280682,0.001832594396546483
1772721956500002300,7.365002197265625,0.002290742937475443,-0.0038179049734026194,0.001832594396546483
1772721956517348600,7.3823486328125,0.005345067009329796,-0.006872228812426329,0.000610864779446274
1772721956534695200,7.399695068359375,0.005955931730568409,-0.017256930470466614,0.001832594396546483
1772721956552041500,7.41704150390625,0.003512472379952669,-0.029474224895238876,0.001832594396546483
1772721956569387800,7.4343876953125,-0.0038179049734026194,-0.03802633285522461,0.001221729558892548
1772721956586734000,7.451734130859375,-0.009315688163042068,-0.045967575162649155,0.001832594396546483
1772721956604080400,7.469080322265625,-0.012980876490473747,-0.04718930274248123,0.003665188793092966
1772721956621426700,7.4864267578125,-0.012980876490473747,-0.04535670951008797,0.0030543238390237093
1772721956638773000,7.50377294921875,-0.009926552884280682,-0.04169152304530144,0.001221729558892548
1772721956656119300,7.521119384765625,-0.008093958720564842,-0.04046979174017906,-0.000610864779446274
1772721956673465600,7.538465576171875,-0.009315688163042068,-0.04780016839504242,-0.003665188793092966
1772721956690812000,7.55581201171875,-0.0062613640911877155,-0.05513054504990578,-0.004886918235570192
1772721956708158200,7.573158203125,-0.004428769461810589,-0.055741410702466965,-0.006108647678047419
1772721956725504500,7.59050439453125,-0.005650499369949102,-0.052687086164951324,-0.006719512399286032
1772721956742850800,7.607850830078125,-0.008093958720564842,-0.045967575162649155,-0.004886918235570192
1772721956760197000,7.625197021484375,-0.0062613640911877155,-0.0386371985077858,-0.001221729558892548
1772721956777543400,7.64254345703125,0.0010690133785828948,-0.017867794260382652,0.004276053514331579
1772721956794890000,7.659889892578125,0.009010255336761475,0.0010690133785828948,0.008552107028663158
1772721956812236300,7.677236328125,0.01206457894295454,0.002290742937475443,0.008552107028663158
1772721956829582600,7.69458251953125,0.007788525894284248,-0.0062613640911877155,0.006719512399286032
1772721956846929000,7.711928955078125,0.00045814859913662076,-0.02214384824037552,0.004886918235570192
1772721956864275200,7.729275146484375,-0.009315688163042068,-0.03191768378019333,0.009773836471140385
1772721956881621500,7.74662158203125,-0.011148282326757908,-0.04169152304530144,0.010384701192378998
1772721956898967800,7.7639677734375,-0.008704823441803455,-0.042913250625133514,0.009773836471140385
1772721956916314000,7.781314208984375,-0.0001527161948615685,-0.022754713892936707,0.014660755172371864
1772721956933660400,7.798660400390625,0.008399390615522861,-0.0038179049734026194,0.014049889519810677
1772721956951006700,7.8160068359375,0.010842849500477314,0.004123337101191282,0.009773836471140385
1772721956968353000,7.83335302734375,0.008399390615522861,-0.0019853105768561363,0.006719512399286032
1772721956985699300,7.85069921875,0.001679878099821508,-0.016035201027989388,0.001832594396546483
1772721957003045600,7.868045654296875,-0.004428769461810589,-0.026419902220368385,0.001221729558892548
1772721957020392000,7.885391845703125,-0.0062613640911877155,-0.026419902220368385,0.003665188793092966
1772721957037738500,7.902738525390625,-0.004428769461810589,-0.019700389355421066,0.004276053514331579
1772721957055084800,7.920084716796875,0.002901607658714056,0.002901607658714056,0.006108647678047419
1772721957072431000,7.93743115234375,0.008399390615522861,0.012675444595515728,0.009773836471140385
1772721957089777400,7.95477734375,0.006566796451807022,0.0010690133785828948,0.0054977829568088055
1772721957107123700,7.972123779296875,0.0010690133785828948,-0.014202605932950974,0.000610864779446274
1772721957124470000,7.989469970703125,-0.0019853105768561363,-0.01908952370285988,0.004886918235570192
1772721957141816300,8.00681640625,0.0010690133785828948,-0.009315688163042068,0.007330377586185932
1772721957159162600,8.02416259765625,0.007177661173045635,0.004123337101191282,0.009162971749901772
1772721957176509000,8.041509033203125,0.013286309316754341,0.007788525894284248,0.006108647678047419
1772721957193855200,8.058855224609376,0.012675444595515728,0.009010255336761475,0
1772721957211201500,8.076201416015625,0.0102319847792387,0.004123337101191282,-0.007941242307424545
1772721957228547800,8.0935478515625,0.004123337101191282,-0.006872228812426329,-0.008552107028663158
1772721957245894100,8.11089404296875,-0.0038179049734026194,-0.008704823441803455,-0.011606430634856224
1772721957263240400,8.128240478515625,-0.005039634648710489,-0.011148282326757908,-0.011606430634856224
1772721957280586800,8.145586669921874,0.003512472379952669,0.004734201822429895,-0.007330377586185932
1772721957297933300,8.162933349609375,0.008399390615522861,0.02000582218170166,-0.007941242307424545
1772721957315279600,8.180279541015626,0.009621120058000088,0.018173227086663246,-0.009162971749901772
1772721957332626000,8.1976259765625,0.006566796451807022,0.00045814859913662076,-0.01588248461484909
1772721957349972200,8.21497216796875,0.001679878099821508,-0.012980876490473747,-0.015271619893610477
1772721957367318500,8.232318603515624,-0.0032070400193333626,-0.01847865991294384,-0.010995565913617611
1772721957384664800,8.249664794921875,-0.005650499369949102,-0.014202605932950974,-0.0030543238390237093
1772721957402011100,8.26701123046875,0.001679878099821508,-0.004428769461810589,-0.001832594396546483
1772721957419357400,8.284357421875,0.0102319847792387,0.01206457894295454,0.003665188793092966
1772721957436703700,8.301703857421876,0.013897174037992954,0.017562363296747208,0.004276053514331579
1772721957454050000,8.319050048828124,0.01206457894295454,0.004734201822429895,-0.001832594396546483
1772721957471396400,8.336396240234375,0.005955931730568409,-0.008093958720564842,-0.006108647678047419
1772721957488742700,8.35374267578125,0.00045814859913662076,-0.011148282326757908,-0.000610864779446274
1772721957506089000,8.3710888671875,-0.004428769461810589,-0.009926552884280682,0.003665188793092966
1772721957523435500,8.388435546875,-0.0025961752980947495,-0.004428769461810589,0.009773836471140385
1772721957540781800,8.40578173828125,0.004734201822429895,0.009010255336761475,0.009773836471140385
1772721957558128000,8.423128173828125,0.010842849500477314,0.015729768201708794,0.006719512399286032
1772721957575474400,8.440474365234374,0.012675444595515728,0.007788525894284248,0.000610864779446274
1772721957592820700,8.45782080078125,0.007788525894284248,-0.004428769461810589,-0.001832594396546483
1772721957610167000,8.4751669921875,-0.0007635809597559273,-0.01359174121171236,0
1772721957627513300,8.492513427734375,-0.007483093533664942,-0.017256930470466614,0.002443459117785096
1772721957644859600,8.509859619140625,-0.008093958720564842,-0.017867794260382652,0.006108647678047419
1772721957662206000,8.5272060546875,-0.0038179049734026194,-0.005650499369949102,0.007941242307424545
1772721957679552300,8.54455224609375,0.00045814859913662076,-0.0001527161948615685,0.009773836471140385
1772721957696898600,8.561898681640624,0.004123337101191282,-0.0013744457392022014,0.009162971749901772
1772721957714244900,8.579244873046875,0.004123337101191282,-0.008093958720564842,0.009773836471140385
1772721957731591400,8.59659130859375,0.004123337101191282,-0.007483093533664942,0.017104214057326317
1772721957748937700,8.613937744140625,0.002901607658714056,-0.0019853105768561363,0.030543239787220955
1772721957766284000,8.631283935546875,0.002290742937475443,-0.0007635809597559273,0.04153880476951599
1772721957783630300,8.64863037109375,-0.0025961752980947495,-0.0062613640911877155,0.043982263654470444
1772721957800976600,8.6659765625,-0.008093958720564842,-0.01359174121171236,0.043982263654470444
1772721957818323000,8.683322998046876,-0.006872228812426329,-0.006872228812426329,0.04153880476951599
1772721957835669200,8.700669189453125,-0.005650499369949102,0.006566796451807022,0.0409279391169548
1772721957853015600,8.718015625,0.00045814859913662076,0.004734201822429895,0.0409279391169548
1772721957870361900,8.73536181640625,0.01206457894295454,0.011453714221715927,0.036651886999607086
1772721957887708200,8.752708251953125,0.02000582218170166,0.027336198836565018,0.031154103577136993
1772721957905054500,8.770054443359374,0.021227551624178886,0.03894263133406639,0.02932151034474373
1772721957922400800,8.78740087890625,0.016340631991624832,0.0334448479115963,0.024434590712189674
1772721957939747000,8.8047470703125,0.011453714221715927,0.02916879393160343,0.01649334840476513
1772721957957093400,8.82209326171875,0.009010255336761475,0.017562363296747208,0.011606430634856224
1772721957974439700,8.839439697265625,0.007788525894284248,0.016340631991624832,0.0054977829568088055
1772721957991786200,8.8567861328125,0.007788525894284248,0.018784092739224434,0.002443459117785096
1772721958009132500,8.874132568359375,0.005955931730568409,0.013286309316754341,-0.002443459117785096
1772721958026478800,8.891478759765626,0.003512472379952669,0.005345067009329796,-0.010384701192378998
1772721958043825200,8.9088251953125,0.005345067009329796,0.0102319847792387,-0.013439024798572063
1772721958061171500,8.92617138671875,0.004123337101191282,0.005955931730568409,-0.012217295356094837
1772721958078517800,8.943517822265624,0.007177661173045635,0.008399390615522861,-0.007941242307424545
1772721958095864000,8.960864013671875,0.012675444595515728,0.024892739951610565,-0.001832594396546483
1772721958113210400,8.97821044921875,0.01511890348047018,0.031001387163996696,-0.001221729558892548
1772721958130556700,8.995556640625,0.01206457894295454,0.0206166859716177,-0.001221729558892548
1772721958147903000,9.012903076171876,0.006566796451807022,0.007788525894284248,-0.001221729558892548
1772721958165249300,9.030249267578125,0.005345067009329796,-0.0007635809597559273,0.002443459117785096
1772721958182595600,9.047595703125,0.004734201822429895,0.00045814859913662076,0.006108647678047419
1772721958199942100,9.064942138671874,0.008399390615522861,0.006566796451807022,0.009773836471140385
1772721958217288400,9.082288330078125,0.013897174037992954,0.015729768201708794,0.014660755172371864
1772721958234634800,9.099634765625,0.018784092739224434,0.022449281066656113,0.01282816007733345
1772721958251981000,9.11698095703125,0.022449281066656113,0.021227551624178886,0.009162971749901772
1772721958269327400,9.134327392578125,0.01695149764418602,0.013286309316754341,0.007941242307424545
1772721958286673700,9.151673583984374,0.009621120058000088,-0.0019853105768561363,0.007941242307424545
1772721958304020000,9.16902001953125,0.003512472379952669,-0.008093958720564842,0.006108647678047419
1772721958321366300,9.1863662109375,-0.0019853105768561363,-0.016035201027989388,0.008552107028663158
1772721958338712600,9.203712646484375,0.0010690133785828948,-0.012370011769235134,0.010384701192378998
1772721958356059000,9.221058837890626,0.010842849500477314,0.007177661173045635,0.007330377586185932
1772721958373405200,9.2384052734375,0.015729768201708794,0.014508038759231567,-0.003665188793092966
1772721958390751500,9.25575146484375,0.013286309316754341,-0.005039634648710489,-0.021380268037319183
1772721958408097800,9.273097900390624,-0.0001527161948615685,-0.02519817277789116,-0.02871064469218254
1772721958425444000,9.290444091796875,-0.01359174121171236,-0.03497200831770897,-0.033597562462091446
1772721958442790700,9.307790771484376,-0.019700389355421066,-0.042913250625133514,-0.04153880476951599
1772721958460137000,9.325136962890625,-0.012980876490473747,-0.04169152304530144,-0.05925388261675835
1772721958477483300,9.342483154296875,-0.0013744457392022014,-0.03497200831770897,-0.07574722915887833
1772721958494829600,9.35982958984375,0.005955931730568409,-0.03741546720266342,-0.08796452730894089
1772721958512175900,9.37717578125,0.008399390615522861,-0.03130681812763214,-0.0818558782339096
1772721958529522200,9.394522216796876,0.007177661173045635,-0.010537417605519295,-0.06841685622930527
1772721958546868500,9.411868408203125,-0.0013744457392022014,0.009621120058000088,-0.05742128938436508
1772721958564214800,9.42921484375,-0.004428769461810589,-0.01908952370285988,-0.05864302068948746
1772721958581561000,9.44656103515625,-0.0062613640911877155,-0.027030766010284424,-0.06108647957444191
1772721958598907400,9.463907470703125,-0.0062613640911877155,-0.012980876490473747,-0.05497783049941063
1772721958616253700,9.481253662109374,0.002901607658714056,-0.02153298258781433,-0.030543239787220955
1772721958633600000,9.49860009765625,0.013286309316754341,0.006566796451807022,-0.01588248461484909
1772721958650946300,9.5159462890625,0.02306014485657215,0.02367101050913334,-0.006719512399286032
1772721958668292900,9.53329296875,0.02367101050913334,0.027336198836565018,-0.008552107028663158
1772721958685639200,9.55063916015625,0.017562363296747208,0.019394956529140472,-0.009162971749901772
1772721958702985500,9.5679853515625,0.008399390615522861,0.01206457894295454,-0.009773836471140385
1772721958720331800,9.585331787109375,0.0010690133785828948,-0.005650499369949102,-0.013439024798572063
1772721958737678000,9.602677978515626,0.00045814859913662076,-0.012980876490473747,-0.01588248461484909
1772721958755024400,9.6200244140625,0.004734201822429895,-0.008093958720564842,-0.024434590712189674
1772721958772370700,9.63737060546875,0.01206457894295454,0.019394956529140472,-0.03787361457943916
1772721958789717000,9.654717041015624,0.011453714221715927,0.004123337101191282,-0.03787361457943916
1772721958807063300,9.672063232421875,0.007788525894284248,0.013286309316754341,-0.026878049597144127
1772721958824409600,9.68940966796875,-0.008704823441803455,0.010842849500477314,-0.021380268037319183
1772721958841756000,9.706755859375,-0.0154243353754282,-0.0038179049734026194,-0.020769402384757996
1772721958859102500,9.7241025390625,-0.014813470654189587,-0.012370011769235134,-0.015271619893610477
1772721958876448800,9.74144873046875,-0.007483093533664942,-0.004428769461810589,-0.006108647678047419
1772721958893795000,9.758795166015625,0.001679878099821508,0.003512472379952669,-0.004886918235570192
1772721958911141400,9.776141357421874,-0.0007635809597559273,-0.014813470654189587,-0.000610864779446274
1772721958928487700,9.79348779296875,0.005345067009329796,-0.01847865991294384,0.003665188793092966
1772721958945834000,9.810833984375,0.005955931730568409,-0.022754713892936707,0.006719512399286032
1772721958963180300,9.82818017578125,0.01206457894295454,-0.012980876490473747,0.0030543238390237093
1772721958980526600,9.845526611328125,0.012675444595515728,-0.0038179049734026194,-0.000610864779446274
1772721958997873000,9.862872802734374,0.006566796451807022,-0.016646064817905426,0
1772721959015219200,9.88021923828125,0.005955931730568409,-0.020922118797898293,0.0054977829568088055
1772721959032565500,9.8975654296875,0.025503603741526604,-0.007483093533664942,-0.004886918235570192
1772721959049911800,9.914911865234375,0.030390523374080658,-0.01847865991294384,-0.004886918235570192
1772721959067258000,9.932258056640626,0.028557928279042244,0.005345067009329796,-0.001221729558892548
1772721959084604400,9.9496044921875,0.011453714221715927,-0.006872228812426329,0.02871064469218254
1772721959101951000,9.966950927734375,0.004123337101191282,0.03222311660647392,0.0513126403093338
1772721959119297300,9.98429736328125,0.0102319847792387,0.013286309316754341,0.027488915249705315
1772721959136643600,10.0016435546875,0.015729768201708794,-0.030085090547800064,-0.003665188793092966
1772721959153990000,10.018989990234376,0.021838415414094925,-0.028863361105322838,-0.015271619893610477
1772721959171336200,10.036336181640625,0.02611446939408779,-0.0007635809597559273,-0.020158538594841957
1772721959188682500,10.0536826171875,0.02916879393160343,-0.0013744457392022014,-0.030543239787220955
1772721959206028800,10.07102880859375,0.02367101050913334,-0.004428769461810589,-0.04214967042207718
1772721959223375000,10.088375,0.031001387163996696,0.002901607658714056,-0.05436696484684944
1772721959240721400,10.105721435546876,0.04566214233636856,0.017562363296747208,-0.05558869615197182
1772721959258067700,10.123067626953125,0.044440411031246185,-0.004428769461810589,-0.06230820715427399
1772721959275414000,10.1404140625,0.06826414167881012,0.009010255336761475,-0.09957095980644226
1772721959292760300,10.15776025390625,0.053603384643793106,-0.06795870512723923,-0.11362084746360779
1772721959310106600,10.175106689453125,0.11224640160799026,0.016340631991624832,-0.09590577334165573
1772721959327453200,10.192453125,0.1727220118045807,0.1727220118045807,-0.031154103577136993
1772721959344799500,10.209799560546875,0.21914774179458618,0.2338084876537323,0.004886918235570192
1772721959362145800,10.227145751953126,0.13301581144332886,0.2124282270669937,-0.011606430634856224
1772721959379492000,10.2444921875,0.01206457894295454,0.10919208079576492,0.009773836471140385
1772721959396838400,10.26183837890625,-0.08078686892986298,0.003512472379952669,0.01893680728971958
1772721959414184700,10.279184814453124,-0.09850194305181503,-0.0062613640911877155,0.008552107028663158
1772721959431531000,10.296531005859375,-0.039248060435056686,-0.009315688163042068,0.004886918235570192
1772721959448877300,10.313877197265626,0.02000582218170166,0.016340631991624832,0.0030543238390237093
1772721959466223600,10.3312236328125,-0.0001527161948615685,0.03527744114398956,0.014049889519810677
1772721959483570000,10.34856982421875,-0.007483093533664942,-0.0007635809597559273,0.029932374134659767
1772721959500916200,10.365916259765624,0.006566796451807022,-0.005650499369949102,0.021991131827235222
1772721959518262800,10.3832626953125,0.008399390615522861,-0.0007635809597559273,0.025045456364750862
1772721959535608800,10.40060888671875,0.007788525894284248,0.005955931730568409,0.043371398001909256
1772721959552955100,10.417955078125,-0.008093958720564842,0.03711003437638283,0.05253437161445618
1772721959570301700,10.4353017578125,-0.03130681812763214,0.05299251899123192,0.04459312930703163
1772721959587648000,10.45264794921875,-0.036193739622831345,0.03711003437638283,0.047036588191986084
1772721959604994300,10.469994384765625,-0.02214384824037552,0.06582067906856537,0.023212861269712448
1772721959622340600,10.487340576171874,-0.014202605932950974,0.06215549260377884,0.01649334840476513
1772721959639687000,10.50468701171875,-0.019700389355421066,0.021227551624178886,0.033597562462091446
1772721959657033200,10.522033203125,-0.0386371985077858,-0.006872228812426329,0.046425722539424896
1772721959674379500,10.539379638671875,-0.049632761627435684,-0.01359174121171236,0.06475166976451874
1772721959691725800,10.556725830078125,-0.052687086164951324,0.007177661173045635,0.07513637095689774
1772721959709072100,10.574072021484374,-0.04780016839504242,0.043829549103975296,0.06597339361906052
1772721959726418400,10.59141845703125,-0.04046979174017906,0.04932733252644539,0.053145237267017365
1772721959743764700,10.6087646484375,-0.045967575162649155,0.024892739951610565,0.03787361457943916
1772721959761111300,10.626111328125,-0.03436114266514778,0.004734201822429895,0.03787361457943916
1772721959778457600,10.64345751953125,-0.008704823441803455,0.014508038759231567,0.05192350596189499
1772721959795804000,10.660803955078125,-0.0007635809597559273,0.031001387163996696,0.06719512492418289
1772721959813150200,10.678150146484375,-0.02825249545276165,0.05299251899123192,0.046425722539424896
1772721959830496500,10.69549658203125,-0.05146535858511925,0.060933761298656464,0.013439024798572063
1772721959847842800,10.7128427734375,-0.05940660089254379,0.001679878099821508,0.0030543238390237093
1772721959865189000,10.730189208984376,-0.03375028073787689,-0.023976443335413933,0.013439024798572063
1772721959882535400,10.747535400390625,-0.012980876490473747,0.010842849500477314,0.01588248461484909
1772721959899881700,10.7648818359375,-0.005039634648710489,0.05299251899123192,0.034208428114652634
1772721959917228000,10.78222802734375,-0.011148282326757908,0.10063996911048889,0.049480047076940536
1772721959934574300,10.79957421875,-0.01847865991294384,0.08659008145332336,0.07330377399921417
1772721959951921000,10.8169208984375,-0.04780016839504242,0.02611446939408779,0.10629047453403473
1772721959969267200,10.83426708984375,-0.07345648854970932,-0.016646064817905426,0.15699224174022675
1772721959986613500,10.851613525390626,-0.08689551800489426,0.005345067009329796,0.22357651591300964
1772721960003959800,10.868959716796875,-0.06490438431501389,0.07742711156606674,0.27366742491722107
1772721960021306000,10.88630615234375,-0.06490438431501389,0.21975859999656677,0.2614501118659973
1772721960038652400,10.90365234375,-0.06551524996757507,0.28206682205200195,0.22785256803035736
1772721960055998700,10.920998779296875,-0.06734783947467804,0.2026543915271759,0.2107483446598053
1772721960073345000,10.938344970703126,-0.052687086164951324,0.10369429737329483,0.17653992772102356
1772721960090691300,10.95569140625,-0.027030766010284424,-0.04046979174017906,0.19730933010578156
1772721960108037600,10.97303759765625,-0.01359174121171236,-0.03252854943275452,0.20280711352825165
1772721960125384200,10.99038427734375,0.005345067009329796,0.08536835014820099,0.19792018830776215
1772721960142730200,11.007730224609375,0.024892739951610565,0.15317434072494507,0.20158538222312927
1772721960160076500,11.02507666015625,-0.017867794260382652,0.24052800238132477,0.17104214429855347
1772721960177423000,11.042423095703125,-0.08017600327730179,0.1409570425748825,0.16310089826583862
1772721960194769400,11.059769287109376,-0.12660172581672668,-0.07162389904260635,0.19425499439239502
1772721960212115700,11.07711572265625,-0.13881902396678925,-0.17486004531383514,0.19730933010578156
1772721960229462000,11.0944619140625,-0.11194097250699997,-0.22128576040267944,0.21135921776294708
1772721960246808300,11.111808349609374,-0.052687086164951324,-0.11255183815956116,0.21258094906806946
1772721960264154600,11.129154541015625,-0.012370011769235134,-0.033139415085315704,0.19242240488529205
1772721960281501000,11.1465009765625,-0.12232567369937897,0.1922696828842163,0.1637117564678192
1772721960298847200,11.16384716796875,-0.06490438431501389,0.07803797721862793,0.18142683804035187
1772721960316193500,11.181193603515625,-0.06307178735733032,0.21731515228748322,0.09285144507884979
1772721960333539800,11.198539794921874,0.03649916872382164,-0.0013744457392022014,0.11117739230394363
1772721960350886100,11.21588623046875,-0.03252854943275452,0.2594648003578186,0.014660755172371864
1772721960368232400,11.233232421875,-0.03497200831770897,0.2594648003578186,0.010995565913617611
1772721960385579000,11.2505791015625,-0.049632761627435684,-0.0062613640911877155,0.017715077847242355
1772721960402925300,11.26792529296875,-0.03252854943275452,-0.10644318908452988,0.004886918235570192
1772721960420271600,11.285271728515625,0.017562363296747208,-0.04780016839504242,-0.07330377399921417
1772721960437618000,11.302617919921875,0.05177079141139984,-0.020922118797898293,-0.18753549456596375
1772721960454964200,11.319964111328124,0.04260781779885292,-0.1461493968963623,-0.24251331388950348
1772721960472310500,11.337310546875,0.04016435891389847,-0.2793179154396057,-0.22846342623233795
1772721960489656800,11.35465673828125,0.02672533318400383,-0.388051837682724,-0.19181154668331146
1772721960507003100,11.372003173828125,0.006566796451807022,-0.4607447683811188,-0.08491020649671555
1772721960524349400,11.389349365234375,-0.0019853105768561363,-0.23105959594249725,-0.13683371245861053
1772721960541695700,11.40669580078125,-0.06734783947467804,-0.10766492038965225,-0.1893680840730667
1772721960559042000,11.4240419921875,-0.10949750989675522,-0.2280052751302719,-0.06047561392188072
1772721960576388600,11.441388671875,-0.0642935186624527,-0.25182899832725525,-0.06475166976451874
1772721960593735000,11.45873486328125,0.009621120058000088,-0.314748078584671,-0.08857539296150208
1772721960611081200,11.476081298828126,0.08109229803085327,-0.1357647031545639,-0.1026252806186676
1772721960628427500,11.493427490234374,0.0591011680662632,-0.17119485139846802,-0.06352993845939636
1772721960645773800,11.51077392578125,0.060322895646095276,-0.20540328323841095,-0.11362084746360779
1772721960663120100,11.5281201171875,0.047494735568761826,-0.14737112820148468,-0.14233149588108063
1772721960680466400,11.545466552734375,0.027947064489126205,-0.38011062145233154,0.026878049597144127
1772721960697812700,11.562812744140626,0.05482511222362518,-0.07345648854970932,-0.12583814561367035
1772721960715159000,11.580158935546875,-0.029474224895238876,-0.10888664424419403,-0.047036588191986084
1772721960732505300,11.59750537109375,-0.04230238497257233,-0.2597702443599701,0.08979712426662445
1772721960749851600,11.6148515625,-0.008704823441803455,0.0206166859716177,-0.14172062277793884
1772721960767198000,11.632197998046875,0.007788525894284248,0.04566214233636856,-0.09468404203653336
1772721960784544300,11.649544189453126,-0.016646064817905426,-0.009315688163042068,-0.08307760953903198
1772721960801890600,11.666890625,-0.009315688163042068,0.060933761298656464,-0.09101885557174683
1772721960819237000,11.684237060546875,-0.0025961752980947495,0.19471314549446106,0.11545344442129135
1772721960836583400,11.70158349609375,-0.04169152304530144,0.02977965772151947,0.31642794609069824
1772721960853929700,11.7189296875,-0.11255183815956116,0.505032479763031,0.24740023910999298
1772721960871276000,11.736276123046874,-0.08078686892986298,0.310166597366333,0.17043127119541168
1772721960888622300,11.753622314453125,-0.12110394239425659,0.12751802802085876,0.06841685622930527
1772721960905968600,11.77096875,-0.17302745580673218,-0.16569706797599792,0.01649334840476513
1772721960923315000,11.78831494140625,-0.1876882016658783,-0.2994764447212219,-0.04764745384454727
1772721960940661200,11.8056611328125,-0.1363755613565445,-0.3324631452560425,-0.08796452730894089
1772721960958007600,11.823007568359374,-0.17791436612606049,0.22953243553638458,-0.05192350596189499
1772721960975353900,11.840353759765625,0.0798705667257309,0.7750346660614014,0.12400554865598679
1772721960992700400,11.857700439453126,0.5062541961669922,1.338252067565918,0.28527384996414185
1772721961010046700,11.875046630859375,1.2124139070510864,1.3070979118347168,0.05864302068948746
1772721961027393000,11.89239306640625,1.2539526224136353,0.35414886474609375,-0.462424635887146
1772721961044739300,11.9097392578125,0.8593340516090393,-0.1204930767416954,-0.7195987105369568
1772721961062085600,11.927085693359375,0.7170025110244751,-0.29703301191329956,-0.6511818766593933
1772721961079432000,11.944431884765624,0.69012451171875,-0.7240274548530579,-0.4172206521034241
1772721961096778200,11.9617783203125,0.6345357894897461,-1.0001384019851685,-0.2779434621334076
1772721961114124500,11.97912451171875,0.5380191802978516,-0.32391104102134705,-0.6169734001159668
1772721961131470800,11.996470947265625,0.39080074429512024,0.32849252223968506,-0.6884446144104004
1772721961148817200,12.013817138671875,0.5227475166320801,0.6834049820899963,-0.7965676784515381
1772721961166163700,12.031163818359374,0.6760746240615845,1.2038617134094238,-1.1013891696929932
1772721961183510000,12.048510009765625,1.0541999340057373,1.292437195777893,-1.1423171758651733
1772721961200856300,12.065856201171876,1.3058761358261108,1.1556034088134766,-1.1661409139633179
1772721961218202600,12.08320263671875,1.7872376441955566,0.6882919073104858,-1.2107340097427368
1772721961235549000,12.100548828125,1.6467387676239014,0.38041603565216064,-1.1563670635223389
1772721961252895200,12.117895263671874,1.5239548683166504,-0.03436114266514778,-1.5008947849273682
1772721961270241500,12.135241455078125,1.4482076168060303,-0.3220784664154053,-2.1838417053222656
1772721961287587800,12.152587890625,1.4873030185699463,-0.6354520916938782,-2.414137601852417
1772721961304934100,12.16993408203125,1.4139991998672485,-1.3972004652023315,-2.1752893924713135
1772721961322280400,12.187280517578126,1.5514438152313232,-1.944535255432129,-1.5045599937438965
1772721961339626800,12.204626708984375,1.5923718214035034,-2.3855795860290527,-1.0512982606887817
1772721961356973000,12.22197314453125,1.0932952165603638,-2.1339035034179688,-1.2095122337341309
1772721961374319600,12.239319580078124,-0.3379609286785126,0.35537058115005493,-3.5717263221740723
1772721961391666000,12.256666015625,-2.1699445247650146,0.9882264733314514,-4.406167507171631
1772721961409012200,12.27401220703125,-3.1613779067993164,0.7841976881027222,-3.7543749809265137
1772721961426358500,12.291358642578125,-3.0697481632232666,0.4378373324871063,-2.381150960922241
1772721961443704800,12.308704833984375,-2.7447681427001953,-0.5658134818077087,-0.8729257583618164
1772721961461051100,12.326051025390624,-3.2682793140411377,-1.6818634271621704,-0.21868959069252014
1772721961478397400,12.3433974609375,-4.778337001800537,-2.0050108432769775,-0.49968740344047546
1772721961495743700,12.36074365234375,-6.614596366882324,-0.5340485572814941,-1.6200133562088013
1772721961513090000,12.378090087890625,-7.745918273925781,2.1195480823516846,-2.979187488555908
1772721961530436400,12.395436279296876,-8.15703010559082,3.9185447692871094,-3.336543321609497
1772721961547782700,12.41278271484375,-8.163138389587402,4.209316253662109,-2.952920436859131
1772721961565129200,12.430129150390625,-8.064789772033691,3.3040149211883545,-2.849684238433838
1772721961582475500,12.4474755859375,-7.851597785949707,2.4970624446868896,-3.3322672843933105
1772721961599821800,12.46482177734375,-7.03914737701416,3.603949546813965,-4.214966773986816
1772721961617168100,12.482168212890626,-5.741670608520508,5.226406574249268,-4.654178619384766
1772721961634514400,12.499514404296875,-4.789943218231201,5.755415439605713,-4.448928356170654
1772721961651860700,12.51686083984375,-4.417926788330078,4.835453033447266,-4.105011463165283
1772721961669207000,12.53420703125,-4.5223846435546875,3.6668684482574463,-3.7568182945251465
1772721961686553300,12.55155322265625,-4.00376033782959,2.710254192352295,-3.3762495517730713
1772721961703899600,12.568899658203126,-3.1357216835021973,2.3791656494140625,-2.7837107181549072
1772721961721246000,12.586245849609375,-2.3257148265838623,2.078620195388794,-1.8179335594177246
1772721961738592300,12.60359228515625,-1.6934698820114136,1.3351976871490479,-0.9370665550231934
1772721961755938800,12.620938720703125,-1.2646428346633911,1.2038617134094238,-0.5387827157974243
1772721961773285000,12.63828515625,-1.023962140083313,0.9088140726089478,-0.565049946308136
1772721961790631400,12.65563134765625,-0.5609265565872192,-0.008093958720564842,-0.24434591829776764
1772721961807977700,12.672977783203125,0.03222311660647392,-0.30253079533576965,-0.10384701192378998
1772721961825324000,12.690323974609376,0.10186170041561127,-0.31352636218070984,0.258395791053772
1772721961842670300,12.70767041015625,0.10430516302585602,-0.11255183815956116,1.4495820999145508
1772721961860016600,12.7250166015625,0.06643154472112656,-0.45707955956459045,2.629162073135376
1772721961877363000,12.742363037109374,0.10613775253295898,-1.4075851440429688,3.0048439502716064
1772721961894709200,12.759709228515625,0.29672756791114807,-2.344040870666504,2.263864755630493
1772721961912055600,12.7770556640625,0.5331322550773621,-1.852294683456421,1.1087195873260498
1772721961929401900,12.79440185546875,0.5575668215751648,0.021227551624178886,0.06414080411195755
1772721961946748200,12.811748046875,0.4341721534729004,1.9485058784484863,-0.6145299673080444
1772721961964094500,12.829094482421874,0.06887500733137131,1.883143424987793,-1.119104266166687
1772721961981441000,12.84644091796875,-0.3819431960582733,0.6327031850814819,-1.1728603839874268
1772721961998787300,12.863787353515624,-0.5474875569343567,0.669965922832489,-0.6701186895370483
1772721962016133600,12.881133544921875,-0.28664830327033997,1.402392864227295,-0.3530798554420471
1772721962033480000,12.89847998046875,0.12446369975805283,1.6119194030761719,-0.19425499439239502
1772721962050826200,12.915826171875,0.14034618437290192,1.2258528470993042,-0.08124501258134842
1772721962068172500,12.933172607421875,-0.06795870512723923,0.7176133990287781,0.27000224590301514
1772721962085518800,12.950518798828124,-0.2133445292711258,0.3321577310562134,0.6701186895370483
1772721962102865200,12.967865234375,-0.12843431532382965,0.13362666964530945,0.7373138070106506
1772721962120211500,12.98521142578125,0.14706569910049438,0.1879936307668686,0.5400044918060303
1772721962137557800,13.002557861328125,0.2582430839538574,0.41157013177871704,0.28038692474365234
1772721962154904000,13.019904052734375,0.14706569910049438,0.577725350856781,0.24434591829776764
1772721962172250400,13.03725048828125,0.02916879393160343,0.5221366882324219,0.31093016266822815
1772721962189597000,13.054596923828125,-0.03130681812763214,0.5227475166320801,0.33169957995414734
1772721962206943200,13.071943115234374,-0.0062613640911877155,0.539851725101471,0.2364046722650528
1772721962224289500,13.08928955078125,0.06765327602624893,0.4549415409564972,0.185092031955719
1772721962241635800,13.1066357421875,0.08414662629365921,0.35414886474609375,0.2822195291519165
1772721962258982100,13.123982177734375,0.07681624591350555,0.38591381907463074,0.2993237376213074
1772721962276328400,13.141328369140625,0.07254019379615784,0.5062541961669922,0.32131487131118774
1772721962293674800,13.1586748046875,0.03711003437638283,0.13362666964530945,0.31459537148475647
1772721962311021000,13.17602099609375,0.12690715491771698,-0.052076224237680435,0.2516762912273407
1772721962328367400,13.193367431640626,0.09147699922323227,0.12873975932598114,0.09651663154363632
1772721962345713700,13.210713623046875,-0.1406516134738922,0.4091266989707947,0.12156209349632263
