time,seconds_elapsed,z,y,x
1772698613861249800,0.085249755859375,-0.4251618981361389,0.720820426940918,1.0079269409179688
1772698613878592500,0.102592529296875,-0.48991355299949646,1.2363903522491455,0.5626064538955688
1772698613895938800,0.119938720703125,-0.40255987644195557,1.36772620677948,-0.14233149588108063
1772698613913285400,0.137285400390625,-0.3023780584335327,1.247385859489441,-0.8442151546478271
1772698613930631700,0.154631591796875,-0.268169641494751,0.08674279600381851,-0.9975422024726868
1772698613947978000,0.17197802734375,0.14782927930355072,-1.8759657144546509,-0.8155044913291931
1772698613965324300,0.18932421875,0.5809323787689209,-3.0378305912017822,-0.3481929302215576
1772698613982670600,0.206670654296875,0.7244856357574463,-3.0164501667022705,0.38240134716033936
1772698614000017000,0.224016845703125,0.3042106628417969,-1.5167772769927979,0.7079922556877136
1772698614017363500,0.241363525390625,0.5241219997406006,-0.8649845123291016,0.3952295184135437
1772698614034709800,0.258709716796875,1.3005311489105225,-1.5008947849273682,-0.2675587832927704
1772698614052056000,0.27605615234375,1.4398082494735718,-2.3457207679748535,-0.5381718873977661
1772698614069402400,0.29340234375,1.6071852445602417,-2.6560399532318115,-0.3799578845500946
1772698614086748700,0.310748779296875,2.1135921478271484,-2.979187488555908,-0.1130099818110466
1772698614104095200,0.32809521484375,2.3463315963745117,-3.6810710430145264,-0.08429934084415436
1772698614121441500,0.345441650390625,2.450178623199463,-3.3884668350219727,-0.29565855860710144
1772698614138787800,0.362787841796875,2.604116439819336,-3.3292131423950195,-0.401949018239975
1772698614156134100,0.380134033203125,3.0421066284179688,-3.467268466949463,-0.5992583632469177
1772698614173480400,0.39748046875,3.5112507343292236,-3.1135778427124023,-1.1679733991622925
1772698614190826800,0.41482666015625,3.7757551670074463,-2.29624080657959,-1.9193371534347534
1772698614208173000,0.432173095703125,3.962069034576416,-1.6682716608047485,-2.5021021366119385
1772698614225519600,0.44951953125,3.9883360862731934,-1.5320488214492798,-2.7348415851593018
1772698614242866000,0.466865966796875,4.0530877113342285,-1.944993495941162,-2.6090035438537598
1772698614260212200,0.484212158203125,4.494132041931152,-2.3145666122436523,-2.5216498374938965
1772698614277558500,0.50155859375,4.812392711639404,-2.1838417053222656,-3.0659303665161133
1772698614294904800,0.51890478515625,4.868592262268066,-1.6279546022415161,-3.637699842453003
1772698614312251100,0.536251220703125,4.794066905975342,-1.3836086988449097,-3.6780169010162354
1772698614329597700,0.55359765625,4.659676551818848,-1.7091996669769287,-3.190546751022339
1772698614346944000,0.570944091796875,4.647459030151367,-1.915061116218567,-3.1080799102783203
1772698614364290300,0.588290283203125,4.674337387084961,-1.5314379930496216,-3.321882724761963
1772698614381636600,0.60563671875,4.797121047973633,-1.0439679622650146,-3.266904830932617
1772698614398983000,0.62298291015625,4.8826422691345215,-0.5338957905769348,-2.766606569290161
1772698614416329500,0.64032958984375,4.75069522857666,0.021380268037319183,-2.720791816711426
1772698614433675800,0.65767578125,4.515512466430664,0.7195987105369568,-3.095862627029419
1772698614451022000,0.67502197265625,4.236347198486328,0.94439697265625,-3.285230875015259
1772698614468368400,0.692368408203125,3.808741807937622,0.9676098227500916,-2.7757694721221924
1772698614485714700,0.709714599609375,3.3933539390563965,0.94439697265625,-1.4935643672943115
1772698614503061000,0.72706103515625,3.104414701461792,0.9138537049293518,-0.4428769648075104
1772698614520407600,0.744407470703125,3.134958028793335,1.0512982606887817,-0.12095122784376144
1772698614537753900,0.76175390625,3.1251842975616455,0.972496747970581,-0.22418737411499023
1772698614555100200,0.77910009765625,2.9217662811279297,0.7757982611656189,-0.23884813487529755
1772698614572446500,0.796446533203125,2.679863691329956,0.48991355299949646,0.024434590712189674
1772698614589792800,0.813792724609375,2.4300200939178467,0.27855435013771057,0.2938259541988373
1772698614607139300,0.831139404296875,2.51431941986084,0.5051851868629456,0.5442805290222168
1772698614624485600,0.848485595703125,2.855792760848999,0.25534147024154663,0.7764091491699219
1772698614641832000,0.86583203125,2.938870429992676,-0.3133736252784729,0.9101884961128235
1772698614659178200,0.88317822265625,2.8900012969970703,-0.7446441650390625,1.0286962985992432
1772698614676524500,0.900524658203125,2.7397284507751465,-1.219896912574768,1.0115920305252075
1772698614693871000,0.91787109375,2.265697479248047,-1.3762784004211426,0.8918625712394714
1772698614711217400,0.935217529296875,1.51616632938385,-0.7452550530433655,0.833219587802887
1772698614728563700,0.952563720703125,0.6334667801856995,-0.001221729558892548,0.4929678738117218
1772698614745910000,0.969909912109375,-0.09101885557174683,0.6261364221572876,0.08491020649671555
1772698614763256300,0.98725634765625,-0.19425499439239502,0.8472694754600525,-0.1496618688106537
1772698614780603000,1.004602783203125,-0.056810423731803894,0.6817250847816467,-0.17165300250053406
1772698614797949200,1.02194921875,0.09590577334165573,0.3170388340950012,-0.06597339361906052
1772698614815295500,1.03929541015625,0.1893680840730667,0.10140355676412582,-0.10140355676412582
1772698614832641800,1.056641845703125,0.22235478460788727,0.03176496922969818,-0.30970844626426697
1772698614849988000,1.073988037109375,0.4868592321872711,0.06230820715427399,-0.26389357447624207
1772698614867334700,1.091334716796875,0.7049379348754883,-0.09407317638397217,-0.11606431007385254
1772698614884681000,1.108680908203125,0.7147117853164673,-0.14538581669330597,-0.05925388261675835
1772698614902027300,1.12602734375,0.7965676784515381,0.2669478952884674,-0.17287473380565643
1772698614919373600,1.14337353515625,0.9468404054641724,0.8197805285453796,-0.01893680728971958
1772698614936720100,1.16072021484375,1.2174534797668457,1.4721840620040894,0.8338304162025452
1772698614954066400,1.17806640625,1.5393792390823364,2.371987819671631,1.5112794637680054
1772698614971412700,1.195412841796875,1.629176378250122,3.2400267124176025,0.8307760953903198
1772698614988759000,1.212759033203125,0.9877683520317078,2.9107706546783447,0.36224281787872314
1772698615006105300,1.230105224609375,0.3225366175174713,2.5528039932250977,-0.6786707639694214
1772698615023451600,1.24745166015625,0.04825831577181816,1.8252639770507812,-0.9028581380844116
1772698615040798200,1.264798095703125,0.12400554865598679,1.5430444478988647,-0.3231474757194519
1772698615058144500,1.28214453125,0.3249800503253937,0.9297361969947815,0.17043127119541168
1772698615075490800,1.29949072265625,0.38179048895835876,0.8692606091499329,0.4508182108402252
1772698615092837000,1.316837158203125,0.42271843552589417,1.0409135818481445,0.5082395076751709
1772698615110183400,1.334183349609375,0.23396120965480804,0.8167262077331543,0.4520399272441864
1772698615127530000,1.351530029296875,-0.06291907280683517,0.4612029194831848,0.19303326308727264
1772698615144876300,1.368876220703125,-0.46547895669937134,-0.12522727251052856,-0.05436696484684944
1772698615162222600,1.38622265625,-0.564439058303833,-0.3909534513950348,-0.18142683804035187
1772698615179569000,1.40356884765625,-0.6438514590263367,-0.15577052533626556,0.0769689604640007
1772698615196915200,1.420915283203125,-0.748920202255249,0.5009090900421143,0.3689623177051544
1772698615214261800,1.43826171875,-0.7244856357574463,1.1398736238479614,0.44898560643196106
1772698615231608000,1.455608154296875,-0.5577195286750793,1.0971131324768066,0.37751442193984985
1772698615248954400,1.472954345703125,-0.43493571877479553,0.5192350745201111,0.12705987691879272
1772698615266300700,1.49030078125,-0.5558869242668152,-0.13500112295150757,-0.18081597983837128
1772698615283647200,1.507647216796875,-0.6499601006507874,0.013439024798572063,-0.5766563415527344
1772698615300993500,1.52499365234375,-0.5876519083976746,0.370184063911438,-0.7922916412353516
1772698615318339800,1.54233984375,-0.8637627959251404,0.6432406306266785,-0.7855721116065979
1772698615335686100,1.55968603515625,-0.42882707715034485,1.2999202013015747,-0.7049379348754883
1772698615353032400,1.577032470703125,0.17776164412498474,1.1783581972122192,-0.9523382186889648
1772698615370379000,1.59437890625,-0.12217295914888382,-0.25961753726005554,-0.7525854110717773
1772698615387725300,1.611725341796875,-0.3805687427520752,-0.13133592903614044,-0.5803215503692627
1772698615405071600,1.629071533203125,-1.546709656715393,-0.22846342623233795,-1.1215476989746094
1772698615422418000,1.64641796875,-1.5735876560211182,-0.7812960743904114,-1.896124243736267
1772698615439764200,1.66376416015625,-1.0482439994812012,-0.7067705392837524,-1.6688826084136963
1772698615457110800,1.68111083984375,-0.9731075763702393,0.09346231073141098,-1.4874557256698608
1772698615474457000,1.69845703125,-1.3475676774978638,0.8918625712394714,-1.9120067358016968
1772698615491803400,1.715803466796875,-1.9822561740875244,0.7812960743904114,-1.950491189956665
1772698615509149700,1.733149658203125,-2.2956297397613525,-0.1692095398902893,-1.6340632438659668
1772698615526496300,1.750496337890625,-2.003025531768799,-0.9706641435623169,-1.1013891696929932
1772698615543842600,1.767842529296875,-1.518609881401062,-0.7971785664558411,-1.1911863088607788
1772698615561188900,1.78518896484375,-1.3353503942489624,-0.472198486328125,-1.4471386671066284
1772698615578535200,1.80253515625,-2.0244059562683105,-1.3683371543884277,-0.6792816519737244
1772698615595881500,1.819881591796875,-1.464242935180664,-0.16065743565559387,-0.7342594861984253
1772698615613228000,1.83722802734375,-0.8472694754600525,0.6389645338058472,-1.0739002227783203
1772698615630574300,1.85457421875,-0.31581708788871765,1.0329723358154297,-0.880256175994873
1772698615647920600,1.871920654296875,-0.19303326308727264,0.9511164426803589,-0.6499601006507874
1772698615665267000,1.889266845703125,0.21135921776294708,1.450192928314209,-0.3543015718460083
1772698615682613500,1.906613525390625,-0.02932151034474373,0.6071996092796326,0.08002328872680664
1772698615699959800,1.923959716796875,0.22418737411499023,-0.42271843552589417,0.33597561717033386
1772698615717306000,1.94130615234375,0.48563748598098755,-0.8472694754600525,0.5192350745201111
1772698615734652400,1.95865234375,0.21930044889450073,-1.062904715538025,0.6194168925285339
1772698615751999000,1.9759990234375,-0.29138249158859253,-0.9706641435623169,0.7177661061286926
1772698615769345300,1.99334521484375,-0.6939423680305481,-0.47036588191986084,0.8148936033248901
1772698615786691600,2.010691650390625,-1.0445787906646729,0.2156352698802948,0.730594277381897
1772698615804038000,2.028037841796875,-1.331685185432434,0.554665207862854,0.48563748598098755
1772698615821384200,2.04538427734375,-1.6420044898986816,0.48441576957702637,0.2675587832927704
1772698615838730800,2.062730712890625,-1.85092031955719,0.5913171172142029,0.1899789422750473
1772698615856077000,2.0800771484375,-0.4789179861545563,2.089768409729004,-0.8167262077331543
1772698615873423400,2.09742333984375,-0.5803215503692627,-0.3610210716724396,-0.10079269111156464
1772698615890769700,2.114769775390625,-0.536339282989502,-0.7788525819778442,0.6322450637817383
1772698615908116000,2.132115966796875,-0.7165443897247314,-2.34694242477417,-0.05925388261675835
1772698615925462500,2.149462646484375,-0.9474512934684753,0.2926042377948761,-1.0390809774398804
1772698615942808800,2.166808837890625,-0.08307760953903198,1.0690133571624756,0.9596685767173767
1772698615960155100,2.184155029296875,1.0445787906646729,-0.33536475896835327,1.2217295169830322
1772698615977501400,2.20150146484375,1.1435388326644897,0.08979712426662445,1.619402527809143
1772698615994847700,2.21884765625,0.6872228980064392,-0.7415898442268372,1.2718204259872437
1772698616012194300,2.2361943359375,0.006719512399286032,-1.3994911909103394,0.2657261788845062
1772698616029540600,2.25354052734375,-0.481361448764801,-1.6187916994094849,-0.4984656572341919
1772698616046887000,2.270886962890625,-0.3274235129356384,-1.237612009048462,-0.07086031138896942
1772698616064233200,2.288233154296875,-0.11606431007385254,-0.9138537049293518,0.379347026348114
1772698616081579800,2.305579833984375,-0.07635809481143951,-0.5516108870506287,0.5387827157974243
1772698616098926000,2.322926025390625,-0.04276053607463837,-0.5155698657035828,0.5687150955200195
1772698616116272400,2.3402724609375,0.01954767294228077,-0.6023126840591431,0.45387253165245056
1772698616133618700,2.35761865234375,0.053145237267017365,-0.7024945020675659,0.2883281707763672
1772698616150965200,2.37496533203125,0.07635809481143951,-0.8594867587089539,0.2608392536640167
1772698616168311600,2.3923115234375,0.07819069176912308,-0.7134900689125061,0.2467893660068512
1772698616185657900,2.409657958984375,0.0818558782339096,-0.38179048895835876,0.11545344442129135
1772698616203004200,2.427004150390625,0.15088360011577606,-0.3738492429256439,0.09529490768909454
1772698616220350700,2.444350830078125,0.25900667905807495,-0.4379900395870209,0.06230820715427399
1772698616237697000,2.461697021484375,0.36651885509490967,-0.5057960152626038,0.02626718580722809
1772698616255043300,2.479043212890625,0.43371400237083435,-0.5119046568870544,0.020769402384757996
1772698616272389600,2.4963896484375,0.4520399272441864,-0.48075059056282043,0.0256563201546669
1772698616289736200,2.513736083984375,0.4508182108402252,-0.471587598323822,0.029932374134659767
1772698616307082500,2.53108251953125,0.44898560643196106,-0.5247328281402588,0.015271619893610477
1772698616324428800,2.5484287109375,0.44348782300949097,-0.5858193039894104,-0.023823726922273636
1772698616341775000,2.565775146484375,0.4062250852584839,-0.6603448390960693,-0.0769689604640007
1772698616359121400,2.583121337890625,0.2974911332130432,-0.7202095985412598,-0.1844811588525772
1772698616376468000,2.600468017578125,0.1594357043504715,-0.6963858604431152,-0.34086254239082336
1772698616393814300,2.617814208984375,0.09468404203653336,-0.6298015713691711,-0.5033525824546814
1772698616411160600,2.63516064453125,0.12583814561367035,-0.3298669755458832,-0.6591231226921082
1772698616428507100,2.652507080078125,0.08124501258134842,0.4062250852584839,-0.6169734001159668
1772698616445853400,2.669853515625,0.01893680728971958,0.9382883310317993,-0.389120876789093
1772698616463199700,2.68719970703125,-0.04153880476951599,0.9474512934684753,-0.49663305282592773
1772698616480546000,2.704546142578125,-0.47586366534233093,0.4367683231830597,-0.5827649831771851
1772698616497892400,2.721892333984375,-0.8503237962722778,0.12034036219120026,-0.6273581385612488
1772698616515239000,2.739239013671875,-1.1691951751708984,0.16615521907806396,-0.8472694754600525
1772698616532585200,2.756585205078125,-1.0091485977172852,0.1496618688106537,-0.9798271059989929
1772698616549931500,2.773931640625,-0.526565432548523,-0.11728604137897491,-0.9773836731910706
1772698616567278000,2.791278076171875,0.007330377586185932,-0.39889469742774963,-0.7409789562225342
1772698616584624400,2.808624267578125,0.33658650517463684,-0.5308414697647095,-0.3695732057094574
1772698616601970700,2.825970703125,0.4373791813850403,-0.4214966893196106,-0.10018182545900345
1772698616619317000,2.84331689453125,0.41783151030540466,-0.11667517572641373,0.034208428114652634
1772698616636663600,2.86066357421875,0.2877173125743866,0.23823726177215576,0.08979712426662445
1772698616654009900,2.878009765625,0.07574722915887833,0.45875945687294006,0.17837251722812653
1772698616671356200,2.895356201171875,-0.006108647678047419,0.5870410799980164,0.15027274191379547
1772698616688702500,2.912702392578125,0.05436696484684944,0.7177661061286926,-0.01588248461484909
1772698616706048800,2.930048828125,0.2577849328517914,0.7055488228797913,-0.15638138353824615
1772698616723395300,2.947395263671875,0.47036588191986084,0.5760455131530762,-0.13683371245861053
1772698616740741600,2.96474169921875,0.48441576957702637,0.48930269479751587,-0.039706211537122726
1772698616758088000,2.982087890625,0.36163195967674255,0.5106829404830933,-0.07513637095689774
1772698616775434200,2.999434326171875,0.24984370172023773,0.7134900689125061,-0.18325942754745483
1772698616792780800,3.01678076171875,0.17348559200763702,1.0024291276931763,-0.26389357447624207
1772698616810127000,3.034127197265625,0.1588248461484909,1.0543526411056519,-0.22846342623233795
1772698616827473400,3.051473388671875,0.1594357043504715,1.135597586631775,-0.17226386070251465
1772698616844819700,3.06881982421875,0.1380554437637329,0.7709113359451294,-0.13255766034126282
1772698616862166300,3.086166259765625,0.08979712426662445,0.8069523572921753,-0.19669845700263977
1772698616879512600,3.1035126953125,0.059864748269319534,0.8203914165496826,-0.25411975383758545
1772698616896859000,3.12085888671875,-0.0360410213470459,1.2168426513671875,-0.21868959069252014
1772698616914205400,3.138205322265625,-0.2632827162742615,1.3365721702575684,-0.0513126403093338
1772698616931551700,3.1555517578125,-0.4062250852584839,1.552207350730896,0.2767217457294464
1772698616948898000,3.17289794921875,-0.32681265473365784,1.5430444478988647,0.472198486328125
1772698616966244400,3.190244384765625,-0.13683371245861053,1.1875211000442505,0.2571740746498108
1772698616983590700,3.207590576171875,-0.031154103577136993,0.833219587802887,-0.12705987691879272
1772698617000937200,3.224937255859375,-0.06475166976451874,0.7189878225326538,-0.4422661066055298
1772698617018283500,3.242283447265625,-0.12644900381565094,0.8845322132110596,-0.43493571877479553
1772698617035629800,3.2596298828125,-0.17776164412498474,0.6963858604431152,-0.1496618688106537
1772698617052976000,3.27697607421875,-0.0513126403093338,0.5534434914588928,-0.08368847519159317
1772698617070322400,3.294322509765625,0.19425499439239502,0.287106454372406,-0.3909534513950348
1772698617087669000,3.3116689453125,0.4776962697505951,-0.14049890637397766,-0.5907062292098999
1772698617105015300,3.329015380859375,0.7556397318840027,-0.41844236850738525,-0.44470956921577454
1772698617122361600,3.346361572265625,1.1264346837997437,-0.6701186895370483,-0.07757982611656189
1772698617139708000,3.3637080078125,1.459966778755188,-0.7916807532310486,0.49113526940345764
1772698617157054500,3.381054443359375,1.5393792390823364,-1.0152572393417358,1.0653481483459473
1772698617174400800,3.39840087890625,1.4587451219558716,-1.2815942764282227,1.5851941108703613
1772698617191747000,3.4157470703125,1.2205078601837158,-1.4489712715148926,2.0109667778015137
1772698617209093600,3.43309375,0.7422007322311401,-1.515555500984192,2.0292928218841553
1772698617226440000,3.45043994140625,0.1026252806186676,-1.0690133571624756,1.766010046005249
1772698617243786200,3.4677861328125,-0.2632827162742615,-0.42455101013183594,1.2333359718322754
1772698617261132500,3.485132568359375,-0.19181154668331146,-0.2724456787109375,0.9010255336761475
1772698617278479000,3.50247900390625,-0.11362084746360779,-1.0653481483459473,0.823445737361908
1772698617295825400,3.519825439453125,-0.43860089778900146,-1.7354668378829956,0.7800742983818054
1772698617313171700,3.537171630859375,-0.7757982611656189,-1.5442661046981812,0.730594277381897
1772698617330518000,3.55451806640625,-0.8918625712394714,-0.9352339506149292,0.5674933791160583
1772698617347864600,3.571864501953125,-0.9034690260887146,-0.5210676789283752,0.3744601011276245
1772698617365211000,3.5892109375,-0.9902117848396301,-0.3903425931930542,0.38667741417884827
1772698617382557200,3.60655712890625,-0.9853248596191406,-0.8521563410758972,0.6004800796508789
1772698617399903500,3.623903564453125,-0.8173370957374573,-1.135597586631775,0.6768381595611572
1772698617417250000,3.64125,-0.5729911923408508,-1.1612539291381836,0.49968740344047546
1772698617434596400,3.658596435546875,-0.3799578845500946,-1.0830632448196411,0.3072649836540222
1772698617451942700,3.675942626953125,-0.23823726177215576,-0.8869756460189819,0.14172062277793884
1772698617469289200,3.693289306640625,-0.08002328872680664,-0.7086031436920166,-0.03298669680953026
1772698617486635500,3.710635498046875,0.05925388261675835,-0.6426297426223755,-0.14110976457595825
1772698617503981800,3.72798193359375,0.2370155304670334,-0.6194168925285339,-0.1594357043504715
1772698617521328000,3.745328125,0.42088583111763,-0.583375871181488,-0.14599667489528656
1772698617538674700,3.7626748046875,0.5418370366096497,-0.4764745235443115,-0.22235478460788727
1772698617556021000,3.78002099609375,0.4630354940891266,-0.2632827162742615,-0.3952295184135437
1772698617573367300,3.7973671875,0.22296564280986786,-0.09101885557174683,-0.35063639283180237
1772698617590713600,3.814713623046875,-0.02260199747979641,-0.12461641430854797,-0.06291907280683517
1772698617608060200,3.83206005859375,-0.2565632164478302,-0.0360410213470459,0.1899789422750473
1772698617625406500,3.849406494140625,-0.20952661335468292,0.2528980076313019,0.23945899307727814
1772698617642752800,3.866752685546875,0.012217295356094837,0.16798780858516693,0.03176496922969818
1772698617660099300,3.884099365234375,0.06291907280683517,-0.38850998878479004,-0.32681265473365784
1772698617677445600,3.901445556640625,0.1588248461484909,-0.4050033390522003,-0.8289434909820557
1772698617694792000,3.9187919921875,0.09346231073141098,0.15088360011577606,-1.1392627954483032
1772698617712138200,3.93613818359375,-0.04825831577181816,0.5925388336181641,-1.3115266561508179
1772698617729484800,3.95348486328125,-0.32620179653167725,0.31520622968673706,-1.0177006721496582
1772698617746831000,3.9708310546875,-1.05496346950531,-0.12767073512077332,-0.6536253094673157
1772698617764177400,3.988177490234375,-1.913839340209961,0.1637117564678192,-1.2266165018081665
1772698617781524000,4.00552392578125,-1.9767584800720215,-0.0513126403093338,-1.6872085332870483
1772698617798870300,4.022870361328125,-1.4178171157836914,-0.7177661061286926,-1.7434080839157104
1772698617816216600,4.040216552734375,-0.37690356373786926,-1.2266165018081665,-1.4007129669189453
1772698617833563000,4.05756298828125,0.6908880472183228,-1.1789690256118774,-0.5436696410179138
1772698617850909400,4.074909423828125,1.1954623460769653,-0.7898481488227844,0.20219624042510986
1772698617868255700,4.092255859375,1.4110976457595825,-0.19914191961288452,0.13194678723812103
1772698617885602000,4.10960205078125,1.2870920896530151,0.5784889459609985,-0.33231043815612793
1772698617902948600,4.126948486328125,0.46364638209342957,0.7764091491699219,-0.2364046722650528
1772698617920295000,4.144294921875,-0.35674503445625305,0.8356630206108093,-0.023212861269712448
1772698617937641200,4.16164111328125,-0.6933315396308899,1.2302817106246948,-0.03787361457943916
1772698617954987500,4.178987548828125,-0.48991355299949646,1.5094468593597412,-0.2162461280822754
1772698617972334000,4.196333984375,0.12034036219120026,1.4294235706329346,-0.32681265473365784
1772698617989680400,4.213680419921875,0.583375871181488,1.1307107210159302,-0.23518294095993042
1772698618007026700,4.231026611328125,0.7452550530433655,0.8484911918640137,-0.1484401375055313
1772698618024373200,4.248373291015625,0.6035344004631042,0.8570432662963867,-0.17898337543010712
1772698618041719600,4.265719482421875,0.3805687427520752,1.147204041481018,-0.3946186602115631
1772698618059065900,4.28306591796875,0.26511532068252563,1.2070688009262085,-0.573602020740509
1772698618076412200,4.300412109375,0.18753549456596375,1.0250310897827148,-0.4935787320137024
1772698618093758700,4.3177587890625,0.06597339361906052,0.94439697265625,-0.23273947834968567
1772698618111105000,4.33510498046875,-0.05925388261675835,1.1123847961425781,0.04214967042207718
1772698618128451300,4.352451416015625,-0.1331685185432434,1.4013237953186035,0.20280711352825165
1772698618145797600,4.369797607421875,-0.050090912729501724,1.4813470840454102,0.21991132199764252
1772698618163144200,4.387144287109375,0.1893680840730667,1.1087195873260498,0.1649334877729416
1772698618180490500,4.404490478515625,0.26878049969673157,0.544891357421875,0.08796452730894089
1772698618197836800,4.4218369140625,-0.08796452730894089,0.09529490768909454,0.0824667438864708
1772698618215183000,4.43918310546875,-0.4312705397605896,-0.08613193035125732,0.053145237267017365
1772698618232529700,4.45652978515625,-0.23029601573944092,-0.12156209349632263,-0.21930044889450073
1772698618249876000,4.4738759765625,0.3292561173439026,-0.3549124300479889,-0.4862483739852905
1772698618267222300,4.49122216796875,0.7996219992637634,-0.4416552484035492,-0.37323838472366333
1772698618284568600,4.508568603515625,1.026863694190979,-0.39889469742774963,-0.006719512399286032
1772698618301915100,4.5259150390625,1.186299443244934,-0.5015199780464172,0.49541133642196655
1772698618319261400,4.543261474609375,1.3023637533187866,-0.6731730103492737,1.0622938871383667
1772698618336607700,4.560607666015625,1.463021159172058,-0.7348703145980835,1.7556253671646118
1772698618353954300,4.577954345703125,1.6914845705032349,-0.8191696405410767,2.310290575027466
1772698618371300600,4.595300537109375,1.7061452865600586,-1.053130865097046,2.3933682441711426
1772698618388647000,4.61264697265625,1.29503333568573,-1.2034035921096802,1.9688172340393066
1772698618405993500,4.629993408203125,0.7757982611656189,-0.8185588121414185,1.4031563997268677
1772698618423339800,4.64733984375,0.10629047453403473,-0.8344413042068481,1.2986985445022583
1772698618440686000,4.66468603515625,-0.564439058303833,-1.505781650543213,1.232114315032959
1772698618458032400,4.682032470703125,-1.4025455713272095,-1.9645410776138306,0.8222240209579468
1772698618475379000,4.69937890625,-1.4996730089187622,-1.362228512763977,0.4159989058971405
1772698618492725200,4.716725341796875,-1.2046253681182861,-0.2981020212173462,0.05436696484684944
1772698618510071600,4.734071533203125,-0.9272927641868591,-0.44470956921577454,0.10140355676412582
1772698618527418000,4.751418212890625,-0.7605266571044922,-0.850934624671936,0.48991355299949646
1772698618544764400,4.768764404296875,-0.7464767694473267,-1.0622938871383667,0.7122683525085449
1772698618562110700,4.78611083984375,-0.7141009569168091,-1.4648537635803223,0.695164144039154
1772698618579457000,4.80345703125,-0.48930269479751587,-1.6982040405273438,0.47586366534233093
1772698618596803600,4.820803466796875,-0.26022839546203613,-1.3634501695632935,0.16615521907806396
1772698618614150000,4.83814990234375,-0.12522727251052856,-0.7324268817901611,-0.04825831577181816
1772698618631496200,4.85549609375,0.12705987691879272,-0.46975502371788025,-0.09285144507884979
1772698618648842800,4.8728427734375,0.3329212963581085,-0.49480047821998596,-0.14660754799842834
1772698618666189000,4.89018896484375,0.5180133581161499,-0.6243038177490234,-0.21380266547203064
1772698618683535400,4.907535400390625,0.6603448390960693,-0.6927206516265869,-0.3488037884235382
1772698618700882000,4.9248818359375,0.667064368724823,-0.6450732350349426,-0.47586366534233093
1772698618718228200,4.942228271484375,0.5027416944503784,-0.3995055556297302,-0.45509424805641174
1772698618735574500,4.959574462890625,0.20891575515270233,-0.14782927930355072,-0.2828303873538971
1772698618752921000,4.976921142578125,-0.08307760953903198,-0.017715077847242355,0.027488915249705315
1772698618770267400,4.994267333984375,-0.2822195291519165,0.08429934084415436,0.2559523284435272
1772698618787613700,5.01161376953125,-0.3744601011276245,-0.033597562462091446,0.20158538222312927
1772698618804960300,5.028960205078125,-0.3231474757194519,-0.5534434914588928,-0.053145237267017365
1772698618822306600,5.046306640625,-0.1441640853881836,-0.5992583632469177,-0.4679224193096161
1772698618839652900,5.06365283203125,-0.1130099818110466,-0.014660755172371864,-0.9975422024726868
1772698618856999200,5.080999267578125,-0.0720820426940918,0.5583304166793823,-1.3060288429260254
1772698618874345700,5.098345703125,-0.38240134716033936,0.6389645338058472,-1.2913681268692017
1772698618891692000,5.115692138671875,-0.84177166223526,-0.33047783374786377,-0.6994401812553406
1772698618909038300,5.133038330078125,-1.6768238544464111,-0.32559093832969666,-0.9107993841171265
1772698618926385000,5.150385009765625,-1.9553781747817993,-0.19181154668331146,-1.6395610570907593
1772698618943731200,5.167731201171875,-1.5216641426086426,-0.7031053900718689,-1.9669846296310425
1772698618961077500,5.185077392578125,-0.7391464114189148,-1.1056652069091797,-1.6670500040054321
1772698618978424000,5.202424072265625,0.22785256803035736,-1.3127484321594238,-0.8246674537658691
1772698618995770400,5.219770263671875,1.1563670635223389,-0.9553925395011902,-0.03481929376721382
1772698619013116700,5.23711669921875,1.4037672281265259,-0.34208428859710693,0.10140355676412582
1772698619030463200,5.254463134765625,1.196073293685913,0.5112938284873962,-0.2932150959968567
1772698619047809500,5.2718095703125,0.5992583632469177,1.1404845714569092,-0.27977606654167175
1772698619065155800,5.28915576171875,-0.14110976457595825,1.1575887203216553,0.10567960888147354
1772698619082502100,5.306502197265625,-0.546113133430481,1.6462805271148682,0.043371398001909256
1772698619099848700,5.3238486328125,-0.5186241865158081,1.8240422010421753,-0.1288924664258957
1772698619117195000,5.341195068359375,-0.08491020649671555,1.5650355815887451,-0.1802051067352295
1772698619134541300,5.358541259765625,0.4007273018360138,1.4013237953186035,-0.07330377399921417
1772698619151888000,5.375887939453125,0.7159335017204285,1.1850776672363281,-0.025045456364750862
1772698619169234200,5.393234130859375,0.6524035930633545,1.1026109457015991,-0.1081230640411377
1772698619186580500,5.41058056640625,0.3799578845500946,1.3836086988449097,-0.33597561717033386
1772698619203927000,5.427927001953125,0.17837251722812653,1.5705333948135376,-0.5992583632469177
1772698619221273300,5.4452734375,0.08796452730894089,1.4110976457595825,-0.6035344004631042
1772698619238619600,5.46261962890625,0.036651886999607086,1.2400555610656738,-0.411722868680954
1772698619255966000,5.479966064453125,0.05253437161445618,1.3261874914169312,-0.17715078592300415
1772698619273312500,5.4973125,0.09285144507884979,1.6016874313354492,0.010995565913617611
1772698619290658800,5.514658935546875,0.05864302068948746,1.821598768234253,0.14294235408306122
1772698619308005000,5.532005126953125,0.04276053607463837,1.6682716608047485,0.2364046722650528
1772698619325351700,5.5493515625,0.06963858753442764,1.1850776672363281,0.1698204129934311
1772698619342698000,5.566697998046875,0.009162971749901772,0.6927206516265869,-0.08918625861406326
1772698619360044300,5.584044189453125,-0.20463970303535461,0.37690356373786926,-0.3292561173439026
1772698619377390800,5.601390869140625,-0.3744601011276245,0.026878049597144127,-0.370184063911438
1772698619394737200,5.618737060546875,-0.17531819641590118,-0.06780599057674408,-0.22296564280986786
1772698619412083500,5.63608349609375,0.4050033390522003,-0.08368847519159317,-0.19853104650974274
1772698619429429800,5.6534296875,0.7861829996109009,-0.18570289015769958,-0.20952661335468292
1772698619446776300,5.6707763671875,0.8820887207984924,-0.2712239623069763,-0.1997527778148651
1772698619464122600,5.68812255859375,1.0684025287628174,-0.3909534513950348,-0.15760311484336853
1772698619481469000,5.705468994140625,1.3182462453842163,-0.6652317643165588,-0.006108647678047419
1772698619498815500,5.7228154296875,1.518609881401062,-0.9089667797088623,0.277332603931427
1772698619516161800,5.740161865234375,1.6731586456298828,-1.0134246349334717,0.7055488228797913
1772698619533508000,5.757508056640625,1.700036644935608,-0.8118392825126648,1.1875211000442505
1772698619550854700,5.774854736328125,1.357952356338501,-0.7318159937858582,1.719584345817566
1772698619568201000,5.792200927734375,0.7562506198883057,-0.7141009569168091,2.0696098804473877
1772698619585547300,5.80954736328125,0.23823726177215576,-0.7171552777290344,2.215606451034546
1772698619602893800,5.826893798828125,-0.19792018830776215,-0.4477638900279999,1.7904446125030518
1772698619620240100,5.844240234375,-0.19242240488529205,-0.4630354940891266,1.2089014053344727
1772698619637586400,5.86158642578125,0.000610864779446274,-1.1795798540115356,0.9773836731910706
1772698619654933000,5.87893310546875,0.03787361457943916,-1.6713260412216187,0.813671886920929
1772698619672279300,5.896279296875,-0.3597993552684784,-1.061682939529419,0.5681042671203613
1772698619689625600,5.91362548828125,-0.7709113359451294,-0.7098248600959778,0.4251618981361389
1772698619706972200,5.93097216796875,-0.8081740736961365,-0.675616443157196,0.39889469742774963
1772698619724318500,5.948318359375,-0.6487383842468262,-0.7281508445739746,0.328645259141922
1772698619741664800,5.965664794921875,-0.536339282989502,-0.9352339506149292,0.3390299379825592
1772698619759011300,5.98301123046875,-0.46608981490135193,-1.125823736190796,0.3695732057094574
1772698619776357600,6.000357666015625,-0.3915643095970154,-1.0928370952606201,0.3347539007663727
1772698619793704000,6.017703857421875,-0.36224281787872314,-0.934012234210968,0.2467893660068512
1772698619811050500,6.035050537109375,-0.36285367608070374,-0.7086031436920166,0.16737695038318634
1772698619828396800,6.052396728515625,-0.28527384996414185,-0.4312705397605896,0.001832594396546483
1772698619845743000,6.0697431640625,-0.13561198115348816,-0.3072649836540222,-0.2156352698802948
1772698619863089700,6.087089599609375,0.05864302068948746,-0.2828303873538971,-0.36163195967674255
1772698619880436000,6.10443603515625,0.29504770040512085,-0.27977606654167175,-0.35735589265823364
1772698619897782300,6.1217822265625,0.49113526940345764,-0.2761108875274658,-0.24556763470172882
1772698619915128600,6.139128662109375,0.6065887212753296,-0.23457208275794983,-0.15271618962287903
1772698619932475100,6.15647509765625,0.6218603253364563,-0.19303326308727264,-0.14172062277793884
1772698619949821400,6.173821533203125,0.47464191913604736,-0.2370155304670334,-0.18142683804035187
1772698619967168000,6.19116796875,0.2816086709499359,-0.27488914132118225,-0.24556763470172882
1772698619984514300,6.208514404296875,0.11362084746360779,-0.19242240488529205,-0.29138249158859253
1772698620001860600,6.225860595703125,-0.017715077847242355,-0.08124501258134842,-0.19181154668331146
1772698620019207200,6.243207275390625,-0.10629047453403473,0.07086031138896942,-0.03848448023200035
1772698620036553500,6.260553466796875,-0.16249002516269684,0.11972949653863907,0.017715077847242355
1772698620053899800,6.277899658203125,-0.15271618962287903,0.037262752652168274,-0.22846342623233795
1772698620071246300,6.295246337890625,-0.18570289015769958,0.33108872175216675,-0.6542361974716187
1772698620088592600,6.312592529296875,-0.20341797173023224,0.49968740344047546,-0.934012234210968
1772698620105939000,6.32993896484375,-0.34636032581329346,0.7745765447616577,-1.2247838973999023
1772698620123285500,6.347285400390625,-0.7898481488227844,0.379347026348114,-1.0983349084854126
1772698620140631800,6.3646318359375,-1.166751742362976,0.16554436087608337,-0.8930842876434326
1772698620157978000,6.38197802734375,-1.5741984844207764,0.4007273018360138,-1.2742639780044556
1772698620175324700,6.39932470703125,-1.490510106086731,0.11667517572641373,-1.6200133562088013
1772698620192671000,6.4166708984375,-0.9566142559051514,-0.13500112295150757,-1.740964651107788
1772698620210017300,6.434017333984375,-0.2412915825843811,-0.3390299379825592,-1.5198315382003784
1772698620227363800,6.45136376953125,0.2309068888425827,-0.48075059056282043,-0.8106175661087036
1772698620244710100,6.468710205078125,0.379347026348114,-0.42455101013183594,-0.13744457066059113
1772698620262056400,6.486056396484375,0.43982264399528503,-0.1747073233127594,-0.011606430634856224
1772698620279403000,6.503403076171875,0.3707949221134186,0.2003636509180069,-0.3017672002315521
1772698620296749300,6.520749267578125,0.0513126403093338,0.5290089249610901,-0.4355465769767761
1772698620314095900,6.538095947265625,-0.16004657745361328,0.7012727856636047,-0.31154105067253113
1772698620331442200,6.555442138671875,-0.2883281707763672,0.9651663303375244,-0.2309068888425827
1772698620348788500,6.57278857421875,-0.1288924664258957,1.2186752557754517,-0.1893680840730667
1772698620366135000,6.590135009765625,0.15577052533626556,1.2137882709503174,-0.14599667489528656
1772698620383481300,6.6074814453125,0.3787361681461334,1.0189224481582642,-0.12461641430854797
1772698620400827600,6.62482763671875,0.4880809485912323,0.8808670043945312,-0.15760311484336853
1772698620418174000,6.642174072265625,0.42882707715034485,0.9034690260887146,-0.21807873249053955
1772698620435520500,6.6595205078125,0.2724456787109375,1.1722495555877686,-0.2712239623069763
1772698620452866800,6.67686669921875,0.18264856934547424,1.3359612226486206,-0.3090975880622864
1772698620470213400,6.69421337890625,0.21502439677715302,1.2095122337341309,-0.3237583339214325
1772698620487559700,6.7115595703125,0.28954991698265076,0.9596685767173767,-0.2779434621334076
1772698620504906000,6.728906005859375,0.3035998046398163,0.7837395071983337,-0.20219624042510986
1772698620522252500,6.74625244140625,0.23212862014770508,0.778241753578186,-0.1337793916463852
1772698620539598800,6.763598876953125,0.11545344442129135,0.9669989347457886,-0.049480047076940536
1772698620556945200,6.780945068359375,-0.1337793916463852,1.2846486568450928,0.12950333952903748
1772698620574291700,6.798291748046875,-0.24556763470172882,1.3280199766159058,0.3066541254520416
1772698620591638000,6.815637939453125,-0.09590577334165573,1.0109812021255493,0.28038692474365234
1772698620608984300,6.832984375,0.03298669680953026,0.5943714380264282,0.07269290834665298
1772698620626331000,6.850330810546875,-0.056810423731803894,0.31581708788871765,-0.17653992772102356
1772698620643677200,6.86767724609375,-0.15821397304534912,0.0720820426940918,-0.3836230933666229
1772698620661023500,6.8850234375,-0.059864748269319534,-0.06719512492418289,-0.39339691400527954
1772698620678370000,6.9023701171875,0.25045454502105713,-0.08918625861406326,-0.16065743565559387
1772698620695716400,6.91971630859375,0.6426297426223755,-0.19425499439239502,-0.014049889519810677
1772698620713062700,6.937062744140625,0.9053016304969788,-0.3640754222869873,-0.024434590712189674
1772698620730409200,6.9544091796875,0.9920443892478943,-0.4111120104789734,0.04459312930703163
1772698620747755500,6.971755615234375,1.099556565284729,-0.6304124593734741,0.1178968995809555
1772698620765101800,6.989101806640625,1.1716386079788208,-0.749531090259552,0.28405213356018066
1772698620782448400,7.006448486328125,1.2901464700698853,-0.9138537049293518,0.6224712133407593
1772698620799794700,7.023794677734375,1.4190388917922974,-0.880256175994873,1.0916153192520142
1772698620817141000,7.04114111328125,1.2797616720199585,-1.0036507844924927,1.7318016290664673
1772698620834487600,7.058487548828125,0.8045089244842529,-1.0598503351211548,2.184452533721924
1772698620851833900,7.075833740234375,0.20280711352825165,-1.0598503351211548,2.028681993484497
1772698620869180200,7.09318017578125,-0.26022839546203613,-0.794124186038971,1.5210533142089844
1772698620886526700,7.110526611328125,-0.3035998046398163,-0.2706131041049957,0.9969313144683838
1772698620903873000,7.127873046875,-0.2370155304670334,-0.2822195291519165,0.8570432662963867
1772698620921219600,7.145219482421875,-0.2730565667152405,-0.6603448390960693,0.9407317638397217
1772698620938566000,7.16256591796875,-0.4557051360607147,-0.740368127822876,0.9492838382720947
1772698620955912200,7.179912109375,-0.6640099883079529,-0.8949168920516968,0.9334014058113098
1772698620973258800,7.1972587890625,-0.7727439403533936,-0.8765909671783447,0.7269290685653687
1772698620990605000,7.21460498046875,-0.8283326625823975,-0.7977893948554993,0.4789179861545563
1772698621007951400,7.231951416015625,-0.8148936033248901,-0.7116574645042419,0.37690356373786926
1772698621025298000,7.2492978515625,-0.7220421433448792,-0.6963858604431152,0.40927940607070923
1772698621042644200,7.266644287109375,-0.6181951761245728,-0.7373138070106506,0.40927940607070923
1772698621059990800,7.28399072265625,-0.5296197533607483,-0.7892373204231262,0.2816086709499359
1772698621077337000,7.301337158203125,-0.379347026348114,-0.7947350740432739,0.06108647957444191
1772698621094683400,7.318683349609375,-0.19608759880065918,-0.6982184648513794,-0.16737695038318634
1772698621112030000,7.336030029296875,-0.01282816007733345,-0.6304124593734741,-0.2889390289783478
1772698621129376300,7.353376220703125,0.1747073233127594,-0.5247328281402588,-0.2926042377948761
1772698621146722600,7.37072265625,0.3695732057094574,-0.4312705397605896,-0.21135921776294708
1772698621164069000,7.388069091796875,0.5473348498344421,-0.38667741417884827,-0.15088360011577606
1772698621181415400,7.40541552734375,0.6603448390960693,-0.35124725103378296,-0.235793799161911
1772698621198762000,7.422761962890625,0.62857985496521,-0.3023780584335327,-0.4159989058971405
1772698621216108300,7.4401083984375,0.4764745235443115,-0.389120876789093,-0.3970620930194855
1772698621233454600,7.45745458984375,0.2657261788845062,-0.4221075773239136,-0.24373504519462585
1772698621250801200,7.47480126953125,0.04825831577181816,-0.32009315490722656,0.03909534588456154
1772698621268147500,7.4921474609375,0.009162971749901772,-0.06841685622930527,0.29443681240081787
1772698621285493800,7.50949365234375,-0.11728604137897491,-0.10140355676412582,0.2608392536640167
1772698621302840300,7.52684033203125,-0.2412915825843811,-0.627968966960907,-0.001221729558892548
1772698621320186600,7.5441865234375,-0.27488914132118225,-0.3023780584335327,-0.42332929372787476
1772698621337533200,7.561533203125,-0.27977606654167175,0.07513637095689774,-0.7733548283576965
1772698621354879500,7.57887939453125,-0.3127627670764923,0.33597561717033386,-1.1991275548934937
1772698621372225800,7.596225830078125,-0.5601630210876465,0.0616973415017128,-1.1417062282562256
1772698621389572400,7.613572265625,-0.9731075763702393,-0.3585776388645172,-0.7825177907943726
1772698621406918700,7.630918701171875,-1.580307126045227,-0.12156209349632263,-1.1630865335464478
1772698621424265000,7.648264892578125,-1.5528182983398438,-0.27000224590301514,-1.5540399551391602
1772698621441611500,7.665611572265625,-1.1911863088607788,-0.6829468011856079,-1.6420044898986816
1772698621458957800,7.682957763671875,-0.49968740344047546,-0.9211840629577637,-1.4563016891479492
1772698621476304400,7.700304443359375,0.1539379209280014,-0.9792162179946899,-0.8374956250190735
1772698621493650700,7.717650634765625,0.4312705397605896,-0.8533781170845032,-0.1130099818110466
1772698621510997000,7.7349970703125,0.56382817029953,-0.5204567909240723,0.09529490768909454
1772698621528343600,7.752343505859375,0.648127555847168,-0.027488915249705315,-0.22846342623233795
1772698621545689900,7.76968994140625,0.4269944727420807,0.43371400237083435,-0.4563159942626953
1772698621563036200,7.7870361328125,-0.031154103577136993,0.564439058303833,-0.26022839546203613
1772698621580382700,7.8043828125,-0.33169957995414734,0.84177166223526,-0.11117739230394363
1772698621597729000,7.82172900390625,-0.2968802750110626,1.1099413633346558,-0.12156209349632263
1772698621615075600,7.83907568359375,0.07452550530433655,1.1166608333587646,-0.16676609218120575
1772698621632422000,7.856421875,0.4581485986709595,0.9553925395011902,-0.12522727251052856
1772698621649768200,7.873768310546875,0.6957749724388123,0.7892373204231262,-0.0824667438864708
1772698621667114800,7.89111474609375,0.6707295179367065,0.6896663308143616,-0.10873392969369888
1772698621684461000,7.9084609375,0.49113526940345764,0.8759800791740417,-0.17348559200763702
1772698621701807600,7.9258076171875,0.3225366175174713,1.0720677375793457,-0.2883281707763672
1772698621719154000,7.94315380859375,0.23212862014770508,0.998153030872345,-0.3249800503253937
1772698621736500200,7.960500244140625,0.235793799161911,0.7880155444145203,-0.2571740746498108
1772698621753846800,7.9778466796875,0.2926042377948761,0.6835576891899109,-0.15638138353824615
1772698621771193000,7.995193115234375,0.3023780584335327,0.7373138070106506,-0.06536252796649933
1772698621788539400,8.012539306640624,0.1484401375055313,1.0115920305252075,0.059864748269319534
1772698621805886000,8.029885986328125,-0.027488915249705315,1.191797137260437,0.21319180727005005
1772698621823232300,8.047232177734376,-0.017715077847242355,1.0500766038894653,0.2993237376213074
1772698621840578600,8.06457861328125,0.07757982611656189,0.7165443897247314,0.1899789422750473
1772698621857925000,8.081925048828126,0.07391463965177536,0.41905322670936584,-0.030543239787220955
1772698621875271400,8.099271484375,-0.023212861269712448,0.20647229254245758,-0.2632827162742615
1772698621892618000,8.116617919921875,-0.04825831577181816,0.10323614627122879,-0.33108872175216675
1772698621909964300,8.13396435546875,0.11362084746360779,0.1795942485332489,-0.09407317638397217
1772698621927310600,8.151310546875,0.4214966893196106,0.23457208275794983,0.1588248461484909
1772698621944657200,8.1686572265625,0.6371319890022278,0.07269290834665298,0.14172062277793884
1772698621962003500,8.18600341796875,0.7452550530433655,0.07269290834665298,0.03481929376721382
1772698621979350000,8.20335009765625,0.8026763200759888,0.07086031138896942,0.0030543238390237093
1772698621996696300,8.2206962890625,0.9517273306846619,-0.03481929376721382,0.1233946830034256
1772698622014042600,8.238042724609375,1.082452416419983,-0.18387030065059662,0.4819723069667816
1772698622031389200,8.25538916015625,1.2443315982818604,-0.3995055556297302,0.9706641435623169
1772698622048735500,8.272735595703125,1.4233149290084839,-0.47586366534233093,1.3854413032531738
1772698622066082000,8.29008203125,1.351232886314392,-0.5858193039894104,1.8368704319000244
1772698622083428400,8.307428466796875,0.9395100474357605,-0.7660244107246399,1.978590965270996
1772698622100774700,8.324774658203125,0.37140578031539917,-0.7171552777290344,1.8900156021118164
1772698622118121200,8.342121337890624,-0.12705987691879272,-0.44348782300949097,1.4666863679885864
1772698622135467500,8.359467529296875,-0.28588470816612244,-0.43004879355430603,1.0958913564682007
1772698622152813800,8.376813720703124,-0.21685700118541718,-0.758694052696228,0.9175189137458801
1772698622170160400,8.394160400390625,-0.25045454502105713,-0.8747583627700806,0.7507528066635132
1772698622187506700,8.411506591796876,-0.646905779838562,-0.47036588191986084,0.5687150955200195
1772698622204853200,8.428853271484375,-0.8765909671783447,-0.2528980076313019,0.49052441120147705
1772698622222199600,8.446199462890625,-0.8539889454841614,-0.22418737411499023,0.4819723069667816
1772698622239546000,8.463546142578124,-0.8185588121414185,-0.27366742491722107,0.5033525824546814
1772698622256892400,8.480892333984375,-0.7843503952026367,-0.4679224193096161,0.6017017960548401
1772698622274238700,8.49823876953125,-0.7232639193534851,-0.6120865345001221,0.6145299673080444
1772698622291585300,8.515585205078125,-0.6298015713691711,-0.5845975875854492,0.3897317349910736
1772698622308931600,8.532931640625,-0.5039634704589844,-0.5051851868629456,0.12156209349632263
1772698622326278100,8.550278076171875,-0.33719736337661743,-0.3995055556297302,-0.007941242307424545
1772698622343624400,8.56762451171875,-0.14599667489528656,-0.32620179653167725,-0.09407317638397217
1772698622360970800,8.584970703125,0.01282816007733345,-0.3121519088745117,-0.20402882993221283
1772698622378317300,8.6023173828125,0.19242240488529205,-0.4007273018360138,-0.24006985127925873
1772698622395663600,8.61966357421875,0.35613417625427246,-0.5400044918060303,-0.19792018830776215
1772698622413010200,8.63701025390625,0.4734202027320862,-0.6462949514389038,-0.16676609218120575
1772698622430356500,8.6543564453125,0.4214966893196106,-0.6994401812553406,-0.17165300250053406
1772698622447702800,8.671702880859375,0.3066541254520416,-0.7635809779167175,-0.21319180727005005
1772698622465049300,8.68904931640625,0.22907429933547974,-0.8552106618881226,-0.3066541254520416
1772698622482395600,8.706395751953124,0.10934479534626007,-0.8955277800559998,-0.3652971386909485
1772698622499742200,8.7237421875,-0.11239911615848541,-0.5839866995811462,-0.19242240488529205
1772698622517088500,8.741088623046876,-0.21319180727005005,-0.0922405794262886,0.06414080411195755
1772698622534435000,8.75843505859375,-0.2107483446598053,-0.08918625861406326,0.05742128938436508
1772698622551781400,8.775781494140626,-0.21380266547203064,-0.1649334877729416,-0.6902772188186646
1772698622569127700,8.793127685546875,-0.2932150959968567,0.12034036219120026,-1.387273907661438
1772698622586474200,8.81047412109375,-0.13072505593299866,0.18203771114349365,-1.3304635286331177
1772698622603820500,8.827820556640624,-0.30970844626426697,0.3652971386909485,-1.0427461862564087
1772698622621167000,8.8451669921875,-0.7049379348754883,0.20647229254245758,-0.7458658814430237
1772698622638513400,8.862513427734376,-1.0348049402236938,0.28038692474365234,-0.6291907429695129
1772698622655859700,8.879859619140625,-1.5961896181106567,0.13744457066059113,-0.9908226728439331
1772698622673206300,8.897206298828126,-1.71836256980896,-0.21502439677715302,-1.386052131652832
1772698622690552600,8.914552490234374,-1.176525592803955,-0.44959646463394165,-1.4404191970825195
1772698622707899100,8.931899169921875,-0.5607738494873047,-0.8826996088027954,-1.2479966878890991
1772698622725245400,8.949245361328124,0.10995566099882126,-1.1111630201339722,-0.7342594861984253
1772698622742592000,8.966592041015625,0.4428769648075104,-0.9834923148155212,-0.09468404203653336
1772698622759938300,8.983938232421876,0.5699368119239807,-0.5253437161445618,0.1185077652335167
1772698622777284600,9.00128466796875,0.6414080262184143,-0.03909534588456154,-0.24495677649974823
1772698622794631200,9.018631103515625,0.337808221578598,0.23029601573944092,-0.3426951467990875
1772698622811977500,9.0359775390625,0.06291907280683517,0.5852084755897522,-0.1081230640411377
1772698622829324000,9.053323974609375,-0.08368847519159317,1.084285020828247,0.012217295356094837
1772698622846670300,9.07067041015625,0.021380268037319183,1.2229512929916382,0.07452550530433655
1772698622864017000,9.088016845703125,0.32681265473365784,0.9926552772521973,0.0665842592716217
1772698622881363200,9.10536328125,0.5888736248016357,0.6395754218101501,0.012217295356094837
1772698622898709500,9.12270947265625,0.6261364221572876,0.5235111117362976,-0.033597562462091446
1772698622916056000,9.14005615234375,0.45020735263824463,0.6236929297447205,-0.006719512399286032
1772698622933402400,9.15740234375,0.23273947834968567,0.8057306408882141,-0.043982263654470444
1772698622950749000,9.1747490234375,0.1380554437637329,0.8814778923988342,-0.1795942485332489
1772698622968095200,9.19209521484375,0.13927717506885529,0.7513636946678162,-0.22663083672523499
1772698622985441500,9.209441650390625,0.16798780858516693,0.6200277805328369,-0.20708316564559937
1772698623002788000,9.2267880859375,0.22296564280986786,0.5235111117362976,-0.1594357043504715
1772698623020134400,9.244134521484375,0.2761108875274658,0.500298261642456,-0.07757982611656189
1772698623037481000,9.26148095703125,0.3072649836540222,0.5583304166793823,0.07086031138896942
1772698623054827300,9.2788271484375,0.32681265473365784,0.6157516837120056,0.2510654330253601
1772698623072173600,9.296173583984375,0.3225366175174713,0.5821541547775269,0.347582072019577
1772698623089520000,9.31352001953125,0.32620179653167725,0.5479456782341003,0.30115634202957153
1772698623106866400,9.330866455078125,0.2211330533027649,0.45875945687294006,0.1288924664258957
1772698623124213000,9.348212890625,-0.053145237267017365,0.30543237924575806,-0.01649334840476513
1772698623141559300,9.365559326171875,-0.2467893660068512,0.08124501258134842,-0.10934479534626007
1772698623158905600,9.382905517578125,-0.21197007596492767,-0.0360410213470459,-0.05253437161445618
1772698623176252200,9.400252197265624,0.056199558079242706,0.2309068888425827,0.037262752652168274
1772698623193598500,9.417598388671875,0.5094612240791321,0.2834412455558777,-0.07880155742168427
1772698623210945000,9.434945068359376,0.7666352987289429,0.19120067358016968,-0.11484257876873016
1772698623228291300,9.452291259765625,0.8112284541130066,0.046425722539424896,-0.0977383628487587
1772698623245638000,9.469637939453126,0.823445737361908,0.0360410213470459,0.009162971749901772
1772698623262984200,9.486984130859375,0.8875865340232849,-0.10445787757635117,0.2406807243824005
1772698623280330500,9.50433056640625,1.0177006721496582,-0.10873392969369888,0.656679630279541
1772698623297677000,9.521677001953124,0.9737184643745422,-0.04214967042207718,1.0341941118240356
1772698623315023400,9.5390234375,0.915686309337616,-0.017104214057326317,1.3127484321594238
1772698623332370000,9.556369873046876,0.8717040419578552,-0.2822195291519165,1.3713914155960083
1772698623349716200,9.57371630859375,0.5992583632469177,-0.9279035925865173,1.3255765438079834
1772698623367062800,9.591062744140626,0.26511532068252563,-1.3781108856201172,1.4227041006088257
1772698623384409000,9.6084091796875,-0.07269290834665298,-1.7354668378829956,1.464242935180664
1772698623401755600,9.625755615234375,-0.38850998878479004,-2.2149956226348877,1.4172062873840332
1772698623419102000,9.64310205078125,-0.573602020740509,-1.8997894525527954,1.073289394378662
1772698623436448300,9.6604482421875,-0.9193515181541443,-0.9743293523788452,0.5241219997406006
1772698623453794800,9.677794921875,-1.2443315982818604,-0.337808221578598,0.14172062277793884
1772698623471141000,9.69514111328125,-1.2510510683059692,-0.32192572951316833,0.02932151034474373
1772698623488487700,9.71248779296875,-0.9578359723091125,-0.8900299668312073,0.2107483446598053
1772698623505834000,9.729833984375,-0.6591231226921082,-1.5228859186172485,0.6334667801856995
1772698623523180500,9.7471806640625,-0.45937031507492065,-1.6609413623809814,0.9462295174598694
1772698623540526800,9.76452685546875,-0.347582072019577,-1.5607595443725586,0.963333785533905
1772698623557873200,9.781873046875,-0.29016077518463135,-1.4923427104949951,0.6249146461486816
1772698623575219700,9.7992197265625,-0.20891575515270233,-1.422093152999878,0.19120067358016968
1772698623592566000,9.81656591796875,-0.07452550530433655,-1.1563670635223389,-0.008552107028663158
1772698623609912600,9.83391259765625,0.1331685185432434,-0.7568614482879639,0.020769402384757996
1772698623627259000,9.8512587890625,0.2926042377948761,-0.37323838472366333,0.04276053607463837
1772698623644605400,9.86860546875,0.37140578031539917,-0.14599667489528656,-0.06352993845939636
1772698623661951700,9.88595166015625,0.4581485986709595,-0.059864748269319534,-0.258395791053772
1772698623679298300,9.90329833984375,0.42394015192985535,0.03481929376721382,-0.4514290690422058
1772698623696644600,9.92064453125,0.2205221801996231,0.16615521907806396,-0.5100721120834351
1772698623713991200,9.9379912109375,0.025045456364750862,0.15088360011577606,-0.45387253165245056
1772698623731337500,9.95533740234375,-0.205861434340477,0.02932151034474373,-0.28405213356018066
1772698623748683800,9.972683837890624,-0.2364046722650528,0.23335035145282745,-0.06597339361906052
1772698623766030300,9.9900302734375,0.06597339361906052,0.6352993845939636,0.07757982611656189
1772698623783376600,10.007376708984374,0.2987128794193268,0.861319363117218,0.06536252796649933
1772698623800723200,10.02472314453125,0.24312418699264526,0.4917461574077606,-0.24862197041511536
1772698623818069500,10.042069580078126,0.2052505612373352,-0.1545487940311432,-0.7519745230674744
1772698623835416000,10.059416015625,0.13927717506885529,-0.19853104650974274,-1.0439679622650146
1772698623852762400,10.076762451171875,-0.08063415437936783,0.40744680166244507,-0.8503237962722778
1772698623870109000,10.09410888671875,-0.17898337543010712,0.516791582107544,-0.6609556674957275
1772698623887455200,10.111455322265625,-0.43982264399528503,0.45937031507492065,-0.7452550530433655
1772698623904801800,10.1288017578125,-0.9272927641868591,0.6401863098144531,-1.0598503351211548
1772698623922148000,10.146148193359375,-1.3891065120697021,0.695164144039154,-1.361006736755371
1772698623939494400,10.163494384765626,-1.1643083095550537,0.24312418699264526,-1.2284491062164307
1772698623956841000,10.180841064453125,-0.6511818766593933,-0.03481929376721382,-1.1129956245422363
1772698623974187300,10.198187255859375,0.12095122784376144,-0.09896009415388107,-0.9358448386192322
1772698623991533800,10.215533935546874,0.8692606091499329,0.18142683804035187,-0.5784889459609985
1772698624008880000,10.232880126953125,1.2168426513671875,0.6829468011856079,-0.11911863088607788
1772698624026226700,10.250226806640624,1.0861176252365112,1.117882490158081,0.029932374134659767
1772698624043573000,10.267572998046875,0.5259546041488647,1.426369309425354,-0.0616973415017128
1772698624060919600,10.28491943359375,0.1496618688106537,1.3799434900283813,-0.037262752652168274
1772698624078265900,10.302265869140625,-0.006108647678047419,1.4306453466415405,-0.043982263654470444
1772698624095612400,10.3196123046875,-0.05253437161445618,1.709810495376587,-0.19730933010578156
1772698624112958700,10.336958740234374,0.11117739230394363,1.722638726234436,-0.32070401310920715
1772698624130305300,10.35430517578125,0.30970844626426697,1.3274091482162476,-0.277332603931427
1772698624147651600,10.371651611328126,0.3347539007663727,0.8851430416107178,-0.15821397304534912
1772698624164998000,10.388997802734375,0.18081597983837128,0.7519745230674744,-0.1539379209280014
1772698624182344400,10.406344482421876,0.06475166976451874,0.7324268817901611,-0.2419024556875229
1772698624199690800,10.423690673828125,0.05436696484684944,0.7745765447616577,-0.4043924808502197
1772698624217037300,10.441037353515625,0.06963858753442764,0.740368127822876,-0.5601630210876465
1772698624234383600,10.458383544921874,0.06597339361906052,0.6456840634346008,-0.6243038177490234
1772698624251730200,10.475730224609375,0.017104214057326317,0.5204567909240723,-0.6053670048713684
1772698624269076500,10.493076416015626,-0.05192350596189499,0.411722868680954,-0.5907062292098999
1772698624286423000,10.510423095703125,-0.0616973415017128,0.42088583111763,-0.6041452884674072
1772698624312442600,10.536442626953125,-0.01954767294228077,0.6817250847816467,-0.4862483739852905
1772698624329789000,10.553788818359376,-0.06719512492418289,0.8918625712394714,-0.16798780858516693
1772698624347135500,10.571135498046875,-0.05864302068948746,0.8936951756477356,0.21868959069252014
1772698624364481800,10.588481689453126,0.05253437161445618,0.5632173418998718,0.23029601573944092
1772698624381828400,10.605828369140625,0.0360410213470459,0.20158538222312927,-0.15149445831775665
1772698624399174700,10.623174560546875,-0.19669845700263977,0.025045456364750862,-0.5283980369567871
1772698624416521200,10.640521240234374,-0.3133736252784729,0.0030543238390237093,-0.5283980369567871
1772698624433867500,10.657867431640625,-0.1337793916463852,0.23945899307727814,-0.2730565667152405
1772698624451213800,10.6752138671875,0.2993237376213074,0.4312705397605896,-0.13255766034126282
1772698624468560400,10.692560302734375,0.6328558921813965,0.2412915825843811,-0.21380266547203064
1772698624485906700,10.70990673828125,0.7049379348754883,-0.11545344442129135,-0.2577849328517914
1772698624503253200,10.727253173828124,0.767857015132904,-0.21258094906806946,-0.1795942485332489
1772698624520599600,10.744599609375,0.9914335608482361,-0.32192572951316833,0.1233946830034256
1772698624537946000,10.761946044921874,1.4104868173599243,-0.30543237924575806,0.6957749724388123
1772698624555292400,10.77929248046875,1.7501275539398193,-0.34086254239082336,1.362228512763977
1772698624572639000,10.796638916015626,1.7513493299484253,-0.5345066785812378,1.758679747581482
1772698624589985300,10.8139853515625,1.3164136409759521,-1.201570987701416,1.8539745807647705
1772698624607331800,10.831331787109375,0.5913171172142029,-1.6523892879486084,1.8374812602996826
1772698624624678100,10.84867822265625,-0.046425722539424896,-1.4813470840454102,1.4923427104949951
1772698624642024700,10.866024658203125,-0.36651885509490967,-1.2449424266815186,1.1221586465835571
1772698624659371000,10.88337109375,-0.6640099883079529,-1.4196497201919556,1.0177006721496582
1772698624676717600,10.900717529296875,-0.8307760953903198,-1.5125012397766113,1.046411395072937
1772698624694063900,10.91806396484375,-0.7263182401657104,-1.1044435501098633,0.943175196647644
1772698624711410400,10.935410400390625,-0.8057306408882141,-0.9266818761825562,0.8539889454841614
1772698624728756700,10.9527568359375,-0.8668171167373657,-0.9126319885253906,0.7220421433448792
1772698624746103000,10.97010302734375,-0.8710931539535522,-1.0097594261169434,0.5247328281402588
1772698624763449600,10.98744970703125,-0.8289434909820557,-1.2455532550811768,0.5057960152626038
1772698624780796200,11.004796142578124,-0.676227331161499,-1.4984513521194458,0.5772672295570374
1772698624798142500,11.022142578125,-0.48930269479751587,-1.601076602935791,0.5876519083976746
1772698624815488800,11.03948876953125,-0.3634645342826843,-1.3927717208862305,0.462424635887146
1772698624832835300,11.05683544921875,-0.2559523284435272,-1.0317505598068237,0.30604326725006104
1772698624850182000,11.074181884765625,-0.13561198115348816,-0.7287616729736328,0.16004657745361328
1772698624867528200,11.091528076171874,-0.029932374134659767,-0.62857985496521,0.021380268037319183
1772698624884874800,11.108874755859375,0.07635809481143951,-0.5180133581161499,-0.09590577334165573
1772698624902221000,11.126220947265624,0.22663083672523499,-0.3280344009399414,-0.13622283935546875
1772698624919567400,11.1435673828125,0.3481929302215576,-0.11911863088607788,-0.13927717506885529
1772698624936914000,11.160913818359376,0.42394015192985535,0.025045456364750862,-0.1496618688106537
1772698624954260500,11.178260498046875,0.45509424805641174,0.10934479534626007,-0.235793799161911
1772698624971606800,11.195606689453125,0.39828383922576904,0.13133592903614044,-0.4276053309440613
1772698624988953000,11.212953125,0.31154105067253113,-0.10201441496610641,-0.5143481492996216
1772698625006299600,11.230299560546875,0.18753549456596375,-0.34697118401527405,-0.48441576957702637
1772698625023646000,11.24764599609375,0.015271619893610477,-0.2864955961704254,-0.2663370370864868
1772698625040992500,11.264992431640625,-0.10201441496610641,0.22846342623233795,0.040317077189683914
1772698625058338800,11.2823388671875,-0.2009745091199875,0.4972439408302307,0.15760311484336853
1772698625075685400,11.299685302734375,-0.328645259141922,0.14660754799842834,-0.14782927930355072
1772698625093031700,11.31703173828125,-0.42455101013183594,0.268169641494751,-0.648127555847168
1772698625110378200,11.334378173828124,-0.4001164436340332,0.2626718580722809,-1.092226266860962
1772698625127724500,11.351724609375,-0.565049946308136,0.25350889563560486,-1.323133111000061
1772698625145071000,11.369071044921874,-0.880256175994873,-0.26022839546203613,-0.925460159778595
1772698625162417400,11.38641748046875,-1.3848304748535156,-0.24984370172023773,-0.8973603844642639
1772698625179764000,11.403763916015626,-1.6603304147720337,-0.009773836471140385,-1.426369309425354
1772698625197110300,11.4211103515625,-1.3781108856201172,-0.185092031955719,-1.6560543775558472
1772698625214456800,11.438456787109375,-0.8588758707046509,-0.4630354940891266,-1.6676608324050903
1772698625231803100,11.45580322265625,-0.2987128794193268,-0.4886918365955353,-1.3726131916046143
1772698625249149700,11.473149658203125,0.1178968995809555,-0.47586366534233093,-0.768467903137207
1772698625266496000,11.49049609375,0.25534147024154663,-0.2406807243824005,-0.14049890637397766
1772698625283842600,11.507842529296875,0.40255987644195557,0.22479823231697083,-0.13072505593299866
1772698625301188900,11.52518896484375,0.481361448764801,0.8045089244842529,-0.5998691916465759
1772698625318535400,11.542535400390625,0.3597993552684784,1.1740821599960327,-0.5962040424346924
1772698625335881700,11.5598818359375,0.17592905461788177,1.4617993831634521,-0.1802051067352295
1772698625353228300,11.577228271484374,0.015271619893610477,1.6077960729599,0.07819069176912308
1772698625370574600,11.59457470703125,0.06475166976451874,1.3628393411636353,-0.013439024798572063
1772698625387921200,11.611921142578124,0.2883281707763672,0.9187406301498413,-0.22357651591300964
1772698625405267500,11.629267333984375,0.5467239618301392,0.6988292932510376,-0.27427828311920166
1772698625422614000,11.646614013671876,0.6835576891899109,0.6298015713691711,-0.1490510106086731
1772698625439960300,11.663960205078125,0.7024945020675659,0.5809323787689209,-0.0977383628487587
1772698625457307000,11.681306884765625,0.6316341757774353,0.5900954008102417,-0.17837251722812653
1772698625474653400,11.6986533203125,0.5626064538955688,0.5229002237319946,-0.2467893660068512
1772698625491999700,11.715999755859375,0.5369501113891602,0.3390299379825592,-0.22968515753746033
1772698625509346300,11.73334619140625,0.4789179861545563,0.17043127119541168,-0.18264856934547424
1772698625526692600,11.750692626953125,0.3836230933666229,0.11117739230394363,-0.17653992772102356
1772698625544039000,11.768038818359376,0.3029889166355133,0.17165300250053406,-0.20830489695072174
1772698625561385500,11.785385498046875,0.22724169492721558,0.31520622968673706,-0.20341797173023224
1772698625578731800,11.802731689453125,0.1178968995809555,0.5180133581161499,-0.03237583488225937
1772698625596078300,11.820078369140624,0.03909534588456154,0.7153226733207703,0.20830489695072174
1772698625613424600,11.837424560546875,0.13439024984836578,0.5754346251487732,0.21930044889450073
1772698625630771200,11.854771240234374,0.18875721096992493,0.2467893660068512,-0.009162971749901772
1772698625648117500,11.872117431640625,-0.08857539296150208,0.04459312930703163,-0.1954767256975174
1772698625665464000,11.889464111328126,-0.3530798554420471,-0.31642794609069824,-0.29016077518463135
1772698625682810400,11.906810302734375,-0.18387030065059662,-0.35124725103378296,-0.08063415437936783
1772698625700157000,11.924156982421875,0.3591884970664978,-0.06536252796649933,0.21991132199764252
1772698625717503200,11.941503173828124,0.8753692507743835,-0.06780599057674408,0.2981020212173462
1772698625734849800,11.958849853515625,0.9828814268112183,-0.029932374134659767,0.20769402384757996
1772698625752196000,11.976196044921876,0.9908226728439331,0.11178825795650482,0.12034036219120026
1772698625769542700,11.993542724609375,1.0329723358154297,0.08063415437936783,0.12522727251052856
1772698625786889000,12.010888916015626,1.120326042175293,0.08613193035125732,0.39828383922576904
1772698625804235500,12.028235595703125,1.1948515176773071,0.07330377399921417,1.0323615074157715
1772698625821582000,12.04558203125,1.3976585865020752,-0.04886918142437935,1.6572761535644531
1772698625838928400,12.062928466796874,1.5216641426086426,-0.39339691400527954,2.056781768798828
1772698625856275000,12.08027490234375,1.268766164779663,-0.8124501705169678,2.1111485958099365
1772698625873621200,12.097621337890626,0.7776308655738831,-0.9285144805908203,1.8558071851730347
1772698625890967800,12.1149677734375,0.26022839546203613,-0.6236929297447205,1.4550799131393433
1772698625908314000,12.132314208984376,-0.11667517572641373,-0.7947350740432739,1.293811559677124
1772698625925660700,12.14966064453125,-0.4838049113750458,-1.3823870420455933,1.2315033674240112
1772698625943007000,12.167007080078125,-0.8258891701698303,-1.2925899028778076,0.841160774230957
1772698625960353500,12.184353515625,-1.110552191734314,-0.5754346251487732,0.3946186602115631
1772698625977699800,12.201699951171875,-1.0769546031951904,-0.37201663851737976,0.21746785938739777
1772698625995046400,12.21904638671875,-0.8692606091499329,-0.4618137776851654,0.14782927930355072
1772698626012392700,12.236392822265625,-0.8185588121414185,-0.7733548283576965,0.3121519088745117
1772698626029739300,12.2537392578125,-0.8460476994514465,-1.0305289030075073,0.5815432667732239
1772698626047085600,12.27108544921875,-0.8008437156677246,-1.1447606086730957,0.6701186895370483
1772698626064432000,12.28843212890625,-0.7067705392837524,-1.128878116607666,0.46547895669937134
1772698626081778400,12.3057783203125,-0.6340776681900024,-0.9321796298027039,0.22724169492721558
1772698626099125000,12.323125,-0.5204567909240723,-0.574212908744812,0.0616973415017128
1772698626116471300,12.34047119140625,-0.2712239623069763,-0.3842339515686035,-0.12522727251052856
1772698626133817900,12.35781787109375,-0.009162971749901772,-0.40805765986442566,-0.30970844626426697
1772698626151164400,12.375164306640626,0.2620609998703003,-0.4734202027320862,-0.41416633129119873
1772698626168510700,12.3925107421875,0.5186241865158081,-0.48441576957702637,-0.3756818473339081
1772698626185857300,12.409857177734375,0.6872228980064392,-0.4312705397605896,-0.2565632164478302
1772698626203203600,12.42720361328125,0.7250964641571045,-0.3237583339214325,-0.23212862014770508
1772698626220550100,12.444550048828125,0.5949822664260864,-0.3347539007663727,-0.3243691921234131
1772698626237896400,12.461896484375,0.34697118401527405,-0.42394015192985535,-0.4404335021972656
1772698626255243000,12.479242919921875,0.164322629570961,-0.4428769648075104,-0.5149590373039246
1772698626272589300,12.49658935546875,-0.11484257876873016,-0.2620609998703003,-0.360410213470459
1772698626289936000,12.513935791015625,-0.4068359434604645,0.15638138353824615,0.11239911615848541
1772698626307282400,12.531282470703125,-0.44470956921577454,0.25473061203956604,0.6261364221572876
1772698626324628700,12.548628662109374,-0.35185810923576355,0.025045456364750862,0.42943793535232544
1772698626341975300,12.565975341796875,-0.23335035145282745,-0.004886918235570192,-0.7024945020675659
1772698626359321600,12.583321533203126,-0.22663083672523499,0.010995565913617611,-1.4233149290084839
1772698626376668200,12.600668212890625,-0.4172206521034241,0.2864955961704254,-1.37078058719635
1772698626394014500,12.618014404296876,-1.026863694190979,-0.15638138353824615,-0.9969313144683838
1772698626411361000,12.635361083984375,-1.6756020784378052,-0.13622283935546875,-1.0219768285751343
1772698626428707300,12.652707275390625,-1.8472551107406616,-0.44959646463394165,-1.5100576877593994
1772698626446054000,12.670053955078124,-1.5766420364379883,-1.0494656562805176,-1.9382739067077637
1772698626463400200,12.687400146484375,-0.9450078010559082,-1.3567306995391846,-1.9199479818344116
1772698626480746800,12.704746826171874,-0.23457208275794983,-1.3848304748535156,-1.155145287513733
1772698626498093300,12.72209326171875,0.4789179861545563,-1.1068869829177856,-0.1997527778148651
1772698626515439600,12.739439697265626,0.953559935092926,-0.6841685771942139,0.3139844834804535
1772698626532786200,12.7567861328125,1.1368193626403809,-0.1081230640411377,-0.05864302068948746
1772698626550132500,12.774132568359375,0.6114756464958191,0.6890554428100586,-0.6059778332710266
1772698626567479000,12.79147900390625,-0.07819069176912308,0.7568614482879639,-0.36835145950317383
1772698626584825600,12.80882568359375,-0.42394015192985535,1.109330415725708,-0.09529490768909454
1772698626602172000,12.826171875,-0.4159989058971405,1.6041308641433716,-0.16249002516269684
1772698626619518500,12.8435185546875,0.02932151034474373,1.5558725595474243,-0.318871408700943
1772698626636864800,12.86086474609375,0.5259546041488647,1.08978271484375,-0.2828303873538971
1772698626654211300,12.87821142578125,0.8356630206108093,0.9382883310317993,-0.18325942754745483
1772698626671557600,12.8955576171875,0.8069523572921753,0.9407317638397217,-0.205861434340477
1772698626688904200,12.912904296875,0.5668824911117554,1.2107340097427368,-0.3640754222869873
1772698626706250500,12.93025048828125,0.3659079968929291,1.582750678062439,-0.5510000586509705
1772698626723597000,12.94759716796875,0.3439168632030487,1.5754202604293823,-0.6114756464958191
1772698626740943400,12.964943359375,0.39278605580329895,1.3213005065917969,-0.49968740344047546
1772698626758290000,12.9822900390625,0.36285367608070374,1.138651967048645,-0.3384190797805786
1772698626775636200,12.99963623046875,0.18570289015769958,1.1142174005508423,-0.22907429933547974
1772698626792982800,13.016982666015625,-0.0513126403093338,1.2034035921096802,-0.14294235408306122
1772698626810329300,13.034329345703124,-0.287106454372406,1.395825982093811,0.011606430634856224
1772698626827675600,13.051675537109375,-0.4526508152484894,1.5503748655319214,0.19303326308727264
1772698626845022200,13.069022216796874,-0.34574946761131287,1.211344838142395,0.2767217457294464
1772698626862368500,13.086368408203125,-0.04153880476951599,0.6047561168670654,0.19608759880065918
1772698626879715000,13.103715087890626,0.0977383628487587,0.2254091054201126,-0.024434590712189674
1772698626897061400,13.121061279296875,0.06047561392188072,-0.056810423731803894,-0.26878049969673157
1772698626914408000,13.138407958984375,0.14538581669330597,-0.379347026348114,-0.4379900395870209
1772698626931754200,13.155754150390624,0.4379900395870209,-0.5888736248016357,-0.3787361681461334
1772698626949100800,13.173100830078125,0.8045089244842529,-0.5766563415527344,-0.22174391150474548
1772698626966447000,13.190447021484376,1.0195332765579224,-0.28588470816612244,-0.056199558079242706
1772698626983793700,13.207793701171875,1.1496474742889404,-0.13927717506885529,0.16737695038318634
1772698627001140200,13.22514013671875,1.2119556665420532,-0.10140355676412582,0.29993459582328796
1772698627018486500,13.242486572265625,1.183245062828064,-0.29443681240081787,0.38667741417884827
1772698627035833000,13.2598330078125,1.288313865661621,-0.17653992772102356,0.6304124593734741
1772698627053179400,13.277179443359374,1.4453060626983643,0.07941242307424545,1.1368193626403809
1772698627070526000,13.29452587890625,1.3353503942489624,0.1178968995809555,1.904065489768982
1772698627087872300,13.311872314453124,0.8148936033248901,0.028099779039621353,2.249204158782959
1772698627105218800,13.32921875,0.16737695038318634,-0.42882707715034485,1.9486587047576904
1772698627122565400,13.3465654296875,-0.2675587832927704,-0.6365211009979248,1.4178171157836914
1772698627139911700,13.36391162109375,-0.37323838472366333,-0.35063639283180237,0.9224058389663696
1772698627157258200,13.38125830078125,-0.4679224193096161,0.07086031138896942,0.8246674537658691
1772698627174604500,13.3986044921875,-0.37140578031539917,0.2877173125743866,0.9676098227500916
1772698627191951000,13.415951171875,-0.47586366534233093,0.6255255341529846,1.033583164215088
1772698627209297400,13.43329736328125,-0.7696896195411682,0.7703005075454712,0.9908226728439331
1772698627226644000,13.45064404296875,-0.7049379348754883,0.4770853817462921,0.7666352987289429
1772698627243990500,13.467990478515626,-0.7067705392837524,0.08979712426662445,0.4740310609340668
1772698627261336800,13.4853369140625,-0.7354812026023865,-0.2052505612373352,0.3017672002315521
1772698627278683400,13.502683349609375,-0.7336485981941223,-0.34697118401527405,0.24923282861709595
1772698627296029700,13.52002978515625,-0.6921098232269287,-0.09834922850131989,0.21258094906806946
1772698627313376300,13.537376220703125,-0.6921098232269287,0.21868959069252014,0.08857539296150208
1772698627330722600,13.55472265625,-0.6524035930633545,0.40317076444625854,-0.14721840620040894
1772698627348069000,13.572069091796875,-0.4770853817462921,0.47036588191986084,-0.4667007029056549
1772698627365415700,13.589415771484376,-0.2932150959968567,0.34697118401527405,-0.758694052696228
1772698627382762000,13.606761962890625,-0.07330377399921417,0.19425499439239502,-0.9352339506149292
1772698627400108500,13.624108642578125,0.16737695038318634,0.07819069176912308,-0.9712749719619751
1772698627417454800,13.641454833984374,0.33169957995414734,0.13011419773101807,-0.925460159778595
1772698627434801400,13.658801513671875,0.34147340059280396,0.30054548382759094,-0.7922916412353516
1772698627452148000,13.67614794921875,0.21380266547203064,0.40744680166244507,-0.5192350745201111
1772698627469494300,13.693494384765625,0.14172062277793884,0.4214966893196106,-0.29016077518463135
1772698627486840800,13.7108408203125,0.1637117564678192,0.5326740741729736,-0.22418737411499023
1772698627504187100,13.728187255859375,0.21930044889450073,0.6646208763122559,0.0030543238390237093
1772698627521533700,13.74553369140625,0.1496618688106537,0.6175842881202698,0.3335321843624115
1772698627538880300,13.76288037109375,-0.07147117704153061,0.19608759880065918,0.318871408700943
1772698627556226600,13.7802265625,-0.41233372688293457,0.1130099818110466,-0.05803215503692627
1772698627573573000,13.797572998046874,-0.5479456782341003,0.6371319890022278,-0.5809323787689209
1772698627590919400,13.81491943359375,-0.8442151546478271,0.7409789562225342,-0.7324268817901611
1772698627608266000,13.832265869140626,-1.4422518014907837,0.6823359727859497,-0.8533781170845032
1772698627625612500,13.849612548828125,-1.6829324960708618,0.4221075773239136,-1.191797137260437
1772698627642958800,13.866958740234375,-1.6090178489685059,-0.36712974309921265,-1.7256929874420166
1772698627660305400,13.884305419921875,-1.211344838142395,-0.6713404059410095,-1.8503093719482422
1772698627677651700,13.901651611328125,-0.4410443603992462,-0.2834412455558777,-1.091004490852356
1772698627694998300,13.918998291015624,0.318871408700943,0.2516762912273407,-0.2260199636220932
1772698627712344600,13.936344482421875,0.758694052696228,0.5283980369567871,0.07147117704153061
1772698627729691100,13.953691162109376,1.1398736238479614,0.8619301915168762,0.009773836471140385
1772698627747037700,13.97103759765625,0.7855721116065979,1.390328288078308,-0.13561198115348816
1772698627764384000,13.988384033203126,-0.22357651591300964,1.5027273893356323,-0.017104214057326317
1772698627781730600,14.00573046875,-0.6750055551528931,1.453247308731079,0.11362084746360779
1772698627799076900,14.023076904296875,-0.6041452884674072,1.630398154258728,0.10201441496610641
1772698627816423400,14.04042333984375,-0.09834922850131989,1.7006475925445557,0.01282816007733345
1772698627833770000,14.05777001953125,0.42943793535232544,1.3732240200042725,0.006719512399286032
1772698627851116300,14.0751162109375,0.7538071274757385,0.9810488224029541,0.08552107214927673
1772698627868462800,14.092462890625,0.7556397318840027,0.7959567904472351,0.15149445831775665
1772698627885809200,14.10980908203125,0.5143481492996216,0.9327905178070068,0.09712749719619751
1772698627903155700,14.12715576171875,0.25473061203956604,0.9114102721214294,-0.15821397304534912
1772698627920502300,14.144502197265625,0.07269290834665298,0.6774490475654602,-0.430659681558609
1772698627937848600,14.1618486328125,0.008552107028663158,0.4416552484035492,-0.5131264328956604
1772698627955195100,14.179195068359375,-0.01649334840476513,0.28954991698265076,-0.4886918365955353
1772698627972541400,14.19654150390625,-0.06963858753442764,0.2968802750110626,-0.5100721120834351
1772698627989888000,14.213887939453125,-0.15027274191379547,0.3854556679725647,-0.5510000586509705
1772698628007234600,14.231234619140626,-0.29016077518463135,0.7153226733207703,-0.5809323787689209
1772698628024580900,14.248580810546875,-0.42455101013183594,0.5033525824546814,-0.6017017960548401
1772698628041927400,14.265927490234375,-0.4917461574077606,0.21807873249053955,-0.5674933791160583
1772698628059273700,14.283273681640624,-0.5919279456138611,0.12217295914888382,-0.5400044918060303
1772698628076620300,14.300620361328125,-0.7061597108840942,0.049480047076940536,-0.5393936038017273
1772698628093966800,14.317966796875,-0.5907062292098999,-0.010384701192378998,-0.4422661066055298
1772698628111313200,14.335313232421875,-0.2626718580722809,0.04520399495959282,-0.22907429933547974
1772698628128659700,14.35265966796875,0.02260199747979641,0.3494146466255188,-0.04581485688686371
1772698628146006000,14.370006103515625,0.12156209349632263,0.4630354940891266,0.03909534588456154
1772698628163352600,14.3873525390625,0.03298669680953026,0.2968802750110626,0.006719512399286032
1772698628180699100,14.40469921875,-0.07391463965177536,0.05436696484684944,-0.014660755172371864
1772698628198045400,14.42204541015625,-0.04825831577181816,-0.017104214057326317,-0.000610864779446274
1772698628215392000,14.43939208984375,0,-0.17043127119541168,0.009162971749901772
1772698628232738300,14.45673828125,0.1899789422750473,-0.627968966960907,0.05436696484684944
1772698628250084900,14.4740849609375,0.6065887212753296,-0.7226530313491821,0.3078758418560028
1772698628267431400,14.491431396484375,1.0952805280685425,-0.4819723069667816,0.6737838387489319
1772698628284777700,14.50877783203125,1.265711784362793,-0.3078758418560028,0.9578359723091125
1772698628302124300,14.526124267578124,0.9731075763702393,-0.25961753726005554,1.109330415725708
1772698628319470600,14.543470703125,0.42882707715034485,-0.328645259141922,1.2333359718322754
1772698628336817200,14.560817138671876,0.09529490768909454,-0.8118392825126648,1.2791508436203003
1772698628354163700,14.578163818359375,0.001832594396546483,-1.1508692502975464,1.0665699243545532
1772698628371510000,14.595510009765626,0.06841685622930527,-1.2870920896530151,0.8295543789863586
1772698628388856600,14.612856689453125,0.20158538222312927,-1.239444613456726,0.813671886920929
1772698628406203100,14.630203125,0.2816086709499359,-0.8869756460189819,1.0506874322891235
1772698628423549400,14.647549560546874,0.14233149588108063,-0.7330377101898193,1.1136064529418945
1772698628440896000,14.66489599609375,0.05070177838206291,-0.7531962990760803,0.8069523572921753
1772698628458242300,14.6822421875,-0.050090912729501724,-0.8955277800559998,0.4740310609340668
1772698628475588900,14.6995888671875,-0.1233946830034256,-1.1087195873260498,0.471587598323822
1772698628492935400,14.716935302734376,0.021991131827235222,-1.5687007904052734,0.6866120100021362
1772698628510281700,14.73428173828125,0.17592905461788177,-1.8759657144546509,0.7831286191940308
1772698628527628300,14.751628173828125,0.19120067358016968,-1.979812741279602,0.7043271064758301
1772698628544974800,14.768974853515624,0.22479823231697083,-1.8820743560791016,0.6181951761245728
1772698628562321200,14.786321044921875,0.21807873249053955,-1.7171409130096436,0.6426297426223755
1772698628579667700,14.803667724609374,0.16798780858516693,-1.6413936614990234,0.5589412450790405
1772698628597014000,14.821013916015625,0.2162461280822754,-1.5515965223312378,0.2889390289783478
1772698628614360600,14.838360595703126,0.2809978127479553,-1.5015056133270264,0.025045456364750862
1772698628631707100,14.85570703125,0.3744601011276245,-1.479514479637146,-0.1380554437637329
1772698628649053400,14.873053466796875,0.4428769648075104,-1.3848304748535156,-0.16798780858516693
1772698628666400000,14.89039990234375,0.40866854786872864,-1.1588104963302612,-0.039706211537122726
1772698628683746600,14.90774658203125,0.3127627670764923,-0.8466585874557495,0.16310089826583862
1772698628701092900,14.9250927734375,0.1539379209280014,-0.555276095867157,0.23762640357017517
1772698628718439400,14.942439453125,0.026878049597144127,-0.35063639283180237,0.13561198115348816
1772698628735786000,14.959785888671876,-0.009773836471140385,-0.24495677649974823,-0.0409279391169548
1772698628753132300,14.97713232421875,0.06414080411195755,-0.24312418699264526,-0.1948658674955368
1772698628770478800,14.994478759765625,0.2370155304670334,-0.3848448097705841,-0.29077163338661194
1772698628787825200,15.0118251953125,0.4263836145401001,-0.675616443157196,-0.3555232882499695
1772698628805171700,15.029171630859375,0.5571087002754211,-0.8197805285453796,-0.34636032581329346
1772698628822518300,15.046518310546874,0.5479456782341003,-0.7434224486351013,-0.2315177470445633
1772698628839864600,15.063864501953125,0.37262752652168274,-0.5607738494873047,-0.007941242307424545
1772698628857211100,15.081211181640626,0.1533270627260208,-0.4728093445301056,0.16798780858516693
1772698628874557700,15.0985576171875,0.004886918235570192,-0.665842592716217,0.1649334877729416
1772698628891904000,15.115904052734376,-0.036651886999607086,-0.9279035925865173,0.01588248461484909
1772698628909250600,15.13325048828125,0.03543015569448471,-1.0586286783218384,-0.1490510106086731
1772698628926597000,15.15059716796875,0.03848448023200035,-0.9468404054641724,-0.3225366175174713
1772698628943943400,15.167943359375,-0.1130099818110466,-0.5076286196708679,-0.41416633129119873
1772698628961290000,15.1852900390625,-0.3017672002315521,0.1740964651107788,-0.45448338985443115
1772698628978636500,15.202636474609376,-0.5473348498344421,0.536339282989502,-0.6236929297447205
1772698628995982800,15.21998291015625,-0.7098248600959778,0.7525854110717773,-0.5412262082099915
1772698629013329400,15.237329345703126,-0.9291253089904785,0.8674280047416687,-0.3634645342826843
1772698629030675700,15.25467578125,-0.8710931539535522,0.7244856357574463,-0.4776962697505951
1772698629048022300,15.272022216796875,-0.5693259835243225,0.2052505612373352,-0.6322450637817383
1772698629065368800,15.289368896484374,-0.13683371245861053,-0.27427828311920166,-0.6316341757774353
1772698629082715400,15.30671533203125,0.06352993845939636,-0.2889390289783478,-0.4251618981361389
1772698629100061700,15.324061767578126,0.19364413619041443,-0.015271619893610477,-0.4404335021972656
1772698629117408300,15.341408203125,0.1484401375055313,0.26450446248054504,-0.5778780579566956
1772698629134754800,15.3587548828125,0.06963858753442764,0.42088583111763,-0.5711585879325867
1772698629152101000,15.37610107421875,0.12950333952903748,0.6524035930633545,-0.6065887212753296
1772698629169447700,15.39344775390625,0.11239911615848541,0.9779945015907288,-0.5613847374916077
1772698629186794000,15.4107939453125,0.29077163338661194,1.0610721111297607,-0.4929678738117218
1772698629204140500,15.428140625,0.3597993552684784,0.9834923148155212,-0.3860665261745453
1772698629221487000,15.445487060546874,0.26389357447624207,0.8888082504272461,-0.19608759880065918
1772698629238833700,15.462833740234375,0.13622283935546875,0.9315688014030457,-0.17226386070251465
1772698629256180000,15.480179931640626,-0.000610864779446274,1.1814124584197998,-0.2559523284435272
1772698629273526500,15.497526611328125,-0.09101885557174683,1.2895355224609375,-0.25350889563560486
1772698629290872800,15.514872802734375,-0.09712749719619751,1.2986985445022583,-0.14599667489528656
1772698629308219400,15.532219482421874,-0.011606430634856224,1.2253947257995605,-0.11362084746360779
1772698629325566000,15.54956591796875,0.10873392969369888,1.1753038167953491,-0.22357651591300964
1772698629342912300,15.566912353515624,0.12034036219120026,1.1166608333587646,-0.34574946761131287
1772698629360258800,15.5842587890625,0.04520399495959282,0.9761618971824646,-0.4471530318260193
1772698629377605400,15.60160546875,-0.04581485688686371,0.8759800791740417,-0.4972439408302307
1772698629394951700,15.61895166015625,-0.08002328872680664,0.8093958497047424,-0.49602219462394714
1772698629412298200,15.63629833984375,-0.06108647957444191,0.7611374855041504,-0.47586366534233093
1772698629429644800,15.653644775390624,-0.023212861269712448,0.7446441650390625,-0.4263836145401001
1772698629446991000,15.6709912109375,-0.01588248461484909,0.9046907424926758,-0.32559093832969666
1772698629464337700,15.688337646484374,-0.11606431007385254,1.1502584218978882,-0.1698204129934311
1772698629481684000,15.70568408203125,-0.26939135789871216,1.1893537044525146,-0.0030543238390237093
1772698629499030500,15.723030517578126,-0.30482152104377747,1.0305289030075073,0.12095122784376144
1772698629516377000,15.740377197265625,-0.27916520833969116,0.915686309337616,0.053145237267017365
1772698629533723400,15.757723388671875,-0.3543015718460083,0.8753692507743835,-0.18875721096992493
1772698629551070000,15.775070068359375,-0.3536907136440277,0.7819069027900696,-0.411722868680954
1772698629568416500,15.79241650390625,-0.2406807243824005,0.7861829996109009,-0.3842339515686035
1772698629585762800,15.8097626953125,-0.14477495849132538,0.9364557266235352,-0.31459537148475647
1772698629603109400,15.827109375,-0.06841685622930527,0.841160774230957,-0.3610210716724396
1772698629620456000,15.8444560546875,0.047036588191986084,0.6334667801856995,-0.45448338985443115
1772698629637802200,15.86180224609375,0.185092031955719,0.5571087002754211,-0.48075059056282043
1772698629655148800,15.879148681640626,0.37629270553588867,0.4379900395870209,-0.3243691921234131
1772698629672495400,15.896495361328125,0.6444623470306396,0.28954991698265076,0.039706211537122726
1772698629689841700,15.913841552734375,0.9046907424926758,-0.033597562462091446,0.42271843552589417
1772698629707188200,15.931188232421874,1.1087195873260498,-0.4868592321872711,0.6126973628997803
1772698629724534800,15.94853466796875,1.2748748064041138,-0.5992583632469177,0.7391464114189148
1772698629741881000,15.965881103515626,1.2119556665420532,-0.4783071279525757,1.0079269409179688
1772698629759227600,15.9832275390625,0.9077450633049011,-0.43860089778900146,1.415373682975769
1772698629776574200,16.00057421875,0.6059778332710266,-0.5516108870506287,1.5986331701278687
1772698629793920500,16.01792041015625,0.27366742491722107,-0.5149590373039246,1.6444480419158936
1772698629811267000,16.03526708984375,0.06108647957444191,-0.44348782300949097,1.3939933776855469
1772698629828613600,16.052613525390626,0.1026252806186676,-0.39217519760131836,1.0207550525665283
1772698629845960000,16.0699599609375,0.20647229254245758,-0.43493571877479553,0.8710931539535522
1772698629863306500,16.087306396484376,0.22479823231697083,-0.5852084755897522,1.0238093137741089
1772698629880653000,16.104653076171875,0.053145237267017365,-0.8014546036720276,1.1905754804611206
1772698629897999400,16.121999267578126,-0.2877173125743866,-0.8863648176193237,1.0952805280685425
1772698629915346000,16.139345947265625,-0.4263836145401001,-0.9578359723091125,0.833219587802887
1772698629932692500,16.1566923828125,-0.46486809849739075,-1.045189619064331,0.526565432548523
1772698629950038800,16.174038818359374,-0.43982264399528503,-1.1704169511795044,0.36651885509490967
1772698629967385300,16.19138525390625,-0.4251618981361389,-1.2760965824127197,0.4355465769767761
1772698629984732000,16.20873193359375,-0.35613417625427246,-1.3933825492858887,0.5442805290222168
1772698630002078500,16.226078369140627,-0.2315177470445633,-1.4953969717025757,0.516791582107544
1772698630019424800,16.2434248046875,-0.14477495849132538,-1.51616632938385,0.360410213470459
1772698630036771300,16.260771240234376,-0.06597339361906052,-1.3854413032531738,0.15210533142089844
1772698630054118000,16.278117919921876,0.017715077847242355,-1.1954623460769653,-0.06291907280683517
1772698630071464200,16.295464111328126,0.06597339361906052,-1.043357014656067,-0.2309068888425827
1772698630088810800,16.312810791015625,0.10506874322891235,-0.9101884961128235,-0.3176496922969818
1772698630106157300,16.3301572265625,0.17104214429855347,-0.7922916412353516,-0.3445277214050293
1772698630123503600,16.347503662109375,0.21685700118541718,-0.6304124593734741,-0.35124725103378296
1772698630140850200,16.36485009765625,0.21258094906806946,-0.42271843552589417,-0.32620179653167725
1772698630158196700,16.38219677734375,0.1844811588525772,-0.18692462146282196,-0.3017672002315521
1772698630175543300,16.399543212890624,0.11667517572641373,0.009162971749901772,-0.2883281707763672
1772698630192889600,16.4168896484375,0.05925388261675835,0.012217295356094837,-0.23945899307727814
1772698630210236200,16.434236083984374,0.006719512399286032,-0.1545487940311432,-0.24373504519462585
1772698630227582700,16.451582763671876,0.07880155742168427,-0.22479823231697083,-0.2577849328517914
1772698630244929000,16.468928955078123,0.23823726177215576,-0.20891575515270233,-0.0769689604640007
1772698630262275600,16.486275634765626,0.33536475896835327,-0.3591884970664978,0.15271618962287903
1772698630279622100,16.5036220703125,0.2522871494293213,-0.5937605500221252,0.1948658674955368
1772698630296968400,16.520968505859376,0.2370155304670334,-0.8393282294273376,-0.046425722539424896
1772698630314315000,16.53831494140625,0.3396408259868622,-0.6902772188186646,-0.49113526940345764
1772698630331661600,16.55566162109375,0.37140578031539917,-0.22418737411499023,-0.6682860851287842
1772698630349008000,16.5730078125,-0.09712749719619751,-0.1649334877729416,-0.45998117327690125
1772698630366354400,16.5903544921875,-0.8778126835823059,-0.07635809481143951,-0.4825831651687622
1772698630383701000,16.607700927734374,-1.564424753189087,0.205861434340477,-0.9761618971824646
1772698630401047600,16.625047607421877,-1.7696752548217773,-0.17226386070251465,-1.2467750310897827
1772698630418393900,16.642393798828124,-1.2846486568450928,-0.675616443157196,-1.25715970993042
1772698630435740400,16.659740478515626,-0.48991355299949646,-0.695164144039154,-0.9700532555580139
1772698630453087000,16.6770869140625,0.1496618688106537,-0.2828303873538971,-0.5137372612953186
1772698630470433300,16.694433349609376,0.4172206521034241,-0.0818558782339096,-0.22968515753746033
1772698630487779800,16.71177978515625,0.6322450637817383,-0.0873536616563797,-0.21502439677715302
1772698630505126400,16.72912646484375,0.6169734001159668,0.29016077518463135,-0.1490510106086731
1772698630522472700,16.74647265625,0.025045456364750862,0.5210676789283752,-0.0818558782339096
1772698630539819300,16.7638193359375,-0.38728827238082886,0.8619301915168762,-0.21319180727005005
1772698630557165800,16.781165771484375,-0.3799578845500946,1.3726131916046143,-0.2718348205089569
1772698630574512400,16.798512451171874,0.021991131827235222,1.4813470840454102,-0.25045454502105713
1772698630591858700,16.815858642578124,0.35735589265823364,1.138651967048645,-0.19242240488529205
1772698630609205200,16.833205322265623,0.4789179861545563,0.7703005075454712,-0.034208428114652634
1772698630626551800,16.8505517578125,0.4373791813850403,0.794124186038971,0.04459312930703163
1772698630643898000,16.867898193359373,0.36651885509490967,0.9712749719619751,-0.031154103577136993
1772698630661244700,16.88524462890625,0.31093016266822815,1.1032217741012573,-0.15149445831775665
1772698630678591200,16.90259130859375,0.3194822669029236,0.9859357476234436,-0.1637117564678192
1772698630695937800,16.919937744140626,0.28405213356018066,0.7379246354103088,-0.13683371245861053
1772698630713284000,16.9372841796875,0.19792018830776215,0.5717694163322449,-0.16615521907806396
1772698630730630700,16.954630615234375,0.13500112295150757,0.5241219997406006,-0.21746785938739777
1772698630747977200,16.971977294921874,0.11911863088607788,0.5137372612953186,-0.2516762912273407
1772698630765323800,16.98932373046875,0.12461641430854797,0.5106829404830933,-0.2406807243824005
1772698630782670000,17.006670166015624,0.10079269111156464,0.5381718873977661,-0.1233946830034256
1772698630800016600,17.0240166015625,-0.006108647678047419,0.6334667801856995,0.10873392969369888
1772698630817363200,17.04136328125,-0.14110976457595825,0.7562506198883057,0.32192572951316833
1772698630834709500,17.05870947265625,-0.15271618962287903,0.676227331161499,0.26939135789871216
1772698630852056000,17.07605615234375,-0.053145237267017365,0.4764745235443115,-0.02626718580722809
1772698630869402600,17.093402587890626,-0.05558869615197182,0.4056142270565033,-0.26939135789871216
1772698630886749000,17.1107490234375,-0.17348559200763702,0.40317076444625854,-0.31520622968673706
1772698630904095500,17.128095458984376,-0.15210533142089844,0.2730565667152405,-0.17837251722812653
1772698630921442000,17.145442138671875,0.0665842592716217,0.05497783049941063,-0.002443459117785096
1772698630938788400,17.162788330078126,0.411722868680954,0.08368847519159317,-0.06841685622930527
1772698630956135000,17.180135009765625,0.5949822664260864,0.258395791053772,-0.13744457066059113
1772698630973481500,17.1974814453125,0.6860011219978333,0.12767073512077332,-0.14110976457595825
1772698630990828000,17.214828125,0.9853248596191406,-0.2730565667152405,-0.13683371245861053
1772698631008174300,17.23217431640625,1.4269801378250122,-0.32192572951316833,0.13439024984836578
1772698631025521000,17.24952099609375,1.4746276140213013,-0.16249002516269684,0.7458658814430237
1772698631042867500,17.266867431640627,0.9694424271583557,-0.12644900381565094,1.3683371543884277
1772698631060213800,17.2842138671875,0.5106829404830933,-0.17653992772102356,1.6633847951889038
1772698631077560300,17.301560302734377,0.22296564280986786,-0.4111120104789734,1.6029092073440552
1772698631094907000,17.318906982421876,0.05864302068948746,-0.6352993845939636,1.239444613456726
1772698631112253400,17.33625341796875,0.12461641430854797,-0.7104357481002808,0.767857015132904
1772698631129600000,17.35360009765625,0.18081597983837128,-0.768467903137207,0.5009090900421143
1772698631146946300,17.3709462890625,0.1747073233127594,-0.46975502371788025,0.7629700899124146
1772698631164292900,17.38829296875,0.14233149588108063,-0.2614501118659973,1.2363903522491455
1772698631181639400,17.405639404296874,-0.2315177470445633,-0.5106829404830933,1.2956441640853882
1772698631198985700,17.42298583984375,-0.6328558921813965,-0.6737838387489319,0.9413426518440247
1772698631216332300,17.440332275390624,-0.6627882719039917,-0.9028581380844116,0.5332849621772766
1772698631233678800,17.457678955078126,-0.5247328281402588,-1.0097594261169434,0.17592905461788177
1772698631251025400,17.475025390625,-0.4783071279525757,-1.0415244102478027,0.13683371245861053
1772698631268371700,17.492371826171876,-0.5216785073280334,-0.952949047088623,0.3995055556297302
1772698631285718300,17.50971826171875,-0.5332849621772766,-0.794124186038971,0.5907062292098999
1772698631303064800,17.52706494140625,-0.45326167345046997,-0.7531962990760803,0.4789179861545563
1772698631320411400,17.544411376953125,-0.34697118401527405,-0.8118392825126648,0.17287473380565643
1772698631337757700,17.5617578125,-0.20463970303535461,-0.8344413042068481,-0.13011419773101807
1772698631355104300,17.579104248046875,-0.0360410213470459,-0.7812960743904114,-0.2932150959968567
1772698631372450800,17.596450927734374,0.10995566099882126,-0.6389645338058472,-0.30054548382759094
1772698631389797000,17.613797119140624,0.235793799161911,-0.5277871489524841,-0.19364413619041443
1772698631407143700,17.631143798828123,0.34697118401527405,-0.49602219462394714,-0.1233946830034256
1772698631424490200,17.648490234375,0.42332929372787476,-0.5522217750549316,-0.18325942754745483
1772698631441836800,17.6658369140625,0.4166097939014435,-0.5632173418998718,-0.31581708788871765
1772698631459183000,17.68318310546875,0.3298669755458832,-0.40805765986442566,-0.41905322670936584
1772698631476529700,17.70052978515625,0.21930044889450073,-0.29443681240081787,-0.34636032581329346
1772698631493876200,17.717876220703126,0.10690133273601532,-0.38789913058280945,-0.11423171311616898
1772698631511222800,17.735222900390625,0.14110976457595825,-0.47097674012184143,0.1740964651107788
1772698631528569000,17.752569091796875,0.22785256803035736,-0.4416552484035492,0.3139844834804535
1772698631545915600,17.76991552734375,0.25900667905807495,-0.4984656572341919,0.13744457066059113
1772698631563262200,17.78726220703125,0.1893680840730667,-0.6071996092796326,-0.3494146466255188
1772698631580608800,17.80460888671875,0.059864748269319534,-0.4667007029056549,-0.8014546036720276
1772698631597955000,17.821955078125,-0.23212862014770508,-0.2657261788845062,-0.8484911918640137
1772698631615301600,17.839301513671874,-0.618806004524231,-0.1490510106086731,-0.750141978263855
1772698631632648200,17.856648193359376,-0.8051197528839111,-0.33597561717033386,-0.6212494969367981
1772698631649994800,17.873994873046875,-1.2999202013015747,-0.28954991698265076,-0.8093958497047424
1772698631667341000,17.891341064453126,-1.4691298007965088,-0.35063639283180237,-1.1954623460769653
1772698631684687600,17.9086875,-1.2834268808364868,-0.7849612236022949,-1.2797616720199585
1772698631702034200,17.9260341796875,-0.8210022449493408,-1.232114315032959,-1.1814124584197998
1772698631719380500,17.94338037109375,-0.27366742491722107,-1.4801253080368042,-0.8888082504272461
1772698631736727000,17.96072705078125,0.15760311484336853,-1.4440842866897583,-0.3384190797805786
1772698631754073600,17.978073486328125,0.2919933497905731,-1.135597586631775,0.0977383628487587
1772698631771420200,17.995420166015624,0.4257727563381195,-0.7312051653862,-0.001221729558892548
1772698631788766700,18.0127666015625,0.40805765986442566,-0.1893680840730667,-0.24312418699264526
1772698631806113000,18.030113037109373,-0.05253437161445618,0.21135921776294708,-0.11484257876873016
1772698631823459600,18.04745947265625,-0.3836230933666229,0.6743947267532349,0.06414080411195755
1772698631840806100,18.06480615234375,-0.40805765986442566,0.9425643682479858,0.13744457066059113
1772698631858152700,18.082152587890626,-0.11178825795650482,0.8197805285453796,0.053756099194288254
1772698631875499000,18.0994990234375,0.235793799161911,0.6120865345001221,-0.03909534588456154
1772698631892845600,18.116845458984375,0.4514290690422058,0.430659681558609,0.004276053514331579
1772698631910192000,18.134192138671875,0.4868592321872711,0.360410213470459,0.1337793916463852
1772698631927538400,18.151538330078125,0.430659681558609,0.5338957905769348,0.06108647957444191
1772698631944885000,18.168885009765624,0.3543015718460083,0.7452550530433655,-0.20402882993221283
1772698631962231600,18.1862314453125,0.27000224590301514,0.7367029190063477,-0.35063639283180237
1772698631979578000,18.203578125,0.2315177470445633,0.5412262082099915,-0.38240134716033936
1772698631996924400,18.22092431640625,0.27916520833969116,0.33169957995414734,-0.3836230933666229
1772698632014271000,18.23827099609375,0.35796675086021423,0.24251331388950348,-0.3396408259868622
1772698632031617500,18.255617431640626,0.39828383922576904,0.3634645342826843,-0.21135921776294708
1772698632048964000,18.272964111328125,0.3494146466255188,0.6939423680305481,0.026878049597144127
1772698632066310400,18.290310302734376,0.26450446248054504,0.943786084651947,0.2809978127479553
1772698632083657000,18.307656982421875,0.24984370172023773,0.833219587802887,0.2828303873538971
1772698632101003500,18.32500341796875,0.24984370172023773,0.5510000586509705,-0.000610864779446274
1772698632118350000,18.34235009765625,0.036651886999607086,0.31154105067253113,-0.29138249158859253
1772698632135696400,18.3596962890625,-0.16737695038318634,0.06597339361906052,-0.42943793535232544
1772698632153043000,18.37704296875,-0.16615521907806396,-0.06902772188186646,-0.3952295184135437
1772698632170389500,18.394389404296874,0.08368847519159317,0.015271619893610477,-0.2883281707763672
1772698632187735800,18.41173583984375,0.5112938284873962,0.12950333952903748,-0.11911863088607788
1772698632205082400,18.429082275390623,0.7788525819778442,0.21685700118541718,-0.036651886999607086
1772698632222429000,18.446428955078126,0.8454368710517883,0.1441640853881836,0.08613193035125732
1772698632239775500,18.463775390625,0.9187406301498413,-0.12583814561367035,0.22296564280986786
1772698632257121800,18.481121826171876,0.998153030872345,-0.45998117327690125,0.42332929372787476
1772698632274468400,18.49846826171875,1.2101231813430786,-0.7177661061286926,0.7507528066635132
1772698632291815000,18.51581494140625,1.4178171157836914,-0.6878337264060974,1.2797616720199585
1772698632309161500,18.533161376953124,1.183245062828064,-0.7562506198883057,1.7354668378829956
1772698632326507800,18.5505078125,0.6218603253364563,-0.8552106618881226,1.8979568481445312
1772698632343854300,18.567854248046874,0.14233149588108063,-0.8930842876434326,1.6914845705032349
1772698632361201000,18.585200927734373,-0.1288924664258957,-0.526565432548523,1.3084723949432373
1772698632378547500,18.60254736328125,-0.14233149588108063,-0.23823726177215576,0.9175189137458801
1772698632395893800,18.619893798828127,-0.027488915249705315,-0.2981020212173462,0.8289434909820557
1772698632413240300,18.637240234375,0.053145237267017365,-0.7281508445739746,1.0164790153503418
1772698632430587000,18.6545869140625,-0.2669478952884674,-1.0665699243545532,1.0787872076034546
1772698632447933400,18.671933349609375,-0.6524035930633545,-1.0775654315948486,0.9779945015907288
1772698632465280000,18.689280029296874,-0.7428115606307983,-1.053741693496704,0.6725621223449707
1772698632482626300,18.706626220703125,-0.7874047160148621,-0.9883792400360107,0.3597993552684784
1772698632499972900,18.723972900390624,-0.7812960743904114,-0.8820887207984924,0.29504770040512085
1772698632517319400,18.7413193359375,-0.7513636946678162,-0.8600975871086121,0.3738492429256439
1772698632534666000,18.758666015625,-0.7024945020675659,-0.8741474747657776,0.38179048895835876
1772698632552012500,18.776012451171876,-0.5613847374916077,-0.9217949509620667,0.2816086709499359
1772698632569358800,18.79335888671875,-0.3555232882499695,-0.9578359723091125,0.16676609218120575
1772698632586705400,18.810705322265626,-0.16187916696071625,-0.8552106618881226,0.0360410213470459
1772698632604052000,18.828052001953125,-0.014660755172371864,-0.6633991599082947,-0.11239911615848541
1772698632621398500,18.8453984375,0.15210533142089844,-0.4685332775115967,-0.21441353857517242
1772698632638744800,18.862744873046875,0.30543237924575806,-0.22479823231697083,-0.2706131041049957
1772698632656091400,18.88009130859375,0.4043924808502197,0.01954767294228077,-0.3078758418560028
1772698632673438000,18.89743798828125,0.39828383922576904,0.24312418699264526,-0.3481929302215576
1772698632690784500,18.914784423828124,0.28954991698265076,0.40927940607070923,-0.36774060130119324
1772698632708131000,18.932131103515626,0.20708316564559937,0.36651885509490967,-0.34208428859710693
1772698632725477400,18.949477294921873,0.0720820426940918,0.08491020649671555,-0.23945899307727814
1772698632742824000,18.966823974609376,0.02260199747979641,0.002443459117785096,-0.2101374864578247
1772698632760170500,18.98417041015625,0.2101374864578247,0.14110976457595825,-0.18875721096992493
1772698632777517000,19.00151708984375,0.33169957995414734,0.27855435013771057,-0.26389357447624207
1772698632794863400,19.01886328125,0.1795942485332489,-0.0769689604640007,-0.5510000586509705
1772698632812210000,19.0362099609375,-0.07391463965177536,-0.2926042377948761,-0.831997811794281
1772698632829556500,19.053556396484375,-0.24495677649974823,-0.24006985127925873,-0.8106175661087036
1772698632846903000,19.070903076171874,-0.5338957905769348,0.08063415437936783,-0.9413426518440247
1772698632864249600,19.08824951171875,-0.8448259830474854,-0.205861434340477,-0.730594277381897
1772698632881596000,19.105595947265623,-1.2870920896530151,-0.5039634704589844,-0.8173370957374573
1772698632898942500,19.1229423828125,-1.4721840620040894,-0.2706131041049957,-1.434921383857727
1772698632916289000,19.1402890625,-1.3151918649673462,-0.4831940531730652,-1.5479313135147095
1772698632933635600,19.157635498046876,-0.7287616729736328,-0.7269290685653687,-1.2834268808364868
1772698632950982000,19.17498193359375,-0.21685700118541718,-0.7984002828598022,-0.925460159778595
1772698632968328400,19.192328369140625,0.02871064469218254,-0.7525854110717773,-0.5296197533607483
1772698632985675000,19.209675048828124,0.1386663019657135,-0.49541133642196655,-0.16187916696071625
1772698633003021600,19.227021484375,0.2968802750110626,-0.1233946830034256,-0.14782927930355072
1772698633020368100,19.2443681640625,0.3225366175174713,0.37751442193984985,-0.32192572951316833
1772698633037714700,19.261714599609373,0.19425499439239502,0.7073814272880554,-0.2516762912273407
1772698633055061000,19.27906103515625,0.14782927930355072,1.056185245513916,-0.10751219838857651
1772698633072407600,19.296407470703127,0.1386663019657135,1.3096940517425537,-0.07024945318698883
1772698633089754000,19.313754150390626,0.24434591829776764,1.422093152999878,-0.15577052533626556
1772698633107100700,19.3311005859375,0.34147340059280396,1.3542872667312622,-0.15821397304534912
1772698633124447000,19.348447021484375,0.4105011224746704,1.3658936023712158,-0.04153880476951599
1772698633141793500,19.36579345703125,0.43310311436653137,1.4471386671066284,0.040317077189683914
1772698633159140000,19.38314013671875,0.4105011224746704,1.6047418117523193,-0.053756099194288254
1772698633176486700,19.400486572265624,0.4062250852584839,1.6963714361190796,-0.20891575515270233
1772698633193833000,19.4178330078125,0.38850998878479004,1.630398154258728,-0.21319180727005005
1772698633211179500,19.435179443359374,0.3335321843624115,1.341459035873413,-0.19120067358016968
1772698633228526000,19.452526123046876,0.27916520833969116,1.1062761545181274,-0.24923282861709595
1772698633245872600,19.46987255859375,0.23518294095993042,1.0598503351211548,-0.3274235129356384
1772698633263219200,19.48721923828125,0.19608759880065918,1.2058470249176025,-0.35796675086021423
1772698633280565500,19.5045654296875,0.1637117564678192,1.3463460206985474,-0.23518294095993042
1772698633297912000,19.521912109375,0.10873392969369888,1.4269801378250122,0.023212861269712448
1772698633315258600,19.539258544921875,0.034208428114652634,1.4654645919799805,0.21502439677715302
1772698633332605200,19.556605224609374,-0.000610864779446274,1.3170244693756104,0.09101885557174683
1772698633349951700,19.57395166015625,-0.039706211537122726,1.0207550525665283,-0.24740023910999298
1772698633367298000,19.591298095703124,-0.23212862014770508,0.8301652073860168,-0.4355465769767761
1772698633384644600,19.60864453125,-0.41905322670936584,0.6640099883079529,-0.43921178579330444
1772698633401991200,19.6259912109375,-0.32620179653167725,0.4428769648075104,-0.3170388340950012
1772698633419337700,19.643337646484376,0.08552107214927673,0.38301220536231995,-0.10323614627122879
1772698633436684000,19.66068408203125,0.5955931544303894,0.3952295184135437,0.04276053607463837
1772698633454030600,19.678030517578126,0.84177166223526,0.555276095867157,0.12644900381565094
1772698633471377200,19.695377197265625,0.9401208758354187,0.6792816519737244,0.25961753726005554
1772698633488723700,19.7127236328125,1.0476330518722534,0.49052441120147705,0.33231043815612793
1772698633506070000,19.730070068359375,1.3292417526245117,0.39828383922576904,0.583375871181488
1772698633523416600,19.74741650390625,1.7336342334747314,0.4007273018360138,1.0641264915466309
1772698633540763100,19.76476318359375,1.7715078592300415,0.36835145950317383,1.8515311479568481
1772698633558109700,19.782109619140623,1.2681553363800049,0.31520622968673706,2.3011276721954346
1772698633575456300,19.799456298828126,0.535728394985199,0.06719512492418289,2.045175313949585
1772698633592802800,19.816802734375,0.08613193035125732,-0.12156209349632263,1.3255765438079834
1772698633610149000,19.834149169921876,-0.2614501118659973,-0.34147340059280396,0.675616443157196
1772698633627495700,19.85149560546875,-0.6163625717163086,-0.7202095985412598,0.6065887212753296
1772698633644842200,19.86884228515625,-0.5277871489524841,-0.8020654320716858,0.8936951756477356
1772698633662188800,19.886188720703124,-0.33719736337661743,-0.11972949653863907,0.8863648176193237
1772698633679535400,19.903535400390624,-0.5186241865158081,0.3292561173439026,0.6163625717163086
1772698633696882000,19.9208818359375,-0.4776962697505951,-0.19669845700263977,0.41416633129119873
1772698633714228200,19.938228271484373,-0.5039634704589844,-0.8527672290802002,0.32681265473365784
1772698633731574800,19.95557470703125,-0.6401863098144531,-1.2638791799545288,0.29993459582328796
1772698633748921300,19.97292138671875,-0.6218603253364563,-1.3139700889587402,0.2614501118659973
1772698633766268000,19.990267822265626,-0.462424635887146,-1.1740821599960327,0.1997527778148651
1772698633783614500,20.007614501953125,-0.3909534513950348,-0.9541707634925842,0.10384701192378998
1772698633800960800,20.024960693359375,-0.39400777220726013,-0.6792816519737244,-0.009162971749901772
1772698633818307300,20.042307373046874,-0.33169957995414734,-0.4886918365955353,-0.2052505612373352
1772698633835654000,20.05965380859375,-0.2254091054201126,-0.47464191913604736,-0.43004879355430603
1772698633853000400,20.07700048828125,-0.10629047453403473,-0.49541133642196655,-0.5766563415527344
1772698633870347000,20.094346923828127,0.07757982611656189,-0.4465421438217163,-0.5583304166793823
1772698633887693300,20.111693359375,0.29016077518463135,-0.35063639283180237,-0.4098902642726898
1772698633905040000,20.129039794921876,0.49418962001800537,-0.2669478952884674,-0.3029889166355133
1772698633922386400,20.146386474609375,0.6218603253364563,-0.16065743565559387,-0.3707949221134186
1772698633939733000,20.16373291015625,0.5754346251487732,-0.12950333952903748,-0.4740310609340668
1772698633957079600,20.18107958984375,0.3689623177051544,-0.15760311484336853,-0.43493571877479553
1772698633974426000,20.198426025390624,0.09285144507884979,-0.0409279391169548,-0.3133736252784729
1772698633991772400,20.2157724609375,-0.13194678723812103,0.19120067358016968,-0.10934479534626007
1772698634009119000,20.233118896484374,-0.1844811588525772,0.4202749729156494,0.18387030065059662
1772698634026465500,20.250465576171877,-0.14660754799842834,0.2993237376213074,0.3964512348175049
1772698634043812000,20.26781201171875,-0.11484257876873016,-0.11362084746360779,0.09101885557174683
1772698634061158700,20.28515869140625,-0.2675587832927704,-0.19181154668331146,-0.5155698657035828
1772698634078505000,20.3025048828125,-0.29565855860710144,0.12400554865598679,-0.7916807532310486
1772698634095851500,20.3198515625,-0.4630354940891266,0.2981020212173462,-0.6768381595611572
1772698634113198000,20.337197998046875,-0.7476984858512878,0.08491020649671555,-0.35796675086021423
1772698634130544600,20.354544677734374,-1.2192860841751099,0.0977383628487587,-0.5729911923408508
1772698634147891200,20.37189111328125,-1.470962405204773,0.029932374134659767,-1.2070688009262085
1772698634165237800,20.38923779296875,-1.2742639780044556,-0.3848448097705841,-1.5302162170410156
1772698634182584300,20.406584228515626,-0.8900299668312073,-0.7141009569168091,-1.4740166664123535
1772698634199930600,20.4239306640625,-0.3970620930194855,-0.739757239818573,-0.9492838382720947
1772698634217277200,20.441277099609376,0.12522727251052856,-0.43921178579330444,-0.3439168632030487
1772698634234623700,20.458623779296875,0.40866854786872864,-0.08918625861406326,0.10506874322891235
1772698634251970300,20.47597021484375,0.6371319890022278,0.2663370370864868,-0.07574722915887833
1772698634269316900,20.49331689453125,0.5174024701118469,0.9908226728439331,-0.5045742988586426
1772698634286663200,20.5106630859375,-0.13561198115348816,1.342680811882019,-0.3610210716724396
1772698634304009700,20.528009765625,-0.6652317643165588,1.5302162170410156,-0.043982263654470444
1772698634321356300,20.545356201171874,-0.8191696405410767,1.7617340087890625,0.036651886999607086
1772698634338702800,20.562702880859376,-0.5381718873977661,1.6114612817764282,-0.15210533142089844
1772698634356049400,20.58004931640625,-0.12400554865598679,1.4062107801437378,-0.33658650517463684
1772698634373396000,20.59739599609375,0.24495677649974823,1.12765634059906,-0.2364046722650528
1772698634390742300,20.6147421875,0.3610210716724396,0.9309579133987427,-0.002443459117785096
1772698634408088800,20.6320888671875,0.2577849328517914,0.9266818761825562,0.0824667438864708
1772698634425435400,20.649435302734375,0.08674279600381851,0.9841031432151794,-0.13072505593299866
1772698634442782000,20.666781982421874,-0.007330377586185932,0.833219587802887,-0.3799578845500946
1772698634460128500,20.68412841796875,0,0.5326740741729736,-0.4147771894931793
1772698634477474800,20.701474853515624,0.08491020649671555,0.3170388340950012,-0.3231474757194519
1772698634494821400,20.7188212890625,0.1802051067352295,0.3133736252784729,-0.19608759880065918
1772698634512168000,20.73616796875,0.1649334877729416,0.5558869242668152,-0.027488915249705315
1772698634529514500,20.753514404296876,0.012217295356094837,0.8839213252067566,0.15088360011577606
1772698634546861000,20.770861083984375,-0.12461641430854797,1.0244202613830566,0.27488914132118225
1772698634564207600,20.78820751953125,-0.10018182545900345,0.8552106618881226,0.26878049969673157
1772698634581554000,20.805553955078125,-0.046425722539424896,0.6291907429695129,0.11728604137897491
1772698634598900500,20.822900390625,-0.1692095398902893,0.5247328281402588,-0.08979712426662445
1772698634616247000,20.8402470703125,-0.27488914132118225,0.39339691400527954,-0.19425499439239502
1772698634633593600,20.857593505859374,-0.20769402384757996,0.19914191961288452,-0.18814635276794434
1772698634650940200,20.874940185546876,0.09407317638397217,0.12278381735086441,-0.15821397304534912
1772698634668286700,20.89228662109375,0.42088583111763,0.08857539296150208,-0.0769689604640007
1772698634685633000,20.909633056640626,0.5955931544303894,0.10567960888147354,0.04276053607463837
1772698634702979600,20.9269794921875,0.6267472505569458,0.235793799161911,0.20769402384757996
1772698634720326100,20.944326171875,0.750141978263855,0.0769689604640007,0.2993237376213074
1772698634737672700,20.961672607421875,0.9712749719619751,-0.2809978127479553,0.2522871494293213
1772698634755019300,20.979019287109374,1.3060288429260254,-0.4728093445301056,0.1905898153781891
1772698634772365600,20.996365478515624,1.5613703727722168,-0.3451386094093323,0.4526508152484894
1772698634789712100,21.013712158203123,1.3115266561508179,-0.23457208275794983,0.9645555019378662
1772698634807058700,21.03105859375,0.7611374855041504,-0.3854556679725647,1.4538581371307373
1772698634824405200,21.0484052734375,0.31093016266822815,-0.7550288438796997,1.682321548461914
1772698634841751800,21.065751708984376,-0.007941242307424545,-0.9847140312194824,1.5503748655319214
1772698634859098400,21.083098388671875,-0.10079269111156464,-1.12765634059906,1.1197150945663452
1772698634876445000,21.10044482421875,-0.11178825795650482,-1.22234046459198,0.778241753578186
1772698634893791200,21.117791259765625,0.06047561392188072,-1.0054833889007568,0.8448259830474854
1772698634911137800,21.1351376953125,0.2761108875274658,-0.7202095985412598,0.915075421333313
1772698634928484400,21.152484375,0.11606431007385254,-0.6157516837120056,0.6713404059410095
1772698634945831000,21.169830810546873,-0.11362084746360779,-0.8002328872680664,0.41905322670936584
1772698634963177500,21.187177490234376,-0.20952661335468292,-1.339626431465149,0.3811796307563782
1772698634980524000,21.20452392578125,-0.15210533142089844,-1.488066554069519,0.38667741417884827
1772698634997870300,21.221870361328126,-0.2205221801996231,-1.518609881401062,0.3585776388645172
1772698635015217000,21.239216796875,-0.2620609998703003,-1.4935643672943115,0.3536907136440277
1772698635032563500,21.2565634765625,-0.19853104650974274,-1.416595458984375,0.39278605580329895
1772698635049910000,21.273909912109374,-0.15638138353824615,-1.3353503942489624,0.37201663851737976
1772698635067256600,21.291256591796873,-0.10751219838857651,-1.2351685762405396,0.31581708788871765
1772698635084603100,21.30860302734375,0.020158538594841957,-1.0818414688110352,0.14538581669330597
1772698635101949700,21.32594970703125,0.13561198115348816,-0.9596685767173767,-0.12400554865598679
1772698635119296000,21.3432958984375,0.21746785938739777,-0.9028581380844116,-0.33719736337661743
1772698635136642600,21.360642578125,0.3023780584335327,-0.7715222239494324,-0.40317076444625854
1772698635153989000,21.377989013671876,0.35796675086021423,-0.5534434914588928,-0.360410213470459
1772698635171335700,21.395335693359375,0.36651885509490967,-0.3646862804889679,-0.2974911332130432
1772698635188682200,21.41268212890625,0.34086254239082336,-0.24312418699264526,-0.2632827162742615
1772698635206028800,21.43002880859375,0.2620609998703003,-0.10201441496610641,-0.3029889166355133
1772698635223375400,21.447375244140623,0.14782927930355072,0.08307760953903198,-0.41233372688293457
1772698635240722000,21.464721923828126,0.053756099194288254,0.14538581669330597,-0.4324922561645508
1772698635258068200,21.482068115234377,-0.009162971749901772,-0.023212861269712448,-0.3756818473339081
1772698635275414800,21.499414794921876,0.07513637095689774,-0.19608759880065918,-0.3121519088745117
1772698635292761300,21.51676123046875,0.21319180727005005,-0.2864955961704254,-0.2419024556875229
