time,seconds_elapsed,z,y,x
1773146503861261000,0.079260986328125,8.70986270904541,4.428260803222656,0.8361817002296448
1773146503869937000,0.08793701171875,8.599794387817383,4.652643203735352,0.7528871297836304
1773146503878608100,0.096608154296875,8.471061706542969,4.896535396575928,0.6598751544952393
1773146503887282000,0.105281982421875,8.356125831604004,5.10095739364624,0.5707794427871704
1773146503895955500,0.11395556640625,8.244063377380371,5.285009384155273,0.5239168405532837
1773146503904628700,0.122628662109375,8.121076583862305,5.475274562835693,0.4897526800632477
1773146503913302500,0.131302490234375,8.005160331726074,5.645280361175537,0.4675562381744385
1773146503921975800,0.139975830078125,7.914063930511475,5.773125171661377,0.4571787416934967
1773146503930649300,0.1486494140625,7.850921630859375,5.858642578125,0.4579486846923828
1773146503939323000,0.157322998046875,7.811275005340576,5.911143779754639,0.4612407684326172
1773146503947996400,0.165996337890625,7.790209770202637,5.938798427581787,0.46225622296333313
1773146503956670000,0.174669921875,7.779844284057617,5.951788425445557,0.46972596645355225
1773146503965343500,0.183343505859375,7.775566101074219,5.955408573150635,0.49402865767478943
1773146503974017000,0.19201708984375,7.771219730377197,5.9583024978637695,0.5264661908149719
1773146503982690600,0.200690673828125,7.764239311218262,5.964352607727051,0.5598815679550171
1773146503991364000,0.209364013671875,7.755097389221191,5.973031520843506,0.5930808782577515
1773146504000037600,0.21803759765625,7.744084358215332,5.984287261962891,0.6227728724479675
1773146504008711200,0.226711181640625,7.730868339538574,5.999133110046387,0.6437801122665405
1773146504017384700,0.235384765625,7.715264797210693,6.017368316650391,0.6605829000473022
1773146504026058200,0.244058349609375,7.697748184204102,6.03821325302124,0.6745761036872864
1773146504034731800,0.252731689453125,7.6775221824646,6.0628228187561035,0.6842572093009949
1773146504043405300,0.2614052734375,7.650320053100586,6.098700046539307,0.6699711680412292
1773146504052078800,0.270078857421875,7.627495288848877,6.128007411956787,0.6627394556999207
1773146504060752400,0.27875244140625,7.595100402832031,6.168205738067627,0.6618688106536865
1773146504069426000,0.287426025390625,7.554611682891846,6.220206260681152,0.6381775140762329
1773146504078099500,0.296099365234375,7.512174129486084,6.274876594543457,0.6029473543167114
1773146504086773000,0.30477294921875,7.46851921081543,6.331089496612549,0.5557991862297058
1773146504095446500,0.313446533203125,7.424147129058838,6.388324737548828,0.49166321754455566
1773146504104120000,0.3221201171875,7.378111362457275,6.447244167327881,0.40852829813957214
1773146504112793600,0.330793701171875,7.327981948852539,6.509967803955078,0.3022821843624115
1773146504121467100,0.339467041015625,7.272551536560059,6.57631254196167,0.18024681508541107
1773146504130140700,0.348140625,7.211058139801025,6.645905017852783,0.05462854355573654
1773146504138814200,0.356814208984375,7.145761013031006,6.715967655181885,-0.06534794718027115
1773146504147487700,0.36548779296875,7.087155342102051,6.775595664978027,-0.18414029479026794
1773146504156161300,0.374161376953125,7.103176593780518,6.753860950469971,-0.317228764295578
1773146504164834800,0.382834716796875,7.166536331176758,6.682900428771973,-0.3872718811035156
1773146504173508400,0.39150830078125,7.210253715515137,6.63639497756958,-0.3753536343574524
1773146504182181600,0.400181640625,7.219825267791748,6.629227638244629,-0.31280967593193054
1773146504190855200,0.408855224609375,7.212191104888916,6.6399827003479,-0.25557053089141846
1773146504199528700,0.41752880859375,7.201511859893799,6.65201997756958,-0.24340280890464783
1773146504208202200,0.4262021484375,7.198686122894287,6.6544013023376465,-0.26124539971351624
1773146504216875800,0.434875732421875,7.200631141662598,6.65128231048584,-0.2859165668487549
1773146504225549300,0.44354931640625,7.203656196594238,6.646522045135498,-0.318525493144989
1773146504234222800,0.452222900390625,7.211406707763672,6.636186599731445,-0.3564128577709198
1773146504242896400,0.460896484375,7.220298767089844,6.624098777770996,-0.39872607588768005
1773146504251570000,0.46956982421875,7.229084014892578,6.611339569091797,-0.4482584595680237
1773146504260243500,0.478243408203125,7.235432147979736,6.600862503051758,-0.4975278079509735
1773146504268917000,0.4869169921875,7.235910892486572,6.596856117248535,-0.5417314767837524
1773146504277590500,0.495590576171875,7.229271411895752,6.600863456726074,-0.5802042484283447
1773146504286264000,0.50426416015625,7.21824836730957,6.610012054443359,-0.612399697303772
1773146504294937600,0.5129375,7.200931549072266,6.625330924987793,-0.6495941877365112
1773146504303611100,0.521611083984375,7.179069519042969,6.643896102905273,-0.6999914646148682
1773146504312284700,0.53028466796875,7.1420183181762695,6.6772003173828125,-0.7595728635787964
1773146504320958200,0.538958251953125,7.091193199157715,6.721560001373291,-0.8402474522590637
1773146504329631700,0.5476318359375,7.02375602722168,6.778323650360107,-0.9442329406738281
1773146504338305300,0.55630517578125,6.947065353393555,6.839379787445068,-1.0637511014938354
1773146504346978800,0.564978759765625,6.871100425720215,6.8956098556518555,-1.1869839429855347
1773146504355652400,0.57365234375,6.802437782287598,6.942323207855225,-1.3043683767318726
1773146504364326000,0.582325927734375,6.74848747253418,6.97343111038208,-1.4140560626983643
1773146504372999400,0.59099951171875,6.712636947631836,6.984489917755127,-1.5257117748260498
1773146504381673000,0.5996728515625,6.696774959564209,6.975104808807373,-1.6344754695892334
1773146504390346500,0.608346435546875,6.698815822601318,6.946659564971924,-1.7436108589172363
1773146504399020000,0.61702001953125,6.718056678771973,6.900733470916748,-1.848778486251831
1773146504407693600,0.625693603515625,6.748517990112305,6.843344211578369,-1.948473334312439
1773146504416367000,0.6343671875,6.784387111663818,6.779727935791016,-2.043959140777588
1773146504425040600,0.64304052734375,6.820808410644531,6.713271617889404,-2.1398465633392334
1773146504433714200,0.651714111328125,6.854356288909912,6.649298667907715,-2.2304747104644775
1773146504442387700,0.6603876953125,6.879055976867676,6.595933437347412,-2.3114161491394043
1773146504451061200,0.669061279296875,6.896161079406738,6.553833484649658,-2.3792076110839844
1773146504459734800,0.67773486328125,6.911988735198975,6.5171380043029785,-2.4334583282470703
1773146504468408300,0.686408203125,6.930486679077148,6.482295989990234,-2.4735753536224365
1773146504477081900,0.695081787109375,6.953061580657959,6.4482221603393555,-2.4991490840911865
1773146504485755100,0.703755126953125,6.9858078956604,6.410523414611816,-2.504809856414795
1773146504494428700,0.7124287109375,7.0356669425964355,6.364440441131592,-2.4826745986938477
1773146504503102200,0.721102294921875,7.098095417022705,6.312939643859863,-2.4360251426696777
1773146504511775700,0.729775634765625,7.155137538909912,6.261350154876709,-2.4020590782165527
1773146504520449300,0.73844921875,7.191718578338623,6.217284679412842,-2.40726637840271
1773146504529122800,0.747122802734375,7.207124710083008,6.183084964752197,-2.448918104171753
1773146504537796400,0.75579638671875,7.22204065322876,6.147263526916504,-2.4947280883789062
1773146504546470000,0.764469970703125,7.253076553344727,6.103652000427246,-2.511711597442627
1773146504555143400,0.773143310546875,7.3024163246154785,6.053272247314453,-2.490583658218384
1773146504563817000,0.78181689453125,7.359830856323242,6.004592418670654,-2.438880681991577
1773146504572490500,0.790490478515625,7.412357330322266,5.966047763824463,-2.3735268115997314
1773146504581164000,0.7991640625,7.460234642028809,5.936293125152588,-2.2968900203704834
1773146504589837600,0.807837646484375,7.507079124450684,5.913581848144531,-2.2008426189422607
1773146504598511000,0.816510986328125,7.555514335632324,5.893943786621094,-2.0847105979919434
1773146504607184600,0.8251845703125,7.606085300445557,5.873733043670654,-1.9537426233291626
1773146504615858200,0.833858154296875,7.657683372497559,5.8520188331604,-1.812224268913269
1773146504624531700,0.84253173828125,7.709128379821777,5.827351093292236,-1.6678470373153687
1773146504633205200,0.851205322265625,7.761033058166504,5.7985968589782715,-1.5208625793457031
1773146504641878800,0.859878662109375,7.813826084136963,5.764822483062744,-1.3716145753860474
1773146504650552300,0.86855224609375,7.864691257476807,5.727566719055176,-1.229630947113037
1773146504659225900,0.877225830078125,7.913722038269043,5.68402099609375,-1.1114367246627808
1773146504667899400,0.8858994140625,7.958198547363281,5.6422200202941895,-1.0014102458953857
1773146504676573000,0.894572998046875,7.9972991943359375,5.604111671447754,-0.8986230492591858
1773146504685246500,0.90324658203125,8.036002159118652,5.563704490661621,-0.7989004850387573
1773146504693920000,0.911919921875,8.07248592376709,5.524904727935791,-0.6933810710906982
1773146504702593500,0.920593505859375,8.108394622802734,5.48576021194458,-0.5751175284385681
1773146504711267000,0.92926708984375,8.14211654663086,5.447760581970215,-0.445234090089798
1773146504719940600,0.937940673828125,8.173100471496582,5.410736083984375,-0.30781641602516174
1773146504728614100,0.9466142578125,8.202644348144531,5.372076988220215,-0.1667236089706421
1773146504737287700,0.95528759765625,8.231191635131836,5.330799579620361,-0.021460499614477158
1773146504745961200,0.963961181640625,8.255776405334473,5.290978908538818,0.13455846905708313
1773146504754634800,0.972634765625,8.27559757232666,5.253264904022217,0.29677674174308777
1773146504763308300,0.981308349609375,8.293800354003906,5.212995529174805,0.45600688457489014
1773146504771981800,0.98998193359375,8.31602668762207,5.162199974060059,0.6047922968864441
1773146504780655000,0.998655029296875,8.349035263061523,5.091310024261475,0.7365898489952087
1773146504789329000,1.007328857421875,8.392560005187988,5.001189231872559,0.8505498170852661
1773146504798002400,1.01600244140625,8.44044017791748,4.89882230758667,0.9648263454437256
1773146504806676000,1.024676025390625,8.488523483276367,4.7889790534973145,1.086756706237793
1773146504815349500,1.033349609375,8.527454376220703,4.686187744140625,1.2217084169387817
1773146504824023000,1.04202294921875,8.552572250366211,4.5984787940979,1.3703558444976807
1773146504832696300,1.0506962890625,8.566184997558594,4.524857044219971,1.5220147371292114
1773146504841369900,1.059369873046875,8.571564674377441,4.463796138763428,1.665289044380188
1773146504850043400,1.06804345703125,8.571144104003906,4.413270950317383,1.7969183921813965
1773146504858717000,1.076717041015625,8.567593574523926,4.371008396148682,1.9133784770965576
1773146504867390500,1.085390380859375,8.564230918884277,4.332746505737305,2.0128655433654785
1773146504876064000,1.09406396484375,8.563358306884766,4.294681549072266,2.0964198112487793
1773146504884737500,1.102737548828125,8.566125869750977,4.253706455230713,2.167454719543457
1773146504893411000,1.1114111328125,8.572633743286133,4.209078311920166,2.2280008792877197
1773146504902084600,1.120084716796875,8.581695556640625,4.162240505218506,2.2804932594299316
1773146504910758100,1.128758056640625,8.591601371765137,4.1150898933410645,2.328263521194458
1773146504919431700,1.137431640625,8.601323127746582,4.068496227264404,2.3738067150115967
1773146504928105200,1.146105224609375,8.610331535339355,4.022633075714111,2.4188852310180664
1773146504936778800,1.15477880859375,8.61778450012207,3.978245735168457,2.4653072357177734
1773146504945452300,1.163452392578125,8.622214317321777,3.9391708374023438,2.512118101119995
1773146504954125800,1.172125732421875,8.622268676757812,3.908524990081787,2.5593557357788086
1773146504962799400,1.18079931640625,8.616880416870117,3.8878579139709473,2.6085119247436523
1773146504971473000,1.189472900390625,8.604756355285645,3.8773727416992188,2.663555383682251
1773146504980146400,1.198146484375,8.585087776184082,3.878159761428833,2.725165843963623
1773146504988820000,1.206820068359375,8.557426452636719,3.8897836208343506,2.7947137355804443
1773146504997493500,1.215493408203125,8.52209758758545,3.9141125679016113,2.867745876312256
1773146505006167000,1.2241669921875,8.481863021850586,3.9509007930755615,2.9357712268829346
1773146505014840600,1.232840576171875,8.43993854522705,3.996162176132202,2.9947476387023926
1773146505023514000,1.24151416015625,8.398515701293945,4.046078205108643,3.0437769889831543
1773146505032187600,1.250187744140625,8.358353614807129,4.099057197570801,3.083186149597168
1773146505040861200,1.258861083984375,8.319448471069336,4.1535868644714355,3.1152656078338623
1773146505049534700,1.26753466796875,8.282075881958008,4.208945274353027,3.1404435634613037
1773146505058208300,1.276208251953125,8.246062278747559,4.265869617462158,3.1583516597747803
1773146505066881800,1.2848818359375,8.211353302001953,4.323433876037598,3.1704845428466797
1773146505075555300,1.293555419921875,8.177438735961914,4.380795478820801,3.1793899536132812
1773146505084228900,1.302228759765625,8.143393516540527,4.438663005828857,3.186504602432251
1773146505092902400,1.31090234375,8.108284950256348,4.497674465179443,3.1932790279388428
1773146505101576000,1.319575927734375,8.0708646774292,4.559239387512207,3.20076060295105
1773146505110249500,1.32824951171875,8.02995491027832,4.624382019042969,3.210188865661621
1773146505118923000,1.336923095703125,7.9850993156433105,4.692501068115234,3.2231996059417725
1773146505127596500,1.345596435546875,7.936338424682617,4.763303279876709,3.2397332191467285
1773146505136270000,1.35427001953125,7.884374141693115,4.835878849029541,3.259035348892212
1773146505144943600,1.362943603515625,7.831470489501953,4.908071041107178,3.2786107063293457
1773146505153617200,1.3716171875,7.780971050262451,4.977758407592773,3.293750762939453
1773146505162290700,1.380290771484375,7.736093044281006,5.042613506317139,3.300801992416382
1773146505170964000,1.3889638671875,7.698445796966553,5.100759983062744,3.2994778156280518
1773146505179637500,1.397637451171875,7.668216705322266,5.151695251464844,3.290727138519287
1773146505188311300,1.406311279296875,7.644470691680908,5.195727348327637,3.276717185974121
1773146505196984800,1.41498486328125,7.626039505004883,5.233402729034424,3.259662389755249
1773146505205658400,1.423658447265625,7.611309051513672,5.265754222869873,3.2419402599334717
1773146505214332000,1.432331787109375,7.5976738929748535,5.295597076416016,3.225274085998535
1773146505223005200,1.441005126953125,7.582066059112549,5.326419353485107,3.21121883392334
1773146505231678700,1.4496787109375,7.562400817871094,5.3604841232299805,3.2008893489837646
1773146505240352300,1.458352294921875,7.5381364822387695,5.398388385772705,3.1944174766540527
1773146505249025800,1.46702587890625,7.510429382324219,5.439675331115723,3.1896328926086426
1773146505257699300,1.47569921875,7.482046127319336,5.482468128204346,3.183067560195923
1773146505266372900,1.484372802734375,7.45523738861084,5.524569511413574,3.1731619834899902
1773146505275046400,1.49304638671875,7.431857585906982,5.563045501708984,3.1607611179351807
1773146505283720000,1.501719970703125,7.4129638671875,5.596011161804199,3.1469058990478516
1773146505292393500,1.5103935546875,7.3976945877075195,5.62413215637207,3.1326732635498047
1773146505301067000,1.51906689453125,7.384453296661377,5.649088382720947,3.1189777851104736
1773146505309740500,1.527740478515625,7.371453762054443,5.672399044036865,3.107400894165039
1773146505318414000,1.5364140625,7.357399940490723,5.695369243621826,3.098682165145874
1773146505327087600,1.545087646484375,7.341047763824463,5.719749927520752,3.092550754547119
1773146505335761200,1.55376123046875,7.321572780609131,5.746631145477295,3.0888829231262207
1773146505344434700,1.5624345703125,7.298669815063477,5.7764458656311035,3.0874736309051514
1773146505353108200,1.571108154296875,7.272699356079102,5.808565616607666,3.088493585586548
1773146505361781800,1.57978173828125,7.245112895965576,5.84108829498291,3.091992139816284
1773146505370455300,1.588455322265625,7.218020439147949,5.872061252593994,3.096684455871582
1773146505379128800,1.59712890625,7.192399501800537,5.900947570800781,3.101386785507202
1773146505387802400,1.60580224609375,7.168893814086914,5.927411079406738,3.105342388153076
1773146505396476000,1.614475830078125,7.147602558135986,5.951706886291504,3.107950210571289
1773146505405149400,1.6231494140625,7.128031253814697,5.9743876457214355,3.109379768371582
1773146505413823000,1.631822998046875,7.109673976898193,5.99612283706665,3.1095705032348633
1773146505422496500,1.64049658203125,7.091712474822998,6.017451763153076,3.1093833446502686
1773146505431170000,1.649170166015625,7.073512077331543,6.038455009460449,3.110123872756958
1773146505439843600,1.657843505859375,7.054689407348633,6.0586700439453125,3.1135599613189697
1773146505448517000,1.66651708984375,7.035807132720947,6.076774597167969,3.1209969520568848
1773146505457190700,1.675190673828125,7.018179893493652,6.090973854064941,3.132981061935425
1773146505465864200,1.6838642578125,7.00282096862793,6.100108623504639,3.1495347023010254
1773146505474537700,1.692537841796875,6.990417957305908,6.1033244132995605,3.1707844734191895
1773146505483211300,1.701211181640625,6.98115348815918,6.099865436553955,3.197739362716675
1773146505491884800,1.709884765625,6.974860668182373,6.0892181396484375,3.2315833568573
1773146505500558300,1.718558349609375,6.9710283279418945,6.070761680603027,3.2742955684661865
1773146505509231900,1.72723193359375,6.968649864196777,6.043895244598389,3.328608512878418
1773146505517905400,1.735905517578125,6.967435359954834,6.007883071899414,3.3956711292266846
1773146505526579000,1.744578857421875,6.9679741859436035,5.9614763259887695,3.4754183292388916
1773146505535252500,1.75325244140625,6.97091007232666,5.903191089630127,3.5677928924560547
1773146505543926000,1.761926025390625,6.97610330581665,5.832190036773682,3.6728622913360596
1773146505552599600,1.770599609375,6.983211517333984,5.746840953826904,3.791959285736084
1773146505561273000,1.779273193359375,6.990910530090332,5.646477222442627,3.9261765480041504
1773146505569946600,1.787946533203125,6.997593402862549,5.530416011810303,4.076587677001953
1773146505578620200,1.7966201171875,7.001755237579346,5.3981781005859375,4.243286609649658
1773146505587293400,1.80529345703125,7.002933979034424,5.248082637786865,4.425711631774902
1773146505595967200,1.81396728515625,7.000322341918945,5.078108787536621,4.6237077713012695
1773146505604640800,1.822640869140625,6.994081974029541,4.885879039764404,4.835432052612305
1773146505613314300,1.831314208984375,6.984285354614258,4.668765068054199,5.058929443359375
1773146505621987800,1.83998779296875,6.970574855804443,4.424104690551758,5.292331218719482
1773146505630661000,1.8486611328125,6.951642990112305,4.150516510009766,5.533376693725586
1773146505639334700,1.857334716796875,6.926865100860596,3.8466262817382812,5.7786149978637695
1773146505648008200,1.86600830078125,6.895627975463867,3.5117921829223633,6.023954391479492
1773146505656681700,1.874681640625,6.857473850250244,3.1458475589752197,6.264909744262695
1773146505665355300,1.883355224609375,6.8126630783081055,2.750387668609619,6.495643138885498
1773146505674028800,1.89202880859375,6.762292385101318,2.3274145126342773,6.7100629806518555
1773146505682702300,1.900702392578125,6.7066874504089355,1.87736976146698,6.904072284698486
1773146505691375900,1.9093759765625,6.6456804275512695,1.401279091835022,7.074017524719238
1773146505700049400,1.91804931640625,6.57749080657959,0.900055468082428,7.217818260192871
1773146505708723000,1.926722900390625,6.5013628005981445,0.3719319701194763,7.33241605758667
1773146505717396500,1.935396484375,6.4166388511657715,-0.18302099406719208,7.4137468338012695
1773146505726070000,1.944070068359375,6.323044776916504,-0.7621476054191589,7.457118511199951
1773146505734743600,1.95274365234375,6.236696720123291,-1.3663421869277954,7.443595886230469
1773146505743417000,1.9614169921875,6.127852439880371,-2.006835699081421,7.388669013977051
1773146505752090600,1.970090576171875,5.9435906410217285,-2.6776537895202637,7.326274394989014
1773146505760764200,1.97876416015625,5.7056050300598145,-3.349628448486328,7.238539695739746
1773146505769437700,1.987437744140625,5.449833869934082,-3.996511220932007,7.106166362762451
1773146505778111200,1.996111328125,5.1966166496276855,-4.592842102050781,6.933351039886475
1773146505786784800,2.00478466796875,4.95784330368042,-5.130151748657227,6.728426933288574
1773146505795458300,2.013458251953125,4.743584156036377,-5.612039566040039,6.494136810302734
1773146505804131800,2.0221318359375,4.562526702880859,-6.043970108032227,6.230903148651123
1773146505812805400,2.030805419921875,4.411669731140137,-6.432658672332764,5.943774700164795
1773146505821479000,2.03947900390625,4.284267902374268,-6.786827087402344,5.635106086730957
1773146505830152400,2.04815234375,4.175039768218994,-7.115283489227295,5.302091598510742
1773146505838826000,2.056825927734375,4.075469493865967,-7.424266815185547,4.943803310394287
1773146505847499500,2.06549951171875,3.977210760116577,-7.71647310256958,4.561603546142578
1773146505856173000,2.074173095703125,3.877830982208252,-7.989654541015625,4.159114837646484
1773146505864846600,2.0828466796875,3.7790145874023438,-8.238031387329102,3.7448997497558594
1773146505873520000,2.09152001953125,3.687706232070923,-8.455009460449219,3.32926607131958
1773146505882193700,2.100193603515625,3.6137335300445557,-8.636716842651367,2.9186384677886963
1773146505890867200,2.1088671875,3.572009801864624,-8.77992057800293,2.5147812366485596
1773146505899540700,2.117540771484375,3.5657780170440674,-8.885790824890137,2.1209278106689453
1773146505908214300,2.12621435546875,3.599931001663208,-8.954697608947754,1.7390432357788086
1773146505916887800,2.1348876953125,3.671738624572754,-8.990074157714844,1.366489291191101
1773146505925561300,2.143561279296875,3.7705764770507812,-8.996932029724121,1.0041717290878296
1773146505934235000,2.15223486328125,3.8857669830322266,-8.980216979980469,0.6533892154693604
1773146505942908400,2.160908447265625,4.004650592803955,-8.946200370788574,0.31409746408462524
1773146505951582000,2.16958203125,4.1176438331604,-8.90029239654541,-0.01326939556747675
1773146505960255500,2.17825537109375,4.219050407409668,-8.846556663513184,-0.329291433095932
1773146505968929000,2.186928955078125,4.306338310241699,-8.787923812866211,-0.6310641169548035
1773146505977602600,2.1956025390625,4.382747650146484,-8.7249755859375,-0.914722204208374
1773146505986276000,2.204276123046875,4.452858924865723,-8.657708168029785,-1.1775078773498535
1773146505994949600,2.21294970703125,4.520708084106445,-8.5862398147583,-1.4177724123001099
1773146506003623200,2.221623046875,4.587917327880859,-8.511727333068848,-1.634592890739441
1773146506012296700,2.230296630859375,4.6529645919799805,-8.436739921569824,-1.8280388116836548
1773146506020970200,2.23897021484375,4.7131147384643555,-8.363733291625977,-2.0012266635894775
1773146506029643800,2.247643798828125,4.764910697937012,-8.295778274536133,-2.1554794311523438
1773146506038317300,2.2563173828125,4.8015456199646,-8.23862075805664,-2.2892518043518066
1773146506046990800,2.264990966796875,4.816479682922363,-8.199625968933105,-2.395421266555786
1773146506055664400,2.273664306640625,4.806305408477783,-8.182883262634277,-2.4718918800354004
1773146506064337700,2.282337646484375,4.7666754722595215,-8.189212799072266,-2.527052879333496
1773146506073011200,2.29101123046875,4.694674968719482,-8.218732833862305,-2.5657029151916504
1773146506081685000,2.29968505859375,4.592828750610352,-8.268478393554688,-2.5900955200195312
1773146506090358500,2.308358642578125,4.470765113830566,-8.329766273498535,-2.607227087020874
1773146506099032000,2.317031982421875,4.3467183113098145,-8.388739585876465,-2.6278269290924072
1773146506107705600,2.32570556640625,4.234838008880615,-8.43786907196045,-2.653094530105591
1773146506116379100,2.334379150390625,4.144943714141846,-8.475322723388672,-2.675581216812134
1773146506125052400,2.343052490234375,4.084702968597412,-8.500229835510254,-2.689180612564087
1773146506133726000,2.351725830078125,4.055534362792969,-8.511902809143066,-2.6963953971862793
1773146506142399500,2.3603994140625,4.0505690574646,-8.513501167297363,-2.6988112926483154
1773146506151073000,2.369072998046875,4.057797908782959,-8.512116432189941,-2.692312240600586
1773146506159746800,2.377746826171875,4.06948709487915,-8.511613845825195,-2.6762092113494873
1773146506168420000,2.386420166015625,4.083033084869385,-8.511940002441406,-2.654451847076416
1773146506177093600,2.39509375,4.095131874084473,-8.514649391174316,-2.626981735229492
1773146506185767200,2.40376708984375,4.103743076324463,-8.52116870880127,-2.5921719074249268
1773146506194440700,2.412440673828125,4.101266860961914,-8.534000396728516,-2.55359148979187
1773146506203114200,2.4211142578125,4.085884094238281,-8.551229476928711,-2.5203964710235596
1773146506211787800,2.429787841796875,4.052018165588379,-8.57420825958252,-2.4968972206115723
1773146506220461300,2.43846142578125,3.9889638423919678,-8.60594367980957,-2.48923659324646
1773146506229134800,2.447134765625,3.904602527618408,-8.642984390258789,-2.4946537017822266
1773146506237808400,2.455808349609375,3.808802843093872,-8.683052062988281,-2.503603219985962
1773146506246482000,2.46448193359375,3.7109010219573975,-8.724627494812012,-2.5060901641845703
1773146506255155500,2.473155517578125,3.6144633293151855,-8.767589569091797,-2.4970808029174805
1773146506263829000,2.4818291015625,3.521317720413208,-8.810140609741211,-2.4803452491760254
1773146506272502500,2.49050244140625,3.4342260360717773,-8.848861694335938,-2.46457576751709
1773146506281176000,2.499176025390625,3.3543593883514404,-8.882219314575195,-2.4545540809631348
1773146506289849600,2.507849609375,3.2795515060424805,-8.910762786865234,-2.4521915912628174
1773146506298523100,2.516523193359375,3.209273099899292,-8.93519401550293,-2.4562673568725586
1773146506307196700,2.52519677734375,3.1428585052490234,-8.957592010498047,-2.4605636596679688
1773146506315870200,2.5338701171875,3.0780439376831055,-8.980905532836914,-2.4575107097625732
1773146506324543700,2.542543701171875,3.010509729385376,-9.008566856384277,-2.4398632049560547
1773146506333217300,2.55121728515625,2.945420980453491,-9.038302421569824,-2.4091458320617676
1773146506341890800,2.559890869140625,2.8968346118927,-9.065032958984375,-2.367257833480835
1773146506350564400,2.568564453125,2.853847026824951,-9.091547012329102,-2.3172659873962402
1773146506359238000,2.57723779296875,2.8049635887145996,-9.119295120239258,-2.267385482788086
1773146506367911400,2.585911376953125,2.742187976837158,-9.148425102233887,-2.2264556884765625
1773146506376585000,2.5945849609375,2.6618125438690186,-9.1776762008667,-2.203496217727661
1773146506385258500,2.603258544921875,2.5716609954833984,-9.206487655639648,-2.1903231143951416
1773146506393932000,2.61193212890625,2.4900527000427246,-9.23417854309082,-2.1679446697235107
1773146506402605600,2.62060546875,2.417220115661621,-9.264171600341797,-2.121922254562378
1773146506411279000,2.629279052734375,2.3487913608551025,-9.2980318069458,-2.0494282245635986
1773146506419952600,2.63795263671875,2.275103807449341,-9.332472801208496,-1.9746490716934204
1773146506428626200,2.646626220703125,2.2264516353607178,-9.352071762084961,-1.937023639678955
1773146506437299700,2.6552998046875,2.151524066925049,-9.37130069732666,-1.9287432432174683
1773146506445973200,2.66397314453125,2.0167057514190674,-9.400952339172363,-1.930123209953308
1773146506454646800,2.672646728515625,1.8296751976013184,-9.44071102142334,-1.922407627105713
1773146506463320300,2.6813203125,1.6474485397338867,-9.47653579711914,-1.910910964012146
1773146506471993900,2.689993896484375,1.5033177137374878,-9.499464988708496,-1.9158799648284912
1773146506480667400,2.69866748046875,1.3927005529403687,-9.505422592163086,-1.9691874980926514
1773146506489341000,2.7073408203125,1.2833669185638428,-9.51017951965332,-2.019864320755005
1773146506498014500,2.716014404296875,1.1723721027374268,-9.516044616699219,-2.059328556060791
1773146506506688000,2.72468798828125,1.0766807794570923,-9.519959449768066,-2.0932059288024902
1773146506515361500,2.733361572265625,1.00923490524292,-9.521041870117188,-2.121692419052124
1773146506524035000,2.74203515625,0.9662023186683655,-9.520181655883789,-2.145453929901123
1773146506532708600,2.75070849609375,0.944977343082428,-9.51770305633545,-2.165809392929077
1773146506541382100,2.759382080078125,0.9431253671646118,-9.514581680297852,-2.180285930633545
1773146506550055700,2.7680556640625,0.9571665525436401,-9.512046813964844,-2.1852169036865234
1773146506558729200,2.776729248046875,0.9861302375793457,-9.508727073669434,-2.186788320541382
1773146506567402800,2.78540283203125,1.0284130573272705,-9.50526237487793,-2.1823723316192627
1773146506576076300,2.794076171875,1.0830299854278564,-9.502703666687012,-2.1670360565185547
1773146506584749800,2.802749755859375,1.1483503580093384,-9.50124740600586,-2.1396193504333496
1773146506593423400,2.81142333984375,1.2152718305587769,-9.501907348632812,-2.099349021911621
1773146506602097000,2.820096923828125,1.278188943862915,-9.502480506896973,-2.0589988231658936
1773146506610770400,2.8287705078125,1.3325083255767822,-9.504986763000488,-2.0124709606170654
1773146506619443700,2.837443603515625,1.3783257007598877,-9.5131254196167,-1.9419196844100952
1773146506628117200,2.8461171875,1.4102299213409424,-9.519932746887207,-1.884813904762268
1773146506636791000,2.854791015625,1.4338489770889282,-9.532035827636719,-1.8040931224822998
1773146506645464600,2.863464599609375,1.4370903968811035,-9.55402946472168,-1.6809784173965454
1773146506654138000,2.87213818359375,1.4095582962036133,-9.590059280395508,-1.4880480766296387
1773146506662811600,2.880811767578125,1.3895199298858643,-9.625797271728516,-1.2584360837936401
1773146506671485200,2.889485107421875,1.3923369646072388,-9.652555465698242,-1.029542326927185
1773146506680158500,2.898158447265625,1.40769624710083,-9.670646667480469,-0.816933274269104
1773146506688832000,2.90683203125,1.427640438079834,-9.682918548583984,-0.6109939217567444
1773146506697505500,2.915505615234375,1.4443548917770386,-9.690049171447754,-0.43262776732444763
1773146506706179000,2.924178955078125,1.4482510089874268,-9.695091247558594,-0.2795819044113159
1773146506714852600,2.9328525390625,1.4375717639923096,-9.699130058288574,-0.1750895231962204
1773146506723526100,2.941526123046875,1.4216471910476685,-9.70271110534668,-0.08185946941375732
1773146506732199700,2.95019970703125,1.3946328163146973,-9.706972122192383,0.008543063886463642
1773146506740873200,2.958873291015625,1.3489876985549927,-9.712800979614258,0.11007160693407059
1773146506749546800,2.967546630859375,1.2993708848953247,-9.717116355895996,0.24429985880851746
1773146506758220300,2.97622021484375,1.2623038291931152,-9.71800708770752,0.37054842710494995
1773146506766893800,2.984893798828125,1.23672616481781,-9.716572761535645,0.4786554276943207
1773146506775567400,2.9935673828125,1.216142177581787,-9.714613914489746,0.5636019110679626
1773146506784241000,3.002240966796875,1.2041865587234497,-9.711308479309082,0.6409329771995544
1773146506792914400,3.01091455078125,1.2019785642623901,-9.705796241760254,0.7232964038848877
1773146506801588000,3.019587890625,1.2106380462646484,-9.697986602783203,0.8085711598396301
1773146506810261500,3.028261474609375,1.2292320728302002,-9.68801212310791,0.895433783531189
1773146506818935000,3.03693505859375,1.2536804676055908,-9.680182456970215,0.9448608160018921
1773146506827608600,3.045608642578125,1.2757340669631958,-9.675748825073242,0.9606097340583801
1773146506836282000,3.0542822265625,1.2906500101089478,-9.672959327697754,0.9687372446060181
1773146506844955600,3.06295556640625,1.3026114702224731,-9.671225547790527,0.970045268535614
1773146506853629200,3.071629150390625,1.3237528800964355,-9.669550895690918,0.9580475687980652
1773146506862302700,3.080302734375,1.3395191431045532,-9.66894817352295,0.9420865178108215
1773146506870976300,3.088976318359375,1.3473080396652222,-9.670319557189941,0.9165478944778442
1773146506879649800,3.09764990234375,1.3484174013137817,-9.673232078552246,0.8835964202880859
1773146506888323300,3.1063232421875,1.357607126235962,-9.674747467041016,0.8523759841918945
1773146506896996900,3.114996826171875,1.3694967031478882,-9.677136421203613,0.8049238324165344
1773146506905670400,3.12367041015625,1.3690544366836548,-9.681623458862305,0.7498272657394409
1773146506914344000,3.132343994140625,1.3660032749176025,-9.6854248046875,0.7049664258956909
1773146506923017500,3.141017578125,1.3497000932693481,-9.690399169921875,0.6669738292694092
1773146506931691000,3.14969091796875,1.3123605251312256,-9.697966575622559,0.6304970979690552
1773146506940364500,3.158364501953125,1.256902813911438,-9.707503318786621,0.5957990884780884
1773146506949038000,3.1670380859375,1.185225009918213,-9.718456268310547,0.5632423162460327
1773146506957711600,3.175711669921875,1.1000055074691772,-9.730545043945312,0.5261940360069275
1773146506966385200,3.18438525390625,1.0059254169464111,-9.742727279663086,0.48760953545570374
1773146506975058700,3.19305859375,0.9100956320762634,-9.754037857055664,0.4481663107872009
1773146506983732200,3.201732177734375,0.8220050930976868,-9.7637939453125,0.4037504494190216
1773146506992405800,3.21040576171875,0.7448211908340454,-9.772067070007324,0.3497503995895386
1773146507001079300,3.219079345703125,0.6781682372093201,-9.778603553771973,0.29898539185523987
1773146507009752800,3.2277529296875,0.6260849237442017,-9.78355598449707,0.24583740532398224
1773146507018426400,3.23642626953125,0.5829026699066162,-9.787349700927734,0.19594703614711761
1773146507027100000,3.245099853515625,0.5493312478065491,-9.789960861206055,0.15901310741901398
1773146507035773400,3.2537734375,0.5017048120498657,-9.793147087097168,0.11377090960741043
1773146507044447000,3.262447021484375,0.4388768970966339,-9.7965669631958,0.07106725871562958
1773146507053120500,3.27112060546875,0.39199936389923096,-9.79874324798584,0.0366593599319458
1773146507061794000,3.2797939453125,0.35377082228660583,-9.800260543823242,0.01057205256074667
1773146507070467600,3.288467529296875,0.3238775432109833,-9.801295280456543,-0.01015454065054655
1773146507079141000,3.29714111328125,0.29088789224624634,-9.802273750305176,-0.034716200083494186
1773146507087814700,3.305814697265625,0.2533392906188965,-9.803174018859863,-0.06328172981739044
1773146507096488200,3.31448828125,0.2078072726726532,-9.80395793914795,-0.09795496612787247
1773146507105161700,3.32316162109375,0.15234331786632538,-9.804476737976074,-0.1393183469772339
1773146507113835300,3.331835205078125,0.08722035586833954,-9.804497718811035,-0.18603625893592834
1773146507122508500,3.340508544921875,0.019368140026926994,-9.803840637207031,-0.2339351624250412
1773146507131182300,3.349182373046875,-0.03970653936266899,-9.802966117858887,-0.26583361625671387
1773146507139856000,3.35785595703125,-0.0852452963590622,-9.802327156066895,-0.27841266989707947
1773146507148529400,3.366529296875,-0.11972083896398544,-9.801776885986328,-0.285010427236557
1773146507157202700,3.37520263671875,-0.1478540152311325,-9.801379203796387,-0.2854747772216797
1773146507165876200,3.383876220703125,-0.1748444139957428,-9.801044464111328,-0.28167158365249634
1773146507174549800,3.3925498046875,-0.19451141357421875,-9.80086898803711,-0.27477940917015076
1773146507183223300,3.401223388671875,-0.21044917404651642,-9.800745010375977,-0.26739728450775146
1773146507191896800,3.409896728515625,-0.2292892187833786,-9.80048942565918,-0.26115602254867554
1773146507200570400,3.4185703125,-0.26177242398262024,-9.799886703491211,-0.2531339228153229
1773146507209244200,3.427244140625,-0.30581748485565186,-9.798855781555176,-0.2435137927532196
1773146507217917400,3.43591748046875,-0.34632444381713867,-9.79737663269043,-0.24872484803199768
1773146507226591000,3.444591064453125,-0.3835790753364563,-9.795673370361328,-0.2608519494533539
1773146507235264500,3.453264404296875,-0.4222378432750702,-9.793752670288086,-0.272987425327301
1773146507243938000,3.46193798828125,-0.4644300043582916,-9.7914400100708,-0.2870403826236725
1773146507252611600,3.470611572265625,-0.5072278380393982,-9.788866996765137,-0.30199456214904785
1773146507261285000,3.47928515625,-0.5502557754516602,-9.786087036132812,-0.31639376282691956
1773146507269958700,3.487958740234375,-0.5910314321517944,-9.7832670211792,-0.3297785520553589
1773146507278632200,3.496632080078125,-0.6297768950462341,-9.780450820922852,-0.34137341380119324
1773146507287305700,3.5053056640625,-0.6679460406303406,-9.777582168579102,-0.35086050629615784
1773146507295979300,3.513979248046875,-0.707442581653595,-9.774535179138184,-0.3582833409309387
1773146507304652800,3.52265283203125,-0.7498152852058411,-9.771153450012207,-0.36430221796035767
1773146507313326300,3.531326416015625,-0.7956944704055786,-9.767319679260254,-0.3697606921195984
1773146507322000000,3.539999755859375,-0.8452975749969482,-9.762943267822266,-0.37521931529045105
1773146507330673400,3.54867333984375,-0.8981936573982239,-9.757986068725586,-0.3812195658683777
1773146507339347000,3.557346923828125,-0.9547154307365417,-9.752337455749512,-0.3883633613586426
1773146507348020500,3.5660205078125,-1.0144747495651245,-9.745950698852539,-0.39709290862083435
1773146507356694000,3.574694091796875,-1.07734215259552,-9.738750457763672,-0.4079899489879608
1773146507365367600,3.583367431640625,-1.1431851387023926,-9.730673789978027,-0.4213222861289978
1773146507374041000,3.592041015625,-1.2117031812667847,-9.721678733825684,-0.43716177344322205
1773146507382714600,3.600714599609375,-1.282166600227356,-9.711803436279297,-0.45532816648483276
1773146507391388200,3.60938818359375,-1.3542882204055786,-9.701053619384766,-0.4752486050128937
1773146507400061700,3.618061767578125,-1.4275904893875122,-9.689504623413086,-0.49584510922431946
1773146507408735200,3.6267353515625,-1.501307487487793,-9.677308082580566,-0.5159160494804382
1773146507417408800,3.63540869140625,-1.575194001197815,-9.664532661437988,-0.5347540974617004
1773146507426082300,3.644082275390625,-1.6480175256729126,-9.65145206451416,-0.5512701272964478
1773146507434755800,3.652755859375,-1.7171465158462524,-9.638649940490723,-0.5641165375709534
1773146507443429400,3.661429443359375,-1.7790470123291016,-9.6270170211792,-0.5708897113800049
1773146507452103000,3.67010302734375,-1.8324371576309204,-9.617140769958496,-0.5684832334518433
1773146507460776400,3.6787763671875,-1.8723224401474,-9.609983444213867,-0.5594728589057922
1773146507469450000,3.687449951171875,-1.8989956378936768,-9.604889869689941,-0.557043731212616
1773146507478123500,3.69612353515625,-1.9074136018753052,-9.602720260620117,-0.565609872341156
1773146507486797000,3.704797119140625,-1.8921709060668945,-9.604438781738281,-0.5872271060943604
1773146507495470600,3.713470703125,-1.855899691581726,-9.6091947555542,-0.6240222454071045
1773146507504144100,3.72214404296875,-1.8059606552124023,-9.61535358428955,-0.673703134059906
1773146507512817700,3.730817626953125,-1.7509174346923828,-9.62108325958252,-0.7344554662704468
1773146507521491200,3.7394912109375,-1.6976444721221924,-9.62508487701416,-0.8038262724876404
1773146507530164700,3.748164794921875,-1.6521368026733398,-9.626812934875488,-0.8748089075088501
1773146507538838300,3.75683837890625,-1.61589515209198,-9.626076698303223,-0.9475895166397095
1773146507547511800,3.76551171875,-1.594183087348938,-9.622663497924805,-1.016519546508789
1773146507556185300,3.774185302734375,-1.5888354778289795,-9.617169380187988,-1.075189232826233
1773146507564859000,3.78285888671875,-1.600664496421814,-9.610054969787598,-1.1203142404556274
1773146507573532400,3.791532470703125,-1.6268951892852783,-9.602084159851074,-1.1504697799682617
1773146507582206000,3.8002060546875,-1.6623656749725342,-9.594012260437012,-1.1669899225234985
1773146507590879500,3.80887939453125,-1.702307939529419,-9.58626937866211,-1.1730196475982666
1773146507599553000,3.817552978515625,-1.7429463863372803,-9.579124450683594,-1.1717007160186768
1773146507608226600,3.8262265625,-1.7815836668014526,-9.572676658630371,-1.1662755012512207
1773146507616900000,3.834900146484375,-1.8160202503204346,-9.566901206970215,-1.1605392694473267
1773146507625573600,3.84357373046875,-1.8456968069076538,-9.561482429504395,-1.1583858728408813
1773146507634247200,3.8522470703125,-1.8706457614898682,-9.556151390075684,-1.1623455286026
1773146507642920400,3.86092041015625,-1.8901643753051758,-9.550966262817383,-1.1733357906341553
1773146507651594200,3.86959423828125,-1.9039463996887207,-9.54607105255127,-1.190754771232605
1773146507660267800,3.878267822265625,-1.9111855030059814,-9.541799545288086,-1.2131898403167725
1773146507668941000,3.886941162109375,-1.911841869354248,-9.538613319396973,-1.2369788885116577
1773146507677614600,3.895614501953125,-1.9056675434112549,-9.53696060180664,-1.2590490579605103
1773146507686288100,3.9042880859375,-1.8928238153457642,-9.537172317504883,-1.2766969203948975
1773146507694962000,3.9129619140625,-1.8728433847427368,-9.539656639099121,-1.2875490188598633
1773146507703635200,3.92163525390625,-1.8459378480911255,-9.544252395629883,-1.2923415899276733
1773146507712309000,3.93030908203125,-1.8127093315124512,-9.551273345947266,-1.2874985933303833
1773146507720982500,3.938982421875,-1.7731130123138428,-9.56031608581543,-1.2754658460617065
1773146507729655800,3.94765576171875,-1.7272297143936157,-9.570858001708984,-1.25925612449646
1773146507738329300,3.956329345703125,-1.675040364265442,-9.582276344299316,-1.2428208589553833
1773146507747003000,3.9650029296875,-1.6176508665084839,-9.594088554382324,-1.2276287078857422
1773146507755676400,3.973676513671875,-1.5553594827651978,-9.606196403503418,-1.2133607864379883
1773146507764350000,3.982349853515625,-1.4877586364746094,-9.618440628051758,-1.2010725736618042
1773146507773023700,3.991023681640625,-1.4152897596359253,-9.630452156066895,-1.19236421585083
1773146507781697000,3.999697021484375,-1.3381935358047485,-9.642129898071289,-1.1869964599609375
1773146507790370600,4.00837060546875,-1.257873773574829,-9.653191566467285,-1.1849212646484375
1773146507799044000,4.017044189453125,-1.1761192083358765,-9.663653373718262,-1.1836118698120117
1773146507807717600,4.025717529296875,-1.0946478843688965,-9.673697471618652,-1.1797088384628296
1773146507816391200,4.03439111328125,-1.0141886472702026,-9.683575630187988,-1.1705445051193237
1773146507825064700,4.043064697265625,-0.9361845254898071,-9.693421363830566,-1.1539181470870972
1773146507833738200,4.05173828125,-0.8620901107788086,-9.703156471252441,-1.1295799016952515
1773146507842411800,4.060411865234375,-0.7938194274902344,-9.712532043457031,-1.0986169576644897
1773146507851085300,4.069085205078125,-0.7325698137283325,-9.7213716506958,-1.0623822212219238
1773146507859758800,4.0777587890625,-0.6782646775245667,-9.729586601257324,-1.0224921703338623
1773146507868432400,4.086432373046875,-0.6299128532409668,-9.737165451049805,-0.9804123640060425
1773146507877106000,4.09510595703125,-0.5854531526565552,-9.744476318359375,-0.9342387318611145
1773146507885779500,4.103779541015625,-0.5436440706253052,-9.751672744750977,-0.8830170035362244
1773146507894453000,4.112452880859375,-0.5052304863929749,-9.758659362792969,-0.826856255531311
1773146507903126500,4.12112646484375,-0.47249066829681396,-9.764934539794922,-0.7701854109764099
1773146507911800000,4.129800048828125,-0.4444833993911743,-9.770491600036621,-0.7143704295158386
1773146507920473600,4.1384736328125,-0.42168620228767395,-9.775482177734375,-0.6576614379882812
1773146507929147100,4.147147216796875,-0.4041028916835785,-9.779966354370117,-0.5994482636451721
1773146507937820700,4.155820556640625,-0.3887249231338501,-9.784022331237793,-0.5405406355857849
1773146507946494200,4.164494140625,-0.3718770146369934,-9.787753105163574,-0.48164862394332886
1773146507955167700,4.173167724609375,-0.35105714201927185,-9.791259765625,-0.4223450720310211
1773146507963841300,4.18184130859375,-0.32398751378059387,-9.794626235961914,-0.3615560233592987
1773146507972514800,4.190514892578125,-0.2906073331832886,-9.797801971435547,-0.29837438464164734
1773146507981188400,4.199188232421875,-0.2537204325199127,-9.800590515136719,-0.2333260029554367
1773146507989862000,4.20786181640625,-0.2170773595571518,-9.802753448486328,-0.17121721804141998
1773146507998535400,4.216535400390625,-0.18081490695476532,-9.804338455200195,-0.11240603029727936
1773146508007209000,4.225208984375,-0.14534872770309448,-9.805404663085938,-0.05743097886443138
1773146508015882500,4.233882568359375,-0.11195029318332672,-9.806008338928223,-0.007152059115469456
1773146508024556000,4.24255615234375,-0.08266561478376389,-9.80622673034668,0.03829888999462128
1773146508033229600,4.2512294921875,-0.05907081812620163,-9.806154251098633,0.07897969335317612
1773146508041903000,4.259903076171875,-0.041229497641325,-9.805886268615723,0.11522217839956284
1773146508050576600,4.26857666015625,-0.028428496792912483,-9.805506706237793,0.14703495800495148
1773146508059250200,4.277250244140625,-0.019358543679118156,-9.805078506469727,0.1744920015335083
1773146508067923700,4.285923828125,-0.012750049121677876,-9.804638862609863,0.19813905656337738
1773146508076597200,4.29459716796875,-0.007519027683883905,-9.804218292236328,0.21823708713054657
1773146508085270800,4.303270751953125,-0.0028545923996716738,-9.803832054138184,0.2350512593984604
1773146508093944300,4.3119443359375,0.0022916863672435284,-9.803492546081543,0.24879539012908936
1773146508102617900,4.320617919921875,0.008479995653033257,-9.803203582763672,0.2598468065261841
1773146508111291400,4.32929150390625,0.01604287326335907,-9.802977561950684,0.26789209246635437
1773146508119965000,4.33796484375,0.02493404597043991,-9.802810668945312,0.2732324004173279
1773146508128638500,4.346638427734375,0.03454938530921936,-9.802713394165039,0.2757147550582886
1773146508137312000,4.35531201171875,0.04405738040804863,-9.802682876586914,0.2754038870334625
1773146508145985500,4.363985595703125,0.05343734100461006,-9.802716255187988,0.27255725860595703
1773146508154659000,4.3726591796875,0.06267053633928299,-9.802802085876465,0.26743870973587036
1773146508163332600,4.38133251953125,0.07111699134111404,-9.802947044372559,0.25996100902557373
1773146508172006100,4.390006103515625,0.07783190160989761,-9.803154945373535,0.24998828768730164
1773146508180679700,4.3986796875,0.08163122087717056,-9.803433418273926,0.23750843107700348
1773146508189353200,4.407353271484375,0.0819602906703949,-9.803775787353516,0.22285127639770508
1773146508198026800,4.41602685546875,0.07879151403903961,-9.804162979125977,0.20632103085517883
1773146508206700300,4.4247001953125,0.07259975373744965,-9.804574012756348,0.18832042813301086
1773146508215373800,4.433373779296875,0.06402749568223953,-9.80497932434082,0.16926230490207672
1773146508224047400,4.44204736328125,0.05509886518120766,-9.805360794067383,0.14916305243968964
1773146508232721000,4.450720947265625,0.046609897166490555,-9.805709838867188,0.127477765083313
1773146508241394400,4.45939453125,0.03926917538046837,-9.806015968322754,0.10439420491456985
1773146508250068000,4.46806787109375,0.0332736112177372,-9.80626392364502,0.08046706020832062
1773146508258741500,4.476741455078125,0.027746165171265602,-9.806448936462402,0.05633676424622536
1773146508267415000,4.4854150390625,0.022247135639190674,-9.806571960449219,0.032372329384088516
1773146508276088600,4.494088623046875,0.016075078397989273,-9.806632995605469,0.008404559455811977
1773146508284762000,4.50276220703125,0.009041660465300083,-9.806632041931152,-0.01637127809226513
1773146508293435600,4.511435546875,0.0016451122937723994,-9.806561470031738,-0.0418584831058979
1773146508302109200,4.520109130859375,-0.005329337436705828,-9.806418418884277,-0.06715495139360428
1773146508310782700,4.52878271484375,-0.01166549138724804,-9.80622673034668,-0.09046913683414459
1773146508319456300,4.537456298828125,-0.018577948212623596,-9.806007385253906,-0.11070702224969864
1773146508328129800,4.5461298828125,-0.030043426901102066,-9.805766105651855,-0.128240704536438
1773146508336803300,4.55480322265625,-0.04653554782271385,-9.80550765991211,-0.14230753481388092
1773146508345476900,4.563476806640625,-0.061803657561540604,-9.805296897888184,-0.15072108805179596
1773146508354150400,4.572150390625,-0.07422880828380585,-9.805185317993164,-0.1523670256137848
1773146508362824000,4.580823974609375,-0.08283554762601852,-9.8052396774292,-0.14425036311149597
1773146508371497500,4.58949755859375,-0.09805619716644287,-9.805286407470703,-0.1309150904417038
1773146508380171000,4.5981708984375,-0.12987062335014343,-9.805094718933105,-0.11680354923009872
1773146508388844500,4.606844482421875,-0.18801669776439667,-9.804300308227539,-0.10367291420698166
1773146508397518000,4.61551806640625,-0.2683025598526001,-9.802529335021973,-0.09384387731552124
1773146508406191600,4.624191650390625,-0.3598216772079468,-9.79958438873291,-0.09519706666469574
1773146508414865200,4.632865234375,-0.45295536518096924,-9.795680046081543,-0.09938276559114456
1773146508423538700,4.64153857421875,-0.5375574231147766,-9.791414260864258,-0.0981050655245781
1773146508432212200,4.650212158203125,-0.6042386293411255,-9.787581443786621,-0.09237993508577347
1773146508440885800,4.6588857421875,-0.6472669839859009,-9.78488826751709,-0.0861138105392456
1773146508449559300,4.667559326171875,-0.6680641174316406,-9.783528327941895,-0.08147957175970078
1773146508458232800,4.67623291015625,-0.6713602542877197,-9.783317565917969,-0.07976733148097992
1773146508466906400,4.68490625,-0.663260281085968,-9.78387451171875,-0.07925111055374146
1773146508475580000,4.693579833984375,-0.6503159999847412,-9.784743309020996,-0.07913322746753693
1773146508484253400,4.70225341796875,-0.6386069059371948,-9.785515785217285,-0.07910214364528656
1773146508492927000,4.710927001953125,-0.6334905028343201,-9.78583812713623,-0.08031971007585526
1773146508501600500,4.7196005859375,-0.6403252482414246,-9.78534984588623,-0.08542143553495407
1773146508510274000,4.728274169921875,-0.6633724570274353,-9.783753395080566,-0.09213317185640335
1773146508518947600,4.736947509765625,-0.7013756632804871,-9.781028747558594,-0.09965869039297104
1773146508527621000,4.74562109375,-0.7473527789115906,-9.777521133422852,-0.10930395126342773
1773146508536294700,4.754294677734375,-0.7933018803596497,-9.773849487304688,-0.11371821910142899
1773146508544968200,4.76296826171875,-0.837372899055481,-9.770204544067383,-0.11092084646224976
1773146508553641700,4.771641845703125,-0.8816474676132202,-9.766419410705566,-0.10069125145673752
1773146508562315300,4.780315185546875,-0.9268260598182678,-9.76240062713623,-0.08311230689287186
1773146508570988800,4.78898876953125,-0.9721676111221313,-9.758176803588867,-0.05699191242456436
1773146508579662300,4.797662353515625,-1.0163980722427368,-9.753811836242676,-0.02187691070139408
1773146508588335900,4.8063359375,-1.0587561130523682,-9.749308586120605,0.02002534829080105
1773146508597009400,4.815009521484375,-1.0981248617172241,-9.744760513305664,0.06435120105743408
1773146508605683000,4.823682861328125,-1.133733868598938,-9.740321159362793,0.10573897510766983
1773146508614356500,4.8323564453125,-1.1667771339416504,-9.73596477508545,0.14145846664905548
1773146508623030000,4.841030029296875,-1.1978048086166382,-9.731746673583984,0.1695927232503891
1773146508631703600,4.84970361328125,-1.2258766889572144,-9.727869987487793,0.19016772508621216
1773146508640377000,4.858377197265625,-1.2501274347305298,-9.724509239196777,0.2037089318037033
1773146508649050600,4.867050537109375,-1.2716903686523438,-9.72160530090332,0.2087625116109848
1773146508657724200,4.87572412109375,-1.2914729118347168,-9.719057083129883,0.20596930384635925
1773146508666397700,4.884397705078125,-1.3090120553970337,-9.716814041137695,0.2010197639465332
1773146508675071200,4.8930712890625,-1.3218470811843872,-9.71517562866211,0.196142315864563
1773146508683744800,4.901744873046875,-1.3277993202209473,-9.71442985534668,0.19281788170337677
1773146508692418300,4.910418212890625,-1.3258070945739746,-9.714760780334473,0.18989233672618866
1773146508701091800,4.919091796875,-1.3165677785873413,-9.716048240661621,0.1882801353931427
1773146508709765400,4.927765380859375,-1.3026014566421509,-9.717931747436523,0.1882173717021942
1773146508718439000,4.93643896484375,-1.2873955965042114,-9.719935417175293,0.18935199081897736
1773146508727112400,4.945112548828125,-1.2738230228424072,-9.72169017791748,0.1910405158996582
1773146508735786000,4.953785888671875,-1.263401746749878,-9.7230224609375,0.1924300491809845
1773146508744459500,4.96245947265625,-1.2559068202972412,-9.724004745483398,0.1918897032737732
1773146508753133000,4.971133056640625,-1.2503650188446045,-9.724797248840332,0.18784095346927643
1773146508761806600,4.979806640625,-1.2453571557998657,-9.725600242614746,0.17937250435352325
1773146508770480000,4.988480224609375,-1.2405940294265747,-9.726441383361816,0.16626161336898804
1773146508779153700,4.997153564453125,-1.2365809679031372,-9.727240562438965,0.14844928681850433
1773146508787827200,5.0058271484375,-1.2334619760513306,-9.727950096130371,0.12634585797786713
1773146508796500700,5.014500732421875,-1.2318259477615356,-9.728448867797852,0.10136260837316513
1773146508805174300,5.02317431640625,-1.2323904037475586,-9.728616714477539,0.07500726729631424
1773146508813847800,5.031847900390625,-1.2355865240097046,-9.728374481201172,0.0493025965988636
1773146508822521300,5.040521240234375,-1.2413921356201172,-9.727726936340332,0.025811538100242615
1773146508831195000,5.04919482421875,-1.2495993375778198,-9.726707458496094,0.005912772845476866
1773146508839868400,5.057868408203125,-1.2596395015716553,-9.725410461425781,-0.009637548588216305
1773146508848542000,5.0665419921875,-1.2710143327713013,-9.723913192749023,-0.020714204758405685
1773146508857215500,5.075215576171875,-1.2834237813949585,-9.722264289855957,-0.027994833886623383
1773146508865889000,5.083888916015625,-1.295743465423584,-9.72061538696289,-0.03266802430152893
1773146508874562600,5.0925625,-1.3084481954574585,-9.718903541564941,-0.0356801375746727
1773146508883236000,5.101236083984375,-1.3213027715682983,-9.717157363891602,-0.03735962510108948
1773146508891909600,5.10990966796875,-1.3349651098251343,-9.715287208557129,-0.0383165217936039
1773146508900583200,5.118583251953125,-1.3500107526779175,-9.713199615478516,-0.04013991728425026
1773146508909256700,5.127256591796875,-1.365444302558899,-9.711027145385742,-0.04358535259962082
1773146508917930200,5.13593017578125,-1.380733847618103,-9.708837509155273,-0.04927099868655205
1773146508926603800,5.144603759765625,-1.3964049816131592,-9.706559181213379,-0.05603577941656113
1773146508935277300,5.15327734375,-1.4123332500457764,-9.704207420349121,-0.0637035146355629
1773146508943950800,5.161950927734375,-1.4292025566101074,-9.701682090759277,-0.07165153324604034
1773146508952624400,5.170624267578125,-1.4469726085662842,-9.69898509979248,-0.07967355102300644
1773146508961298000,5.1792978515625,-1.466099500656128,-9.69604206085205,-0.08782709389925003
1773146508969971500,5.187971435546875,-1.4862945079803467,-9.692887306213379,-0.09617246687412262
1773146508978645000,5.19664501953125,-1.506847858428955,-9.689624786376953,-0.10478456318378448
1773146508987318500,5.205318603515625,-1.5276693105697632,-9.686259269714355,-0.11400007456541061
1773146508995992000,5.213991943359375,-1.5484085083007812,-9.682844161987305,-0.12383145093917847
1773146509004665600,5.22266552734375,-1.5690522193908691,-9.679374694824219,-0.13474074006080627
1773146509013339100,5.231339111328125,-1.5897172689437866,-9.675821304321289,-0.14721331000328064
1773146509022012700,5.2400126953125,-1.6117534637451172,-9.671957969665527,-0.16082508862018585
1773146509030686200,5.248686279296875,-1.6361117362976074,-9.667631149291992,-0.17446693778038025
1773146509039359500,5.257359375,-1.6631076335906982,-9.662748336791992,-0.18909601867198944
1773146509048033000,5.266032958984375,-1.6939799785614014,-9.657086372375488,-0.20373666286468506
1773146509056706800,5.274706787109375,-1.7283217906951904,-9.650671005249023,-0.21873798966407776
1773146509065380400,5.28338037109375,-1.7655842304229736,-9.643566131591797,-0.23392434418201447
1773146509074054000,5.292053955078125,-1.8052825927734375,-9.63582706451416,-0.24935244023799896
1773146509082727200,5.30072705078125,-1.846614956855774,-9.627578735351562,-0.2648032009601593
1773146509091401000,5.30940087890625,-1.8891630172729492,-9.618895530700684,-0.2798449397087097
1773146509100074500,5.318074462890625,-1.932525873184204,-9.609854698181152,-0.2939923405647278
1773146509108747800,5.326747802734375,-1.9761443138122559,-9.600574493408203,-0.30693519115448
1773146509117421300,5.33542138671875,-2.019460678100586,-9.59117317199707,-0.31865549087524414
1773146509126094800,5.3440947265625,-2.0611934661865234,-9.58191204071045,-0.32988816499710083
1773146509134768600,5.3527685546875,-2.1006996631622314,-9.572918891906738,-0.3415800929069519
1773146509143442200,5.361442138671875,-2.1367452144622803,-9.56449031829834,-0.35388603806495667
1773146509152115700,5.37011572265625,-2.1687257289886475,-9.556829452514648,-0.3660691976547241
1773146509160789000,5.3787890625,-2.1965255737304688,-9.550019264221191,-0.3778816759586334
1773146509169462500,5.387462646484375,-2.2203192710876465,-9.544069290161133,-0.3889841139316559
1773146509178136000,5.396135986328125,-2.238145589828491,-9.5396146774292,-0.39606207609176636
1773146509186809600,5.4048095703125,-2.2494800090789795,-9.536799430847168,-0.39959368109703064
1773146509195483100,5.413483154296875,-2.254232883453369,-9.535106658935547,-0.41298964619636536
1773146509204156700,5.42215673828125,-2.25327205657959,-9.534225463867188,-0.43783318996429443
1773146509212830200,5.430830322265625,-2.2396209239959717,-9.536030769348145,-0.46753203868865967
1773146509221503700,5.439503662109375,-2.2088418006896973,-9.54159927368164,-0.49929171800613403
1773146509230177300,5.44817724609375,-2.1635992527008057,-9.5501708984375,-0.5324167609214783
1773146509238850800,5.456850830078125,-2.1089954376220703,-9.56013298034668,-0.5712930560112
1773146509247524400,5.4655244140625,-2.0462770462036133,-9.570785522460938,-0.6190383434295654
1773146509256198000,5.474197998046875,-1.9744905233383179,-9.582098007202148,-0.6746587753295898
1773146509264871400,5.482871337890625,-1.8956409692764282,-9.593734741210938,-0.7329427599906921
1773146509273545000,5.491544921875,-1.8107197284698486,-9.605493545532227,-0.7913179993629456
1773146509282218500,5.500218505859375,-1.7246348857879639,-9.61683464050293,-0.8441102504730225
1773146509290892000,5.50889208984375,-1.6404483318328857,-9.627848625183105,-0.8853498101234436
1773146509299565600,5.517565673828125,-1.559108018875122,-9.638792037963867,-0.9128371477127075
1773146509308239000,5.526239013671875,-1.4789063930511475,-9.650185585021973,-0.9258253574371338
1773146509316912600,5.53491259765625,-1.3974944353103638,-9.662480354309082,-0.9240479469299316
1773146509325586200,5.543586181640625,-1.3137378692626953,-9.675643920898438,-0.9090577363967896
1773146509334259700,5.552259765625,-1.2273036241531372,-9.68921947479248,-0.8849533200263977
1773146509342933200,5.560933349609375,-1.137608289718628,-9.702659606933594,-0.8571123480796814
1773146509351606800,5.569606689453125,-1.0442239046096802,-9.715453147888184,-0.8306246399879456
1773146509360280300,5.5782802734375,-0.9468648433685303,-9.727241516113281,-0.8090823888778687
1773146509368953900,5.586953857421875,-0.8457408547401428,-9.737630844116211,-0.7960326075553894
1773146509377627400,5.59562744140625,-0.7413811087608337,-9.746402740478516,-0.7927138805389404
1773146509386301000,5.604301025390625,-0.6343995332717896,-9.753644943237305,-0.7964537739753723
1773146509394974500,5.612974365234375,-0.5255855917930603,-9.75968074798584,-0.8017430901527405
1773146509403648000,5.62164794921875,-0.4168080687522888,-9.764790534973145,-0.8034486770629883
1773146509412321500,5.630321533203125,-0.30748414993286133,-9.76941204071045,-0.796498715877533
1773146509420995000,5.6389951171875,-0.19618801772594452,-9.773460388183594,-0.7819013595581055
1773146509429668600,5.647668701171875,-0.0798366442322731,-9.776885986328125,-0.7592904567718506
1773146509438342100,5.656342041015625,0.040328316390514374,-9.779531478881836,-0.7276771664619446
1773146509447015700,5.665015625,0.1572464108467102,-9.781148910522461,-0.6890407800674438
1773146509455689200,5.673689208984375,0.25891241431236267,-9.781917572021484,-0.6460974812507629
1773146509464362800,5.68236279296875,0.33716946840286255,-9.782658576965332,-0.5968995690345764
1773146509473036300,5.691036376953125,0.39171308279037476,-9.784135818481445,-0.5363116264343262
1773146509481709800,5.699709716796875,0.4217528700828552,-9.786412239074707,-0.4675922095775604
1773146509490383400,5.70838330078125,0.4333566427230835,-9.78909683227539,-0.3951597213745117
1773146509499057000,5.717056884765625,0.433853417634964,-9.791756629943848,-0.3219515383243561
1773146509507730400,5.72573046875,0.42964059114456177,-9.794103622436523,-0.24763257801532745
1773146509516404000,5.734404052734375,0.4264940321445465,-9.795866012573242,-0.1717909723520279
1773146509525077500,5.743077392578125,0.4291766583919525,-9.796799659729004,-0.09450478106737137
1773146509533751000,5.7517509765625,0.44073402881622314,-9.796730995178223,-0.013620086945593357
1773146509542424600,5.760424560546875,0.46124204993247986,-9.795583724975586,0.0646355077624321
1773146509551098000,5.76909814453125,0.49166277050971985,-9.793307304382324,0.14065398275852203
1773146509559771600,5.777771728515625,0.5323606729507446,-9.789751052856445,0.21856971085071564
1773146509568445200,5.786445068359375,0.5778622627258301,-9.785235404968262,0.2926143705844879
1773146509577118700,5.79511865234375,0.6260852217674255,-9.779987335205078,0.3609125018119812
1773146509585792300,5.803792236328125,0.6745327711105347,-9.774230003356934,0.4240421652793884
1773146509594465800,5.8124658203125,0.7199142575263977,-9.768326759338379,0.4815574586391449
1773146509603139300,5.821139404296875,0.7622305750846863,-9.762229919433594,0.5368942618370056
1773146509611812900,5.829812744140625,0.796140193939209,-9.756810188293457,0.584118664264679
1773146509620486400,5.838486328125,0.8228790760040283,-9.752060890197754,0.6249471306800842
1773146509629160000,5.847159912109375,0.8435527086257935,-9.747929573059082,0.6608192920684814
1773146509637833500,5.85583349609375,0.860226571559906,-9.744295120239258,0.6921766400337219
1773146509646507000,5.864507080078125,0.8740493655204773,-9.741087913513184,0.7194719314575195
1773146509655180500,5.8731806640625,0.8859649896621704,-9.73818588256836,0.7437742352485657
1773146509663854000,5.88185400390625,0.8967969417572021,-9.73550033569336,0.7656183838844299
1773146509672527600,5.890527587890625,0.9063016176223755,-9.733050346374512,0.7853281497955322
1773146509681201200,5.899201171875,0.9142632484436035,-9.730862617492676,0.8030024766921997
1773146509689874700,5.907874755859375,0.9209170937538147,-9.728894233703613,0.8190910220146179
1773146509698548200,5.91654833984375,0.926649808883667,-9.727145195007324,0.8332876563072205
1773146509707221800,5.9252216796875,0.931486189365387,-9.725616455078125,0.8456306457519531
1773146509715895300,5.933895263671875,0.9346641302108765,-9.724396705627441,0.8560940027236938
1773146509724568800,5.94256884765625,0.9356358647346497,-9.72352409362793,0.8649002313613892
1773146509733242400,5.951242431640625,0.9340752959251404,-9.72305965423584,0.8717781901359558
1773146509741916000,5.959916015625,0.9298675656318665,-9.723068237304688,0.8761790990829468
1773146509750589400,5.96858935546875,0.9222021102905273,-9.723694801330566,0.8773199915885925
1773146509759263000,5.977262939453125,0.9105241298675537,-9.725014686584473,0.8748793005943298
1773146509767936500,5.9859365234375,0.8948271870613098,-9.727001190185547,0.8689769506454468
1773146509776610000,5.994610107421875,0.875284731388092,-9.7295503616333,0.8602935671806335
1773146509785283600,6.00328369140625,0.8524217009544373,-9.732515335083008,0.8496564626693726
1773146509793957000,6.01195703125,0.8265126347541809,-9.735759735107422,0.8380040526390076
1773146509802630700,6.020630615234375,0.7981567978858948,-9.739126205444336,0.8262878656387329
1773146509811304200,6.02930419921875,0.767236590385437,-9.742570877075195,0.8148910403251648
1773146509819977700,6.037977783203125,0.733798086643219,-9.745992660522461,0.8047143816947937
1773146509828651300,6.0466513671875,0.6984344720840454,-9.749336242675781,0.7956229448318481
1773146509837324800,6.05532470703125,0.6612599492073059,-9.75256061553955,0.7878318428993225
1773146509845998300,6.063998291015625,0.6228488683700562,-9.755565643310547,0.7819001078605652
1773146509854672000,6.072671875,0.5835959315299988,-9.758275032043457,0.7783719301223755
1773146509863345400,6.081345458984375,0.5455011129379272,-9.760601043701172,0.7768417596817017
1773146509872019000,6.09001904296875,0.5107792019844055,-9.762470245361328,0.7769659161567688
1773146509880692500,6.0986923828125,0.48131629824638367,-9.763825416564941,0.7787466049194336
1773146509889366000,6.107365966796875,0.45785635709762573,-9.764664649963379,0.7823552489280701
1773146509898039600,6.11603955078125,0.43954113125801086,-9.765080451965332,0.787650465965271
1773146509906713000,6.124713134765625,0.4252871870994568,-9.765179634094238,0.7942070960998535
1773146509915386600,6.13338671875,0.41283246874809265,-9.765168190002441,0.8008949756622314
1773146509924060200,6.14206005859375,0.3989475667476654,-9.765340805053711,0.8058300614356995
1773146509932733700,6.150733642578125,0.37729334831237793,-9.766032218933105,0.8078584671020508
1773146509941407200,6.1594072265625,0.3453657627105713,-9.766915321350098,0.8114643096923828
1773146509950080800,6.168080810546875,0.3047509491443634,-9.767282485961914,0.8232284784317017
1773146509958754300,6.17675439453125,0.25468647480010986,-9.767504692077637,0.837476372718811
1773146509967427800,6.185427734375,0.19748269021511078,-9.768019676208496,0.8468666076660156
1773146509976101400,6.194101318359375,0.1311761885881424,-9.768360137939453,0.8557537794113159
1773146509984775000,6.20277490234375,0.04977129399776459,-9.768182754516602,0.8663315176963806
1773146509993448400,6.211448486328125,-0.04563985764980316,-9.767313003540039,0.876303493976593
1773146510002122000,6.2201220703125,-0.14676807820796967,-9.765679359436035,0.8833819031715393
1773146510010795500,6.22879541015625,-0.24451397359371185,-9.762970924377441,0.8916268944740295
1773146510019469300,6.23746923828125,-0.33403995633125305,-9.759218215942383,0.903590202331543
1773146510028142800,6.246142822265625,-0.41232725977897644,-9.754838943481445,0.918424665927887
1773146510036816100,6.254816162109375,-0.4782825708389282,-9.750205039978027,0.9354861378669739
1773146510045489700,6.26348974609375,-0.5319101810455322,-9.745725631713867,0.9530504941940308
1773146510054163500,6.27216357421875,-0.5745960474014282,-9.74189567565918,0.9673069715499878
1773146510062836700,6.280836669921875,-0.6094673275947571,-9.73916244506836,0.97347092628479
1773146510071510300,6.28951025390625,-0.6394520401954651,-9.737679481506348,0.969065248966217
1773146510080183800,6.298183837890625,-0.6657613515853882,-9.737327575683594,0.9547778964042664
1773146510088857300,6.306857421875,-0.6883624792098999,-9.737717628479004,0.934562087059021
1773146510097531100,6.31553125,-0.709083616733551,-9.738454818725586,0.9110866189002991
1773146510106204700,6.32420458984375,-0.7317327857017517,-9.739139556884766,0.8855034708976746
1773146510114878200,6.332878173828125,-0.7598235607147217,-9.739253044128418,0.8602295517921448
1773146510123551700,6.3415517578125,-0.793698787689209,-9.738473892211914,0.8381801843643188
1773146510132225000,6.35022509765625,-0.8311625719070435,-9.736894607543945,0.8200219869613647
1773146510140898800,6.35889892578125,-0.8685898184776306,-9.734619140625,0.8081713318824768
1773146510149572000,6.367572021484375,-0.9045161604881287,-9.73173999786377,0.8034138083457947
1773146510158246000,6.376245849609375,-0.9417305588722229,-9.728200912475586,0.8035178780555725
1773146510166919200,6.384919189453125,-0.9837037920951843,-9.723548889160156,0.8095096945762634
1773146510175593000,6.393593017578125,-1.0329006910324097,-9.717402458190918,0.821943998336792
1773146510184266500,6.4022666015625,-1.0910813808441162,-9.709432601928711,0.8407424688339233
1773146510192940000,6.41093994140625,-1.1580638885498047,-9.699493408203125,0.8655042052268982
1773146510201613600,6.419613525390625,-1.231036901473999,-9.687760353088379,0.8956756591796875
1773146510210287000,6.428287109375,-1.3067588806152344,-9.674467086791992,0.9313792586326599
1773146510218960600,6.436960693359375,-1.383323311805725,-9.659733772277832,0.9728075265884399
1773146510227634200,6.44563427734375,-1.4591705799102783,-9.643916130065918,1.0178898572921753
1773146510236307700,6.4543076171875,-1.5313607454299927,-9.627717018127441,1.0641300678253174
1773146510244981000,6.46298095703125,-1.598710060119629,-9.611806869506836,1.1080149412155151
1773146510253654800,6.47165478515625,-1.6605565547943115,-9.597013473510742,1.1446690559387207
1773146510262328300,6.480328369140625,-1.7158243656158447,-9.584336280822754,1.16910719871521
1773146510271001900,6.489001953125,-1.7633076906204224,-9.574601173400879,1.1781946420669556
1773146510279675400,6.49767529296875,-1.8051503896713257,-9.567648887634277,1.171284556388855
1773146510288349000,6.506348876953125,-1.8432812690734863,-9.56272029876709,1.1519869565963745
1773146510297022500,6.5150224609375,-1.8773163557052612,-9.559326171875,1.1248798370361328
1773146510305696000,6.523696044921875,-1.9057036638259888,-9.557271957397461,1.0941766500473022
1773146510314369500,6.53236962890625,-1.9275106191635132,-9.55652141571045,1.0620757341384888
1773146510323043000,6.54104296875,-1.9428350925445557,-9.556950569152832,1.02979576587677
1773146510331716600,6.549716552734375,-1.9511523246765137,-9.558572769165039,0.998528778553009
1773146510340390100,6.55839013671875,-1.9529656171798706,-9.561288833618164,0.9685390591621399
1773146510349063700,6.567063720703125,-1.9494173526763916,-9.564901351928711,0.9395879507064819
1773146510357737200,6.5757373046875,-1.9422608613967896,-9.569068908691406,0.9115544557571411
1773146510366410800,6.58441064453125,-1.933022379875183,-9.573495864868164,0.8842942714691162
1773146510375084300,6.593084228515625,-1.9230384826660156,-9.57800006866455,0.8568733930587769
1773146510383757800,6.6017578125,-1.9130364656448364,-9.582490921020508,0.8285914659500122
1773146510392431400,6.610431396484375,-1.9039769172668457,-9.586776733398438,0.7993578314781189
1773146510401105000,6.61910498046875,-1.8959816694259644,-9.590960502624512,0.7675414085388184
1773146510409778400,6.6277783203125,-1.8895231485366821,-9.594934463500977,0.7330166101455688
1773146510418452000,6.636451904296875,-1.8846560716629028,-9.598616600036621,0.6964283585548401
1773146510427125500,6.64512548828125,-1.8810133934020996,-9.602075576782227,0.6575283408164978
1773146510435799000,6.653799072265625,-1.879166603088379,-9.605040550231934,0.618322491645813
1773146510444472600,6.66247265625,-1.8790730237960815,-9.607434272766113,0.5802358388900757
1773146510453146000,6.67114599609375,-1.8818644285202026,-9.608908653259277,0.5457428693771362
1773146510461819600,6.679819580078125,-1.885278582572937,-9.609911918640137,0.5154641270637512
1773146510470493200,6.6884931640625,-1.889552116394043,-9.610525131225586,0.4876407980918884
1773146510479166700,6.697166748046875,-1.893693208694458,-9.610943794250488,0.4626942276954651
1773146510487840300,6.70584033203125,-1.8979806900024414,-9.611099243164062,0.44139364361763
1773146510496513800,6.714513671875,-1.901781439781189,-9.611161231994629,0.4233207702636719
1773146510505187300,6.723187255859375,-1.9055298566818237,-9.611069679260254,0.408248633146286
1773146510513860900,6.73186083984375,-1.9099920988082886,-9.610635757446289,0.39748629927635193
1773146510522534400,6.740534423828125,-1.9137005805969238,-9.610440254211426,0.38416069746017456
1773146510531208000,6.7492080078125,-1.9174200296401978,-9.610321044921875,0.36827966570854187
1773146510539881500,6.757881591796875,-1.9224082231521606,-9.60993766784668,0.3518739342689514
1773146510548555000,6.766554931640625,-1.9293742179870605,-9.60913372039795,0.335342139005661
1773146510557228500,6.775228515625,-1.938729166984558,-9.607810974121094,0.31887030601501465
1773146510565902000,6.783902099609375,-1.9505704641342163,-9.605939865112305,0.3026338815689087
1773146510574575600,6.79257568359375,-1.9653316736221313,-9.603404998779297,0.2871672213077545
1773146510583249200,6.801249267578125,-1.9823426008224487,-9.600310325622559,0.27337437868118286
1773146510591922700,6.809922607421875,-2.0006628036499023,-9.596819877624512,0.26228436827659607
1773146510600596200,6.81859619140625,-2.018280267715454,-9.593351364135742,0.2540881335735321
1773146510609269800,6.827269775390625,-2.0351226329803467,-9.58991813659668,0.24924670159816742
1773146510617943300,6.835943359375,-2.052163600921631,-9.586318016052246,0.2480214536190033
1773146510626616600,6.844616455078125,-2.069748878479004,-9.582494735717773,0.2496180534362793
1773146510635290400,6.853290283203125,-2.088042736053467,-9.57841968536377,0.2536197304725647
1773146510643964000,6.8619638671875,-2.1066017150878906,-9.574209213256836,0.2591072618961334
1773146510652637400,6.870637451171875,-2.1247501373291016,-9.570052146911621,0.2644449770450592
1773146510661311000,6.87931103515625,-2.1427359580993652,-9.565926551818848,0.26858049631118774
1773146510669984500,6.887984619140625,-2.160464286804199,-9.561870574951172,0.2709646224975586
1773146510678658000,6.896657958984375,-2.177642583847046,-9.55797290802002,0.27093201875686646
1773146510687331600,6.90533154296875,-2.193699359893799,-9.554389953613281,0.26779207587242126
1773146510696004900,6.9140048828125,-2.2080135345458984,-9.55125617980957,0.26186713576316833
1773146510704678400,6.922678466796875,-2.2204043865203857,-9.548599243164062,0.25385621190071106
1773146510713352000,6.93135205078125,-2.230398178100586,-9.546516418457031,0.24439109861850739
1773146510722025500,6.940025390625,-2.237313747406006,-9.545148849487305,0.23441801965236664
1773146510730699300,6.94869921875,-2.240553140640259,-9.544618606567383,0.22487418353557587
1773146510739372800,6.957372802734375,-2.2409563064575195,-9.544666290283203,0.21874433755874634
1773146510748046300,6.96604638671875,-2.2355692386627197,-9.54609489440918,0.2114168405532837
1773146510756719900,6.974719970703125,-2.232170581817627,-9.547088623046875,0.20221015810966492
1773146510765393200,6.98339306640625,-2.233995199203491,-9.54701042175293,0.18506447970867157
1773146510774066700,6.992066650390625,-2.2376346588134766,-9.546585083007812,0.16156476736068726
1773146510782740200,7.000740234375,-2.239598035812378,-9.546546936035156,0.13427962362766266
1773146510791413800,7.009413818359375,-2.2403910160064697,-9.546741485595703,0.10380098223686218
1773146510800087300,7.01808740234375,-2.2414937019348145,-9.546807289123535,0.0675491988658905
1773146510808761000,7.026760986328125,-2.242107391357422,-9.546876907348633,0.0223014485090971
1773146510817434400,7.035434326171875,-2.2386515140533447,-9.547663688659668,-0.030803335830569267
1773146510826108000,7.04410791015625,-2.2297263145446777,-9.549446105957031,-0.0823669284582138
1773146510834781400,7.052781494140625,-2.211927652359009,-9.552969932556152,-0.13614903390407562
1773146510843455000,7.061455078125,-2.187112808227539,-9.557808876037598,-0.18761251866817474
1773146510852128500,7.07012841796875,-2.159475088119507,-9.563169479370117,-0.22986966371536255
1773146510860802000,7.078802001953125,-2.132981300354004,-9.568330764770508,-0.2604317367076874
1773146510869475600,7.0874755859375,-2.1095900535583496,-9.573014259338379,-0.27826127409935
1773146510878149000,7.096149169921875,-2.0895354747772217,-9.57722282409668,-0.2846572697162628
1773146510886823000,7.104822998046875,-2.0725603103637695,-9.58098030090332,-0.2822840213775635
1773146510895496400,7.113496337890625,-2.0578720569610596,-9.584382057189941,-0.2741568386554718
1773146510904169700,7.122169677734375,-2.045044183731079,-9.58743953704834,-0.2630378305912018
1773146510912843500,7.130843505859375,-2.032867670059204,-9.59033203125,-0.25171545147895813
1773146510921516800,7.139516845703125,-2.020284652709961,-9.593230247497559,-0.2424265742301941
1773146510930190300,7.1481904296875,-2.006053924560547,-9.59636116027832,-0.23664496839046478
1773146510938863900,7.15686376953125,-1.9876797199249268,-9.600147247314453,-0.23812729120254517
1773146510947537400,7.165537353515625,-1.963653564453125,-9.604893684387207,-0.2458900362253189
1773146510956211000,7.1742109375,-1.9329073429107666,-9.610771179199219,-0.2594870626926422
1773146510964884500,7.182884521484375,-1.8933640718460083,-9.61807918548584,-0.27947768568992615
1773146510973558000,7.19155810546875,-1.8438661098480225,-9.626955032348633,-0.3037906885147095
1773146510982231800,7.200231689453125,-1.7848292589187622,-9.637216567993164,-0.3298889398574829
1773146510990905000,7.208905029296875,-1.7159711122512817,-9.648839950561523,-0.35456573963165283
1773146510999578600,7.21757861328125,-1.6369730234146118,-9.6618013381958,-0.37459272146224976
1773146511008252200,7.226252197265625,-1.5483185052871704,-9.675883293151855,-0.3877939283847809
1773146511016925700,7.23492578125,-1.45139479637146,-9.690655708312988,-0.3937600553035736
1773146511025599200,7.24359912109375,-1.3478431701660156,-9.705597877502441,-0.39379772543907166
1773146511034272800,7.252272705078125,-1.2387974262237549,-9.720263481140137,-0.3901887834072113
1773146511042946300,7.2609462890625,-1.1252251863479614,-9.734313011169434,-0.3839435875415802
1773146511051620000,7.2696201171875,-1.0079666376113892,-9.747445106506348,-0.3764494061470032
1773146511060293600,7.278293701171875,-0.8879896402359009,-9.759432792663574,-0.3678622841835022
1773146511068967200,7.28696728515625,-0.766459047794342,-9.77007007598877,-0.35870450735092163
1773146511077640700,7.295640625,-0.6444588303565979,-9.779223442077637,-0.34907540678977966
1773146511086314200,7.304314208984375,-0.5234547853469849,-9.786816596984863,-0.33853647112846375
1773146511094987800,7.31298779296875,-0.40543755888938904,-9.792820930480957,-0.32659977674484253
1773146511103661300,7.321661376953125,-0.2933649718761444,-9.797338485717773,-0.31060561537742615
1773146511112334800,7.3303349609375,-0.19083738327026367,-9.800545692443848,-0.28855669498443604
1773146511121008400,7.33900830078125,-0.10082217305898666,-9.802658081054688,-0.26102006435394287
1773146511129682000,7.347681884765625,-0.02552935667335987,-9.803908348083496,-0.23045966029167175
1773146511138355500,7.35635546875,0.0336185097694397,-9.804564476013184,-0.19939352571964264
1773146511147029000,7.365029052734375,0.075637087225914,-9.8048734664917,-0.1706555038690567
1773146511155702500,7.37370263671875,0.10083858668804169,-9.805091857910156,-0.1428145170211792
1773146511164376000,7.3823759765625,0.11138171702623367,-9.805397987365723,-0.11029490828514099
1773146511173049600,7.391049560546875,0.10912593454122543,-9.805791854858398,-0.07028652727603912
1773146511181723100,7.39972314453125,0.09819795936346054,-9.806131362915039,-0.023212213069200516
1773146511190396700,7.408396728515625,0.08231717348098755,-9.806258201599121,0.030036577954888344
1773146511199070200,7.4170703125,0.06531194597482681,-9.806042671203613,0.08738698065280914
1773146511207743700,7.42574365234375,0.05039133131504059,-9.80543041229248,0.14623966813087463
1773146511216417300,7.434417236328125,0.04237755015492439,-9.804407119750977,0.2054004967212677
1773146511225090800,7.4430908203125,0.04536452889442444,-9.802986145019531,0.26417553424835205
1773146511233764400,7.451764404296875,0.06015358492732048,-9.801169395446777,0.3222559690475464
1773146511242438000,7.46043798828125,0.08659682422876358,-9.798970222473145,0.37824147939682007
1773146511251111400,7.469111328125,0.12491187453269958,-9.796429634094238,0.4298199713230133
1773146511259785000,7.477784912109375,0.1713051199913025,-9.793556213378906,0.47675615549087524
1773146511268458500,7.48645849609375,0.22154588997364044,-9.790373802185059,0.5195054411888123
1773146511277132000,7.495132080078125,0.2737598717212677,-9.78702449798584,0.5564074516296387
1773146511285805600,7.5038056640625,0.32457441091537476,-9.783746719360352,0.5859391093254089
1773146511294479000,7.51247900390625,0.3715086281299591,-9.780702590942383,0.6084570288658142
1773146511303152600,7.521152587890625,0.4120252728462219,-9.777978897094727,0.6259087920188904
1773146511311826200,7.529826171875,0.4453880190849304,-9.775595664978027,0.640113115310669
1773146511320499700,7.538499755859375,0.4722209572792053,-9.77354621887207,0.6520584225654602
1773146511329173200,7.54717333984375,0.4940769076347351,-9.771770477294922,0.6624014973640442
1773146511337846800,7.5558466796875,0.5120724439620972,-9.770217895507812,0.671579122543335
1773146511346520300,7.564520263671875,0.5267569422721863,-9.768848419189453,0.6800881028175354
1773146511355193900,7.57319384765625,0.5384223461151123,-9.767640113830566,0.6882635354995728
1773146511363867400,7.581867431640625,0.5475108623504639,-9.76659107208252,0.6959340572357178
1773146511372541000,7.590541015625,0.5540741682052612,-9.765710830688477,0.7030564546585083
1773146511381214500,7.59921435546875,0.55976802110672,-9.764860153198242,0.7103177309036255
1773146511389888000,7.607887939453125,0.5620090961456299,-9.764299392700195,0.7162342667579651
1773146511398561500,7.6165615234375,0.5617629289627075,-9.764019012451172,0.7202383279800415
1773146511407235000,7.625235107421875,0.5599990487098694,-9.763968467712402,0.7222915291786194
1773146511415908600,7.63390869140625,0.557453453540802,-9.764142990112305,0.7219144105911255
1773146511424582100,7.64258203125,0.5543516874313354,-9.764554023742676,0.718729555606842
1773146511433255700,7.651255615234375,0.5503224730491638,-9.765219688415527,0.7127575874328613
1773146511441929200,7.65992919921875,0.5443193316459656,-9.76618766784668,0.7040437459945679
1773146511450602800,7.668602783203125,0.5351854562759399,-9.767523765563965,0.6924265623092651
1773146511459276300,7.6772763671875,0.5223029255867004,-9.76922607421875,0.678078293800354
1773146511467949800,7.68594970703125,0.5055876970291138,-9.771257400512695,0.661274254322052
1773146511476623400,7.694623291015625,0.48507848381996155,-9.773558616638184,0.6423580050468445
1773146511485297000,7.703296875,0.46124547719955444,-9.776060104370117,0.6215323209762573
1773146511493970400,7.711970458984375,0.4348486363887787,-9.778677940368652,0.5989607572555542
1773146511502644000,7.72064404296875,0.40639838576316833,-9.781362533569336,0.5746130347251892
1773146511511317500,7.7293173828125,0.37626761198043823,-9.784070014953613,0.5484349131584167
1773146511519991000,7.737990966796875,0.3445468842983246,-9.786766052246094,0.5204513669013977
1773146511528664600,7.74666455078125,0.31134194135665894,-9.789389610290527,0.49120402336120605
1773146511537338000,7.755338134765625,0.27728375792503357,-9.791871070861816,0.4612610936164856
1773146511546011600,7.76401171875,0.24337433278560638,-9.794123649597168,0.43161365389823914
1773146511554685200,7.772685302734375,0.21112596988677979,-9.796086311340332,0.40310433506965637
1773146511563358700,7.781358642578125,0.18171115219593048,-9.797734260559082,0.37652239203453064
1773146511572032300,7.7900322265625,0.15565574169158936,-9.799083709716797,0.3522719442844391
1773146511580705800,7.798705810546875,0.13227950036525726,-9.800185203552246,0.33055946230888367
1773146511589379300,7.80737939453125,0.11029678583145142,-9.80107307434082,0.3117533326148987
1773146511598052900,7.816052978515625,0.0880349650979042,-9.801794052124023,0.2957378327846527
1773146511606726400,7.824726318359375,0.064631886780262,-9.80235481262207,0.28293928503990173
1773146511615400000,7.83339990234375,0.04032067954540253,-9.802745819091797,0.2737637162208557
1773146511624073500,7.842073486328125,0.016200844198465347,-9.802995681762695,0.2672186493873596
1773146511632747000,7.8507470703125,-0.007629571482539177,-9.803119659423828,0.2630077004432678
1773146511641420500,7.859420654296875,-0.031423334032297134,-9.803078651428223,0.2627454102039337
1773146511650094000,7.868093994140625,-0.052363041788339615,-9.802748680114746,0.27159929275512695
1773146511658767600,7.876767578125,-0.0691702738404274,-9.80205249786377,0.29218950867652893
1773146511667441200,7.885441162109375,-0.085039883852005,-9.801098823547363,0.31876394152641296
1773146511676114700,7.89411474609375,-0.10367505252361298,-9.799930572509766,0.3478352725505829
1773146511684788200,7.902788330078125,-0.1325935274362564,-9.798396110534668,0.3798063397407532
1773146511693461800,7.911461669921875,-0.18159112334251404,-9.79626750946045,0.41297656297683716
1773146511702135600,7.920135498046875,-0.2507699728012085,-9.79320240020752,0.44797733426094055
1773146511710808800,7.928808837890625,-0.3331823945045471,-9.78909969329834,0.4826114773750305
1773146511719482400,7.937482421875,-0.41673582792282104,-9.784165382385254,0.5165582895278931
1773146511728156000,7.946156005859375,-0.49014145135879517,-9.778831481933594,0.5519056916236877
1773146511736829400,7.954829345703125,-0.5490596294403076,-9.77354907989502,0.5887813568115234
1773146511745503000,7.9635029296875,-0.5913572311401367,-9.768860816955566,0.6245419979095459
1773146511754176500,7.972176513671875,-0.61636883020401,-9.765228271484375,0.6563507318496704
1773146511762850300,7.980850341796875,-0.6272808313369751,-9.762765884399414,0.6821412444114685
1773146511771523800,7.98952392578125,-0.6315164566040039,-9.76129150390625,0.6991147398948669
1773146511780197400,7.998197265625,-0.6365145444869995,-9.760449409484863,0.7063023447990417
1773146511788871000,8.006870849609374,-0.645585834980011,-9.759997367858887,0.7043174505233765
1773146511797544400,8.01554443359375,-0.6589078307151794,-9.759868621826172,0.6936829686164856
1773146511806218000,8.024218017578125,-0.6755081415176392,-9.76000690460205,0.6755359768867493
1773146511814891500,8.0328916015625,-0.6942104697227478,-9.760376930236816,0.6507769227027893
1773146511823565000,8.04156494140625,-0.715787947177887,-9.760661125183105,0.6225224137306213
1773146511832238600,8.050238525390625,-0.7409228086471558,-9.760608673095703,0.5932467579841614
1773146511840912100,8.058912109375,-0.7704302072525024,-9.759875297546387,0.5671387314796448
1773146511849585700,8.067585693359375,-0.805521547794342,-9.758073806762695,0.5491132736206055
1773146511858259200,8.07625927734375,-0.8474359512329102,-9.754971504211426,0.541100263595581
1773146511866932700,8.0849326171875,-0.8956627249717712,-9.750425338745117,0.5453343391418457
1773146511875606300,8.093606201171875,-0.9492483139038086,-9.74434757232666,0.5630320310592651
1773146511884279800,8.10227978515625,-1.008209466934204,-9.736740112304688,0.5914283394813538
1773146511892953300,8.110953369140624,-1.0731279850006104,-9.727654457092285,0.6257198452949524
1773146511901627000,8.119626953125,-1.1421377658843994,-9.717366218566895,0.6623561978340149
1773146511910300400,8.128300537109375,-1.2114700078964233,-9.706214904785156,0.701504111289978
1773146511918974000,8.136973876953125,-1.2761458158493042,-9.695097923278809,0.7395321726799011
1773146511927647500,8.1456474609375,-1.333880066871643,-9.684906959533691,0.7705422043800354
1773146511936321000,8.154321044921875,-1.3854767084121704,-9.675975799560547,0.7914116978645325
1773146511944994600,8.16299462890625,-1.43134605884552,-9.668615341186523,0.7996904850006104
1773146511953668000,8.171668212890625,-1.4724507331848145,-9.662808418273926,0.7952383160591125
1773146511962341600,8.180341552734374,-1.5095088481903076,-9.658434867858887,0.7787230014801025
1773146511971015200,8.18901513671875,-1.5421428680419922,-9.655313491821289,0.7530686259269714
1773146511979688700,8.197688720703125,-1.569682002067566,-9.653230667114258,0.7222369313240051
1773146511988362200,8.2063623046875,-1.5922883749008179,-9.651814460754395,0.6909971237182617
1773146511997035800,8.215035888671874,-1.6104048490524292,-9.650819778442383,0.6623021364212036
1773146512005709300,8.223709228515625,-1.623046875,-9.650378227233887,0.6374291777610779
1773146512014382800,8.2323828125,-1.6291654109954834,-9.650673866271973,0.6170085668563843
1773146512023056400,8.241056396484375,-1.6286112070083618,-9.651766777038574,0.6011737585067749
1773146512031730000,8.24972998046875,-1.6224831342697144,-9.653533935546875,0.5892547369003296
1773146512040403500,8.258403564453126,-1.6127413511276245,-9.655679702758789,0.5807907581329346
1773146512049077000,8.267076904296875,-1.6011170148849487,-9.657978057861328,0.5746822357177734
1773146512057750500,8.27575048828125,-1.5894546508789062,-9.66021728515625,0.5693907737731934
1773146512066424000,8.284424072265624,-1.5791385173797607,-9.662287712097168,0.5629302263259888
1773146512075097600,8.29309765625,-1.5707907676696777,-9.664274215698242,0.5521060824394226
1773146512083771100,8.301771240234375,-1.5647855997085571,-9.666206359863281,0.5350502729415894
1773146512092444700,8.310444580078125,-1.5607452392578125,-9.668182373046875,0.5105986595153809
1773146512101118200,8.3191181640625,-1.5593050718307495,-9.669964790344238,0.4803466796875
1773146512109791700,8.327791748046875,-1.5610613822937012,-9.671335220336914,0.4458027780056
1773146512118465300,8.33646533203125,-1.5665956735610962,-9.672088623046875,0.40849706530570984
1773146512127138800,8.345138916015625,-1.5759309530258179,-9.672115325927734,0.37014853954315186
1773146512135812400,8.353812255859374,-1.5887067317962646,-9.67139720916748,0.33237960934638977
1773146512144486000,8.36248583984375,-1.6038451194763184,-9.670071601867676,0.2962751090526581
1773146512153159400,8.371159423828125,-1.6198073625564575,-9.668384552001953,0.26261377334594727
1773146512161833000,8.3798330078125,-1.63557767868042,-9.66651439666748,0.2318771481513977
1773146512170506500,8.388506591796874,-1.6500258445739746,-9.664693832397461,0.20371803641319275
1773146512179180000,8.397179931640625,-1.6627391576766968,-9.66301155090332,0.17859430611133575
1773146512187853600,8.405853515625,-1.6736327409744263,-9.661497116088867,0.1575084775686264
1773146512196527000,8.414527099609375,-1.6830509901046753,-9.660115242004395,0.14099720120429993
1773146512205200600,8.42320068359375,-1.6915738582611084,-9.658773422241211,0.13066990673542023
1773146512222547700,8.440547607421875,-1.708538293838501,-9.655850410461426,0.12588229775428772
1773146512231221200,8.44922119140625,-1.7174561023712158,-9.654232025146484,0.12857049703598022
1773146512239894800,8.457894775390624,-1.7280688285827637,-9.652229309082031,0.13649675250053406
1773146512248568300,8.466568359375,-1.7412084341049194,-9.649672508239746,0.14968037605285645
1773146512257241900,8.475241943359375,-1.7566590309143066,-9.646574974060059,0.1676909476518631
1773146512265915400,8.483915283203125,-1.7731075286865234,-9.643177032470703,0.18876568973064423
1773146512274589000,8.4925888671875,-1.7896894216537476,-9.639652252197266,0.21096453070640564
1773146512283262500,8.501262451171876,-1.8058388233184814,-9.636148452758789,0.2323419153690338
1773146512291936000,8.50993603515625,-1.820634126663208,-9.63288688659668,0.25137558579444885
1773146512300609500,8.518609619140625,-1.8330962657928467,-9.630107879638672,0.26677507162094116
1773146512309283000,8.527282958984374,-1.8426690101623535,-9.627951622009277,0.278384804725647
1773146512317956600,8.53595654296875,-1.8497730493545532,-9.626391410827637,0.2851761281490326
1773146512326630100,8.544630126953125,-1.8537849187850952,-9.625569343566895,0.28684332966804504
1773146512335303700,8.5533037109375,-1.8548328876495361,-9.625409126281738,0.2854568660259247
1773146512343977200,8.561977294921874,-1.8542895317077637,-9.625515937805176,0.2853671610355377
1773146512352650800,8.570650634765625,-1.849320888519287,-9.626514434814453,0.28395360708236694
1773146512361324300,8.57932421875,-1.8383842706680298,-9.62878704071045,0.2777998149394989
1773146512369997800,8.587997802734375,-1.8195888996124268,-9.632644653320312,0.2676489055156708
1773146512378671400,8.59667138671875,-1.79073965549469,-9.638514518737793,0.25034308433532715
1773146512387345000,8.605344970703126,-1.7514911890029907,-9.646379470825195,0.22368793189525604
1773146512396018700,8.614018798828125,-1.703141212463379,-9.65579605102539,0.1879223734140396
1773146512404692200,8.622692138671875,-1.647172451019287,-9.66626262664795,0.14349058270454407
1773146512413365500,8.631365478515624,-1.5847338438034058,-9.677328109741211,0.09123753756284714
1773146512422039000,8.6400390625,-1.5160351991653442,-9.688704490661621,0.031886499375104904
1773146512430712600,8.648712646484375,-1.4408384561538696,-9.700167655944824,-0.0332363061606884
1773146512439386000,8.65738623046875,-1.3599162101745605,-9.711369514465332,-0.10152361541986465
1773146512448059600,8.6660595703125,-1.2743474245071411,-9.722024917602539,-0.16929815709590912
1773146512456733200,8.674733154296876,-1.1860188245773315,-9.731880187988281,-0.232916459441185
1773146512465406700,8.68340673828125,-1.0967179536819458,-9.74080753326416,-0.29028791189193726
1773146512474080500,8.69208056640625,-1.0074559450149536,-9.748819351196289,-0.3405245244503021
1773146512482754000,8.700754150390624,-0.9192272424697876,-9.755977630615234,-0.38252270221710205
1773146512491427600,8.709427490234376,-0.8325139880180359,-9.7623929977417,-0.4159250855445862
1773146512500101000,8.71810107421875,-0.7481613159179688,-9.768109321594238,-0.4412098526954651
1773146512508774700,8.726774658203125,-0.6667698621749878,-9.773133277893066,-0.46007049083709717
1773146512517448200,8.7354482421875,-0.5874810814857483,-9.777469635009766,-0.4757694900035858
1773146512526121700,8.744121826171876,-0.5080925226211548,-9.781085014343262,-0.4925529956817627
1773146512534795300,8.752795166015625,-0.4260891377925873,-9.783933639526367,-0.5133150815963745
1773146512543468800,8.76146875,-0.3408524990081787,-9.785978317260742,-0.5374380350112915
1773146512552142300,8.770142333984374,-0.25561073422431946,-9.787263870239258,-0.5608171820640564
1773146512560815900,8.77881591796875,-0.17521385848522186,-9.788061141967773,-0.5775314569473267
1773146512569489400,8.787489501953125,-0.10391072928905487,-9.788653373718262,-0.5846792459487915
1773146512578163000,8.796162841796875,-0.04484783113002777,-9.789158821105957,-0.5837216973304749
1773146512586836500,8.80483642578125,0.0017196880653500557,-9.789745330810547,-0.5755656957626343
1773146512595510000,8.813510009765626,0.03784399479627609,-9.7905912399292,-0.5597183108329773
1773146512604183600,8.82218359375,0.06816980987787247,-9.791878700256348,-0.5337145328521729
1773146512612857000,8.830857177734375,0.09708695113658905,-9.793540954589844,-0.49750807881355286
1773146512621530600,8.839530517578124,0.13148070871829987,-9.795262336730957,-0.45380493998527527
1773146512630204200,8.8482041015625,0.1792132556438446,-9.79685115814209,-0.3999785780906677
1773146512638877700,8.856877685546875,0.23907485604286194,-9.797930717468262,-0.33734259009361267
1773146512647551200,8.86555126953125,0.30860212445259094,-9.798016548156738,-0.2720395624637604
1773146512656224800,8.874224853515624,0.38383278250694275,-9.796921730041504,-0.20831093192100525
1773146512664898300,8.882898193359376,0.4624355733394623,-9.794610023498535,-0.14889276027679443
1773146512673571800,8.89157177734375,0.5404824018478394,-9.79129409790039,-0.0939580500125885
1773146512682245400,8.900245361328125,0.6118901968002319,-9.787454605102539,-0.04142547771334648
1773146512690919000,8.9089189453125,0.6710145473480225,-9.783661842346191,0.009647659957408905
1773146512699592400,8.917592529296876,0.7130401134490967,-9.780519485473633,0.058483440428972244
1773146512708266000,8.926265869140625,0.7375047206878662,-9.778314590454102,0.10496149212121964
1773146512716939500,8.934939453125,0.7470888495445251,-9.776998519897461,0.15010753273963928
1773146512725613000,8.943613037109374,0.743136465549469,-9.776527404785156,0.19399608671665192
1773146512734286600,8.95228662109375,0.7279383540153503,-9.77675724029541,0.235582634806633
1773146512742960000,8.960960205078125,0.7076281905174255,-9.777231216430664,0.27460557222366333
1773146512751633700,8.969633544921875,0.689079225063324,-9.777463912963867,0.31105709075927734
1773146512760307200,8.97830712890625,0.6787582039833069,-9.777058601379395,0.344655841588974
1773146512768980700,8.986980712890626,0.6739459037780762,-9.776359558105469,0.37280091643333435
1773146512777654300,8.995654296875,0.6654604077339172,-9.776165962219238,0.39260414242744446
1773146512786327800,9.004327880859375,0.6492486000061035,-9.776820182800293,0.40331485867500305
1773146512795001300,9.01300146484375,0.6274973154067993,-9.77812385559082,0.40612244606018066
1773146512803675000,9.0216748046875,0.6034685969352722,-9.779733657836914,0.4037574827671051
1773146512812348400,9.030348388671875,0.5790267586708069,-9.781370162963867,0.39988693594932556
1773146512821022000,9.03902197265625,0.5533236861228943,-9.78300666809082,0.3962365388870239
1773146512829695500,9.047695556640624,0.5208376049995422,-9.784993171691895,0.39118167757987976
1773146512838369000,9.056369140625,0.48347207903862,-9.787219047546387,0.3834098279476166
1773146512847042600,9.06504248046875,0.4405267834663391,-9.789603233337402,0.3741696774959564
1773146512855716000,9.073716064453125,0.39034849405288696,-9.792158126831055,0.3628222942352295
1773146512864389600,9.0823896484375,0.3324686884880066,-9.794815063476562,0.3484753966331482
1773146512873063400,9.0910634765625,0.26900631189346313,-9.797365188598633,0.33112236857414246
1773146512881736700,9.09973681640625,0.20255059003829956,-9.799636840820312,0.31061863899230957
1773146512890410200,9.10841015625,0.1350342333316803,-9.801511764526367,0.28724485635757446
1773146512899083800,9.117083740234374,0.067904032766819,-9.80291748046875,0.2619146406650543
1773146512907757300,9.12575732421875,0.0031444462947547436,-9.803813934326172,0.23583078384399414
1773146512916431000,9.13443115234375,-0.05516835302114487,-9.804228782653809,0.21075637638568878
1773146512925104600,9.143104736328125,-0.10113728791475296,-9.804314613342285,0.1886281967163086
1773146512933778200,9.151778076171874,-0.13079434633255005,-9.804265022277832,0.1721837967634201
1773146512942451700,9.16045166015625,-0.14654920995235443,-9.804190635681152,0.16362003982067108
1773146512951125200,9.169125244140625,-0.1536131501197815,-9.804086685180664,0.16328640282154083
1773146512959798800,9.177798828125,-0.15407143533229828,-9.803915023803711,0.17289358377456665
1773146512968472300,9.186472412109374,-0.14277878403663635,-9.803715705871582,0.1927889734506607
1773146512977145900,9.195145751953126,-0.11785873770713806,-9.803467750549316,0.22025048732757568
1773146512985819400,9.2038193359375,-0.08845441788434982,-9.803041458129883,0.2509111166000366
1773146512994493000,9.212492919921875,-0.06723799556493759,-9.802366256713867,0.28192204236984253
1773146513003166500,9.22116650390625,-0.059985045343637466,-9.801399230957031,0.3152219355106354
1773146513011840000,9.229840087890626,-0.06995398551225662,-9.800094604492188,0.3516256809234619
1773146513020513500,9.238513427734375,-0.09116159379482269,-9.798636436462402,0.38574761152267456
1773146513029187000,9.24718701171875,-0.10985756665468216,-9.797295570373535,0.4138970673084259
1773146513037860600,9.255860595703124,-0.11431087553501129,-9.796236991882324,0.4370989203453064
1773146513046534100,9.2645341796875,-0.09916899353265762,-9.79549503326416,0.4569772481918335
1773146513055207700,9.273207763671875,-0.06983848661184311,-9.794962882995605,0.47350963950157166
1773146513063881200,9.281881103515625,-0.03468939661979675,-9.794452667236328,0.4877113401889801
1773146513072554800,9.2905546875,-0.002017175080254674,-9.79387378692627,0.5004124641418457
1773146513081228300,9.299228271484376,0.021976178511977196,-9.793146133422852,0.5139972567558289
1773146513089901800,9.30790185546875,0.03349482640624046,-9.792201042175293,0.5310947895050049
1773146513098575400,9.316575439453125,0.0317436121404171,-9.791059494018555,0.5518512725830078
1773146513107249000,9.325248779296874,0.018227269873023033,-9.789765357971191,0.5749138593673706
1773146513115922400,9.33392236328125,-0.0035932371392846107,-9.788415908813477,0.5977466702461243
1773146513124596000,9.342595947265625,-0.030233466997742653,-9.787035942077637,0.6191993951797485
1773146513133269500,9.35126953125,-0.05971887707710266,-9.78562068939209,0.639105498790741
1773146513141943000,9.359943115234374,-0.09063272923231125,-9.78420352935791,0.6569233536720276
1773146513150616600,9.368616455078126,-0.12255099415779114,-9.782892227172852,0.6711136698722839
1773146513159290000,9.3772900390625,-0.155674546957016,-9.781756401062012,0.6807195544242859
1773146513167963600,9.385963623046875,-0.18997570872306824,-9.780832290649414,0.685272216796875
1773146513176637200,9.39463720703125,-0.22490768134593964,-9.780119895935059,0.68487548828125
1773146513185310700,9.403310791015626,-0.2599373757839203,-9.779572486877441,0.6802780628204346
1773146513193984300,9.411984375,-0.295186311006546,-9.77910327911377,0.6726023554801941
1773146513202657800,9.42065771484375,-0.3304184675216675,-9.778634071350098,0.6629618406295776
1773146513211331300,9.429331298828124,-0.365513414144516,-9.77808666229248,0.6525449156761169
1773146513220004900,9.4380048828125,-0.4001997709274292,-9.777453422546387,0.6415934562683105
1773146513228678400,9.446678466796875,-0.43412718176841736,-9.776741981506348,0.6302677392959595
1773146513237352000,9.45535205078125,-0.4672943651676178,-9.775980949401855,0.6182382702827454
1773146513246025500,9.464025390625,-0.5003638863563538,-9.77509593963623,0.6062381863594055
1773146513254699300,9.47269921875,-0.5329753756523132,-9.774117469787598,0.594089686870575
1773146513263372800,9.481372802734375,-0.5646423101425171,-9.773106575012207,0.581329882144928
1773146513272046300,9.49004638671875,-0.5961734056472778,-9.771928787231445,0.5695235729217529
1773146513280720000,9.498719970703124,-0.6281106472015381,-9.770577430725098,0.5582876801490784
1773146513289393400,9.507393310546876,-0.6599231958389282,-9.76922607421875,0.5450766086578369
1773146513298067000,9.51606689453125,-0.6910035610198975,-9.767958641052246,0.5290451645851135
1773146513306740500,9.524740478515625,-0.7200542688369751,-9.766890525817871,0.5096717476844788
1773146513315414000,9.5334140625,-0.7466368079185486,-9.766059875488281,0.4868395924568176
1773146513324087600,9.542087646484376,-0.7709701061248779,-9.765382766723633,0.4618264138698578
1773146513332761000,9.550760986328125,-0.7931870818138123,-9.764789581298828,0.43602657318115234
1773146513341434600,9.5594345703125,-0.8142867088317871,-9.764164924621582,0.41037318110466003
1773146513350108200,9.568108154296874,-0.8368748426437378,-9.763232231140137,0.38640865683555603
1773146513358781700,9.57678173828125,-0.8636665344238281,-9.761726379394531,0.36492839455604553
1773146513367455200,9.585455322265625,-0.8958186507225037,-9.759533882141113,0.34553298354148865
1773146513376128800,9.594128662109375,-0.9333776831626892,-9.75664234161377,0.3273144066333771
1773146513384802300,9.60280224609375,-0.9760767817497253,-9.753061294555664,0.3089348375797272
1773146513393475800,9.611475830078126,-1.0221548080444336,-9.748937606811523,0.2894715368747711
1773146513402149400,9.6201494140625,-1.0678603649139404,-9.74464225769043,0.26833829283714294
1773146513410823000,9.628822998046875,-1.1089481115341187,-9.740716934204102,0.24299292266368866
1773146513419496400,9.637496337890624,-1.143062710762024,-9.737451553344727,0.21406616270542145
1773146513428170000,9.646169921875,-1.1692935228347778,-9.734967231750488,0.18315808475017548
1773146513436843500,9.654843505859375,-1.1888726949691772,-9.733142852783203,0.15130926668643951
1773146513445517000,9.66351708984375,-1.204513669013977,-9.731657028198242,0.11996012926101685
1773146513454190600,9.672190673828124,-1.2187068462371826,-9.730208396911621,0.09049776196479797
1773146513462864100,9.680864013671876,-1.233500599861145,-9.728558540344238,0.06344354152679443
1773146513471537700,9.68953759765625,-1.2500444650650024,-9.726573944091797,0.03905289247632027
1773146513480211200,9.698211181640625,-1.2678167819976807,-9.724337577819824,0.017024802044034004
1773146513488884700,9.706884765625,-1.2847203016281128,-9.722132682800293,-0.003569092135876417
1773146513497558300,9.715558349609376,-1.2978380918502808,-9.720361709594727,-0.023793041706085205
1773146513506231800,9.724231689453125,-1.3053652048110962,-9.719281196594238,-0.04446423426270485
1773146513514905300,9.7329052734375,-1.3068066835403442,-9.718965530395508,-0.06597493588924408
1773146513523579000,9.741578857421874,-1.3018910884857178,-9.719453811645508,-0.08761608600616455
1773146513532252400,9.75025244140625,-1.2912464141845703,-9.720682144165039,-0.1068253368139267
1773146513540926000,9.758926025390625,-1.27507746219635,-9.722554206848145,-0.1284768432378769
1773146513549599500,9.767599609375,-1.254900336265564,-9.724833488464355,-0.1523740142583847
1773146513558273000,9.77627294921875,-1.23388671875,-9.727164268493652,-0.17376235127449036
1773146513566946800,9.78494677734375,-1.2158396244049072,-9.729178428649902,-0.18760447204113007
1773146513575620000,9.7936201171875,-1.203262209892273,-9.730769157409668,-0.18623356521129608
1773146513584293600,9.802293701171875,-1.197031021118164,-9.73183536529541,-0.16991686820983887
1773146513592967400,9.810967529296875,-1.1914823055267334,-9.733091354370117,-0.13303400576114655
1773146513601641000,9.819640869140626,-1.178215503692627,-9.735249519348145,-0.08430559188127518
1773146513610314500,9.828314453125,-1.1573972702026367,-9.738059997558594,-0.03167609125375748
1773146513618987800,9.83698779296875,-1.136452555656433,-9.740548133850098,0.023873642086982727
1773146513627661600,9.84566162109375,-1.1238760948181152,-9.74167251586914,0.08432172238826752
1773146513636334800,9.8543349609375,-1.1253759860992432,-9.740696907043457,0.150811567902565
1773146513645008600,9.863008544921875,-1.1420494318008423,-9.737412452697754,0.22116297483444214
1773146513653682200,9.87168212890625,-1.1716747283935547,-9.731974601745605,0.2936657965183258
1773146513662355700,9.880355712890625,-1.210263729095459,-9.724745750427246,0.3673727810382843
1773146513671029200,9.889029296875,-1.2522708177566528,-9.716398239135742,0.4402449429035187
1773146513679702800,9.897702880859375,-1.2919443845748901,-9.707806587219238,0.5096684694290161
1773146513688376300,9.906376220703125,-1.3262486457824707,-9.699588775634766,0.5739564895629883
1773146513697049900,9.9150498046875,-1.354055404663086,-9.692014694213867,0.6338356137275696
1773146513705723400,9.923723388671876,-1.3748234510421753,-9.685060501098633,0.6927124261856079
1773146513714397000,9.93239697265625,-1.3892333507537842,-9.678598403930664,0.7517605423927307
1773146513723070500,9.941070556640625,-1.4029936790466309,-9.672094345092773,0.8078251481056213
1773146513731744000,9.949743896484375,-1.417084813117981,-9.665722846984863,0.8579323291778564
1773146513740417500,9.95841748046875,-1.4295897483825684,-9.659968376159668,0.9009285569190979
1773146513749091000,9.967091064453125,-1.4388489723205566,-9.655252456665039,0.9360528588294983
1773146513757764600,9.9757646484375,-1.4451477527618408,-9.65175724029541,0.9620411396026611
1773146513766438100,9.984438232421875,-1.4498544931411743,-9.649432182312012,0.9781461954116821
1773146513775111700,9.993111572265626,-1.4542779922485352,-9.648058891296387,0.9851027131080627
1773146513783785200,10.00178515625,-1.4584749937057495,-9.647472381591797,0.9846476912498474
1773146513792458800,10.010458740234375,-1.4612675905227661,-9.647624015808105,0.9789962768554688
1773146513801132300,10.01913232421875,-1.459998369216919,-9.648719787597656,0.9700635671615601
1773146513809805800,10.027805908203124,-1.452393651008606,-9.650965690612793,0.959060549736023
1773146513818479400,10.036479248046875,-1.4381306171417236,-9.654431343078613,0.9455742835998535
1773146513827153000,10.04515283203125,-1.4171124696731567,-9.659052848815918,0.9299896955490112
1773146513835826400,10.053826416015625,-1.3902571201324463,-9.664639472961426,0.9123064875602722
1773146513844500000,10.0625,-1.35895574092865,-9.670928001403809,0.8926263451576233
1773146513853173500,10.071173583984375,-1.3240513801574707,-9.677711486816406,0.8713064789772034
1773146513861847000,10.079846923828125,-1.2862125635147095,-9.684828758239746,0.848612368106842
1773146513870520600,10.0885205078125,-1.245307207107544,-9.692221641540527,0.824891984462738
1773146513879194000,10.097194091796876,-1.200628638267517,-9.699968338012695,0.7996830344200134
1773146513887867600,10.10586767578125,-1.1524220705032349,-9.708016395568848,0.7724860310554504
1773146513896541200,10.114541259765625,-1.1019303798675537,-9.716214179992676,0.7425004839897156
1773146513905214700,10.123214599609375,-1.0511823892593384,-9.724278450012207,0.7097936868667603
1773146513913888300,10.13188818359375,-1.001784086227417,-9.732002258300781,0.6745046973228455
1773146513922561800,10.140561767578125,-0.9548199772834778,-9.73925495147705,0.6368836164474487
1773146513931235300,10.1492353515625,-0.9109739065170288,-9.745930671691895,0.5977904200553894
1773146513939908900,10.157908935546875,-0.870448648929596,-9.751967430114746,0.5584208965301514
1773146513948582400,10.16658251953125,-0.8337366580963135,-9.757274627685547,0.5204535722732544
1773146513957256000,10.175255859375,-0.801496148109436,-9.761754989624023,0.4859282374382019
1773146513965929500,10.183929443359375,-0.7743455171585083,-9.765377044677734,0.45626938343048096
1773146513974603000,10.19260302734375,-0.7530624270439148,-9.768147468566895,0.431972473859787
1773146513983276800,10.20127685546875,-0.737751841545105,-9.770130157470703,0.4131077229976654
1773146513991950000,10.2099501953125,-0.7278792262077332,-9.771446228027344,0.39925244450569153
1773146514000623900,10.218623779296875,-0.7227417230606079,-9.77222728729248,0.38935354351997375
1773146514009297200,10.227297119140625,-0.7212356925010681,-9.772623062133789,0.3821442127227783
1773146514017970700,10.235970703125,-0.7219119668006897,-9.772825241088867,0.37564733624458313
1773146514026644200,10.244644287109375,-0.7234352827072144,-9.772994041442871,0.36825576424598694
1773146514035318000,10.253318115234375,-0.7246293425559998,-9.7732515335083,0.3589366674423218
1773146514043991600,10.261991455078125,-0.7247499227523804,-9.773673057556152,0.3470461964607239
1773146514052665000,10.2706650390625,-0.723782479763031,-9.774247169494629,0.3325842022895813
1773146514061338600,10.279338623046876,-0.7213725447654724,-9.774978637695312,0.31589868664741516
1773146514070012200,10.28801220703125,-0.7177271246910095,-9.775834083557129,0.29721084237098694
1773146514078685700,10.296685791015625,-0.7131027579307556,-9.77676010131836,0.27719900012016296
1773146514087359200,10.305359130859374,-0.7081629633903503,-9.777678489685059,0.2566995918750763
1773146514096032800,10.31403271484375,-0.7030842304229736,-9.77856159210205,0.23618483543395996
1773146514104706300,10.322706298828125,-0.6977774500846863,-9.77940845489502,0.21602614223957062
1773146514113379800,10.3313798828125,-0.692335844039917,-9.780204772949219,0.19663342833518982
1773146514122053400,10.340053466796874,-0.6872891783714294,-9.78091049194336,0.17836305499076843
1773146514130727000,10.348726806640625,-0.6835944056510925,-9.78145980834961,0.1616295427083969
1773146514139400400,10.357400390625,-0.6816518306732178,-9.781827926635742,0.14690430462360382
1773146514148074000,10.366073974609375,-0.680330216884613,-9.782085418701172,0.13548603653907776
1773146514156747500,10.37474755859375,-0.6796957850456238,-9.78223991394043,0.12719006836414337
1773146514165421000,10.383421142578126,-0.6792548894882202,-9.7823486328125,0.12107071280479431
1773146514174094600,10.392094482421875,-0.6894069910049438,-9.781691551208496,0.11668197810649872
1773146514182768000,10.40076806640625,-0.7018197774887085,-9.780839920043945,0.11406775563955307
1773146514191441700,10.409441650390624,-0.7178968787193298,-9.77969741821289,0.111995629966259
1773146514200115200,10.418115234375,-0.7353076934814453,-9.778412818908691,0.1111462339758873
1773146514208788700,10.426788818359375,-0.752094566822052,-9.777143478393555,0.11045728623867035
1773146514217462300,10.435462158203125,-0.7672250866889954,-9.775973320007324,0.10995547473430634
1773146514226135800,10.4441357421875,-0.783412754535675,-9.774689674377441,0.10998915135860443
1773146514234809300,10.452809326171876,-0.801561176776886,-9.773214340209961,0.11032555252313614
1773146514243483000,10.46148291015625,-0.8220165371894836,-9.771513938903809,0.11035649478435516
1773146514252156400,10.470156494140625,-0.8444679379463196,-9.769607543945312,0.10969226062297821
1773146514260830000,10.478829833984374,-0.8681430816650391,-9.767542839050293,0.10873251408338547
1773146514269503500,10.48750341796875,-0.8924907445907593,-9.76535701751709,0.10786522924900055
1773146514278177000,10.496177001953125,-0.9171351790428162,-9.763076782226562,0.10767360776662827
1773146514286850600,10.5048505859375,-0.9412612915039062,-9.760770797729492,0.10843974351882935
1773146514295524000,10.513524169921874,-0.9648217558860779,-9.75844955444336,0.11029032617807388
1773146514304197600,10.52219775390625,-0.9877185821533203,-9.756123542785645,0.11332916468381882
1773146514312871200,10.53087109375,-1.0094034671783447,-9.753857612609863,0.11725934594869614
1773146514321544700,10.539544677734375,-1.0298264026641846,-9.75167179107666,0.12141985446214676
1773146514330218200,10.54821826171875,-1.0479031801223755,-9.749707221984863,0.12447328865528107
1773146514338891800,10.556891845703126,-1.0639617443084717,-9.747943878173828,0.1263388842344284
1773146514347565600,10.565565673828125,-1.0767956972122192,-9.746542930603027,0.1256595402956009
1773146514356239000,10.574239013671875,-1.0875463485717773,-9.745383262634277,0.12300953269004822
1773146514364912600,10.58291259765625,-1.0955414772033691,-9.744548797607422,0.11806105077266693
1773146514373586200,10.591586181640626,-1.1016448736190796,-9.743940353393555,0.1113026887178421
1773146514382259700,10.600259765625,-1.1062109470367432,-9.743513107299805,0.10314614325761795
1773146514390933200,10.608933349609375,-1.1102851629257202,-9.743143081665039,0.09394028037786484
1773146514399606800,10.617606689453124,-1.099800944328308,-9.744468688964844,0.07843676209449768
1773146514408280300,10.6262802734375,-1.089564561843872,-9.74573802947998,0.061692699790000916
1773146514416953900,10.634953857421875,-1.0788410902023315,-9.747021675109863,0.045324746519327164
1773146514425627400,10.64362744140625,-1.0687421560287476,-9.74819278717041,0.03029557317495346
1773146514434301000,10.652301025390624,-1.0574499368667603,-9.749457359313965,0.01615813747048378
1773146514442974500,10.660974365234376,-1.0455321073532104,-9.75075626373291,0.0019350087968632579
1773146514451648000,10.66964794921875,-1.0387146472930908,-9.751479148864746,-0.010763219557702541
1773146514460321500,10.678321533203125,-1.032438039779663,-9.752130508422852,-0.020279398187994957
1773146514468995000,10.6869951171875,-1.0286555290222168,-9.752506256103516,-0.029739877209067345
1773146514477668600,10.695668701171876,-1.0218372344970703,-9.753196716308594,-0.03713641315698624
1773146514486342100,10.704342041015625,-1.0126547813415527,-9.754132270812988,-0.04274151846766472
1773146514495015700,10.713015625,-1.0019686222076416,-9.755163192749023,-0.056997042149305344
1773146514503689200,10.721689208984374,-0.9929507374763489,-9.75599479675293,-0.07072550058364868
1773146514512362800,10.73036279296875,-0.9845860600471497,-9.756752967834473,-0.08207899332046509
1773146514521036300,10.739036376953125,-0.9788565039634705,-9.757234573364258,-0.09274192154407501
1773146514529709800,10.747709716796875,-0.9748863577842712,-9.757556915283203,-0.10040442645549774
1773146514538383400,10.75638330078125,-0.971028208732605,-9.757915496826172,-0.10281798243522644
1773146514547057000,10.765056884765626,-0.9650893807411194,-9.758503913879395,-0.10303181409835815
1773146514555730400,10.77373046875,-0.9603041410446167,-9.758966445922852,-0.10385067760944366
1773146514564404000,10.782404052734375,-0.957544207572937,-9.759257316589355,-0.10197383910417557
1773146514573077500,10.791077392578124,-0.9560132026672363,-9.759443283081055,-0.09852799028158188
1773146514581751000,10.7997509765625,-0.960950493812561,-9.759004592895508,-0.09365954250097275
1773146514590424600,10.808424560546875,-0.9671772718429565,-9.758424758911133,-0.09007622301578522
1773146514599098000,10.81709814453125,-0.9723231792449951,-9.757918357849121,-0.08940081298351288
1773146514607771600,10.825771728515624,-0.9749448895454407,-9.757619857788086,-0.093378946185112
1773146514616445200,10.834445068359376,-0.9750998616218567,-9.757519721984863,-0.10187230259180069
1773146514625118700,10.84311865234375,-0.9778940081596375,-9.757081985473633,-0.11596080660820007
1773146514633792300,10.851792236328125,-0.9757646918296814,-9.757034301757812,-0.13621163368225098
1773146514642465800,10.8604658203125,-0.9730764031410217,-9.75692081451416,-0.16125476360321045
1773146514651139300,10.869139404296876,-0.9717018008232117,-9.756723403930664,-0.18039101362228394
1773146514659812900,10.877812744140625,-0.9766252040863037,-9.756028175354004,-0.19107010960578918
1773146514668486700,10.886486572265625,-0.9839402437210083,-9.755183219909668,-0.1965828537940979
1773146514677160200,10.89516015625,-0.9892502427101135,-9.75462818145752,-0.19746394455432892
1773146514685833700,10.903833740234376,-0.9913588762283325,-9.754475593566895,-0.1943812519311905
1773146514694507300,10.91250732421875,-0.9889417290687561,-9.754865646362305,-0.18703597784042358
1773146514703180800,10.921180908203125,-0.981070339679718,-9.75584888458252,-0.17691917717456818
1773146514711854300,10.929854248046874,-0.9682594537734985,-9.757347106933594,-0.16444063186645508
1773146514720528000,10.93852783203125,-0.9517426490783691,-9.759204864501953,-0.1500014364719391
1773146514729201400,10.947201416015625,-0.9328526854515076,-9.761261940002441,-0.1339719146490097
1773146514737875000,10.955875,-0.9125473499298096,-9.763400077819824,-0.1168331429362297
1773146514746548500,10.964548583984374,-0.8911222219467163,-9.765569686889648,-0.09975466877222061
1773146514755222000,10.973221923828126,-0.8682594299316406,-9.767791748046875,-0.08227826654911041
1773146514763895600,10.9818955078125,-0.8431242108345032,-9.770134925842285,-0.06323722004890442
1773146514772569000,10.990569091796875,-0.8139020800590515,-9.772719383239746,-0.0436839759349823
1773146514781242600,10.99924267578125,-0.7788112759590149,-9.77564811706543,-0.023162491619586945
1773146514789916200,11.007916259765626,-0.7368416786193848,-9.77892780303955,-0.0026691770181059837
1773146514798589700,11.016589599609375,-0.6854146122932434,-9.782652854919434,0.01717303693294525
1773146514807263200,11.02526318359375,-0.6255588531494141,-9.786617279052734,0.03439152240753174
1773146514815936800,11.033936767578124,-0.5571827292442322,-9.790691375732422,0.047833818942308426
1773146514824610300,11.0426103515625,-0.4814450442790985,-9.794642448425293,0.05968516319990158
1773146514833283800,11.051283935546875,-0.39987456798553467,-9.798211097717285,0.07441528886556625
1773146514841957400,11.059957275390625,-0.3124450743198395,-9.801246643066406,0.09138186275959015
