time,seconds_elapsed,z,y,x
1773146503869937000,0.08793701171875,-0.017104214057326317,-0.09529490768909454,0.4172206521034241
1773146503878608100,0.096608154296875,-0.13683371245861053,-0.24251331388950348,0.3402516841888428
1773146503887282000,0.105281982421875,-0.1899789422750473,-0.39278605580329895,0.29443681240081787
1773146503895955500,0.11395556640625,-0.18142683804035187,-0.5088503360748291,0.2663370370864868
1773146503904628700,0.122628662109375,-0.13011419773101807,-0.5131264328956604,0.2162461280822754
1773146503913302500,0.131302490234375,-0.06597339361906052,-0.42882707715034485,0.1490510106086731
1773146503921975800,0.139975830078125,0.003665188793092966,-0.3292561173439026,0.08857539296150208
1773146503930649300,0.1486494140625,0.07086031138896942,-0.2577849328517914,0.056810423731803894
1773146503939323000,0.157322998046875,0.11911863088607788,-0.20463970303535461,0.04214967042207718
1773146503947996400,0.165996337890625,0.14782927930355072,-0.1649334877729416,0.0409279391169548
1773146503956670000,0.174669921875,0.17165300250053406,-0.15271618962287903,0.04825831577181816
1773146503965343500,0.183343505859375,0.18631376326084137,-0.15638138353824615,0.07391463965177536
1773146503974017000,0.19201708984375,0.18081597983837128,-0.16065743565559387,0.11484257876873016
1773146503982690600,0.200690673828125,0.15271618962287903,-0.15149445831775665,0.16676609218120575
1773146503991364000,0.209364013671875,0.11606431007385254,-0.13561198115348816,0.21991132199764252
1773146504000037600,0.21803759765625,0.08613193035125732,-0.12644900381565094,0.26939135789871216
1773146504008711200,0.226711181640625,0.059864748269319534,-0.12950333952903748,0.31031930446624756
1773146504017384700,0.235384765625,0.031154103577136993,-0.12705987691879272,0.3384190797805786
1773146504026058200,0.244058349609375,0.002443459117785096,-0.10751219838857651,0.36285367608070374
1773146504034731800,0.252731689453125,-0.02260199747979641,-0.06291907280683517,0.39217519760131836
1773146504043405300,0.2614052734375,-0.03481929376721382,0.05925388261675835,0.42271843552589417
1773146504052078800,0.270078857421875,-0.04825831577181816,0.1441640853881836,0.472198486328125
1773146504060752400,0.27875244140625,-0.07757982611656189,0.2419024556875229,0.5528326034545898
1773146504069426000,0.287426025390625,-0.11117739230394363,0.3799578845500946,0.6511818766593933
1773146504078099500,0.296099365234375,-0.16065743565559387,0.5088503360748291,0.7428115606307983
1773146504086773000,0.30477294921875,-0.21868959069252014,0.6194168925285339,0.8075632452964783
1773146504095446500,0.313446533203125,-0.27366742491722107,0.7336485981941223,0.8448259830474854
1773146504104120000,0.3221201171875,-0.3231474757194519,0.842382550239563,0.8637627959251404
1773146504112793600,0.330793701171875,-0.34636032581329346,0.9370665550231934,0.9016364216804504
1773146504121467100,0.339467041015625,-0.3298669755458832,1.0299180746078491,0.9663881063461304
1773146504130140700,0.348140625,-0.2828303873538971,1.08978271484375,1.0470222234725952
1773146504138814200,0.356814208984375,-0.2205221801996231,1.0952805280685425,1.1099413633346558
1773146504147487700,0.36548779296875,-0.19425499439239502,1.1520910263061523,1.018311619758606
1773146504156161300,0.374161376953125,-0.41905322670936584,0.7312051653862,0.3029889166355133
1773146504164834800,0.382834716796875,-0.6041452884674072,-0.5516108870506287,-0.25534147024154663
1773146504173508400,0.39150830078125,-0.48502662777900696,-1.2095122337341309,-0.34697118401527405
1773146504182181600,0.400181640625,-0.36835145950317383,-1.2455532550811768,-0.2260199636220932
1773146504190855200,0.408855224609375,-0.4001164436340332,-0.9615011811256409,-0.10934479534626007
1773146504199528700,0.41752880859375,-0.47952884435653687,-0.5198459029197693,-0.0873536616563797
1773146504208202200,0.4262021484375,-0.5332849621772766,-0.17837251722812653,-0.1081230640411377
1773146504216875800,0.434875732421875,-0.555276095867157,-0.01282816007733345,-0.09468404203653336
1773146504225549300,0.44354931640625,-0.5754346251487732,0.10506874322891235,-0.08368847519159317
1773146504234222800,0.452222900390625,-0.5821541547775269,0.17776164412498474,-0.04764745384454727
1773146504242896400,0.460896484375,-0.618806004524231,0.2205221801996231,-0.006108647678047419
1773146504251570000,0.46956982421875,-0.6841685771942139,0.21746785938739777,0.030543239787220955
1773146504260243500,0.478243408203125,-0.7440332770347595,0.14477495849132538,0.08918625861406326
1773146504268917000,0.4869169921875,-0.7947350740432739,0.05803215503692627,0.16615521907806396
1773146504277590500,0.495590576171875,-0.8368847370147705,-0.011606430634856224,0.24434591829776764
1773146504286264000,0.50426416015625,-0.8833104968070984,-0.05192350596189499,0.3121519088745117
1773146504294937600,0.5129375,-0.9547816514968872,0.000610864779446274,0.3555232882499695
1773146504303611100,0.521611083984375,-1.0445787906646729,0.13927717506885529,0.38301220536231995
1773146504312284700,0.53028466796875,-1.1502584218978882,0.31154105067253113,0.47525280714035034
1773146504320958200,0.538958251953125,-1.2205078601837158,0.573602020740509,0.6334667801856995
1773146504329631700,0.5476318359375,-1.240666389465332,0.8155044913291931,0.7629700899124146
1773146504338305300,0.55630517578125,-1.232114315032959,0.9334014058113098,0.84177166223526
1773146504346978800,0.564978759765625,-1.1972949504852295,0.962722897529602,0.7959567904472351
1773146504355652400,0.57365234375,-1.1459823846817017,0.9334014058113098,0.6487383842468262
1773146504364326000,0.582325927734375,-1.094058871269226,0.9230166673660278,0.3946186602115631
1773146504372999400,0.59099951171875,-1.0867284536361694,0.9596685767173767,0.07513637095689774
1773146504381673000,0.5996728515625,-1.1465932130813599,0.9657772183418274,-0.21991132199764252
1773146504390346500,0.608346435546875,-1.1972949504852295,0.9175189137458801,-0.4422661066055298
1773146504399020000,0.61702001953125,-1.258992314338684,0.7672461867332458,-0.5943714380264282
1773146504407693600,0.625693603515625,-1.3353503942489624,0.5540543794631958,-0.665842592716217
1773146504416367000,0.6343671875,-1.4404191970825195,0.3549124300479889,-0.6896663308143616
1773146504425040600,0.64304052734375,-1.5790854692459106,0.24495677649974823,-0.7232639193534851
1773146504433714200,0.651714111328125,-1.6560543775558472,0.12767073512077332,-0.6969966888427734
1773146504442387700,0.6603876953125,-1.6120721101760864,0.006108647678047419,-0.5497782826423645
1773146504451061200,0.669061279296875,-1.5100576877593994,-0.1380554437637329,-0.37140578031539917
1773146504459734800,0.67773486328125,-1.4520255327224731,-0.337808221578598,-0.26878049969673157
1773146504468408300,0.686408203125,-1.4282019138336182,-0.5968148708343506,-0.21502439677715302
1773146504477081900,0.695081787109375,-1.4104868173599243,-0.8631519079208374,-0.19120067358016968
1773146504485755100,0.703755126953125,-1.3952151536941528,-1.186299443244934,-0.22785256803035736
1773146504494428700,0.7124287109375,-1.3738348484039307,-1.6004657745361328,-0.31642794609069824
1773146504503102200,0.721102294921875,-1.3170244693756104,-1.9669846296310425,-0.44898560643196106
1773146504511775700,0.729775634765625,-1.288313865661621,-1.8252639770507812,-0.6139190793037415
1773146504520449300,0.73844921875,-1.1911863088607788,-1.183245062828064,-0.6554579138755798
1773146504529122800,0.747122802734375,-0.962722897529602,-0.4874700903892517,-0.5766563415527344
1773146504537796400,0.75579638671875,-0.6750055551528931,-0.10567960888147354,-0.5198459029197693
1773146504546470000,0.764469970703125,-0.4465421438217163,-0.1692095398902893,-0.5057960152626038
1773146504555143400,0.773143310546875,-0.31459537148475647,-0.48991355299949646,-0.5100721120834351
1773146504563817000,0.78181689453125,-0.21868959069252014,-0.8808670043945312,-0.49113526940345764
1773146504572490500,0.790490478515625,-0.11239911615848541,-1.1197150945663452,-0.4422661066055298
1773146504581164000,0.7991640625,0.006108647678047419,-1.2583814859390259,-0.3689623177051544
1773146504589837600,0.807837646484375,0.1380554437637329,-1.414151906967163,-0.26939135789871216
1773146504598511000,0.816510986328125,0.22785256803035736,-1.6029092073440552,-0.2003636509180069
1773146504607184600,0.8251845703125,0.26511532068252563,-1.8173227310180664,-0.18387030065059662
1773146504615858200,0.833858154296875,0.23273947834968567,-2.048229694366455,-0.2009745091199875
1773146504624531700,0.84253173828125,0.11484257876873016,-2.2082762718200684,-0.2510654330253601
1773146504633205200,0.851205322265625,-0.002443459117785096,-2.2736387252807617,-0.318871408700943
1773146504641878800,0.859878662109375,-0.05070177838206291,-2.2699735164642334,-0.3836230933666229
1773146504650552300,0.86855224609375,-0.01649334840476513,-2.086714029312134,-0.46059203147888184
1773146504659225900,0.877225830078125,0.08307760953903198,-1.663995623588562,-0.5424479246139526
1773146504667899400,0.8858994140625,0.19120067358016968,-1.4691298007965088,-0.5381718873977661
1773146504676573000,0.894572998046875,0.22235478460788727,-1.2809834480285645,-0.4740310609340668
1773146504685246500,0.90324658203125,0.13622283935546875,-1.2345577478408813,-0.4172206521034241
1773146504693920000,0.911919921875,0.011606430634856224,-1.3842196464538574,-0.3915643095970154
1773146504702593500,0.920593505859375,-0.07269290834665298,-1.6401718854904175,-0.39767298102378845
1773146504711267000,0.92926708984375,-0.09468404203653336,-1.8796309232711792,-0.4105011224746704
1773146504719940600,0.937940673828125,-0.07635809481143951,-2.0237951278686523,-0.41233372688293457
1773146504728614100,0.9466142578125,-0.1185077652335167,-2.075718402862549,-0.4007273018360138
1773146504737287700,0.95528759765625,-0.23457208275794983,-2.173456907272339,-0.4257727563381195
1773146504745961200,0.963961181640625,-0.22907429933547974,-2.310901403427124,-0.4471530318260193
1773146504754634800,0.972634765625,-0.1692095398902893,-2.3683228492736816,-0.46425724029541016
1773146504763308300,0.981308349609375,-0.09468404203653336,-2.27730393409729,-0.5314523577690125
1773146504771981800,0.98998193359375,0.011606430634856224,-2.067166328430176,-0.6786707639694214
1773146504780655000,0.998655029296875,0.1533270627260208,-1.8026620149612427,-0.924238383769989
1773146504789329000,1.007328857421875,0.3634645342826843,-1.5326597690582275,-1.183245062828064
1773146504798002400,1.01600244140625,0.48930269479751587,-1.4306453466415405,-1.324354887008667
1773146504806676000,1.024676025390625,0.4471530318260193,-1.5332705974578857,-1.3261874914169312
1773146504815349500,1.033349609375,0.38789913058280945,-1.7287473678588867,-1.2046253681182861
1773146504824023000,1.04202294921875,0.31520622968673706,-1.9095633029937744,-1.0201442241668701
1773146504832696300,1.0506962890625,0.15027274191379547,-2.0103559494018555,-0.842382550239563
1773146504841369900,1.059369873046875,-0.08002328872680664,-1.99630606174469,-0.7055488228797913
1773146504850043400,1.06804345703125,-0.26878049969673157,-1.9382739067077637,-0.6175842881202698
1773146504858717000,1.076717041015625,-0.3738492429256439,-1.8228205442428589,-0.5674933791160583
1773146504867390500,1.085390380859375,-0.4257727563381195,-1.64872407913208,-0.5540543794631958
1773146504876064000,1.09406396484375,-0.4404335021972656,-1.4703515768051147,-0.5803215503692627
1773146504884737500,1.102737548828125,-0.430659681558609,-1.3121376037597656,-0.6407971382141113
1773146504893411000,1.1114111328125,-0.41355544328689575,-1.1753038167953491,-0.7037162184715271
1773146504902084600,1.120084716796875,-0.389120876789093,-1.071456789970398,-0.740368127822876
1773146504910758100,1.128758056640625,-0.3488037884235382,-0.9957095980644226,-0.7476984858512878
1773146504919431700,1.137431640625,-0.31459537148475647,-0.9474512934684753,-0.739757239818573
1773146504928105200,1.146105224609375,-0.3121519088745117,-0.9327905178070068,-0.7269290685653687
1773146504936778800,1.15477880859375,-0.34086254239082336,-0.9511164426803589,-0.7000510096549988
1773146504945452300,1.163452392578125,-0.37201663851737976,-0.9712749719619751,-0.6249146461486816
1773146504954125800,1.172125732421875,-0.39278605580329895,-0.9932661056518555,-0.5210676789283752
1773146504962799400,1.18079931640625,-0.41783151030540466,-1.0470222234725952,-0.38179048895835876
1773146504971473000,1.189472900390625,-0.4618137776851654,-1.1404845714569092,-0.22846342623233795
1773146504980146400,1.198146484375,-0.49418962001800537,-1.2663227319717407,-0.0824667438864708
1773146504988820000,1.206820068359375,-0.5100721120834351,-1.395825982093811,0.06719512492418289
1773146504997493500,1.215493408203125,-0.5119046568870544,-1.4398082494735718,0.23212862014770508
1773146505006167000,1.2241669921875,-0.49968740344047546,-1.3542872667312622,0.3909534513950348
1773146505014840600,1.232840576171875,-0.4838049113750458,-1.2064579725265503,0.5027416944503784
1773146505023514000,1.24151416015625,-0.4838049113750458,-1.0641264915466309,0.5619956254959106
1773146505032187600,1.250187744140625,-0.4935787320137024,-0.9382883310317993,0.5900954008102417
1773146505040861200,1.258861083984375,-0.4886918365955353,-0.8344413042068481,0.6059778332710266
1773146505049534700,1.26753466796875,-0.48075059056282043,-0.7318159937858582,0.6230821013450623
1773146505058208300,1.276208251953125,-0.46914416551589966,-0.6273581385612488,0.6462949514389038
1773146505066881800,1.2848818359375,-0.44470956921577454,-0.5338957905769348,0.667064368724823
1773146505075555300,1.293555419921875,-0.4111120104789734,-0.47464191913604736,0.6835576891899109
1773146505084228900,1.302228759765625,-0.3744601011276245,-0.4367683231830597,0.7061597108840942
1773146505092902400,1.31090234375,-0.3335321843624115,-0.4050033390522003,0.739757239818573
1773146505101576000,1.319575927734375,-0.2987128794193268,-0.38667741417884827,0.7916807532310486
1773146505110249500,1.32824951171875,-0.2883281707763672,-0.39889469742774963,0.8466585874557495
1773146505118923000,1.336923095703125,-0.2974911332130432,-0.4477638900279999,0.8900299668312073
1773146505127596500,1.345596435546875,-0.3084867000579834,-0.5039634704589844,0.9211840629577637
1773146505136270000,1.35427001953125,-0.3133736252784729,-0.5430588126182556,0.9388991594314575
1773146505144943600,1.362943603515625,-0.31581708788871765,-0.545502245426178,0.9303470849990845
1773146505153617200,1.3716171875,-0.3170388340950012,-0.4776962697505951,0.8906408548355103
1773146505162290700,1.380290771484375,-0.3066541254520416,-0.35185810923576355,0.8203914165496826
1773146505170964000,1.3889638671875,-0.27916520833969116,-0.20891575515270233,0.7342594861984253
1773146505179637500,1.397637451171875,-0.24556763470172882,-0.0818558782339096,0.6444623470306396
1773146505188311300,1.406311279296875,-0.19792018830776215,0.023823726922273636,0.564439058303833
1773146505196984800,1.41498486328125,-0.14110976457595825,0.11056652665138245,0.49968740344047546
1773146505205658400,1.423658447265625,-0.0977383628487587,0.1539379209280014,0.4520399272441864
1773146505214332000,1.432331787109375,-0.0824667438864708,0.15271618962287903,0.43432486057281494
1773146505223005200,1.441005126953125,-0.08491020649671555,0.1178968995809555,0.4557051360607147
1773146505231678700,1.4496787109375,-0.10506874322891235,0.05558869615197182,0.5009090900421143
1773146505240352300,1.458352294921875,-0.14294235408306122,-0.01954767294228077,0.545502245426178
1773146505249025800,1.46702587890625,-0.18325942754745483,-0.06963858753442764,0.5760455131530762
1773146505257699300,1.47569921875,-0.20341797173023224,-0.0616973415017128,0.5852084755897522
1773146505266372900,1.484372802734375,-0.18631376326084137,-0.012217295356094837,0.5687150955200195
1773146505275046400,1.49304638671875,-0.13744457066059113,0.04886918142437935,0.5290089249610901
1773146505283720000,1.501719970703125,-0.07635809481143951,0.10690133273601532,0.4734202027320862
1773146505292393500,1.5103935546875,-0.011606430634856224,0.1594357043504715,0.42943793535232544
1773146505301067000,1.51906689453125,0.04459312930703163,0.19914191961288452,0.4111120104789734
1773146505309740500,1.527740478515625,0.0769689604640007,0.20402882993221283,0.4098902642726898
1773146505318414000,1.5364140625,0.07880155742168427,0.17287473380565643,0.4172206521034241
1773146505327087600,1.545087646484375,0.06414080411195755,0.13072505593299866,0.4410443603992462
1773146505335761200,1.55376123046875,0.04581485688686371,0.0824667438864708,0.47952884435653687
1773146505344434700,1.5624345703125,0.03176496922969818,0.037262752652168274,0.5222893953323364
1773146505353108200,1.571108154296875,0.02871064469218254,-0.000610864779446274,0.5522217750549316
1773146505361781800,1.57978173828125,0.030543239787220955,-0.031154103577136993,0.555276095867157
1773146505370455300,1.588455322265625,0.028099779039621353,-0.04520399495959282,0.5290089249610901
1773146505379128800,1.59712890625,0.031154103577136993,-0.039706211537122726,0.4929678738117218
1773146505387802400,1.60580224609375,0.04214967042207718,-0.01282816007733345,0.4569268524646759
1773146505396476000,1.614475830078125,0.047036588191986084,0.01954767294228077,0.4257727563381195
1773146505405149400,1.6231494140625,0.04581485688686371,0.04214967042207718,0.4001164436340332
1773146505413823000,1.631822998046875,0.03848448023200035,0.06047561392188072,0.3799578845500946
1773146505422496500,1.64049658203125,0.027488915249705315,0.056810423731803894,0.3652971386909485
1773146505431170000,1.649170166015625,0.015271619893610477,0.02626718580722809,0.3500255048274994
1773146505439843600,1.657843505859375,0.017715077847242355,-0.023212861269712448,0.33047783374786377
1773146505448517000,1.66651708984375,0.0360410213470459,-0.08002328872680664,0.2938259541988373
1773146505457190700,1.675190673828125,0.06230820715427399,-0.13255766034126282,0.23762640357017517
1773146505465864200,1.6838642578125,0.09346231073141098,-0.17715078592300415,0.16859868168830872
1773146505474537700,1.692537841796875,0.13988803327083588,-0.21197007596492767,0.09346231073141098
1773146505483211300,1.701211181640625,0.205861434340477,-0.24923282861709595,0.015271619893610477
1773146505491884800,1.709884765625,0.28405213356018066,-0.29443681240081787,-0.06414080411195755
1773146505500558300,1.718558349609375,0.3738492429256439,-0.3634645342826843,-0.14782927930355072
1773146505509231900,1.72723193359375,0.4819723069667816,-0.4581485986709595,-0.2315177470445633
1773146505517905400,1.735905517578125,0.6065887212753296,-0.5577195286750793,-0.31642794609069824
1773146505526579000,1.744578857421875,0.7507528066635132,-0.6420188546180725,-0.4111120104789734
1773146505535252500,1.75325244140625,0.8930842876434326,-0.7238747477531433,-0.5241219997406006
1773146505543926000,1.761926025390625,1.0219768285751343,-0.8155044913291931,-0.648127555847168
1773146505552599600,1.770599609375,1.1410953998565674,-0.9401208758354187,-0.7837395071983337
1773146505561273000,1.779273193359375,1.265711784362793,-1.0903936624526978,-0.9175189137458801
1773146505569946600,1.787946533203125,1.4062107801437378,-1.2553271055221558,-1.0409135818481445
1773146505578620200,1.7966201171875,1.5784746408462524,-1.4092650413513184,-1.1441497802734375
1773146505587293400,1.80529345703125,1.7837251424789429,-1.5473204851150513,-1.2461642026901245
1773146505595967200,1.81396728515625,2.014631986618042,-1.6688826084136963,-1.3475676774978638
1773146505604640800,1.822640869140625,2.2644758224487305,-1.7550145387649536,-1.4459168910980225
1773146505613314300,1.831314208984375,2.5436408519744873,-1.8161009550094604,-1.5430444478988647
1773146505621987800,1.83998779296875,2.855792760848999,-1.8637484312057495,-1.6413936614990234
1773146505630661000,1.8486611328125,3.177107810974121,-1.897346019744873,-1.7330234050750732
1773146505639334700,1.857334716796875,3.484372615814209,-1.9162827730178833,-1.8319834470748901
1773146505648008200,1.86600830078125,3.7702574729919434,-1.9230023622512817,-1.9401065111160278
1773146505656681700,1.874681640625,4.024377346038818,-1.9113959074020386,-2.0628902912139893
1773146505665355300,1.883355224609375,4.218632221221924,-1.8631376028060913,-2.207054376602173
1773146505674028800,1.89202880859375,4.350578784942627,-1.7880011796951294,-2.371987819671631
1773146505682702300,1.900702392578125,4.4580912590026855,-1.7073670625686646,-2.5546364784240723
1773146505691375900,1.9093759765625,4.566214084625244,-1.6187916994094849,-2.7446155548095703
1773146505700049400,1.91804931640625,4.69388484954834,-1.5375466346740723,-2.928485870361328
1773146505708723000,1.926722900390625,4.858207702636719,-1.4373648166656494,-3.1196863651275635
1773146505717396500,1.935396484375,5.046353816986084,-1.3188570737838745,-3.3072218894958496
1773146505726070000,1.944070068359375,5.283980369567871,-1.1972949504852295,-3.442223072052002
1773146505734743600,1.95274365234375,5.716472625732422,-0.8851430416107178,-3.3719735145568848
1773146505743417000,1.9614169921875,6.308400630950928,-0.8894191384315491,-3.501477003097534
1773146505752090600,1.970090576171875,6.303513526916504,-1.4752384424209595,-4.024377346038818
1773146505760764200,1.97876416015625,6.290685653686523,-1.7684534788131714,-4.437321662902832
1773146505769437700,1.987437744140625,6.287020206451416,-1.7861685752868652,-4.421439170837402
1773146505778111200,1.996111328125,6.204553604125977,-1.7201951742172241,-4.062861442565918
1773146505786784800,2.00478466796875,6.057335376739502,-1.655443549156189,-3.5472917556762695
1773146505795458300,2.013458251953125,5.947990417480469,-1.5167772769927979,-2.9852962493896484
1773146505804131800,2.0221318359375,5.852695465087891,-1.2345577478408813,-2.484387159347534
1773146505812805400,2.030805419921875,5.709753036499023,-0.8820887207984924,-2.151465654373169
1773146505821479000,2.03947900390625,5.54970645904541,-0.4563159942626953,-2.006079912185669
1773146505830152400,2.04815234375,5.439750671386719,0.03176496922969818,-2.006079912185669
1773146505838826000,2.056825927734375,5.381107807159424,0.49418962001800537,-2.107483386993408
1773146505847499500,2.06549951171875,5.367668628692627,0.8668171167373657,-2.2540910243988037
1773146505856173000,2.074173095703125,5.390270709991455,1.1038326025009155,-2.3548836708068848
1773146505864846600,2.0828466796875,5.404931545257568,1.166751742362976,-2.341444730758667
1773146505873520000,2.09152001953125,5.378053665161133,1.0781763792037964,-2.177122116088867
1773146505882193700,2.100193603515625,5.31941032409668,0.943786084651947,-1.8423681259155273
1773146505890867200,2.1088671875,5.211287498474121,0.915075421333313,-1.3756674528121948
1773146505899540700,2.117540771484375,5.043910503387451,0.9932661056518555,-0.861319363117218
1773146505908214300,2.12621435546875,4.828275203704834,1.1698060035705566,-0.3170388340950012
1773146505916887800,2.1348876953125,4.620581150054932,1.395825982093811,0.1893680840730667
1773146505925561300,2.143561279296875,4.392117977142334,1.6713260412216187,0.6010909676551819
1773146505934235000,2.15223486328125,4.127613544464111,1.9682062864303589,0.8967494964599609
1773146505942908400,2.160908447265625,3.855778455734253,2.2473714351654053,1.0567960739135742
1773146505951582000,2.16958203125,3.5723371505737305,2.503323793411255,1.1050543785095215
1773146505960255500,2.17825537109375,3.3066110610961914,2.707352638244629,1.0800089836120605
1773146505968929000,2.186928955078125,3.037219762802124,2.855181932449341,1.0238093137741089
1773146505977602600,2.1956025390625,2.760498046875,2.8985533714294434,0.9871574640274048
1773146505986276000,2.204276123046875,2.478889226913452,2.8686211109161377,1.000596523284912
1773146505994949600,2.21294970703125,2.2009458541870117,2.8014259338378906,1.0610721111297607
1773146506003623200,2.221623046875,1.913839340209961,2.7165157794952393,1.145371437072754
1773146506012296700,2.230296630859375,1.6255111694335938,2.626718521118164,1.202792763710022
1773146506020970200,2.23897021484375,1.339626431465149,2.584568977355957,1.2290599346160889
1773146506029643800,2.247643798828125,1.053741693496704,2.579071044921875,1.2058470249176025
1773146506038317300,2.2563173828125,0.739757239818573,2.56807541847229,1.0971131324768066
1773146506046990800,2.264990966796875,0.3787361681461334,2.503323793411255,0.8662062287330627
1773146506055664400,2.273664306640625,0.002443459117785096,2.400698661804199,0.555276095867157
1773146506064337700,2.282337646484375,-0.2993237376213074,2.34694242477417,0.19120067358016968
1773146506073011200,2.29101123046875,-0.5100721120834351,2.3035709857940674,-0.21319180727005005
1773146506081685000,2.29968505859375,-0.6615665555000305,2.218050003051758,-0.6334667801856995
1773146506090358500,2.308358642578125,-0.7525854110717773,2.1832306385040283,-0.9236275553703308
1773146506099032000,2.317031982421875,-0.6921098232269287,2.1300854682922363,-1.0219768285751343
1773146506107705600,2.32570556640625,-0.5619956254959106,2.0268492698669434,-0.9224058389663696
1773146506116379100,2.334379150390625,-0.4734202027320862,1.8442007303237915,-0.7018836140632629
1773146506125052400,2.343052490234375,-0.42882707715034485,1.5491530895233154,-0.40805765986442566
1773146506133726000,2.351725830078125,-0.36774060130119324,1.2101231813430786,-0.09712749719619751
1773146506142399500,2.3603994140625,-0.2926042377948761,0.8936951756477356,0.15149445831775665
1773146506151073000,2.369072998046875,-0.2767217457294464,0.6255255341529846,0.27550002932548523
1773146506159746800,2.377746826171875,-0.29993459582328796,0.40378162264823914,0.2938259541988373
1773146506168420000,2.386420166015625,-0.2828303873538971,0.1698204129934311,0.24862197041511536
1773146506177093600,2.39509375,-0.27977606654167175,0.01588248461484909,0.185092031955719
1773146506185767200,2.40376708984375,-0.3390299379825592,-0.03298669680953026,0.11911863088607788
1773146506194440700,2.412440673828125,-0.4557051360607147,0.08857539296150208,0.037262752652168274
1773146506203114200,2.4211142578125,-0.5064069032669067,0.2565632164478302,-0.08063415437936783
1773146506211787800,2.429787841796875,-0.5106829404830933,0.4789179861545563,-0.23823726177215576
1773146506220461300,2.43846142578125,-0.46486809849739075,0.7409789562225342,-0.5033525824546814
1773146506229134800,2.447134765625,-0.3915643095970154,0.9120211005210876,-0.7409789562225342
1773146506237808400,2.455808349609375,-0.33108872175216675,0.9065233469009399,-0.9065233469009399
1773146506246482000,2.46448193359375,-0.31459537148475647,0.7177661061286926,-0.9999856352806091
1773146506255155500,2.473155517578125,-0.3543015718460083,0.4734202027320862,-1.0458004474639893
1773146506263829000,2.4818291015625,-0.37812530994415283,0.25411975383758545,-1.0604612827301025
1773146506272502500,2.49050244140625,-0.33536475896835327,0.1178968995809555,-1.0293071269989014
1773146506281176000,2.499176025390625,-0.2412915825843811,0.06108647957444191,-0.9602794051170349
1773146506289849600,2.507849609375,-0.1386663019657135,0.07086031138896942,-0.896138608455658
1773146506298523100,2.516523193359375,-0.050090912729501724,0.1130099818110466,-0.8307760953903198
1773146506307196700,2.52519677734375,-0.017715077847242355,0.13194678723812103,-0.7794634699821472
1773146506315870200,2.5338701171875,-0.06475166976451874,0.08796452730894089,-0.7629700899124146
1773146506324543700,2.542543701171875,-0.1844811588525772,-0.031154103577136993,-0.8185588121414185
1773146506333217300,2.55121728515625,-0.3029889166355133,-0.19792018830776215,-0.8460476994514465
1773146506341890800,2.559890869140625,-0.3848448097705841,-0.45937031507492065,-0.758694052696228
1773146506350564400,2.568564453125,-0.43493571877479553,-0.6432406306266785,-0.7171552777290344
1773146506359238000,2.57723779296875,-0.43982264399528503,-0.6328558921813965,-0.758083164691925
1773146506367911400,2.585911376953125,-0.38667741417884827,-0.45937031507492065,-0.8649845123291016
1773146506376585000,2.5945849609375,-0.2712239623069763,-0.2052505612373352,-1.0177006721496582
1773146506385258500,2.603258544921875,-0.1948658674955368,0.000610864779446274,-1.1282672882080078
1773146506393932000,2.61193212890625,-0.2528980076313019,0.020769402384757996,-1.0873392820358276
1773146506402605600,2.62060546875,-0.46914416551589966,-0.10018182545900345,-0.9896009564399719
1773146506411279000,2.629279052734375,-0.7122683525085449,-0.3347539007663727,-0.9737184643745422
1773146506419952600,2.63795263671875,-0.7733548283576965,-0.31093016266822815,-0.9828814268112183
1773146506428626200,2.646626220703125,-0.5119046568870544,0.4007273018360138,-0.6524035930633545
1773146506437299700,2.6552998046875,-0.3182605504989624,1.0793980360031128,-0.7672461867332458
1773146506445973200,2.66397314453125,-0.25534147024154663,1.5149446725845337,-1.2565488815307617
1773146506454646800,2.672646728515625,-0.2974911332130432,1.441640853881836,-1.7996076345443726
1773146506463320300,2.6813203125,-0.2968802750110626,1.156977891921997,-1.879020094871521
1773146506471993900,2.689993896484375,-0.08368847519159317,0.8216131329536438,-1.5809180736541748
1773146506480667400,2.69866748046875,0.4214966893196106,0.7018836140632629,-1.240666389465332
1773146506489341000,2.7073408203125,0.5308414697647095,0.6603448390960693,-1.164919137954712
1773146506498014500,2.716014404296875,0.44837474822998047,0.7531962990760803,-1.1013891696929932
1773146506506688000,2.72468798828125,0.3549124300479889,0.7635809779167175,-0.9285144805908203
1773146506515361500,2.733361572265625,0.28527384996414185,0.5558869242668152,-0.6627882719039917
1773146506524035000,2.74203515625,0.23762640357017517,0.2919933497905731,-0.42394015192985535
1773146506532708600,2.75070849609375,0.22785256803035736,0.024434590712189674,-0.22479823231697083
1773146506541382100,2.759382080078125,0.20341797173023224,-0.18875721096992493,-0.03176496922969818
1773146506550055700,2.7680556640625,0.13439024984836578,-0.35735589265823364,0.10995566099882126
1773146506558729200,2.776729248046875,0.09834922850131989,-0.48075059056282043,0.24373504519462585
1773146506567402800,2.78540283203125,0.05253437161445618,-0.5681042671203613,0.36651885509490967
1773146506576076300,2.794076171875,-0.03909534588456154,-0.6957749724388123,0.471587598323822
1773146506584749800,2.802749755859375,-0.15088360011577606,-0.8442151546478271,0.5516108870506287
1773146506593423400,2.81142333984375,-0.28038692474365234,-0.8973603844642639,0.5821541547775269
1773146506602097000,2.820096923828125,-0.3249800503253937,-0.9169080257415771,0.5302306413650513
1773146506610770400,2.8287705078125,-0.3543015718460083,-0.9743293523788452,0.44898560643196106
1773146506619443700,2.837443603515625,-0.5900954008102417,-0.94439697265625,0.347582072019577
1773146506628117200,2.8461171875,-0.5962040424346924,-0.6004800796508789,0.2467893660068512
1773146506636791000,2.854791015625,-0.8100066781044006,-0.3402516841888428,0.17531819641590118
1773146506645464600,2.863464599609375,-1.2748748064041138,-0.18570289015769958,-0.01588248461484909
1773146506654138000,2.87213818359375,-1.9633194208145142,-0.7715222239494324,-0.379347026348114
1773146506662811600,2.880811767578125,-2.3988659381866455,-1.463021159172058,-0.44348782300949097
1773146506671485200,2.889485107421875,-2.4404048919677734,-2.1801764965057373,-0.3072649836540222
1773146506680158500,2.898158447265625,-2.2779147624969482,-2.439182996749878,-0.10995566099882126
1773146506688832000,2.90683203125,-2.1135921478271484,-2.2614214420318604,0.000610864779446274
1773146506697505500,2.915505615234375,-1.9297218322753906,-1.690262794494629,0.10201441496610641
1773146506706179000,2.924178955078125,-1.722638726234436,-1.3280199766159058,0.007330377586185932
1773146506714852600,2.9328525390625,-1.3402373790740967,-1.1380411386489868,-0.13744457066059113
1773146506723526100,2.941526123046875,-1.1417062282562256,-1.2418880462646484,-0.1954767256975174
1773146506732199700,2.95019970703125,-1.0763437747955322,-1.1166608333587646,-0.29443681240081787
1773146506740873200,2.958873291015625,-1.1563670635223389,-0.7147117853164673,-0.48991355299949646
1773146506749546800,2.967546630859375,-1.451414704322815,-0.6982184648513794,-0.5827649831771851
1773146506758220300,2.97622021484375,-1.4776818752288818,-0.6652317643165588,-0.4416552484035492
1773146506766893800,2.984893798828125,-1.3029745817184448,-0.7635809779167175,-0.2926042377948761
1773146506775567400,2.9935673828125,-1.0140355825424194,-0.7892373204231262,-0.19425499439239502
1773146506784241000,3.002240966796875,-0.8729257583618164,-0.7513636946678162,-0.09407317638397217
1773146506792914400,3.01091455078125,-0.8442151546478271,-0.9205732345581055,-0.0054977829568088055
1773146506801588000,3.019587890625,-0.7745765447616577,-0.9083559513092041,0.15577052533626556
1773146506810261500,3.028261474609375,-0.8112284541130066,-0.5253437161445618,0.2565632164478302
1773146506818935000,3.03693505859375,-0.6126973628997803,-0.07147117704153061,0.3127627670764923
1773146506827608600,3.045608642578125,-0.28527384996414185,0.35735589265823364,0.2669478952884674
1773146506836282000,3.0542822265625,-0.13255766034126282,0.5210676789283752,0.16126830875873566
1773146506844955600,3.06295556640625,0.010384701192378998,0.2260199636220932,0.1386663019657135
1773146506853629200,3.071629150390625,0.1026252806186676,0.47586366534233093,0.2981020212173462
1773146506862302700,3.080302734375,0.16615521907806396,0.4361574649810791,0.19853104650974274
1773146506870976300,3.088976318359375,0.21135921776294708,0.5632173418998718,0.10140355676412582
1773146506879649800,3.09764990234375,0.2364046722650528,0.7837395071983337,0.01282816007733345
1773146506888323300,3.1063232421875,0.2669478952884674,1.0439679622650146,0.007330377586185932
1773146506896996900,3.114996826171875,0.33536475896835327,1.6334524154663086,0.012217295356094837
1773146506905670400,3.12367041015625,0.42455101013183594,1.5613703727722168,-0.18570289015769958
1773146506914344000,3.132343994140625,0.4147771894931793,0.9419534802436829,-0.16676609218120575
1773146506923017500,3.141017578125,0.40805765986442566,0.411722868680954,-0.2559523284435272
1773146506931691000,3.14969091796875,0.4062250852584839,0.3072649836540222,-0.46059203147888184
1773146506940364500,3.158364501953125,0.39400777220726013,0.34086254239082336,-0.66645348072052
1773146506949038000,3.1670380859375,0.36774060130119324,0.4221075773239136,-0.8527672290802002
1773146506957711600,3.175711669921875,0.3836230933666229,0.5522217750549316,-1.0109812021255493
1773146506966385200,3.18438525390625,0.4001164436340332,0.7153226733207703,-1.120326042175293
1773146506975058700,3.19305859375,0.4013381600379944,0.8362739086151123,-1.1490366458892822
1773146506983732200,3.201732177734375,0.45998117327690125,0.7996219992637634,-1.0830632448196411
1773146506992405800,3.21040576171875,0.5601630210876465,0.8393282294273376,-0.9590576887130737
1773146507001079300,3.219079345703125,0.545502245426178,0.8252783417701721,-0.8075632452964783
1773146507009752800,3.2277529296875,0.5632173418998718,0.667064368724823,-0.6291907429695129
1773146507018426400,3.23642626953125,0.5424479246139526,0.6029235124588013,-0.5112938284873962
1773146507027100000,3.245099853515625,0.4062250852584839,0.5076286196708679,-0.39217519760131836
1773146507035773400,3.2537734375,0.5082395076751709,-0.06414080411195755,-0.6120865345001221
1773146507044447000,3.262447021484375,0.47464191913604736,-0.2052505612373352,-0.6743947267532349
1773146507053120500,3.27112060546875,0.4269944727420807,-0.20158538222312927,-0.5338957905769348
1773146507061794000,3.2797939453125,0.3298669755458832,-0.1288924664258957,-0.41416633129119873
1773146507070467600,3.288467529296875,0.2669478952884674,-0.06536252796649933,-0.33597561717033386
1773146507079141000,3.29714111328125,0.3042106628417969,-0.11117739230394363,-0.37812530994415283
1773146507087814700,3.305814697265625,0.3646862804889679,-0.19120067358016968,-0.4520399272441864
1773146507096488200,3.31448828125,0.4367683231830597,-0.30970844626426697,-0.5491674542427063
1773146507105161700,3.32316162109375,0.5112938284873962,-0.43371400237083435,-0.6652317643165588
1773146507113835300,3.331835205078125,0.5723803043365479,-0.5253437161445618,-0.7886264324188232
1773146507122508500,3.340508544921875,0.5876519083976746,-0.3836230933666229,-0.7965676784515381
1773146507131182300,3.349182373046875,0.4098902642726898,0.1282816082239151,-0.646905779838562
1773146507139856000,3.35785595703125,0.1747073233127594,0.4508182108402252,-0.5076286196708679
1773146507148529400,3.366529296875,0.08552107214927673,0.41844236850738525,-0.4050033390522003
1773146507157202700,3.37520263671875,0.010995565913617611,0.3170388340950012,-0.3341430425643921
1773146507165876200,3.383876220703125,-0.037262752652168274,0.2761108875274658,-0.3133736252784729
1773146507174549800,3.3925498046875,-0.0665842592716217,0.20219624042510986,-0.23396120965480804
1773146507183223300,3.401223388671875,-0.06475166976451874,0.2205221801996231,-0.17165300250053406
1773146507191896800,3.409896728515625,-0.04825831577181816,0.32009315490722656,-0.19730933010578156
1773146507200570400,3.4185703125,-0.06047561392188072,0.5723803043365479,-0.34086254239082336
1773146507209244200,3.427244140625,-0.08918625861406326,0.676227331161499,-0.5033525824546814
1773146507217917400,3.43591748046875,0.053756099194288254,0.3384190797805786,-0.5027416944503784
1773146507226591000,3.444591064453125,0.15210533142089844,0.06108647957444191,-0.46914416551589966
1773146507235264500,3.453264404296875,0.1484401375055313,0.036651886999607086,-0.4667007029056549
1773146507243938000,3.46193798828125,0.17348559200763702,0.08918625861406326,-0.5015199780464172
1773146507252611600,3.470611572265625,0.19242240488529205,0.11545344442129135,-0.5051851868629456
1773146507261285000,3.47928515625,0.19669845700263977,0.1893680840730667,-0.5070177912712097
1773146507269958700,3.487958740234375,0.19181154668331146,0.2364046722650528,-0.48502662777900696
1773146507278632200,3.496632080078125,0.17715078592300415,0.2724456787109375,-0.4612029194831848
1773146507287305700,3.5053056640625,0.15760311484336853,0.3090975880622864,-0.4508182108402252
1773146507295979300,3.513979248046875,0.13561198115348816,0.35124725103378296,-0.46425724029541016
1773146507304652800,3.52265283203125,0.11911863088607788,0.389120876789093,-0.4978547990322113
1773146507313326300,3.531326416015625,0.11362084746360779,0.41233372688293457,-0.5406153202056885
1773146507322000000,3.539999755859375,0.11606431007385254,0.4214966893196106,-0.5864301919937134
1773146507330673400,3.54867333984375,0.12705987691879272,0.4166097939014435,-0.6291907429695129
1773146507339347000,3.557346923828125,0.14599667489528656,0.4056142270565033,-0.6750055551528931
1773146507348020500,3.5660205078125,0.1698204129934311,0.3952295184135437,-0.7159335017204285
1773146507356694000,3.574694091796875,0.2003636509180069,0.38667741417884827,-0.7556397318840027
1773146507365367600,3.583367431640625,0.23457208275794983,0.3811796307563782,-0.7929024696350098
1773146507374041000,3.592041015625,0.27000224590301514,0.38728827238082886,-0.8246674537658691
1773146507382714600,3.600714599609375,0.3029889166355133,0.4062250852584839,-0.8466585874557495
1773146507391388200,3.60938818359375,0.328645259141922,0.4361574649810791,-0.8637627959251404
1773146507400061700,3.618061767578125,0.34147340059280396,0.471587598323822,-0.8735366463661194
1773146507408735200,3.6267353515625,0.34086254239082336,0.5088503360748291,-0.8759800791740417
1773146507417408800,3.63540869140625,0.3274235129356384,0.545502245426178,-0.8747583627700806
1773146507426082300,3.644082275390625,0.30115634202957153,0.5943714380264282,-0.8600975871086121
1773146507434755800,3.652755859375,0.2632827162742615,0.6695078015327454,-0.8161153197288513
1773146507443429400,3.661429443359375,0.20158538222312927,0.7947350740432739,-0.7195987105369568
1773146507452103000,3.67010302734375,0.11362084746360779,0.8869756460189819,-0.6023126840591431
1773146507460776400,3.6787763671875,0.030543239787220955,0.7745765447616577,-0.4679224193096161
1773146507469450000,3.687449951171875,0.06352993845939636,0.5662716627120972,-0.31642794609069824
1773146507478123500,3.69612353515625,0.185092031955719,0.4257727563381195,-0.08857539296150208
1773146507486797000,3.704797119140625,0.34147340059280396,0.28588470816612244,0.1997527778148651
1773146507495470600,3.713470703125,0.4978547990322113,0.10567960888147354,0.4514290690422058
1773146507504144100,3.72214404296875,0.6175842881202698,-0.07819069176912308,0.6096430420875549
1773146507512817700,3.730817626953125,0.7134900689125061,-0.26022839546203613,0.6548470258712769
1773146507521491200,3.7394912109375,0.7806851863861084,-0.4416552484035492,0.6145299673080444
1773146507530164700,3.748164794921875,0.7831286191940308,-0.5277871489524841,0.5174024701118469
1773146507538838300,3.75683837890625,0.7709113359451294,-0.7599157691001892,0.3707949221134186
1773146507547511800,3.76551171875,0.7079922556877136,-0.8093958497047424,0.20891575515270233
1773146507556185300,3.774185302734375,0.593149721622467,-0.7293725609779358,0.02626718580722809
1773146507564859000,3.78285888671875,0.44898560643196106,-0.5583304166793823,-0.15699224174022675
1773146507573532400,3.791532470703125,0.2987128794193268,-0.3139844834804535,-0.3029889166355133
1773146507582206000,3.8002060546875,0.17348559200763702,-0.046425722539424896,-0.389120876789093
1773146507590879500,3.80887939453125,0.08918625861406326,0.2052505612373352,-0.4214966893196106
1773146507599553000,3.817552978515625,0.03909534588456154,0.411722868680954,-0.41294458508491516
1773146507608226600,3.8262265625,0.017715077847242355,0.5424479246139526,-0.3805687427520752
1773146507616900000,3.834900146484375,0.023823726922273636,0.5687150955200195,-0.33231043815612793
1773146507625573600,3.84357373046875,0.059864748269319534,0.5033525824546814,-0.28405213356018066
1773146507634247200,3.8522470703125,0.11545344442129135,0.3756818473339081,-0.23945899307727814
1773146507642920400,3.86092041015625,0.17715078592300415,0.22663083672523499,-0.18814635276794434
1773146507651594200,3.86959423828125,0.23029601573944092,0.08613193035125732,-0.13133592903614044
1773146507660267800,3.878267822265625,0.2669478952884674,-0.03237583488225937,-0.06414080411195755
1773146507668941000,3.886941162109375,0.2706131041049957,-0.09162971377372742,0.009162971749901772
1773146507677614600,3.895614501953125,0.2461785078048706,-0.0922405794262886,0.09040798991918564
1773146507686288100,3.9042880859375,0.1997527778148651,-0.03909534588456154,0.17592905461788177
1773146507694962000,3.9129619140625,0.13439024984836578,0.056810423731803894,0.2718348205089569
1773146507703635200,3.92163525390625,0.07941242307424545,0.17592905461788177,0.370184063911438
1773146507712309000,3.93030908203125,-0.007330377586185932,0.33719736337661743,0.4673115611076355
1773146507720982500,3.938982421875,-0.07635809481143951,0.4770853817462921,0.5601630210876465
1773146507729655800,3.94765576171875,-0.1130099818110466,0.5968148708343506,0.6493492722511292
1773146507738329300,3.956329345703125,-0.11117739230394363,0.66645348072052,0.7293725609779358
1773146507747003000,3.9650029296875,-0.08796452730894089,0.7379246354103088,0.8020654320716858
1773146507755676400,3.973676513671875,-0.07147117704153061,0.7794634699821472,0.8649845123291016
1773146507764350000,3.982349853515625,-0.046425722539424896,0.7867938280105591,0.9279035925865173
1773146507773023700,3.991023681640625,-0.004886918235570192,0.7525854110717773,0.9834923148155212
1773146507781697000,3.999697021484375,0.02871064469218254,0.6798924803733826,1.0274745225906372
1773146507790370600,4.00837060546875,0.059864748269319534,0.5882627964019775,1.0543526411056519
1773146507799044000,4.017044189453125,0.06414080411195755,0.4923570156097412,1.0598503351211548
1773146507807717600,4.025717529296875,0.03298669680953026,0.4318813979625702,1.0543526411056519
1773146507816391200,4.03439111328125,-0.0256563201546669,0.4153880476951599,1.0421353578567505
1773146507825064700,4.043064697265625,-0.10690133273601532,0.43860089778900146,1.0164790153503418
1773146507833738200,4.05173828125,-0.19425499439239502,0.47036588191986084,0.9718858599662781
1773146507842411800,4.060411865234375,-0.27427828311920166,0.5015199780464172,0.9034690260887146
1773146507851085300,4.069085205078125,-0.3402516841888428,0.5375609993934631,0.8216131329536438
1773146507859758800,4.0777587890625,-0.38850998878479004,0.5626064538955688,0.7391464114189148
1773146507868432400,4.086432373046875,-0.4202749729156494,0.5674933791160583,0.6646208763122559
1773146507877106000,4.09510595703125,-0.4667007029056549,0.5558869242668152,0.6126973628997803
1773146507885779500,4.103779541015625,-0.526565432548523,0.5424479246139526,0.5772672295570374
1773146507894453000,4.112452880859375,-0.5870410799980164,0.536339282989502,0.5369501113891602
1773146507903126500,4.12112646484375,-0.6059778332710266,0.5681042671203613,0.47525280714035034
1773146507911800000,4.129800048828125,-0.6041452884674072,0.554665207862854,0.40927940607070923
1773146507920473600,4.1384736328125,-0.6218603253364563,0.5009090900421143,0.33536475896835327
1773146507929147100,4.147147216796875,-0.6450732350349426,0.4251618981361389,0.2608392536640167
1773146507937820700,4.155820556640625,-0.6579013466835022,0.3543015718460083,0.21807873249053955
1773146507946494200,4.164494140625,-0.6615665555000305,0.30604326725006104,0.22174391150474548
1773146507955167700,4.173167724609375,-0.6676751971244812,0.2938259541988373,0.26022839546203613
1773146507963841300,4.18184130859375,-0.6817250847816467,0.2883281707763672,0.32559093832969666
1773146507972514800,4.190514892578125,-0.7012727856636047,0.23029601573944092,0.39217519760131836
1773146507981188400,4.199188232421875,-0.7336485981941223,0.20280711352825165,0.4459312856197357
1773146507989862000,4.20786181640625,-0.7000510096549988,0.2412915825843811,0.4453204274177551
1773146507998535400,4.216535400390625,-0.657290518283844,0.24801109731197357,0.44409868121147156
1773146508007209000,4.225208984375,-0.6114756464958191,0.22418737411499023,0.4373791813850403
1773146508015882500,4.233882568359375,-0.5564978122711182,0.17104214429855347,0.4159989058971405
1773146508024556000,4.24255615234375,-0.49968740344047546,0.0977383628487587,0.3695732057094574
1773146508033229600,4.2512294921875,-0.44348782300949097,0.01954767294228077,0.30543237924575806
1773146508041903000,4.259903076171875,-0.3903425931930542,-0.050090912729501724,0.23884813487529755
1773146508050576600,4.26857666015625,-0.3390299379825592,-0.09834922850131989,0.17898337543010712
1773146508059250200,4.277250244140625,-0.28954991698265076,-0.12705987691879272,0.13255766034126282
1773146508067923700,4.285923828125,-0.2461785078048706,-0.143553227186203,0.10018182545900345
1773146508076597200,4.29459716796875,-0.20647229254245758,-0.1490510106086731,0.08002328872680664
1773146508085270800,4.303270751953125,-0.1698204129934311,-0.1539379209280014,0.06963858753442764
1773146508093944300,4.3119443359375,-0.13500112295150757,-0.15760311484336853,0.07147117704153061
1773146508102617900,4.320617919921875,-0.10384701192378998,-0.15638138353824615,0.0818558782339096
1773146508111291400,4.32929150390625,-0.06963858753442764,-0.1588248461484909,0.09529490768909454
1773146508119965000,4.33796484375,-0.03787361457943916,-0.18142683804035187,0.10873392969369888
1773146508128638500,4.346638427734375,-0.004886918235570192,-0.2254091054201126,0.11606431007385254
1773146508137312000,4.35531201171875,0.02932151034474373,-0.287106454372406,0.11606431007385254
1773146508145985500,4.363985595703125,0.06108647957444191,-0.3536907136440277,0.11728604137897491
1773146508154659000,4.3726591796875,0.0922405794262886,-0.41294458508491516,0.11972949653863907
1773146508163332600,4.38133251953125,0.12400554865598679,-0.4612029194831848,0.11423171311616898
1773146508172006100,4.390006103515625,0.15638138353824615,-0.49968740344047546,0.0977383628487587
1773146508180679700,4.3986796875,0.18631376326084137,-0.5308414697647095,0.0665842592716217
1773146508189353200,4.407353271484375,0.21197007596492767,-0.5479456782341003,0.02871064469218254
1773146508198026800,4.41602685546875,0.23396120965480804,-0.555276095867157,-0.009773836471140385
1773146508206700300,4.4247001953125,0.24984370172023773,-0.5595521330833435,-0.04276053607463837
1773146508215373800,4.433373779296875,0.26389357447624207,-0.5723803043365479,-0.06902772188186646
1773146508224047400,4.44204736328125,0.27977606654167175,-0.5998691916465759,-0.07330377399921417
1773146508232721000,4.450720947265625,0.29565855860710144,-0.6145299673080444,-0.0665842592716217
1773146508241394400,4.45939453125,0.3084867000579834,-0.6102539300918579,-0.053756099194288254
1773146508250068000,4.46806787109375,0.32131487131118774,-0.6224712133407593,-0.04153880476951599
1773146508258741500,4.476741455078125,0.32620179653167725,-0.6420188546180725,-0.03848448023200035
1773146508267415000,4.4854150390625,0.3225366175174713,-0.6462949514389038,-0.04214967042207718
1773146508276088600,4.494088623046875,0.31581708788871765,-0.6255255341529846,-0.05558869615197182
1773146508284762000,4.50276220703125,0.3170388340950012,-0.5968148708343506,-0.07452550530433655
1773146508293435600,4.511435546875,0.3231474757194519,-0.5925388336181641,-0.09101885557174683
1773146508302109200,4.520109130859375,0.32681265473365784,-0.6200277805328369,-0.09712749719619751
1773146508310782700,4.52878271484375,0.31520622968673706,-0.6695078015327454,-0.09468404203653336
1773146508319456300,4.537456298828125,0.29077163338661194,-0.7275399565696716,-0.09896009415388107
1773146508328129800,4.5461298828125,0.2657261788845062,-0.7880155444145203,-0.1337793916463852
1773146508336803300,4.55480322265625,0.22663083672523499,-0.7141009569168091,-0.15515965223312378
1773146508345476900,4.563476806640625,0.14782927930355072,-0.3738492429256439,-0.10506874322891235
1773146508354150400,4.572150390625,0.04153880476951599,0.14599667489528656,-0.04764745384454727
1773146508362824000,4.580823974609375,-0.10690133273601532,0.6792816519737244,0.013439024798572063
1773146508371497500,4.58949755859375,-0.21258094906806946,1.0341941118240356,-0.06841685622930527
1773146508380171000,4.5981708984375,-0.2614501118659973,0.9382883310317993,-0.29565855860710144
1773146508388844500,4.606844482421875,-0.27488914132118225,0.4917461574077606,-0.6340776681900024
1773146508397518000,4.61551806640625,-0.235793799161911,0.09529490768909454,-0.9089667797088623
1773146508406191600,4.624191650390625,-0.07880155742168427,-0.08491020649671555,-1.0512982606887817
1773146508414865200,4.632865234375,-0.0030543238390237093,-0.14172062277793884,-1.0818414688110352
1773146508423538700,4.64153857421875,-0.024434590712189674,-0.09957095980644226,-0.9908226728439331
1773146508432212200,4.650212158203125,-0.04459312930703163,0.010384701192378998,-0.7874047160148621
1773146508440885800,4.6588857421875,-0.026878049597144127,0.1386663019657135,-0.5137372612953186
1773146508449559300,4.667559326171875,0.009162971749901772,0.23945899307727814,-0.25045454502105713
1773146508458232800,4.67623291015625,0.04764745384454727,0.24984370172023773,-0.0409279391169548
1773146508466906400,4.68490625,0.06108647957444191,0.17898337543010712,0.10079269111156464
1773146508475580000,4.693579833984375,0.056199558079242706,0.06352993845939636,0.16859868168830872
1773146508484253400,4.70225341796875,0.04153880476951599,-0.04276053607463837,0.16737695038318634
1773146508492927000,4.710927001953125,0.034208428114652634,-0.11545344442129135,0.10445787757635117
1773146508501600500,4.7196005859375,0.053145237267017365,-0.18631376326084137,-0.021380268037319183
1773146508510274000,4.728274169921875,0.053145237267017365,-0.2419024556875229,-0.1997527778148651
1773146508518947600,4.736947509765625,0.043982263654470444,-0.2577849328517914,-0.37629270553588867
1773146508527621000,4.74562109375,0.056199558079242706,-0.2559523284435272,-0.48441576957702637
1773146508536294700,4.754294677734375,-0.01588248461484909,-0.3335321843624115,-0.5100721120834351
1773146508544968200,4.76296826171875,-0.11667517572641373,-0.4416552484035492,-0.5015199780464172
1773146508553641700,4.771641845703125,-0.21319180727005005,-0.5229002237319946,-0.5033525824546814
1773146508562315300,4.780315185546875,-0.29626941680908203,-0.5436696410179138,-0.5106829404830933
1773146508570988800,4.78898876953125,-0.38850998878479004,-0.544891357421875,-0.5112938284873962
1773146508579662300,4.797662353515625,-0.4874700903892517,-0.5302306413650513,-0.49663305282592773
1773146508588335900,4.8063359375,-0.5632173418998718,-0.4917461574077606,-0.4728093445301056
1773146508597009400,4.815009521484375,-0.5900954008102417,-0.42332929372787476,-0.4367683231830597
1773146508605683000,4.823682861328125,-0.5601630210876465,-0.3585776388645172,-0.3915643095970154
1773146508614356500,4.8323564453125,-0.4978547990322113,-0.30604326725006104,-0.35613417625427246
1773146508623030000,4.841030029296875,-0.41355544328689575,-0.24312418699264526,-0.32559093832969666
1773146508631703600,4.84970361328125,-0.3237583339214325,-0.15638138353824615,-0.2889390289783478
1773146508640377000,4.858377197265625,-0.23823726177215576,-0.05742128938436508,-0.24556763470172882
1773146508649050600,4.867050537109375,-0.14110976457595825,0.050090912729501724,-0.21380266547203064
1773146508657724200,4.87572412109375,-0.037262752652168274,0.16554436087608337,-0.2009745091199875
1773146508666397700,4.884397705078125,-0.002443459117785096,0.24373504519462585,-0.18692462146282196
1773146508675071200,4.8930712890625,0.004886918235570192,0.32131487131118774,-0.14599667489528656
1773146508683744800,4.901744873046875,0.0054977829568088055,0.4263836145401001,-0.07635809481143951
1773146508692418300,4.910418212890625,0.021380268037319183,0.5510000586509705,0.0054977829568088055
1773146508701091800,4.919091796875,0.03237583488225937,0.665842592716217,0.08063415437936783
1773146508709765400,4.927765380859375,0.039706211537122726,0.767857015132904,0.13194678723812103
1773146508718439000,4.93643896484375,0.049480047076940536,0.8588758707046509,0.1484401375055313
1773146508727112400,4.945112548828125,0.06291907280683517,0.924849271774292,0.1337793916463852
1773146508735786000,4.953785888671875,0.0824667438864708,0.972496747970581,0.1026252806186676
1773146508744459500,4.96245947265625,0.1185077652335167,1.007315993309021,0.07269290834665298
1773146508753133000,4.971133056640625,0.17043127119541168,1.036637544631958,0.053756099194288254
1773146508761806600,4.979806640625,0.23029601573944092,1.053130865097046,0.04825831577181816
1773146508770480000,4.988480224609375,0.287106454372406,1.0476330518722534,0.04459312930703163
1773146508779153700,4.997153564453125,0.3402516841888428,1.0201442241668701,0.03481929376721382
1773146508787827200,5.0058271484375,0.38667741417884827,0.9810488224029541,0.023823726922273636
1773146508796500700,5.014500732421875,0.4166097939014435,0.9419534802436829,0.006108647678047419
1773146508805174300,5.02317431640625,0.4318813979625702,0.916297197341919,-0.01954767294228077
1773146508813847800,5.031847900390625,0.4251618981361389,0.9107993841171265,-0.04825831577181816
1773146508822521300,5.040521240234375,0.40317076444625854,0.924849271774292,-0.07574722915887833
1773146508831195000,5.04919482421875,0.36712974309921265,0.9596685767173767,-0.10018182545900345
1773146508839868400,5.057868408203125,0.3249800503253937,1.0048725605010986,-0.1185077652335167
1773146508848542000,5.0665419921875,0.27977606654167175,1.0482439994812012,-0.13072505593299866
1773146508857215500,5.075215576171875,0.24251331388950348,1.109330415725708,-0.13683371245861053
1773146508865889000,5.083888916015625,0.21930044889450073,1.1282672882080078,-0.14049890637397766
1773146508874562600,5.0925625,0.20219624042510986,1.1337649822235107,-0.14294235408306122
1773146508883236000,5.101236083984375,0.1905898153781891,1.137430191040039,-0.1441640853881836
1773146508891909600,5.10990966796875,0.18570289015769958,1.1331541538238525,-0.15210533142089844
1773146508900583200,5.118583251953125,0.19669845700263977,1.1233803033828735,-0.16798780858516693
1773146508909256700,5.127256591796875,0.2162461280822754,1.102000117301941,-0.1747073233127594
1773146508917930200,5.13593017578125,0.24006985127925873,1.0329723358154297,-0.17776164412498474
1773146508926603800,5.144603759765625,0.25045454502105713,0.9883792400360107,-0.18081597983837128
1773146508935277300,5.15327734375,0.26022839546203613,0.9505056142807007,-0.18325942754745483
1773146508943950800,5.161950927734375,0.2626718580722809,0.9187406301498413,-0.19303326308727264
1773146508952624400,5.170624267578125,0.2620609998703003,0.8869756460189819,-0.20463970303535461
1773146508961298000,5.1792978515625,0.2608392536640167,0.841160774230957,-0.22235478460788727
1773146508969971500,5.187971435546875,0.25961753726005554,0.7867938280105591,-0.2370155304670334
1773146508978645000,5.19664501953125,0.258395791053772,0.7269290685653687,-0.2419024556875229
1773146508987318500,5.205318603515625,0.2620609998703003,0.6707295179367065,-0.24434591829776764
1773146508995992000,5.213991943359375,0.2663370370864868,0.6194168925285339,-0.24251331388950348
1773146509004665600,5.22266552734375,0.27488914132118225,0.5668824911117554,-0.24006985127925873
1773146509013339100,5.231339111328125,0.2864955961704254,0.5149590373039246,-0.23823726177215576
1773146509022012700,5.2400126953125,0.2919933497905731,0.47097674012184143,-0.25045454502105713
1773146509030686200,5.248686279296875,0.287106454372406,0.46608981490135193,-0.27366742491722107
1773146509039359500,5.257359375,0.2822195291519165,0.4043924808502197,-0.31031930446624756
1773146509048033000,5.266032958984375,0.26878049969673157,0.3958403766155243,-0.35124725103378296
1773146509056706800,5.274706787109375,0.26450446248054504,0.4111120104789734,-0.3915643095970154
1773146509065380400,5.28338037109375,0.2632827162742615,0.43004879355430603,-0.4269944727420807
1773146509074054000,5.292053955078125,0.26511532068252563,0.45509424805641174,-0.4575377106666565
1773146509082727200,5.30072705078125,0.268169641494751,0.48441576957702637,-0.4783071279525757
1773146509091401000,5.30940087890625,0.2712239623069763,0.5174024701118469,-0.4929678738117218
1773146509100074500,5.318074462890625,0.27366742491722107,0.5571087002754211,-0.5021308660507202
1773146509108747800,5.326747802734375,0.277332603931427,0.6120865345001221,-0.5027416944503784
1773146509117421300,5.33542138671875,0.28466299176216125,0.6890554428100586,-0.49541133642196655
1773146509126094800,5.3440947265625,0.3023780584335327,0.7788525819778442,-0.47586366534233093
1773146509134768600,5.3527685546875,0.33047783374786377,0.8759800791740417,-0.4477638900279999
1773146509143442200,5.361442138671875,0.36224281787872314,0.9834923148155212,-0.4068359434604645
1773146509152115700,5.37011572265625,0.3860665261745453,1.0952805280685425,-0.3585776388645172
1773146509160789000,5.3787890625,0.4062250852584839,1.2021819353103638,-0.30970844626426697
1773146509169462500,5.387462646484375,0.42088583111763,1.2993093729019165,-0.2620609998703003
1773146509178136000,5.396135986328125,0.401949018239975,1.4086542129516602,-0.18325942754745483
1773146509186809600,5.4048095703125,0.36651885509490967,1.377500057220459,-0.11667517572641373
1773146509195483100,5.413483154296875,0.4465421438217163,1.1814124584197998,-0.05864302068948746
1773146509204156700,5.42215673828125,0.5699368119239807,1.045189619064331,0.02932151034474373
1773146509212830200,5.430830322265625,0.6548470258712769,1.0671807527542114,0.21319180727005005
1773146509221503700,5.439503662109375,0.6957749724388123,1.099556565284729,0.43310311436653137
1773146509230177300,5.44817724609375,0.6872228980064392,1.046411395072937,0.6004800796508789
1773146509238850800,5.456850830078125,0.7018836140632629,0.8918625712394714,0.6969966888427734
1773146509247524400,5.4655244140625,0.7470875978469849,0.6731730103492737,0.7770199775695801
1773146509256198000,5.474197998046875,0.7916807532310486,0.5051851868629456,0.8826996088027954
1773146509264871400,5.482871337890625,0.8008437156677246,0.49418962001800537,0.988990068435669
1773146509273545000,5.491544921875,0.7739656567573547,0.44348782300949097,1.0641264915466309
1773146509282218500,5.500218505859375,0.6890554428100586,0.47952884435653687,1.099556565284729
1773146509290892000,5.50889208984375,0.5516108870506287,0.6108647584915161,1.099556565284729
1773146509299565600,5.517565673828125,0.3952295184135437,0.768467903137207,1.0861176252365112
1773146509308239000,5.526239013671875,0.23518294095993042,0.934623122215271,1.08978271484375
1773146509316912600,5.53491259765625,0.07452550530433655,1.1056652069091797,1.1197150945663452
1773146509325586200,5.543586181640625,-0.07086031138896942,1.2712095975875854,1.1594213247299194
1773146509334259700,5.552259765625,-0.17531819641590118,1.4104868173599243,1.1985167264938354
1773146509342933200,5.560933349609375,-0.22418737411499023,1.507614254951477,1.2382229566574097
1773146509351606800,5.569606689453125,-0.21868959069252014,1.5412118434906006,1.275485634803772
1773146509360280300,5.5782802734375,-0.1740964651107788,1.479514479637146,1.3078614473342896
1773146509368953900,5.586953857421875,-0.0922405794262886,1.3274091482162476,1.331685185432434
1773146509377627400,5.59562744140625,0.010384701192378998,1.1148282289505005,1.3463460206985474
1773146509386301000,5.604301025390625,0.08796452730894089,0.850934624671936,1.3500111103057861
1773146509394974500,5.612974365234375,0.1081230640411377,0.5351175665855408,1.3408482074737549
1773146509403648000,5.62164794921875,0.06963858753442764,0.2412915825843811,1.3182462453842163
1773146509412321500,5.630321533203125,-0.014660755172371864,0.003665188793092966,1.3121376037597656
1773146509420995000,5.6389951171875,-0.09101885557174683,-0.049480047076940536,1.3500111103057861
1773146509429668600,5.647668701171875,-0.16187916696071625,0.02932151034474373,1.426369309425354
1773146509438342100,5.656342041015625,-0.24984370172023773,0.14049890637397766,1.4886775016784668
1773146509447015700,5.665015625,-0.33108872175216675,0.22418737411499023,1.469740629196167
1773146509455689200,5.673689208984375,-0.3903425931930542,0.27427828311920166,1.3127484321594238
1773146509464362800,5.68236279296875,-0.47464191913604736,0.3433060050010681,1.0567960739135742
1773146509473036300,5.691036376953125,-0.618806004524231,0.3946186602115631,0.7745765447616577
1773146509481709800,5.699709716796875,-0.7293725609779358,0.3842339515686035,0.4770853817462921
1773146509490383400,5.70838330078125,-0.7867938280105591,0.32070401310920715,0.2370155304670334
1773146509499057000,5.717056884765625,-0.80389803647995,0.20219624042510986,0.08002328872680664
1773146509507730400,5.72573046875,-0.8179479241371155,0.06291907280683517,0.0030543238390237093
1773146509516404000,5.734404052734375,-0.8368847370147705,-0.0922405794262886,-0.002443459117785096
1773146509525077500,5.743077392578125,-0.8552106618881226,-0.26022839546203613,0.05192350596189499
1773146509533751000,5.7517509765625,-0.8955277800559998,-0.4465421438217163,0.1490510106086731
1773146509542424600,5.760424560546875,-0.880256175994873,-0.5229002237319946,0.25534147024154663
1773146509551098000,5.76909814453125,-0.8558215498924255,-0.6035344004631042,0.37323838472366333
1773146509559771600,5.777771728515625,-0.8680388331413269,-0.7098248600959778,0.500298261642456
1773146509568445200,5.786445068359375,-0.8442151546478271,-0.6713404059410095,0.5748237371444702
1773146509577118700,5.79511865234375,-0.7770199775695801,-0.6401863098144531,0.6102539300918579
1773146509585792300,5.803792236328125,-0.7141009569168091,-0.637742817401886,0.6200277805328369
1773146509594465800,5.8124658203125,-0.647516667842865,-0.6304124593734741,0.5943714380264282
1773146509603139300,5.821139404296875,-0.6047561168670654,-0.6829468011856079,0.56382817029953
1773146509611812900,5.829812744140625,-0.5314523577690125,-0.5778780579566956,0.4783071279525757
1773146509620486400,5.838486328125,-0.44959646463394165,-0.5436696410179138,0.389120876789093
1773146509629160000,5.847159912109375,-0.3860665261745453,-0.5338957905769348,0.3170388340950012
1773146509637833500,5.85583349609375,-0.3280344009399414,-0.5436696410179138,0.26511532068252563
1773146509646507000,5.864507080078125,-0.27366742491722107,-0.5693259835243225,0.22663083672523499
1773146509655180500,5.8731806640625,-0.23029601573944092,-0.6041452884674072,0.19914191961288452
1773146509663854000,5.88185400390625,-0.19364413619041443,-0.6420188546180725,0.18264856934547424
1773146509672527600,5.890527587890625,-0.1637117564678192,-0.6633991599082947,0.16554436087608337
1773146509681201200,5.899201171875,-0.13683371245861053,-0.6640099883079529,0.14599667489528656
1773146509689874700,5.907874755859375,-0.1178968995809555,-0.6389645338058472,0.1282816082239151
1773146509698548200,5.91654833984375,-0.09896009415388107,-0.5998691916465759,0.11362084746360779
1773146509707221800,5.9252216796875,-0.0818558782339096,-0.555276095867157,0.09957095980644226
1773146509715895300,5.933895263671875,-0.06414080411195755,-0.5210676789283752,0.07757982611656189
1773146509724568800,5.94256884765625,-0.04825831577181816,-0.500298261642456,0.050090912729501724
1773146509733242400,5.951242431640625,-0.028099779039621353,-0.4935787320137024,0.01893680728971958
1773146509741916000,5.959916015625,0.000610864779446274,-0.4990765154361725,-0.013439024798572063
1773146509750589400,5.96858935546875,0.040317077189683914,-0.5174024701118469,-0.053756099194288254
1773146509759263000,5.977262939453125,0.08552107214927673,-0.5406153202056885,-0.09896009415388107
1773146509767936500,5.9859365234375,0.13072505593299866,-0.5613847374916077,-0.14477495849132538
1773146509776610000,5.994610107421875,0.16859868168830872,-0.5797106623649597,-0.18692462146282196
1773146509785283600,6.00328369140625,0.19730933010578156,-0.5980366468429565,-0.22357651591300964
1773146509793957000,6.01195703125,0.21502439677715302,-0.6206386089324951,-0.2571740746498108
1773146509802630700,6.020630615234375,0.22174391150474548,-0.6493492722511292,-0.28405213356018066
1773146509811304200,6.02930419921875,0.22296564280986786,-0.6811142563819885,-0.31154105067253113
1773146509819977700,6.037977783203125,0.21197007596492767,-0.7061597108840942,-0.3396408259868622
1773146509828651300,6.0466513671875,0.19914191961288452,-0.7165443897247314,-0.3610210716724396
1773146509837324800,6.05532470703125,0.18203771114349365,-0.7037162184715271,-0.38179048895835876
1773146509845998300,6.063998291015625,0.15699224174022675,-0.6774490475654602,-0.3970620930194855
1773146509854672000,6.072671875,0.12217295914888382,-0.6365211009979248,-0.40744680166244507
1773146509863345400,6.081345458984375,0.0873536616563797,-0.5723803043365479,-0.3964512348175049
1773146509872019000,6.09001904296875,0.053756099194288254,-0.48013970255851746,-0.36285367608070374
1773146509880692500,6.0986923828125,0.020769402384757996,-0.38301220536231995,-0.30970844626426697
1773146509889366000,6.107365966796875,-0.009773836471140385,-0.318871408700943,-0.24923282861709595
1773146509898039600,6.11603955078125,-0.03298669680953026,-0.3090975880622864,-0.19730933010578156
1773146509906713000,6.124713134765625,-0.04520399495959282,-0.35613417625427246,-0.15515965223312378
1773146509915386600,6.13338671875,-0.039706211537122726,-0.42088583111763,-0.13500112295150757
1773146509924060200,6.14206005859375,-0.008552107028663158,-0.4862483739852905,-0.14538581669330597
1773146509932733700,6.150733642578125,0.036651886999607086,-0.5699368119239807,-0.2205221801996231
1773146509941407200,6.1594072265625,0.02260199747979641,-0.56382817029953,-0.32620179653167725
1773146509950080800,6.168080810546875,-0.09346231073141098,-0.35185810923576355,-0.41844236850738525
1773146509958754300,6.17675439453125,-0.17715078592300415,-0.13255766034126282,-0.5277871489524841
1773146509967427800,6.185427734375,-0.17226386070251465,-0.03481929376721382,-0.6090322136878967
1773146509976101400,6.194101318359375,-0.18631376326084137,-0.06352993845939636,-0.7073814272880554
1773146509984775000,6.20277490234375,-0.1997527778148651,-0.17165300250053406,-0.8784235715866089
1773146509993448400,6.211448486328125,-0.1795942485332489,-0.31459537148475647,-1.0409135818481445
1773146510002122000,6.2201220703125,-0.1337793916463852,-0.3689623177051544,-1.1136064529418945
1773146510010795500,6.22879541015625,-0.13683371245861053,-0.29504770040512085,-1.0928370952606201
1773146510019469300,6.23746923828125,-0.17043127119541168,-0.18631376326084137,-1.01708984375
1773146510028142800,6.246142822265625,-0.19181154668331146,-0.12461641430854797,-0.9010255336761475
1773146510036816100,6.254816162109375,-0.20647229254245758,-0.12217295914888382,-0.7641918659210205
1773146510045489700,6.26348974609375,-0.20708316564559937,-0.15027274191379547,-0.6194168925285339
1773146510054163500,6.27216357421875,-0.17165300250053406,-0.1948658674955368,-0.48441576957702637
1773146510062836700,6.280836669921875,-0.08674279600381851,-0.24740023910999298,-0.38240134716033936
1773146510071510300,6.28951025390625,0.023823726922273636,-0.2974911332130432,-0.31520622968673706
1773146510080183800,6.298183837890625,0.1282816082239151,-0.30970844626426697,-0.26511532068252563
1773146510088857300,6.306857421875,0.1948658674955368,-0.2669478952884674,-0.2211330533027649
1773146510097531100,6.31553125,0.23457208275794983,-0.20830489695072174,-0.20280711352825165
1773146510106204700,6.32420458984375,0.2614501118659973,-0.14294235408306122,-0.22907429933547974
1773146510114878200,6.332878173828125,0.2614501118659973,-0.06780599057674408,-0.29565855860710144
1773146510123551700,6.3415517578125,0.22968515753746033,0.001832594396546483,-0.36774060130119324
1773146510132225000,6.35022509765625,0.18692462146282196,0.04581485688686371,-0.41416633129119873
1773146510140898800,6.35889892578125,0.11484257876873016,0.017715077847242355,-0.4172206521034241
1773146510149572000,6.367572021484375,0.0256563201546669,-0.09590577334165573,-0.3964512348175049
1773146510158246000,6.376245849609375,-0.039706211537122726,-0.23029601573944092,-0.3970620930194855
1773146510166919200,6.384919189453125,-0.11117739230394363,-0.32681265473365784,-0.4373791813850403
1773146510175593000,6.393593017578125,-0.1893680840730667,-0.3836230933666229,-0.5100721120834351
1773146510184266500,6.4022666015625,-0.2657261788845062,-0.4050033390522003,-0.6065887212753296
1773146510192940000,6.41093994140625,-0.33597561717033386,-0.39339691400527954,-0.7043271064758301
1773146510201613600,6.419613525390625,-0.4013381600379944,-0.3640754222869873,-0.7745765447616577
1773146510210287000,6.428287109375,-0.46914416551589966,-0.35124725103378296,-0.8093958497047424
1773146510218960600,6.436960693359375,-0.5442805290222168,-0.3848448097705841,-0.8197805285453796
1773146510227634200,6.44563427734375,-0.6047561168670654,-0.4355465769767761,-0.8087849617004395
1773146510236307700,6.4543076171875,-0.6395754218101501,-0.4923570156097412,-0.768467903137207
1773146510244981000,6.46298095703125,-0.6395754218101501,-0.5656607747077942,-0.7122683525085449
1773146510253654800,6.47165478515625,-0.5858193039894104,-0.6310232877731323,-0.648127555847168
1773146510262328300,6.480328369140625,-0.472198486328125,-0.6682860851287842,-0.5717694163322449
1773146510271001900,6.489001953125,-0.3127627670764923,-0.6750055551528931,-0.4838049113750458
1773146510279675400,6.49767529296875,-0.13133592903614044,-0.6365211009979248,-0.41844236850738525
1773146510288349000,6.506348876953125,0.023823726922273636,-0.5528326034545898,-0.3836230933666229
1773146510297022500,6.5150224609375,0.13927717506885529,-0.43432486057281494,-0.35246896743774414
1773146510305696000,6.523696044921875,0.21258094906806946,-0.34574946761131287,-0.3035998046398163
1773146510314369500,6.53236962890625,0.2632827162742615,-0.2577849328517914,-0.23762640357017517
1773146510323043000,6.54104296875,0.3066541254520416,-0.14477495849132538,-0.1740964651107788
1773146510331716600,6.549716552734375,0.33536475896835327,-0.021991131827235222,-0.10873392969369888
1773146510340390100,6.55839013671875,0.3530798554420471,0.07147117704153061,-0.04581485688686371
1773146510349063700,6.567063720703125,0.3652971386909485,0.13561198115348816,0.011606430634856224
1773146510357737200,6.5757373046875,0.37201663851737976,0.18570289015769958,0.05436696484684944
1773146510366410800,6.58441064453125,0.3750709891319275,0.22846342623233795,0.0824667438864708
1773146510375084300,6.593084228515625,0.3842339515686035,0.2559523284435272,0.09590577334165573
1773146510383757800,6.6017578125,0.39767298102378845,0.2632827162742615,0.10140355676412582
1773146510392431400,6.610431396484375,0.40866854786872864,0.2675587832927704,0.0977383628487587
1773146510401105000,6.61910498046875,0.4312705397605896,0.21197007596492767,0.08796452730894089
1773146510409778400,6.6277783203125,0.4514290690422058,0.15210533142089844,0.07757982611656189
1773146510418452000,6.636451904296875,0.46608981490135193,0.09529490768909454,0.06291907280683517
1773146510427125500,6.64512548828125,0.48013970255851746,0.021380268037319183,0.0513126403093338
1773146510435799000,6.653799072265625,0.4764745235443115,-0.006108647678047419,0.03237583488225937
1773146510444472600,6.66247265625,0.4612029194831848,-0.009162971749901772,0.008552107028663158
1773146510453146000,6.67114599609375,0.4269944727420807,0.0665842592716217,-0.026878049597144127
1773146510461819600,6.679819580078125,0.38789913058280945,0.10567960888147354,-0.053145237267017365
1773146510470493200,6.6884931640625,0.35674503445625305,0.1026252806186676,-0.06780599057674408
1773146510479166700,6.697166748046875,0.32070401310920715,0.09468404203653336,-0.07024945318698883
1773146510487840300,6.70584033203125,0.2809978127479553,0.11178825795650482,-0.07452550530433655
1773146510496513800,6.714513671875,0.2467893660068512,0.12034036219120026,-0.07086031138896942
1773146510505187300,6.723187255859375,0.21502439677715302,0.16065743565559387,-0.06597339361906052
1773146510513860900,6.73186083984375,0.18142683804035187,0.19914191961288452,-0.0818558782339096
1773146510522534400,6.740534423828125,0.19425499439239502,0.0824667438864708,-0.07269290834665298
1773146510531208000,6.7492080078125,0.20952661335468292,-0.009773836471140385,-0.06291907280683517
1773146510539881500,6.757881591796875,0.20891575515270233,-0.056810423731803894,-0.07086031138896942
1773146510548555000,6.766554931640625,0.20280711352825165,-0.10690133273601532,-0.09162971377372742
1773146510557228500,6.775228515625,0.19364413619041443,-0.15760311484336853,-0.1185077652335167
1773146510565902000,6.783902099609375,0.18081597983837128,-0.205861434340477,-0.14782927930355072
1773146510574575600,6.79257568359375,0.16126830875873566,-0.2522871494293213,-0.18142683804035187
1773146510583249200,6.801249267578125,0.13561198115348816,-0.27488914132118225,-0.20830489695072174
1773146510591922700,6.809922607421875,0.10201441496610641,-0.2706131041049957,-0.22418737411499023
1773146510600596200,6.81859619140625,0.07269290834665298,-0.22968515753746033,-0.21991132199764252
1773146510609269800,6.827269775390625,0.0409279391169548,-0.1747073233127594,-0.21258094906806946
1773146510617943300,6.835943359375,0.008552107028663158,-0.10384701192378998,-0.21502439677715302
1773146510626616600,6.844616455078125,-0.01649334840476513,-0.03481929376721382,-0.22357651591300964
1773146510635290400,6.853290283203125,-0.0360410213470459,0.03298669680953026,-0.23518294095993042
1773146510643964000,6.8619638671875,-0.04520399495959282,0.09896009415388107,-0.2419024556875229
1773146510652637400,6.870637451171875,-0.03848448023200035,0.1533270627260208,-0.2412915825843811
1773146510661311000,6.87931103515625,-0.02260199747979641,0.19242240488529205,-0.2419024556875229
1773146510669984500,6.887984619140625,-0.001832594396546483,0.21991132199764252,-0.2406807243824005
1773146510678658000,6.896657958984375,0.025045456364750862,0.23335035145282745,-0.23457208275794983
1773146510687331600,6.90533154296875,0.06108647957444191,0.24434591829776764,-0.22174391150474548
1773146510696004900,6.9140048828125,0.09651663154363632,0.2669478952884674,-0.2003636509180069
1773146510704678400,6.922678466796875,0.12950333952903748,0.30543237924575806,-0.17715078592300415
1773146510713352000,6.93135205078125,0.16004657745361328,0.36285367608070374,-0.15027274191379547
1773146510722025500,6.940025390625,0.18570289015769958,0.4422661066055298,-0.11606431007385254
1773146510730699300,6.94869921875,0.2052505612373352,0.5479456782341003,-0.0769689604640007
1773146510739372800,6.957372802734375,0.18875721096992493,0.627968966960907,-0.0409279391169548
1773146510748046300,6.96604638671875,0.1905898153781891,0.5320632457733154,0.01954767294228077
1773146510756719900,6.974719970703125,0.19425499439239502,0.42271843552589417,0.004276053514331579
1773146510765393200,6.98339306640625,0.2675587832927704,0.31459537148475647,-0.043982263654470444
1773146510774066700,6.992066650390625,0.3591884970664978,0.3329212963581085,-0.04214967042207718
1773146510782740200,7.000740234375,0.4312705397605896,0.40255987644195557,-0.0054977829568088055
1773146510791413800,7.009413818359375,0.4770853817462921,0.4196641147136688,0.012217295356094837
1773146510800087300,7.01808740234375,0.5277871489524841,0.36163195967674255,0.0030543238390237093
1773146510808761000,7.026760986328125,0.6053670048713684,0.22907429933547974,0
1773146510817434400,7.035434326171875,0.6750055551528931,0.09407317638397217,0.047036588191986084
1773146510826108000,7.04410791015625,0.6731730103492737,0.1594357043504715,0.13133592903614044
1773146510834781400,7.052781494140625,0.675616443157196,0.040317077189683914,0.22418737411499023
1773146510843455000,7.061455078125,0.6261364221572876,-0.004886918235570192,0.32070401310920715
1773146510852128500,7.07012841796875,0.5192350745201111,0.06902772188186646,0.3646862804889679
1773146510860802000,7.078802001953125,0.3854556679725647,0.164322629570961,0.3555232882499695
1773146510869475600,7.0874755859375,0.2419024556875229,0.25534147024154663,0.32192572951316833
1773146510878149000,7.096149169921875,0.11484257876873016,0.33047783374786377,0.28466299176216125
1773146510886823000,7.104822998046875,0.021991131827235222,0.3970620930194855,0.25045454502105713
1773146510895496400,7.113496337890625,-0.03176496922969818,0.45998117327690125,0.22418737411499023
1773146510904169700,7.122169677734375,-0.056810423731803894,0.49113526940345764,0.2009745091199875
1773146510912843500,7.130843505859375,-0.05558869615197182,0.4825831651687622,0.19120067358016968
1773146510921516800,7.139516845703125,-0.033597562462091446,0.4373791813850403,0.19242240488529205
1773146510930190300,7.1481904296875,0.001832594396546483,0.36712974309921265,0.20708316564559937
1773146510938863900,7.15686376953125,0.06291907280683517,0.21380266547203064,0.24984370172023773
1773146510947537400,7.165537353515625,0.1178968995809555,0.08918625861406326,0.31459537148475647
1773146510956211000,7.1742109375,0.16798780858516693,-0.04276053607463837,0.389120876789093
1773146510964884500,7.182884521484375,0.22174391150474548,-0.18692462146282196,0.49113526940345764
1773146510973558000,7.19155810546875,0.2559523284435272,-0.3017672002315521,0.6078104376792908
1773146510982231800,7.200231689453125,0.26389357447624207,-0.38728827238082886,0.7220421433448792
1773146510990905000,7.208905029296875,0.24312418699264526,-0.42332929372787476,0.8405499458312988
1773146510999578600,7.21757861328125,0.1899789422750473,-0.41905322670936584,0.962722897529602
1773146511008252200,7.226252197265625,0.11484257876873016,-0.37629270553588867,1.0818414688110352
1773146511016925700,7.23492578125,0.03543015569448471,-0.3170388340950012,1.18446683883667
1773146511025599200,7.24359912109375,-0.030543239787220955,-0.25411975383758545,1.2675443887710571
1773146511034272800,7.252272705078125,-0.07024945318698883,-0.18142683804035187,1.3359612226486206
1773146511042946300,7.2609462890625,-0.09529490768909454,-0.09468404203653336,1.3921607732772827
1773146511051620000,7.2696201171875,-0.10445787757635117,-0.021991131827235222,1.4361430406570435
1773146511060293600,7.278293701171875,-0.11056652665138245,0.02260199747979641,1.4666863679885864
1773146511068967200,7.28696728515625,-0.11239911615848541,0.021991131827235222,1.4825688600540161
1773146511077640700,7.295640625,-0.1130099818110466,-0.029932374134659767,1.4825688600540161
1773146511086314200,7.304314208984375,-0.11667517572641373,-0.12705987691879272,1.464242935180664
1773146511094987800,7.31298779296875,-0.12461641430854797,-0.2657261788845062,1.4227041006088257
1773146511103661300,7.321661376953125,-0.15821397304534912,-0.4367683231830597,1.3487894535064697
1773146511112334800,7.3303349609375,-0.2162461280822754,-0.6194168925285339,1.2357794046401978
1773146511121008400,7.33900830078125,-0.268169641494751,-0.7812960743904114,1.092226266860962
1773146511129682000,7.347681884765625,-0.29504770040512085,-0.8918625712394714,0.9285144805908203
1773146511138355500,7.35635546875,-0.29565855860710144,-0.9407317638397217,0.7476984858512878
1773146511147029000,7.365029052734375,-0.26939135789871216,-0.9376774430274963,0.5540543794631958
1773146511155702500,7.37370263671875,-0.2559523284435272,-0.9107993841171265,0.3585776388645172
1773146511164376000,7.3823759765625,-0.3066541254520416,-0.8851430416107178,0.18570289015769958
1773146511173049600,7.391049560546875,-0.3964512348175049,-0.850934624671936,0.036651886999607086
1773146511181723100,7.39972314453125,-0.48563748598098755,-0.8008437156677246,-0.06780599057674408
1773146511190396700,7.408396728515625,-0.5662716627120972,-0.7690787315368652,-0.13194678723812103
1773146511199070200,7.4170703125,-0.627968966960907,-0.7367029190063477,-0.15088360011577606
1773146511207743700,7.42574365234375,-0.6579013466835022,-0.6945532560348511,-0.13500112295150757
1773146511216417300,7.434417236328125,-0.6682860851287842,-0.7183769941329956,-0.06841685622930527
1773146511225090800,7.4430908203125,-0.667064368724823,-0.8484911918640137,0.04886918142437935
1773146511233764400,7.451764404296875,-0.667064368724823,-0.953559935092926,0.19425499439239502
1773146511242438000,7.46043798828125,-0.6493492722511292,-0.9749401807785034,0.33658650517463684
1773146511251111400,7.469111328125,-0.6004800796508789,-0.998763918876648,0.4783071279525757
1773146511259785000,7.477784912109375,-0.546113133430481,-1.0189224481582642,0.5852084755897522
1773146511268458500,7.48645849609375,-0.49663305282592773,-0.9871574640274048,0.6414080262184143
1773146511277132000,7.495132080078125,-0.4324922561645508,-0.9211840629577637,0.6701186895370483
1773146511285805600,7.5038056640625,-0.3488037884235382,-0.8484911918640137,0.6579013466835022
1773146511294479000,7.51247900390625,-0.26389357447624207,-0.8191696405410767,0.6157516837120056
1773146511303152600,7.521152587890625,-0.19853104650974274,-0.8167262077331543,0.546113133430481
1773146511311826200,7.529826171875,-0.1539379209280014,-0.8265000581741333,0.46547895669937134
1773146511320499700,7.538499755859375,-0.12095122784376144,-0.8387173414230347,0.3897317349910736
1773146511329173200,7.54717333984375,-0.09590577334165573,-0.8393282294273376,0.33047783374786377
1773146511337846800,7.5558466796875,-0.07635809481143951,-0.8222240209579468,0.2828303873538971
1773146511346520300,7.564520263671875,-0.06475166976451874,-0.7910698652267456,0.24006985127925873
1773146511355193900,7.57319384765625,-0.05864302068948746,-0.750141978263855,0.1997527778148651
1773146511363867400,7.581867431640625,-0.050090912729501724,-0.7153226733207703,0.16249002516269684
1773146511372541000,7.590541015625,-0.04153880476951599,-0.6841685771942139,0.12644900381565094
1773146511381214500,7.59921435546875,-0.03543015569448471,-0.7195987105369568,0.1130099818110466
1773146511389888000,7.607887939453125,-0.028099779039621353,-0.6359102129936218,0.07147117704153061
1773146511398561500,7.6165615234375,-0.0030543238390237093,-0.5925388336181641,0.031154103577136993
1773146511407235000,7.625235107421875,0.01954767294228077,-0.5705476999282837,0.010384701192378998
1773146511415908600,7.63390869140625,0.046425722539424896,-0.5503891706466675,-0.000610864779446274
1773146511424582100,7.64258203125,0.0769689604640007,-0.5296197533607483,-0.007941242307424545
1773146511433255700,7.651255615234375,0.1081230640411377,-0.5137372612953186,-0.01893680728971958
1773146511441929200,7.65992919921875,0.13927717506885529,-0.4990765154361725,-0.04153880476951599
1773146511450602800,7.668602783203125,0.17348559200763702,-0.4868592321872711,-0.07757982611656189
1773146511459276300,7.6772763671875,0.20708316564559937,-0.4838049113750458,-0.12095122784376144
1773146511467949800,7.68594970703125,0.23823726177215576,-0.48502662777900696,-0.16676609218120575
1773146511476623400,7.694623291015625,0.2657261788845062,-0.5015199780464172,-0.21135921776294708
1773146511485297000,7.703296875,0.29138249158859253,-0.5302306413650513,-0.2510654330253601
1773146511493970400,7.711970458984375,0.31520622968673706,-0.5711585879325867,-0.2822195291519165
1773146511502644000,7.72064404296875,0.3396408259868622,-0.6230821013450623,-0.3066541254520416
1773146511511317500,7.7293173828125,0.3646862804889679,-0.6811142563819885,-0.32681265473365784
1773146511519991000,7.737990966796875,0.389120876789093,-0.7360920310020447,-0.3451386094093323
1773146511528664600,7.74666455078125,0.4068359434604645,-0.7751874327659607,-0.36163195967674255
1773146511537338000,7.755338134765625,0.4159989058971405,-0.7867938280105591,-0.3707949221134186
1773146511546011600,7.76401171875,0.411722868680954,-0.7660244107246399,-0.3689623177051544
1773146511554685200,7.772685302734375,0.3952295184135437,-0.7177661061286926,-0.35124725103378296
1773146511563358700,7.781358642578125,0.370184063911438,-0.6621774435043335,-0.32070401310920715
1773146511572032300,7.7900322265625,0.33719736337661743,-0.6084213256835938,-0.2834412455558777
1773146511580705800,7.798705810546875,0.30054548382759094,-0.565049946308136,-0.25473061203956604
1773146511589379300,7.80737939453125,0.26450446248054504,-0.5656607747077942,-0.24251331388950348
1773146511598052900,7.816052978515625,0.23335035145282745,-0.6126973628997803,-0.24923282861709595
1773146511606726400,7.824726318359375,0.19364413619041443,-0.6676751971244812,-0.2632827162742615
1773146511615400000,7.83339990234375,0.1441640853881836,-0.6829468011856079,-0.27427828311920166
1773146511624073500,7.842073486328125,0.10690133273601532,-0.6640099883079529,-0.2730565667152405
1773146511632747000,7.8507470703125,0.07757982611656189,-0.637742817401886,-0.2669478952884674
1773146511641420500,7.859420654296875,0.03481929376721382,-0.5986474752426147,-0.2577849328517914
1773146511650094000,7.868093994140625,-0.06963858753442764,-0.43004879355430603,-0.2107483446598053
1773146511658767600,7.876767578125,-0.22357651591300964,-0.06780599057674408,-0.15271618962287903
1773146511667441200,7.885441162109375,-0.3329212963581085,0.370184063911438,-0.14294235408306122
1773146511676114700,7.89411474609375,-0.3964512348175049,0.6823359727859497,-0.18142683804035187
1773146511684788200,7.902788330078125,-0.4630354940891266,0.6517927050590515,-0.31581708788871765
1773146511693461800,7.911461669921875,-0.4929678738117218,0.3591884970664978,-0.5522217750549316
1773146511702135600,7.920135498046875,-0.5070177912712097,0.0256563201546669,-0.7843503952026367
1773146511710808800,7.928808837890625,-0.49113526940345764,-0.18387030065059662,-0.9395100474357605
1773146511719482400,7.937482421875,-0.46425724029541016,-0.26939135789871216,-0.9676098227500916
1773146511728156000,7.946156005859375,-0.45448338985443115,-0.3072649836540222,-0.8594867587089539
1773146511736829400,7.954829345703125,-0.4416552484035492,-0.2620609998703003,-0.6860011219978333
1773146511745503000,7.9635029296875,-0.39828383922576904,-0.13561198115348816,-0.48991355299949646
1773146511754176500,7.972176513671875,-0.3249800503253937,-0.02260199747979641,-0.29016077518463135
1773146511762850300,7.980850341796875,-0.24006985127925873,0.01282816007733345,-0.12156209349632263
1773146511771523800,7.98952392578125,-0.13927717506885529,-0.014049889519810677,-0.029932374134659767
1773146511780197400,7.998197265625,-0.03787361457943916,-0.07757982611656189,-0.024434590712189674
1773146511788871000,8.006870849609374,0.04764745384454727,-0.14538581669330597,-0.06291907280683517
1773146511797544400,8.01554443359375,0.12522727251052856,-0.19425499439239502,-0.1081230640411377
1773146511806218000,8.024218017578125,0.19242240488529205,-0.21685700118541718,-0.143553227186203
1773146511814891500,8.0328916015625,0.2510654330253601,-0.21991132199764252,-0.16615521907806396
1773146511823565000,8.04156494140625,0.277332603931427,-0.235793799161911,-0.19608759880065918
1773146511832238600,8.050238525390625,0.27488914132118225,-0.27488914132118225,-0.23518294095993042
1773146511840912100,8.058912109375,0.22968515753746033,-0.3597993552684784,-0.28527384996414185
1773146511849585700,8.067585693359375,0.1282816082239151,-0.4868592321872711,-0.347582072019577
1773146511858259200,8.07625927734375,0.008552107028663158,-0.6200277805328369,-0.42088583111763
1773146511866932700,8.0849326171875,-0.12644900381565094,-0.7226530313491821,-0.49113526940345764
1773146511875606300,8.093606201171875,-0.28038692474365234,-0.7825177907943726,-0.5503891706466675
1773146511884279800,8.10227978515625,-0.40927940607070923,-0.8124501705169678,-0.6084213256835938
1773146511892953300,8.110953369140624,-0.4874700903892517,-0.8118392825126648,-0.6701186895370483
1773146511901627000,8.119626953125,-0.5192350745201111,-0.7202095985412598,-0.7153226733207703
1773146511910300400,8.128300537109375,-0.546113133430481,-0.5955931544303894,-0.7263182401657104
1773146511918974000,8.136973876953125,-0.5393936038017273,-0.48930269479751587,-0.6872228980064392
1773146511927647500,8.1456474609375,-0.4770853817462921,-0.47525280714035034,-0.6194168925285339
1773146511936321000,8.154321044921875,-0.3836230933666229,-0.5204567909240723,-0.5516108870506287
1773146511944994600,8.16299462890625,-0.25900667905807495,-0.564439058303833,-0.48502662777900696
1773146511953668000,8.171668212890625,-0.12583814561367035,-0.5839866995811462,-0.42821621894836426
1773146511962341600,8.180341552734374,0.009773836471140385,-0.5534434914588928,-0.3836230933666229
1773146511971015200,8.18901513671875,0.12522727251052856,-0.4770853817462921,-0.3384190797805786
1773146511979688700,8.197688720703125,0.20708316564559937,-0.35796675086021423,-0.287106454372406
1773146511988362200,8.2063623046875,0.24373504519462585,-0.20952661335468292,-0.23762640357017517
1773146511997035800,8.215035888671874,0.25045454502105713,-0.03298669680953026,-0.1948658674955368
1773146512005709300,8.223709228515625,0.24373504519462585,0.14538581669330597,-0.1441640853881836
1773146512014382800,8.2323828125,0.2260199636220932,0.2968802750110626,-0.0824667438864708
1773146512023056400,8.241056396484375,0.20158538222312927,0.41844236850738525,-0.015271619893610477
1773146512031730000,8.24972998046875,0.17898337543010712,0.5125155448913574,0.04276053607463837
1773146512040403500,8.258403564453126,0.15699224174022675,0.5784889459609985,0.08063415437936783
1773146512049077000,8.267076904296875,0.14294235408306122,0.6163625717163086,0.10140355676412582
1773146512057750500,8.27575048828125,0.14294235408306122,0.6389645338058472,0.10323614627122879
1773146512066424000,8.284424072265624,0.1637117564678192,0.6493492722511292,0.08857539296150208
1773146512075097600,8.29309765625,0.2162461280822754,0.6212494969367981,0.06719512492418289
1773146512083771100,8.301771240234375,0.2889390289783478,0.5925388336181641,0.043982263654470444
1773146512092444700,8.310444580078125,0.37323838472366333,0.5571087002754211,0.024434590712189674
1773146512101118200,8.3191181640625,0.4410443603992462,0.5583304166793823,-0.000610864779446274
1773146512109791700,8.327791748046875,0.4929678738117218,0.5845975875854492,-0.036651886999607086
1773146512118465300,8.33646533203125,0.5283980369567871,0.6304124593734741,-0.08124501258134842
1773146512127138800,8.345138916015625,0.546113133430481,0.6902772188186646,-0.1282816082239151
1773146512135812400,8.353812255859374,0.5491674542427063,0.7641918659210205,-0.1740964651107788
1773146512144486000,8.36248583984375,0.5418370366096497,0.8374956250190735,-0.20830489695072174
1773146512153159400,8.371159423828125,0.5259546041488647,0.9016364216804504,-0.22418737411499023
1773146512161833000,8.3798330078125,0.5039634704589844,0.953559935092926,-0.22663083672523499
1773146512170506500,8.388506591796874,0.4862483739852905,0.9908226728439331,-0.21258094906806946
1773146512179180000,8.397179931640625,0.46486809849739075,1.0238093137741089,-0.1899789422750473
1773146512187853600,8.405853515625,0.43371400237083435,1.0622938871383667,-0.16554436087608337
1773146512196527000,8.414527099609375,0.3958403766155243,1.1050543785095215,-0.14477495849132538
1773146512205200600,8.42320068359375,0.3439168632030487,1.1954623460769653,-0.1282816082239151
1773146512213874200,8.431874267578126,0.28405213356018066,1.2626575231552124,-0.1331685185432434
1773146512222547700,8.440547607421875,0.2626718580722809,1.227838158607483,-0.1380554437637329
1773146512231221200,8.44922119140625,0.2254091054201126,1.2534945011138916,-0.14172062277793884
1773146512239894800,8.457894775390624,0.17531819641590118,1.2919789552688599,-0.16615521907806396
1773146512248568300,8.466568359375,0.12095122784376144,1.321911334991455,-0.20341797173023224
1773146512257241900,8.475241943359375,0.06719512492418289,1.3402373790740967,-0.2406807243824005
1773146512265915400,8.483915283203125,0.02871064469218254,1.3225222826004028,-0.26450446248054504
1773146512274589000,8.4925888671875,0.003665188793092966,1.2565488815307617,-0.27488914132118225
1773146512283262500,8.501262451171876,-0.004276053514331579,1.1606431007385254,-0.2718348205089569
1773146512291936000,8.50993603515625,0.0054977829568088055,1.064737319946289,-0.25411975383758545
1773146512300609500,8.518609619140625,0.03237583488225937,0.9944878816604614,-0.22357651591300964
1773146512309283000,8.527282958984374,0.06414080411195755,0.924849271774292,-0.18814635276794434
1773146512317956600,8.53595654296875,0.10751219838857651,0.8313869833946228,-0.15699224174022675
1773146512326630100,8.544630126953125,0.15271618962287903,0.7165443897247314,-0.11606431007385254
1773146512335303700,8.5533037109375,0.17592905461788177,0.6230821013450623,-0.07269290834665298
1773146512343977200,8.561977294921874,0.164322629570961,0.6181951761245728,-0.03481929376721382
1773146512352650800,8.570650634765625,0.16615521907806396,0.4776962697505951,0.015271619893610477
1773146512361324300,8.57932421875,0.19364413619041443,0.3042106628417969,0.10506874322891235
1773146512369997800,8.587997802734375,0.22846342623233795,0.24923282861709595,0.21319180727005005
1773146512378671400,8.59667138671875,0.2993237376213074,0.20830489695072174,0.3402516841888428
1773146512387345000,8.605344970703126,0.3915643095970154,0.16126830875873566,0.47525280714035034
1773146512396018700,8.614018798828125,0.47952884435653687,0.09896009415388107,0.5907062292098999
1773146512404692200,8.622692138671875,0.5601630210876465,0.04459312930703163,0.6847794055938721
1773146512413365500,8.631365478515624,0.627968966960907,0.001221729558892548,0.7635809779167175
1773146512422039000,8.6400390625,0.6872228980064392,-0.05864302068948746,0.8344413042068481
1773146512430712600,8.648712646484375,0.7330377101898193,-0.13255766034126282,0.9089667797088623
1773146512439386000,8.65738623046875,0.7544180154800415,-0.16615521907806396,0.9792162179946899
1773146512448059600,8.6660595703125,0.7428115606307983,-0.11728604137897491,1.0421353578567505
1773146512456733200,8.674733154296876,0.6963858604431152,-0.003665188793092966,1.084285020828247
1773146512465406700,8.68340673828125,0.62857985496521,0.12705987691879272,1.1050543785095215
1773146512474080500,8.69208056640625,0.5491674542427063,0.2614501118659973,1.1142174005508423
1773146512482754000,8.700754150390624,0.4557051360607147,0.3952295184135437,1.1136064529418945
1773146512491427600,8.709427490234376,0.35674503445625305,0.5112938284873962,1.1062761545181274
1773146512500101000,8.71810107421875,0.2614501118659973,0.6078104376792908,1.0891718864440918
1773146512508774700,8.726774658203125,0.18387030065059662,0.6884446144104004,1.063515543937683
1773146512517448200,8.7354482421875,0.14477495849132538,0.740368127822876,1.0439679622650146
1773146512526121700,8.744121826171876,0.1588248461484909,0.7483093738555908,1.046411395072937
1773146512534795300,8.752795166015625,0.21380266547203064,0.7391464114189148,1.0787872076034546
1773146512543468800,8.76146875,0.27000224590301514,0.6933315396308899,1.1172716617584229
1773146512552142300,8.770142333984374,0.2828303873538971,0.6267472505569458,1.120326042175293
1773146512560815900,8.77881591796875,0.22296564280986786,0.6010909676551819,1.0720677375793457
1773146512569489400,8.787489501953125,0.11911863088607788,0.6352993845939636,0.9743293523788452
1773146512578163000,8.796162841796875,0.024434590712189674,0.7263182401657104,0.8381064534187317
1773146512586836500,8.80483642578125,-0.05742128938436508,0.8588758707046509,0.6927206516265869
1773146512595510000,8.813510009765626,-0.13927717506885529,0.9975422024726868,0.564439058303833
1773146512604183600,8.82218359375,-0.23884813487529755,1.0806198120117188,0.48013970255851746
1773146512612857000,8.830857177734375,-0.34086254239082336,1.0201442241668701,0.43982264399528503
1773146512621530600,8.839530517578124,-0.4153880476951599,0.8203914165496826,0.4685332775115967
1773146512630204200,8.8482041015625,-0.5137372612953186,0.5247328281402588,0.5907062292098999
1773146512638877700,8.856877685546875,-0.6163625717163086,0.2211330533027649,0.7226530313491821
1773146512647551200,8.86555126953125,-0.6633991599082947,0.04459312930703163,0.8460476994514465
1773146512656224800,8.874224853515624,-0.6701186895370483,0.046425722539424896,0.9358448386192322
1773146512664898300,8.882898193359376,-0.6542361974716187,0.16187916696071625,0.9920443892478943
1773146512673571800,8.89157177734375,-0.6456840634346008,0.3500255048274994,1.000596523284912
1773146512682245400,8.900245361328125,-0.6640099883079529,0.5619956254959106,0.9327905178070068
1773146512690919000,8.9089189453125,-0.6976075768470764,0.7776308655738831,0.7904590368270874
1773146512699592400,8.917592529296876,-0.7195987105369568,0.9706641435623169,0.5821541547775269
1773146512708266000,8.926265869140625,-0.7116574645042419,1.0427461862564087,0.3555232882499695
1773146512716939500,8.934939453125,-0.6847794055938721,0.9712749719619751,0.1594357043504715
1773146512725613000,8.943613037109374,-0.6585122346878052,0.925460159778595,-0.0030543238390237093
1773146512734286600,8.95228662109375,-0.6169734001159668,0.9498947262763977,-0.1441640853881836
1773146512742960000,8.960960205078125,-0.5662716627120972,0.9645555019378662,-0.21685700118541718
1773146512751633700,8.969633544921875,-0.5186241865158081,0.9718858599662781,-0.20402882993221283
1773146512760307200,8.97830712890625,-0.4618137776851654,0.8930842876434326,-0.12583814561367035
1773146512768980700,8.986980712890626,-0.3897317349910736,0.7904590368270874,-0.05253437161445618
1773146512777654300,8.995654296875,-0.28527384996414185,0.7867938280105591,-0.0977383628487587
1773146512786327800,9.004327880859375,-0.16554436087608337,0.7544180154800415,-0.19242240488529205
1773146512795001300,9.01300146484375,-0.06414080411195755,0.7043271064758301,-0.25961753726005554
1773146512803675000,9.0216748046875,0.002443459117785096,0.6615665555000305,-0.2877173125743866
1773146512812348400,9.030348388671875,0.036651886999607086,0.5577195286750793,-0.2926042377948761
1773146512821022000,9.03902197265625,0.03481929376721382,0.47586366534233093,-0.287106454372406
1773146512829695500,9.047695556640624,0.036651886999607086,0.6218603253364563,-0.36651885509490967
1773146512838369000,9.056369140625,0.07024945318698883,0.6316341757774353,-0.43860089778900146
1773146512847042600,9.06504248046875,0.09101885557174683,0.5766563415527344,-0.5082395076751709
1773146512855716000,9.073716064453125,0.11972949653863907,0.5222893953323364,-0.5962040424346924
1773146512864389600,9.0823896484375,0.16065743565559387,0.4612029194831848,-0.6878337264060974
1773146512873063400,9.0910634765625,0.20219624042510986,0.4105011224746704,-0.7519745230674744
1773146512881736700,9.09973681640625,0.24251331388950348,0.3970620930194855,-0.7843503952026367
1773146512890410200,9.10841015625,0.277332603931427,0.4159989058971405,-0.7965676784515381
1773146512899083800,9.117083740234374,0.2993237376213074,0.4667007029056549,-0.794124186038971
1773146512907757300,9.12575732421875,0.3072649836540222,0.5473348498344421,-0.767857015132904
1773146512916431000,9.13443115234375,0.29993459582328796,0.6517927050590515,-0.6921098232269287
1773146512925104600,9.143104736328125,0.2718348205089569,0.758083164691925,-0.5503891706466675
1773146512933778200,9.151778076171874,0.2107483446598053,0.8686497211456299,-0.35735589265823364
1773146512942451700,9.16045166015625,0.12217295914888382,0.9938769936561584,-0.17776164412498474
1773146512951125200,9.169125244140625,0.02932151034474373,1.1307107210159302,-0.053756099194288254
1773146512959798800,9.177798828125,-0.0818558782339096,1.2681553363800049,0.036651886999607086
1773146512968472300,9.186472412109374,-0.20463970303535461,1.37078058719635,0.1594357043504715
1773146512977145900,9.195145751953126,-0.3035998046398163,1.434921383857727,0.2974911332130432
1773146512985819400,9.2038193359375,-0.3500255048274994,1.4593559503555298,0.3439168632030487
1773146512994493000,9.212492919921875,-0.35613417625427246,1.3542872667312622,0.24495677649974823
1773146513003166500,9.22116650390625,-0.3756818473339081,1.045189619064331,0.06719512492418289
1773146513011840000,9.229840087890626,-0.4050033390522003,0.66645348072052,-0.13622283935546875
1773146513020513500,9.238513427734375,-0.3744601011276245,0.4257727563381195,-0.2712239623069763
1773146513029187000,9.24718701171875,-0.2974911332130432,0.36712974309921265,-0.2522871494293213
1773146513037860600,9.255860595703124,-0.22968515753746033,0.4361574649810791,-0.09590577334165573
1773146513046534100,9.2645341796875,-0.18387030065059662,0.555276095867157,0.12400554865598679
1773146513055207700,9.273207763671875,-0.14477495849132538,0.6603448390960693,0.29077163338661194
1773146513063881200,9.281881103515625,-0.1233946830034256,0.6841685771942139,0.3640754222869873
1773146513072554800,9.2905546875,-0.1130099818110466,0.6212494969367981,0.3426951467990875
1773146513081228300,9.299228271484376,-0.1282816082239151,0.5051851868629456,0.2528980076313019
1773146513089901800,9.30790185546875,-0.16859868168830872,0.3744601011276245,0.12095122784376144
1773146513098575400,9.316575439453125,-0.20891575515270233,0.27427828311920166,-0.020769402384757996
1773146513107249000,9.325248779296874,-0.23457208275794983,0.20830489695072174,-0.15027274191379547
1773146513115922400,9.33392236328125,-0.23273947834968567,0.16004657745361328,-0.2461785078048706
1773146513124596000,9.342595947265625,-0.21807873249053955,0.1282816082239151,-0.30482152104377747
1773146513133269500,9.35126953125,-0.20280711352825165,0.10690133273601532,-0.3390299379825592
1773146513141943000,9.359943115234374,-0.18203771114349365,0.10079269111156464,-0.3555232882499695
1773146513150616600,9.368616455078126,-0.14599667489528656,0.10629047453403473,-0.3640754222869873
1773146513159290000,9.3772900390625,-0.09896009415388107,0.11362084746360779,-0.3744601011276245
1773146513167963600,9.385963623046875,-0.04581485688686371,0.14660754799842834,-0.3848448097705841
1773146513176637200,9.39463720703125,0.006719512399286032,0.21258094906806946,-0.3897317349910736
1773146513185310700,9.403310791015626,0.05253437161445618,0.30604326725006104,-0.39217519760131836
1773146513193984300,9.411984375,0.0873536616563797,0.40744680166244507,-0.39767298102378845
1773146513202657800,9.42065771484375,0.11056652665138245,0.5021308660507202,-0.40255987644195557
1773146513211331300,9.429331298828124,0.11972949653863907,0.5815432667732239,-0.4062250852584839
1773146513220004900,9.4380048828125,0.12644900381565094,0.6407971382141113,-0.40744680166244507
1773146513228678400,9.446678466796875,0.13133592903614044,0.6847794055938721,-0.4050033390522003
1773146513237352000,9.45535205078125,0.14294235408306122,0.7250964641571045,-0.4013381600379944
1773146513246025500,9.464025390625,0.1490510106086731,0.7916807532310486,-0.40317076444625854
1773146513254699300,9.47269921875,0.16126830875873566,0.8503237962722778,-0.40744680166244507
1773146513263372800,9.481372802734375,0.17898337543010712,0.9022472500801086,-0.3995055556297302
1773146513272046300,9.49004638671875,0.18203771114349365,1.0054833889007568,-0.4001164436340332
1773146513280720000,9.498719970703124,0.1905898153781891,1.0916153192520142,-0.4147771894931793
1773146513289393400,9.507393310546876,0.22357651591300964,1.1172716617584229,-0.4159989058971405
1773146513298067000,9.51606689453125,0.2657261788845062,1.1392627954483032,-0.4068359434604645
1773146513306740500,9.524740478515625,0.31520622968673706,1.1557561159133911,-0.38179048895835876
1773146513315414000,9.5334140625,0.36712974309921265,1.1856884956359863,-0.3481929302215576
1773146513324087600,9.542087646484376,0.40744680166244507,1.2382229566574097,-0.31520622968673706
1773146513332761000,9.550760986328125,0.43004879355430603,1.2889246940612793,-0.28588470816612244
1773146513341434600,9.5594345703125,0.4404335021972656,1.3225222826004028,-0.2675587832927704
1773146513350108200,9.568108154296874,0.4312705397605896,1.3451242446899414,-0.277332603931427
1773146513358781700,9.57678173828125,0.4098902642726898,1.3732240200042725,-0.318871408700943
1773146513367455200,9.585455322265625,0.3915643095970154,1.4196497201919556,-0.37690356373786926
1773146513376128800,9.594128662109375,0.3848448097705841,1.4917317628860474,-0.4373791813850403
1773146513384802300,9.60280224609375,0.39400777220726013,1.5894701480865479,-0.49602219462394714
1773146513393475800,9.611475830078126,0.4159989058971405,1.6927063465118408,-0.5375609993934631
1773146513402149400,9.6201494140625,0.44348782300949097,1.750738501548767,-0.5412262082099915
1773146513410823000,9.628822998046875,0.49480047821998596,1.740964651107788,-0.49602219462394714
1773146513419496400,9.637496337890624,0.5381718873977661,1.6810998916625977,-0.4153880476951599
1773146513428170000,9.646169921875,0.5613847374916077,1.620624303817749,-0.3194822669029236
1773146513436843500,9.654843505859375,0.5717694163322449,1.5650355815887451,-0.2364046722650528
1773146513445517000,9.66351708984375,0.5687150955200195,1.517388105392456,-0.18325942754745483
1773146513454190600,9.672190673828124,0.5528326034545898,1.4721840620040894,-0.16126830875873566
1773146513462864100,9.680864013671876,0.5302306413650513,1.4214823246002197,-0.1637117564678192
1773146513471537700,9.68953759765625,0.5076286196708679,1.388495683670044,-0.17837251722812653
1773146513480211200,9.698211181640625,0.49052441120147705,1.3836086988449097,-0.18814635276794434
1773146513488884700,9.706884765625,0.48502662777900696,1.4080432653427124,-0.1747073233127594
1773146513497558300,9.715558349609376,0.4917461574077606,1.433699607849121,-0.1288924664258957
1773146513506231800,9.724231689453125,0.5051851868629456,1.4471386671066284,-0.05925388261675835
1773146513514905300,9.7329052734375,0.5198459029197693,1.4489712715148926,0.01954767294228077
1773146513523579000,9.741578857421874,0.5241219997406006,1.4367539882659912,0.10018182545900345
1773146513532252400,9.75025244140625,0.4978547990322113,1.4092650413513184,0.17348559200763702
1773146513540926000,9.758926025390625,0.5070177912712097,1.3249657154083252,0.23762640357017517
1773146513549599500,9.767599609375,0.5149590373039246,1.2070688009262085,0.2877173125743866
1773146513558273000,9.77627294921875,0.4764745235443115,1.1490366458892822,0.3029889166355133
1773146513566946800,9.78494677734375,0.38667741417884827,1.117882490158081,0.2669478952884674
1773146513575620000,9.7936201171875,0.21135921776294708,1.1050543785095215,0.20280711352825165
1773146513584293600,9.802293701171875,0.020769402384757996,1.0665699243545532,0.12767073512077332
1773146513592967400,9.810967529296875,-0.24495677649974823,0.9841031432151794,0.10445787757635117
1773146513601641000,9.819640869140626,-0.43310311436653137,0.9779945015907288,0.18387030065059662
1773146513610314500,9.828314453125,-0.5125155448913574,1.061682939529419,0.27488914132118225
1773146513618987800,9.83698779296875,-0.5577195286750793,1.1478148698806763,0.28466299176216125
1773146513627661600,9.84566162109375,-0.6102539300918579,1.1624757051467896,0.1899789422750473
1773146513636334800,9.8543349609375,-0.6743947267532349,1.1209368705749512,0.020769402384757996
1773146513645008600,9.863008544921875,-0.720820426940918,1.0396918058395386,-0.17104214429855347
1773146513653682200,9.87168212890625,-0.7483093738555908,0.9217949509620667,-0.34208428859710693
1773146513662355700,9.880355712890625,-0.7599157691001892,0.8148936033248901,-0.4630354940891266
1773146513671029200,9.889029296875,-0.7422007322311401,0.7538071274757385,-0.5143481492996216
1773146513679702800,9.897702880859375,-0.6921098232269287,0.729983389377594,-0.49541133642196655
1773146513688376300,9.906376220703125,-0.6212494969367981,0.7519745230674744,-0.4379900395870209
1773146513697049900,9.9150498046875,-0.5534434914588928,0.8350521326065063,-0.36712974309921265
1773146513705723400,9.923723388671876,-0.5271763205528259,0.9468404054641724,-0.29504770040512085
1773146513714397000,9.93239697265625,-0.5302306413650513,1.0195332765579224,-0.235793799161911
1773146513723070500,9.941070556640625,-0.5131264328956604,1.0024291276931763,-0.23029601573944092
1773146513731744000,9.949743896484375,-0.4679224193096161,0.9761618971824646,-0.2370155304670334
1773146513740417500,9.95841748046875,-0.4105011224746704,0.9291253089904785,-0.22235478460788727
1773146513749091000,9.967091064453125,-0.3481929302215576,0.8484911918640137,-0.18570289015769958
1773146513757764600,9.9757646484375,-0.26939135789871216,0.758694052696228,-0.1490510106086731
1773146513766438100,9.984438232421875,-0.17531819641590118,0.6798924803733826,-0.13072505593299866
1773146513775111700,9.993111572265626,-0.07880155742168427,0.638353705406189,-0.13133592903614044
1773146513783785200,10.00178515625,0.008552107028663158,0.6401863098144531,-0.13744457066059113
1773146513792458800,10.010458740234375,0.0769689604640007,0.6786707639694214,-0.1337793916463852
1773146513801132300,10.01913232421875,0.12583814561367035,0.7354812026023865,-0.10079269111156464
1773146513809805800,10.027805908203124,0.16187916696071625,0.8106175661087036,-0.03848448023200035
1773146513818479400,10.036479248046875,0.2009745091199875,0.8943060636520386,0.03481929376721382
1773146513827153000,10.04515283203125,0.235793799161911,0.9816597104072571,0.11362084746360779
1773146513835826400,10.053826416015625,0.2675587832927704,1.0415244102478027,0.18570289015769958
1773146513844500000,10.0625,0.29504770040512085,1.0696241855621338,0.24740023910999298
1773146513853173500,10.071173583984375,0.3182605504989624,1.0751219987869263,0.2987128794193268
1773146513861847000,10.079846923828125,0.3396408259868622,1.0757328271865845,0.34086254239082336
1773146513870520600,10.0885205078125,0.3585776388645172,1.0757328271865845,0.3799578845500946
1773146513879194000,10.097194091796876,0.38301220536231995,1.065959095954895,0.42455101013183594
1773146513887867600,10.10586767578125,0.4098902642726898,1.0439679622650146,0.4667007029056549
1773146513896541200,10.114541259765625,0.44348782300949097,1.0152572393417358,0.4972439408302307
1773146513905214700,10.123214599609375,0.47464191913604736,0.9853248596191406,0.5064069032669067
1773146513913888300,10.13188818359375,0.5015199780464172,0.9547816514968872,0.4990765154361725
1773146513922561800,10.140561767578125,0.5241219997406006,0.9297361969947815,0.4789179861545563
1773146513931235300,10.1492353515625,0.536339282989502,0.9071341753005981,0.4508182108402252
1773146513939908900,10.157908935546875,0.5351175665855408,0.8918625712394714,0.4196641147136688
1773146513948582400,10.16658251953125,0.516791582107544,0.8875865340232849,0.38301220536231995
1773146513957256000,10.175255859375,0.4770853817462921,0.9016364216804504,0.3384190797805786
1773146513965929500,10.183929443359375,0.4221075773239136,0.925460159778595,0.28405213356018066
1773146513974603000,10.19260302734375,0.36224281787872314,0.953559935092926,0.21991132199764252
1773146513983276800,10.20127685546875,0.3023780584335327,0.9798271059989929,0.15149445831775665
1773146513991950000,10.2099501953125,0.24740023910999298,1.0042617321014404,0.08857539296150208
1773146514000623900,10.218623779296875,0.20280711352825165,1.0274745225906372,0.033597562462091446
1773146514009297200,10.227297119140625,0.17043127119541168,1.0415244102478027,-0.010384701192378998
1773146514017970700,10.235970703125,0.1594357043504715,1.033583164215088,-0.03848448023200035
1773146514026644200,10.244644287109375,0.16615521907806396,1.007315993309021,-0.049480047076940536
1773146514035318000,10.253318115234375,0.1844811588525772,0.9847140312194824,-0.047036588191986084
1773146514043991600,10.261991455078125,0.2107483446598053,0.9706641435623169,-0.0360410213470459
1773146514052665000,10.2706650390625,0.23823726177215576,0.9669989347457886,-0.023823726922273636
1773146514061338600,10.279338623046876,0.26389357447624207,0.9694424271583557,-0.008552107028663158
1773146514070012200,10.28801220703125,0.2889390289783478,0.9676098227500916,0.006719512399286032
1773146514078685700,10.296685791015625,0.3078758418560028,0.972496747970581,0.020769402384757996
1773146514087359200,10.305359130859374,0.3176496922969818,0.9731075763702393,0.028099779039621353
1773146514096032800,10.31403271484375,0.32192572951316833,0.9651663303375244,0.034208428114652634
1773146514104706300,10.322706298828125,0.32131487131118774,0.9498947262763977,0.04153880476951599
1773146514113379800,10.3313798828125,0.3133736252784729,0.9321796298027039,0.047036588191986084
1773146514122053400,10.340053466796874,0.30054548382759094,0.9114102721214294,0.046425722539424896
1773146514130727000,10.348726806640625,0.2822195291519165,0.8894191384315491,0.034208428114652634
1773146514139400400,10.357400390625,0.2571740746498108,0.8631519079208374,0.01588248461484909
1773146514148074000,10.366073974609375,0.20830489695072174,0.7800742983818054,0.001221729558892548
1773146514156747500,10.37474755859375,0.16615521907806396,0.7055488228797913,-0.003665188793092966
1773146514165421000,10.383421142578126,0.13683371245861053,0.657290518283844,-0.010995565913617611
1773146514174094600,10.392094482421875,0.1331685185432434,0.8100066781044006,-0.09651663154363632
1773146514182768000,10.40076806640625,0.11728604137897491,0.7922916412353516,-0.16676609218120575
1773146514191441700,10.409441650390624,0.10384701192378998,0.7812960743904114,-0.18387030065059662
1773146514200115200,10.418115234375,0.09407317638397217,0.7929024696350098,-0.21685700118541718
1773146514208788700,10.426788818359375,0.09101885557174683,0.7507528066635132,-0.2052505612373352
1773146514217462300,10.435462158203125,0.07880155742168427,0.6646208763122559,-0.18264856934547424
1773146514226135800,10.4441357421875,0.07086031138896942,0.6243038177490234,-0.1905898153781891
1773146514234809300,10.452809326171876,0.06475166976451874,0.5894845128059387,-0.21258094906806946
1773146514243483000,10.46148291015625,0.06475166976451874,0.5668824911117554,-0.2406807243824005
1773146514252156400,10.470156494140625,0.06902772188186646,0.5467239618301392,-0.26511532068252563
1773146514260830000,10.478829833984374,0.07269290834665298,0.5351175665855408,-0.28038692474365234
1773146514269503500,10.48750341796875,0.0720820426940918,0.5338957905769348,-0.29077163338661194
1773146514278177000,10.496177001953125,0.06230820715427399,0.5241219997406006,-0.2987128794193268
1773146514286850600,10.5048505859375,0.04886918142437935,0.49541133642196655,-0.29504770040512085
1773146514295524000,10.513524169921874,0.0360410213470459,0.472198486328125,-0.287106454372406
1773146514304197600,10.52219775390625,0.02260199747979641,0.4575377106666565,-0.277332603931427
1773146514312871200,10.53087109375,0.012217295356094837,0.4520399272441864,-0.2614501118659973
1773146514321544700,10.539544677734375,0.009162971749901772,0.4563159942626953,-0.2461785078048706
1773146514330218200,10.54821826171875,0.020769402384757996,0.4453204274177551,-0.21807873249053955
1773146514338891800,10.556891845703126,0.03543015569448471,0.472198486328125,-0.19669845700263977
1773146514347565600,10.565565673828125,0.06108647957444191,0.45326167345046997,-0.1649334877729416
1773146514356239000,10.574239013671875,0.08613193035125732,0.4734202027320862,-0.14233149588108063
1773146514364912600,10.58291259765625,0.11056652665138245,0.4581485986709595,-0.1130099818110466
1773146514373586200,10.591586181640626,0.12950333952903748,0.45875945687294006,-0.08979712426662445
1773146514382259700,10.600259765625,0.14538581669330597,0.4667007029056549,-0.07086031138896942
1773146514390933200,10.608933349609375,0.16004657745361328,0.5039634704589844,-0.06536252796649933
1773146514399606800,10.617606689453124,0.1740964651107788,0.5216785073280334,-0.056810423731803894
1773146514408280300,10.6262802734375,0.18692462146282196,0.546113133430481,-0.04886918142437935
1773146514416953900,10.634953857421875,0.19730933010578156,0.5949822664260864,-0.043982263654470444
1773146514425627400,10.64362744140625,0.20341797173023224,0.6542361974716187,-0.05436696484684944
1773146514434301000,10.652301025390624,0.20647229254245758,0.6872228980064392,-0.07269290834665298
1773146514442974500,10.660974365234376,0.21930044889450073,0.6902772188186646,-0.08002328872680664
1773146514451648000,10.66964794921875,0.23823726177215576,0.7348703145980835,-0.09346231073141098
1773146514460321500,10.678321533203125,0.2761108875274658,0.7819069027900696,-0.09896009415388107
1773146514468995000,10.6869951171875,0.30115634202957153,0.8271108865737915,-0.08368847519159317
1773146514477668600,10.695668701171876,0.3396408259868622,0.8533781170845032,-0.0360410213470459
1773146514486342100,10.704342041015625,0.3597993552684784,0.8240565657615662,-0.0360410213470459
1773146514495015700,10.713015625,0.3090975880622864,0.6780598759651184,-0.08002328872680664
1773146514503689200,10.721689208984374,0.29077163338661194,0.516791582107544,-0.09101885557174683
1773146514512362800,10.73036279296875,0.2724456787109375,0.3995055556297302,-0.06841685622930527
1773146514521036300,10.739036376953125,0.2516762912273407,0.30543237924575806,-0.06841685622930527
1773146514529709800,10.747709716796875,0.21930044889450073,0.27427828311920166,-0.0616973415017128
1773146514538383400,10.75638330078125,0.185092031955719,0.24740023910999298,-0.046425722539424896
1773146514547057000,10.765056884765626,0.13255766034126282,0.1954767256975174,-0.0409279391169548
1773146514555730400,10.77373046875,0.12461641430854797,0.1288924664258957,-0.053145237267017365
1773146514564404000,10.782404052734375,0.10690133273601532,0.06780599057674408,-0.08491020649671555
1773146514573077500,10.791077392578124,0.0977383628487587,0.0030543238390237093,-0.10384701192378998
1773146514581751000,10.7997509765625,0.08429934084415436,-0.017715077847242355,-0.1337793916463852
1773146514590424600,10.808424560546875,0.08796452730894089,-0.056199558079242706,-0.1496618688106537
1773146514599098000,10.81709814453125,0.10629047453403473,-0.10995566099882126,-0.13194678723812103
1773146514607771600,10.825771728515624,0.13622283935546875,-0.18753549456596375,-0.08002328872680664
1773146514616445200,10.834445068359376,0.16676609218120575,-0.2926042377948761,-0.020769402384757996
1773146514625118700,10.84311865234375,0.19914191961288452,-0.3500255048274994,0.031154103577136993
