time,seconds_elapsed,z,y,x
1773163103067974100,0.15397412109375,13.572090148925781,2.416750907897949,0.607776939868927
1773163103077356500,0.1633564453125,12.863814353942871,2.225325107574463,0.5312066078186035
1773163103091430000,0.177429931640625,11.155339241027832,2.794816732406616,0.4833501875400543
1773163103100812300,0.186812255859375,10.2747802734375,3.16331148147583,0.7082754969596863
1773163103110194700,0.196194580078125,10.078569412231445,3.5270206928253174,1.0097711086273193
1773163103119577000,0.2055771484375,9.035298347473145,3.0101709365844727,2.2540390491485596
1773163103128959200,0.214959228515625,9.198010444641113,3.5030922889709473,1.397408366203308
1773163103138341600,0.224341552734375,9.7005033493042,3.9529430866241455,0.6364908218383789
1773163103147724000,0.23372412109375,10.576275825500488,4.1347975730896,0.7513462901115417
1773163103157106200,0.243106201171875,11.33240795135498,4.053441524505615,1.6223337650299072
1773163103166488600,0.252488525390625,11.097911834716797,3.981656789779663,1.9142581224441528
1773163103175871000,0.26187109375,10.083354949951172,3.8763725757598877,1.9094724655151367
1773163103185253000,0.271253173828125,9.140582084655762,3.728017568588257,1.612762451171875
1773163103194635500,0.280635498046875,8.427521705627441,3.421736478805542,1.2586246728897095
1773163103204018000,0.290017822265625,7.69531774520874,3.311666488647461,1.1485549211502075
1773163103213400000,0.299400146484375,7.226324558258057,3.7328033447265625,1.2011969089508057
1773163103222782500,0.308782470703125,6.9583282470703125,4.249652862548828,1.7419748306274414
1773163103232164900,0.318164794921875,6.8865437507629395,4.551148891448975,2.407179594039917
1773163103241547000,0.327547119140625,6.996613502502441,4.651647090911865,2.7038896083831787
1773163103250929400,0.336929443359375,6.9344000816345215,4.555934429168701,2.713460922241211
1773163103260311800,0.346311767578125,6.838686943054199,4.316651821136475,2.2779672145843506
1773163103269694000,0.35569384765625,7.03489875793457,4.139583110809326,1.7467604875564575
1773163103279076400,0.365076416015625,7.044469833374023,4.077369689941406,1.210768222808838
1773163103288458800,0.374458740234375,7.0301127433776855,3.972085475921631,0.5838487148284912
1773163103297841200,0.383841064453125,7.369893550872803,3.4169507026672363,-0.33020952343940735
1773163103307223300,0.393223388671875,7.36032247543335,3.177668571472168,-1.0863415002822876
1773163103316605700,0.402605712890625,7.412964344024658,3.7806596755981445,-1.6271194219589233
1773163103325987800,0.41198779296875,7.470392227172852,4.666004180908203,-1.8903298377990723
1773163103335370200,0.421370361328125,7.441678524017334,5.024927616119385,-1.2346965074539185
1773163103344752600,0.430752685546875,6.4941205978393555,4.278367042541504,0.9523434042930603
1773163103354135000,0.440135009765625,6.374479293823242,3.8907296657562256,2.124826431274414
1773163103363517200,0.44951708984375,6.819544315338135,3.541377544403076,2.3545374870300293
1773163103372899600,0.458899658203125,6.929614543914795,3.0723843574523926,1.9956140518188477
1773163103382282000,0.468281982421875,6.618547439575195,3.0963125228881836,1.6941183805465698
1773163103391664000,0.4776640625,5.714060306549072,3.373879909515381,1.5601203441619873
1773163103401046500,0.487046630859375,4.9435715675354,3.814159393310547,1.5696916580200195
1773163103410429000,0.496428955078125,4.890929698944092,4.077369689941406,1.5744773149490356
1773163103419811000,0.50581103515625,5.034498691558838,4.187439441680908,1.6701902151107788
1773163103429193500,0.515193359375,5.350351333618164,4.01037073135376,1.8472590446472168
1773163103438575900,0.524575927734375,6.154339790344238,4.07258415222168,2.359323024749756
1773163103447958000,0.5339580078125,6.709474563598633,4.216153621673584,2.8809585571289062
1773163103457340400,0.54334033203125,6.757331371307373,4.096512317657471,3.1202406883239746
1773163103466722800,0.552722900390625,6.4319071769714355,3.957728624343872,2.9718856811523438
1773163103476105000,0.56210498046875,5.91505765914917,3.713660717010498,2.4502503871917725
1773163103485487400,0.5714873046875,5.613562107086182,3.2446675300598145,1.6079767942428589
1773163103494869800,0.580869873046875,5.450850009918213,2.823530673980713,0.8470591902732849
1773163103504252000,0.590251953125,4.981856822967529,3.2207393646240234,1.832902193069458
1773163103513634300,0.59963427734375,4.809573650360107,2.871387243270874,1.0480563640594482
1773163103523016700,0.6090166015625,2.6464617252349854,3.88594388961792,1.6845471858978271
1773163103532398800,0.61839892578125,4.661218643188477,4.07258415222168,1.9381862878799438
1773163103541781200,0.62778125,4.666004180908203,4.292723655700684,2.3976082801818848
1773163103551163600,0.63716357421875,4.498506546020508,3.737588882446289,2.2396819591522217
1773163103560545800,0.6465458984375,4.823930263519287,3.129812002182007,2.062613010406494
1773163103569928200,0.65592822265625,4.8574299812316895,3.091526746749878,1.9812572002410889
1773163103579310600,0.665310546875,4.311866283416748,3.1824541091918945,2.282752752304077
1773163103588692700,0.674692626953125,4.2592244148254395,3.0580272674560547,2.3545374870300293
1773163103598075100,0.6840751953125,4.067798614501953,2.7565317153930664,2.2683959007263184
1773163103607457500,0.69345751953125,3.90987229347229,2.526820659637451,2.115255117416382
1773163103616839700,0.702839599609375,3.7088751792907715,2.321038007736206,2.0482561588287354
1773163103626222000,0.71222216796875,3.3643085956573486,2.0721843242645264,1.9908283948898315
1773163103635604500,0.7216044921875,3.0867412090301514,1.8041882514953613,1.919043779373169
1773163103644986600,0.730986572265625,2.8666014671325684,1.124626636505127,1.5074782371520996
1773163103654369000,0.740369140625,1.9860427379608154,1.5792629718780518,2.1822543144226074
1773163103663751400,0.74975146484375,1.0528420209884644,1.5840486288070679,2.5842485427856445
1773163103673133600,0.759133544921875,1.454836130142212,1.5553346872329712,2.5938198566436768
1773163103682516000,0.768515869140625,2.1774685382843018,1.6271194219589233,2.4023938179016113
1773163103691898000,0.777898193359375,2.8666014671325684,1.5649060010910034,2.5698914527893066
1773163103701280500,0.787280517578125,3.4648072719573975,1.430907964706421,2.8187451362609863
1773163103710663000,0.796662841796875,3.933800458908081,1.4691931009292603,3.0580272674560547
1773163103720045000,0.806045166015625,4.053441524505615,1.832902193069458,3.1202406883239746
1773163103729427500,0.815427490234375,4.201796531677246,1.9046868085861206,3.2925238609313965
1773163103738809900,0.824809814453125,4.3549370765686035,1.5696916580200195,2.809173822402954
1773163103748192000,0.83419189453125,4.364508628845215,1.129412293434143,2.091326951980591
1773163103757574400,0.843574462890625,4.560719966888428,0.6221339106559753,2.1104695796966553
1773163103766956800,0.852956787109375,4.254438877105713,0.8087740540504456,2.68953275680542
1773163103776339000,0.8623388671875,3.517449378967285,1.2203395366668701,3.838087558746338
1773163103790412500,0.87641259765625,3.187239646911621,1.9908283948898315,5.508277893066406
1773163103799794700,0.885794677734375,3.6083765029907227,2.2540390491485596,6.269195556640625
1773163103809177000,0.895177001953125,4.886143684387207,2.3880369663238525,6.455835342407227
1773163103818559500,0.9045595703125,6.632904529571533,2.4023938179016113,6.393621921539307
1773163103827941600,0.913941650390625,7.791030406951904,2.431107759475708,6.187839508056641
1773163103837324000,0.923323974609375,8.695517539978027,2.139183521270752,5.828916072845459
1773163103846706400,0.93270654296875,9.355937004089355,2.6081767082214355,5.934200286865234
1773163103856088600,0.942088623046875,8.374878883361816,3.0723843574523926,6.546762943267822
1773163103870162200,0.956162109375,6.240481376647949,4.268795490264893,8.164310455322266
1773163103879544300,0.96554443359375,6.020341873168945,4.589433670043945,9.040083885192871
1773163103888926700,0.9749267578125,6.503692150115967,4.522434711456299,9.475577354431152
1773163103898309000,0.98430908203125,6.92482852935791,5.015356063842773,9.944570541381836
1773163103907691300,0.993691162109375,5.982056617736816,5.766702651977539,10.102497100830078
1773163103917073700,1.00307373046875,4.814359188079834,5.891129493713379,10.98305606842041
1773163103926456000,1.0124560546875,5.450850009918213,6.154339790344238,11.452049255371094
1773163103935838200,1.021838134765625,7.001399040222168,6.211767673492432,11.777473449707031
1773163103945220600,1.031220703125,8.863015174865723,5.737988471984863,11.629117965698242
1773163103954602800,1.040602783203125,10.418350219726562,5.1876397132873535,11.174481391906738
1773163103963985200,1.049985107421875,10.944770812988281,4.766502857208252,10.715060234069824
1773163103973367600,1.059367431640625,11.097911834716797,4.666004180908203,10.767702102661133
1773163103982749700,1.068749755859375,10.796415328979492,4.666004180908203,10.39920711517334
1773163103992132000,1.078132080078125,9.968499183654785,4.1347975730896,9.920642852783203
1773163104001514500,1.087514404296875,8.848658561706543,4.110869407653809,10.054640769958496
1773163104010896600,1.096896728515625,7.369893550872803,4.115654945373535,10.059426307678223
1773163104020279000,1.106279052734375,6.57547664642334,3.895515203475952,10.222138404846191
1773163104029661200,1.1156611328125,6.742974281311035,3.4408788681030273,10.423135757446289
1773163104039043600,1.125043701171875,6.963113784790039,3.105883836746216,10.451848983764648
1773163104048426000,1.134426025390625,6.752545356750488,2.871387243270874,10.518848419189453
1773163104057808100,1.14380810546875,7.04925537109375,2.311466693878174,10.518848419189453
1773163104071881700,1.1578818359375,6.963113784790039,1.8999011516571045,10.159924507141113
1773163104081264000,1.16726416015625,6.829115867614746,1.3256237506866455,9.714859962463379
1773163104090646300,1.176646240234375,6.8865437507629395,0.8949156403541565,9.360722541809082
1773163104100028400,1.1860283203125,6.9822564125061035,0.41156548261642456,9.4660062789917
1773163104109410800,1.195410888671875,6.436692714691162,0.02392822690308094,9.657432556152344
1773163104118793200,1.204793212890625,5.8719868659973145,-0.17706887423992157,9.595218658447266
1773163104128175600,1.214175537109375,5.848058700561523,0.8135597109794617,10.394421577453613
1773163104137557800,1.223557861328125,6.087340831756592,0.6795616149902344,10.183853149414062
1773163104146940200,1.232940185546875,5.742774486541748,-0.10049854964017868,9.78664493560791
1773163104156322300,1.242322265625,5.651846885681152,-1.1581261157989502,8.556734085083008
1773163104165704700,1.25170458984375,5.450850009918213,-1.5553346872329712,7.762316703796387
1773163104175087000,1.261087158203125,5.627918720245361,-2.062613010406494,6.881757736206055
1773163104184469200,1.27046923828125,5.929414749145508,-2.991028308868408,6.0777692794799805
1773163104193851600,1.2798515625,6.350551128387451,-2.6464617252349854,7.087540626525879
1773163104203233800,1.28923388671875,4.847858905792236,-2.0578274726867676,8.6907320022583
1773163104212616200,1.2986162109375,2.8522446155548096,-1.8041882514953613,9.533005714416504
1773163104221998600,1.30799853515625,1.5361921787261963,-1.5696916580200195,9.652647018432617
1773163104231380700,1.317380615234375,0.6269195079803467,-0.9858429431915283,9.767501831054688
1773163104240763100,1.32676318359375,0.5647061467170715,-0.8374879360198975,9.236295700073242
1773163104250145500,1.3361455078125,1.1676974296569824,-1.057627558708191,8.451449394226074
1773163104259527700,1.345527587890625,1.5984054803848267,-1.2346965074539185,7.3746795654296875
1773163104268910000,1.35491015625,1.8711873292922974,-1.4165509939193726,6.427121639251709
1773163104278292200,1.364292236328125,2.053041934967041,-1.0959128141403198,6.4941205978393555
1773163104287674600,1.373674560546875,1.2059825658798218,-0.6125625967979431,7.5326056480407715
1773163104297057000,1.38305712890625,0.33020952343940735,-0.22971096634864807,9.073583602905273
1773163104306439200,1.392439208984375,-0.6029912829399109,-0.09571290761232376,9.91107177734375
1773163104315821600,1.401821533203125,-0.6125625967979431,0.6699903607368469,10.98305606842041
1773163104325204000,1.411203857421875,-0.7082754969596863,1.2873386144638062,11.624332427978516
1773163104334586000,1.420586181640625,-1.210768222808838,1.4069796800613403,11.404192924499512
1773163104343968500,1.429968505859375,-1.6319050788879395,0.8662018179893494,9.982855796813965
1773163104353350700,1.4393505859375,-1.6606189012527466,0.27756741642951965,8.561519622802734
1773163104362733000,1.448733154296875,-1.7850457429885864,-0.15314064919948578,7.135396957397461
1773163104372115200,1.458115234375,-1.6941183805465698,-0.5264210104942322,6.005984783172607
1773163104381497600,1.46749755859375,-1.0001999139785767,-0.5072783827781677,5.704489231109619
1773163104390880000,1.4768798828125,-0.08135596662759781,-0.38763725757598877,5.623133182525635
1773163104400262100,1.48626220703125,0.5886343717575073,-0.727418065071106,5.527420520782471
1773163104409644500,1.49564453125,0.6173482537269592,-1.5553346872329712,5.350351333618164
1773163104419027000,1.50502685546875,0.6508477330207825,-2.076970100402832,5.37906551361084
1773163104428409000,1.5144091796875,-0.019142581149935722,-1.9621145725250244,6.307480335235596
1773163104437791500,1.52379150390625,-0.7848458290100098,-1.6701902151107788,7.0301127433776855
1773163104447173600,1.533173583984375,-1.4452649354934692,-1.545763373374939,8.164310455322266
1773163104461247200,1.547247314453125,-7.283751964569092,-1.6319050788879395,11.729616165161133
1773163104470629400,1.55662939453125,-7.752745151519775,-1.9142581224441528,13.62473201751709
1773163104480011800,1.56601171875,-1.7515461444854736,-0.7704889178276062,16.36212158203125
1773163104498776300,1.5847763671875,-3.129812002182007,-1.6366907358169556,13.739587783813477
1773163104508158700,1.59415869140625,-1.196411371231079,-2.9144580364227295,13.820943832397461
1773163104517540900,1.603540771484375,-1.9908283948898315,-4.575077056884766,13.021740913391113
1773163104526923300,1.61292333984375,-1.5553346872329712,-4.689932346343994,12.0933256149292
1773163104540996600,1.62699658203125,-2.00518536567688,-6.149554252624512,11.059626579284668
1773163104550379000,1.63637890625,-2.445464849472046,-6.029912948608398,10.643275260925293
1773163104559761200,1.64576123046875,-3.4504501819610596,-5.675775527954102,10.437492370605469
1773163104569143600,1.6551435546875,-4.3070807456970215,-6.049055576324463,9.432506561279297
1773163104578526000,1.66452587890625,-4.063013076782227,-4.685146808624268,4.240081787109375
1773163104587908000,1.673908203125,-2.66560435295105,-5.077569484710693,3.1489546298980713
1773163104597290500,1.68329052734375,1.2251251935958862,-6.441478729248047,1.9094724655151367
1773163104606672600,1.692672607421875,2.115255117416382,-7.652246952056885,1.7228323221206665
1773163104616055000,1.702054931640625,2.0721843242645264,-8.513663291931152,2.115255117416382
1773163104625437400,1.7114375,0.9571290612220764,-8.37966537475586,2.6321048736572266
1773163104634819600,1.720819580078125,-0.48813581466674805,-6.881757736206055,3.2781670093536377
1773163104644202000,1.730201904296875,-2.785245656967163,-5.2115678787231445,4.01037073135376
1773163104653584100,1.739584228515625,-5.120640277862549,-4.34536600112915,4.541577339172363
1773163104662966500,1.748966552734375,-4.800002098083496,-4.718646049499512,4.168296813964844
1773163104672349000,1.758348876953125,-2.991028308868408,-4.627718925476074,3.019742250442505
1773163104681731000,1.76773095703125,-2.6464617252349854,-5.91505765914917,3.139383316040039
1773163104691113500,1.777113525390625,0.38285163044929504,-6.029912948608398,3.5605201721191406
1773163104700495600,1.78649560546875,-1.6414763927459717,-6.355337142944336,4.460221290588379
1773163104709878000,1.7958779296875,-4.613361835479736,-6.546762943267822,4.962714195251465
1773163104719260200,1.80526025390625,-6.197410583496094,-6.436692714691162,4.54636287689209
1773163104728642600,1.814642578125,-5.651846885681152,-6.57547664642334,3.397808074951172
1773163104738025000,1.82402490234375,-4.019941806793213,-7.814958572387695,1.5122638940811157
1773163104747407000,1.833406982421875,-2.1774685382843018,-8.346165657043457,0.8470591902732849
1773163104756789500,1.84278955078125,-1.698904037475586,-8.49452018737793,0.851844847202301
1773163104766171600,1.852171630859375,-1.7324036359786987,-8.461020469665527,0.6795616149902344
1773163104775554000,1.861553955078125,-1.8233308792114258,-7.934599876403809,0.8470591902732849
1773163104784936200,1.870936279296875,-1.5649060010910034,-7.566105365753174,0.7800601720809937
1773163104794318600,1.880318603515625,-1.0480563640594482,-6.9822564125061035,0.914058268070221
1773163104803701000,1.889700927734375,-0.6173482537269592,-7.144968509674072,1.2729816436767578
1773163104813083100,1.899083251953125,0.2871387302875519,-10.581061363220215,1.7754744291305542
1773163104822465500,1.908465576171875,0.03349951654672623,-13.9453706741333,2.612962245941162
1773163104831847700,1.91784765625,-1.550549030303955,-17.989240646362305,3.9050865173339844
1773163104841230000,1.92722998046875,-4.106083869934082,-22.44467544555664,5.197210788726807
1773163104850612200,1.9366123046875,-4.455435752868652,-26.000410079956055,5.450850009918213
1773163104859994600,1.94599462890625,-2.60339093208313,-27.12025260925293,3.900300979614258
1773163104869376800,1.955376708984375,0.5934200286865234,-23.82294273376465,0.2105683982372284
1773163104878759200,1.96475927734375,2.0099709033966064,-18.539588928222656,-1.698904037475586
1773163104888141600,1.9741416015625,1.2203395366668701,-14.055439949035645,-1.6701902151107788
1773163104897523700,1.983523681640625,-0.3445664644241333,-10.475777626037598,-0.7034898400306702
1773163104906906000,1.992906005859375,-1.9669002294540405,-8.13081169128418,0.22971096634864807
1773163104916288300,2.002288330078125,-3.3308091163635254,-6.546762943267822,0.9188438653945923
1773163104925670700,2.011670654296875,-4.110869407653809,-5.819344520568848,1.4787644147872925
1773163104935052800,2.021052734375,-4.417150497436523,-5.7858452796936035,2.249253273010254
1773163104944435200,2.030435302734375,-4.058227062225342,-6.570691108703613,3.005385160446167
1773163104953817600,2.039817626953125,-3.5222349166870117,-7.9250288009643555,4.091726779937744
1773163104963199700,2.04919970703125,-2.675175666809082,-9.600004196166992,4.536791801452637
1773163104972582100,2.05858203125,-1.301695466041565,-10.930414199829102,4.661218643188477
1773163104981964300,2.06796435546875,-0.0526420995593071,-11.490334510803223,5.048855781555176
1773163104991346700,2.0773466796875,0.6795616149902344,-10.944770812988281,5.087141036987305
1773163105000728800,2.086728759765625,0.27756741642951965,-9.8871431350708,4.599005222320557
1773163105014802400,2.100802490234375,-0.6652047038078308,-9.10229778289795,3.326023578643799
1773163105024184600,2.1101845703125,-1.0289137363433838,-8.96829891204834,2.885744094848633
1773163105033567000,2.11956689453125,-1.0241280794143677,-8.934800148010254,2.675175666809082
1773163105042949000,2.12894921875,-0.7657032608985901,-9.020941734313965,2.3976082801818848
1773163105052331500,2.13833154296875,-0.4737788736820221,-9.159725189208984,2.148754835128784
1773163105061713700,2.147713623046875,-0.1818545162677765,-9.312865257263184,2.0673987865448
1773163105071096000,2.157095947265625,0.1052841991186142,-9.442078590393066,1.9669002294540405
1773163105080478200,2.166478271484375,0.38285163044929504,-9.547362327575684,1.8041882514953613
1773163105089860600,2.175860595703125,0.4498506486415863,-9.623932838439941,1.7850457429885864
1773163105103934000,2.189933837890625,0.07657032459974289,-9.600004196166992,1.7276179790496826
1773163105113316400,2.19931640625,-0.38763725757598877,-9.499505996704102,1.703689694404602
1773163105122698500,2.208698486328125,-0.7417750358581543,-9.399007797241211,1.6031911373138428
1773163105132081000,2.218080810546875,-0.7848458290100098,-9.370293617248535,1.459621787071228
1773163105141463300,2.22746337890625,-0.6699903607368469,-9.379864692687988,1.4165509939193726
1773163105150845400,2.236845458984375,-0.4498506486415863,-9.422935485839844,1.4691931009292603
1773163105160227800,2.246227783203125,-0.24406790733337402,-9.485149383544922,1.521835207939148
1773163105169610000,2.25560986328125,0.004785645287483931,-9.53779125213623,1.703689694404602
1773163105178992400,2.264992431640625,0.16271193325519562,-9.614361763000488,1.9142581224441528
1773163105188374500,2.27437451171875,0.4211367964744568,-9.633503913879395,2.196611166000366
1773163105197757000,2.2837568359375,0.6364908218383789,-9.657432556152344,2.469393014907837
1773163105207139000,2.29313916015625,0.8231309652328491,-9.57607650756836,2.7661030292510986
1773163105216521500,2.302521484375,1.0480563640594482,-9.265008926391602,3.129812002182007
1773163105225903900,2.31190380859375,1.1868400573730469,-8.920442581176758,3.4791641235351562
1773163105235286000,2.3212861328125,1.2921242713928223,-8.82951545715332,3.862015724182129
1773163105244668200,2.330668212890625,1.3304094076156616,-8.982656478881836,4.1491546630859375
1773163105254050600,2.340050537109375,1.3830515146255493,-8.96829891204834,4.42193603515625
1773163105268124000,2.3541240234375,1.430907964706421,-8.973084449768066,5.015356063842773
1773163105277506300,2.36350634765625,1.454836130142212,-8.791230201721191,5.340780258178711
1773163105286888400,2.372888427734375,1.3782658576965332,-8.542376518249512,5.675775527954102
1773163105300962000,2.386962158203125,1.3495519161224365,-8.082955360412598,5.972485542297363
1773163105310344200,2.39634423828125,1.2442678213119507,-8.030312538146973,6.120840549468994
1773163105319726600,2.4057265625,1.1676974296569824,-8.116454124450684,6.317051887512207
1773163105329108700,2.415108642578125,1.3160524368286133,-8.240880966186523,6.197410583496094
1773163105338491100,2.4244912109375,1.3112667798995972,-8.571090698242188,5.929414749145508
1773163105352564500,2.438564453125,0.8327022790908813,-8.982656478881836,4.661218643188477
1773163105361947000,2.44794677734375,0.8757730722427368,-9.140582084655762,3.7567315101623535
1773163105371329000,2.4573291015625,1.2011969089508057,-9.633503913879395,2.589034080505371
1773163105380711400,2.46671142578125,1.4261223077774048,-10.040284156799316,1.6175481081008911
1773163105390093600,2.476093505859375,1.4691931009292603,-10.202995300292969,0.5982056856155396
1773163105399476000,2.48547607421875,1.1676974296569824,-10.351350784301758,-0.12921242415905
1773163105408858000,2.494858154296875,0.7561319470405579,-10.63370418548584,-0.8279166221618652
1773163105418240500,2.504240478515625,0.3397808074951172,-10.8969144821167,-1.828116536140442
1773163105427622700,2.51362255859375,0.10049854964017868,-10.98305606842041,-2.589034080505371
1773163105437005000,2.523005126953125,0.09571290761232376,-10.887343406677246,-2.9001009464263916
1773163105451078400,2.537078369140625,0.16749759018421173,-10.782058715820312,-2.335394859313965
1773163105460460800,2.546460693359375,0.3924229145050049,-10.49970531463623,-1.397408366203308
1773163105469843000,2.555843017578125,0.8327022790908813,-10.193424224853516,-0.17706887423992157
1773163105479225300,2.565225341796875,1.3782658576965332,-9.93978500366211,0.698704183101654
1773163105488607500,2.574607421875,1.698904037475586,-9.77707290649414,1.4069796800613403
1773163105497990000,2.583989990234375,1.8999011516571045,-9.738788604736328,1.9669002294540405
1773163105507372000,2.5933720703125,1.9764715433120728,-9.657432556152344,2.421536445617676
1773163105516754400,2.60275439453125,1.8951154947280884,-9.542576789855957,2.68953275680542
1773163105526136600,2.612136474609375,1.919043779373169,-9.394221305847168,2.909672260284424
1773163105535519000,2.62151904296875,1.8472590446472168,-9.21715259552002,3.1585259437561035
1773163105544901400,2.6309013671875,1.6941183805465698,-9.097511291503906,3.4408788681030273
1773163105558974700,2.644974609375,1.4644074440002441,-8.930013656616211,3.7663028240203857
1773163105568356900,2.65435693359375,1.373480200767517,-8.891729354858398,3.895515203475952
1773163105577739300,2.6637392578125,1.2299108505249023,-8.96829891204834,3.7710886001586914
1773163105587121400,2.673121337890625,1.0911271572113037,-9.059226989746094,3.84765887260437
1773163105596503800,2.68250390625,1.0097711086273193,-9.20279598236084,3.7950167655944824
1773163105605886000,2.691885986328125,0.885344386100769,-9.30329418182373,3.4983067512512207
1773163105615268400,2.701268310546875,0.7130611538887024,-9.322437286376953,3.053241729736328
1773163105624650500,2.710650390625,0.5886343717575073,-9.198010444641113,2.7900311946868896
1773163105638724000,2.72472412109375,0.4211367964744568,-8.925228118896484,2.455035924911499
1773163105648106200,2.734106201171875,0.44027936458587646,-8.906085968017578,2.431107759475708
1773163105657488600,2.743488525390625,0.397208571434021,-9.154939651489258,2.7900311946868896
1773163105666870800,2.752870849609375,0.7704889178276062,-9.198010444641113,3.28773832321167
1773163105676253200,2.762253173828125,1.2921242713928223,-9.236295700073242,3.656233072280884
1773163105690326500,2.776326416015625,1.8376877307891846,-8.752944946289062,3.6370904445648193
1773163105699709000,2.785708984375,1.3639088869094849,-8.910871505737305,3.570091485977173
1773163105709091000,2.795091064453125,1.3495519161224365,-8.74337387084961,3.9529430866241455
1773163105718473200,2.80447314453125,1.6414763927459717,-8.595019340515137,3.895515203475952
1773163105727855600,2.813855712890625,1.6606189012527466,-8.365307807922363,3.8572301864624023
1773163105737238000,2.823238037109375,1.373480200767517,-8.97787094116211,3.517449378967285
1773163105751311400,2.837311279296875,1.5792629718780518,-9.226723670959473,3.7232320308685303
1773163105760693500,2.846693603515625,1.7276179790496826,-9.384650230407715,3.775874137878418
1773163105770076000,2.856075927734375,1.765903115272522,-9.394221305847168,3.871587038040161
1773163105779458000,2.8654580078125,1.765903115272522,-9.547362327575684,3.996013879776001
1773163105788840400,2.87484033203125,1.5792629718780518,-9.729216575622559,3.9625144004821777
1773163105798222600,2.88422265625,1.373480200767517,-9.80100154876709,3.656233072280884
1773163105807605000,2.89360498046875,1.2729816436767578,-9.609575271606445,3.2063822746276855
1773163105816987100,2.902987060546875,0.9762716293334961,-9.695717811584473,3.019742250442505
1773163105826369500,2.91236962890625,0.9427721500396729,-9.91107177734375,2.809173822402954
1773163105835751700,2.921751708984375,1.0336993932724,-9.954142570495605,2.871387243270874
1773163105845134000,2.931134033203125,1.1437692642211914,-9.920642852783203,3.029313564300537
1773163105854516500,2.9405166015625,1.1676974296569824,-9.81535816192627,3.22552490234375
1773163105863898600,2.949898681640625,1.1724830865859985,-9.671789169311523,3.4791641235351562
1773163105873280800,2.95928076171875,1.2251251935958862,-9.518648147583008,3.761517286300659
1773163105882663200,2.9686630859375,1.2011969089508057,-9.523433685302734,4.039084434509277
1773163105892045300,2.97804541015625,1.2729816436767578,-9.542576789855957,4.216153621673584
1773163105901427700,2.987427734375,1.210768222808838,-9.480362892150879,4.268795490264893
1773163105910810000,2.99681005859375,1.038485050201416,-9.513862609863281,4.211368083953857
1773163105920192300,3.006192138671875,0.8757730722427368,-9.619147300720215,4.316651821136475
1773163105929574700,3.01557470703125,0.5216353535652161,-9.906285285949707,4.555934429168701
1773163105938956800,3.024956787109375,0.38285163044929504,-10.303494453430176,4.7952165603637695
1773163105953030100,3.039030029296875,0.8183453679084778,-10.542776107788086,5.426921844482422
1773163105962412500,3.04841259765625,1.4021940231323242,-10.628918647766113,5.642275810241699
1773163105971794700,3.057794677734375,2.029113531112671,-10.475777626037598,5.737988471984863
1773163105981177000,3.067177001953125,2.0673987865448,-10.1216402053833,5.699703693389893
1773163105990559200,3.076559326171875,1.828116536140442,-9.839286804199219,5.087141036987305
1773163105999941600,3.085941650390625,1.124626636505127,-9.67657470703125,4.431507587432861
1773163106009324000,3.095323974609375,0.2392822653055191,-9.772287368774414,3.555734395980835
1773163106018706200,3.1047060546875,-0.6221339106559753,-9.753145217895508,2.919243574142456
1773163106028088300,3.11408837890625,-1.4021940231323242,-9.590433120727539,2.579462766647339
1773163106037470700,3.123470703125,-1.9046868085861206,-9.28893756866455,2.4119651317596436
1773163106046852900,3.132852783203125,-2.014756679534912,-8.82951545715332,2.431107759475708
1773163106056235300,3.1422353515625,-1.9812572002410889,-8.451449394226074,2.5603201389312744
1773163106070308600,3.15630859375,-1.7371892929077148,-8.001599311828613,2.837887763977051
1773163106079691000,3.16569091796875,-1.7467604875564575,-8.025527000427246,3.0388846397399902
1773163106089073200,3.1750732421875,-1.828116536140442,-8.35573673248291,3.1728827953338623
1773163106098455600,3.18445556640625,-2.0243279933929443,-8.767302513122559,3.2542388439178467
1773163106107837700,3.193837646484375,-2.1296122074127197,-9.207581520080566,3.043670415878296
1773163106117220000,3.20322021484375,-1.789831280708313,-9.422935485839844,2.6464617252349854
1773163106126602200,3.212602294921875,-1.196411371231079,-9.513862609863281,2.0578274726867676
1773163106135984600,3.221984619140625,-0.6747759580612183,-9.66221809387207,1.4787644147872925
1773163106145366800,3.23136669921875,-0.2727817893028259,-10.293923377990723,1.0719845294952393
1773163106154749200,3.240749267578125,-0.02392822690308094,-11.739188194274902,0.9523434042930603
1773163106164131600,3.250131591796875,0.6747759580612183,-13.447663307189941,0.6029912829399109
1773163106173513700,3.259513671875,1.430907964706421,-14.758930206298828,0.02392822690308094
1773163106182895900,3.268895751953125,1.9573289155960083,-15.821343421936035,-0.4307080805301666
1773163106192278300,3.2782783203125,1.8664016723632812,-16.907684326171875,-0.8709874153137207
1773163106201660700,3.28766064453125,1.3495519161224365,-17.22353744506836,-0.7704889178276062
1773163106211042800,3.297042724609375,0.19142581522464752,-16.381263732910156,-0.15314064919948578
1773163106220425200,3.30642529296875,-0.9762716293334961,-14.366507530212402,0.6221339106559753
1773163106229807400,3.315807373046875,-1.3878371715545654,-12.222537994384766,1.4404792785644531
1773163106239189800,3.325189697265625,-1.0049854516983032,-10.614561080932617,1.8233308792114258
1773163106248572000,3.334572021484375,-0.4977070987224579,-9.67657470703125,1.9812572002410889
1773163106257954300,3.343954345703125,-0.3158525824546814,-8.95394229888916,3.081955671310425
1773163106267336400,3.35333642578125,-0.11006984114646912,-8.647661209106445,3.8668015003204346
1773163106276718800,3.36271875,-0.1052841991186142,-8.681160926818848,4.479363918304443
1773163106286101000,3.37210107421875,-0.46420758962631226,-8.542376518249512,5.00578498840332
1773163106295483400,3.3814833984375,-1.1724830865859985,-8.422736167907715,4.862215518951416
1773163106304865500,3.390865478515625,-1.9908283948898315,-8.432307243347168,4.445864677429199
1773163106314248000,3.400248046875,-2.579462766647339,-8.839086532592773,3.4791641235351562
1773163106323630000,3.409630126953125,-2.550748825073242,-9.346364974975586,2.5076780319213867
1773163106333012500,3.419012451171875,-2.1918256282806396,-9.547362327575684,1.919043779373169
1773163106342394600,3.42839453125,-1.94297194480896,-9.30329418182373,1.789831280708313
1773163106351777000,3.437777099609375,-1.7611174583435059,-8.767302513122559,1.9381862878799438
1773163106361159200,3.4471591796875,-1.7515461444854736,-8.322237014770508,2.1056840419769287
1773163106370541600,3.45654150390625,-1.8759729862213135,-7.848458290100098,2.1296122074127197
1773163106379924000,3.465924072265625,-1.947757601737976,-7.403393268585205,2.0865414142608643
1773163106389306000,3.47530615234375,-1.9621145725250244,-7.04925537109375,1.6606189012527466
1773163106398688500,3.4846884765625,-1.6319050788879395,-6.656832695007324,1.856830358505249
1773163106408070700,3.494070556640625,-1.545763373374939,-6.422336101531982,1.8185452222824097
1773163106417453000,3.503453125,-1.5649060010910034,-6.393621921539307,1.7850457429885864
1773163106426835200,3.512835205078125,-1.6558332443237305,-6.498906135559082,1.8903298377990723
1773163106436217600,3.522217529296875,-1.7132610082626343,-6.589833736419678,2.139183521270752
1773163106445599700,3.531599853515625,-1.7180466651916504,-6.819544315338135,2.3880369663238525
1773163106454982100,3.540982177734375,-1.6462619304656982,-7.0061845779418945,2.8522446155548096
1773163106464364300,3.5503642578125,-1.6414763927459717,-7.135396957397461,3.4025938510894775
1773163106473746700,3.55974658203125,-1.7994025945663452,-7.264609336853027,3.924229145050049
1773163106483128800,3.56912890625,-2.0673987865448,-7.384250640869141,4.565505504608154
1773163106492511200,3.57851123046875,-2.407179594039917,-7.523034572601318,5.000999450683594
1773163106501893400,3.587893310546875,-3.005385160446167,-7.652246952056885,5.302495002746582
1773163106511275800,3.59727587890625,-3.594019651412964,-7.762316703796387,5.216353416442871
1773163106520658200,3.606658203125,-4.46979284286499,-7.886743545532227,5.3216376304626465
1773163106530040300,3.616040283203125,-5.063212871551514,-8.078168869018555,5.053641319274902
1773163106539422700,3.625422607421875,-5.7619171142578125,-8.221738815307617,4.852644443511963
1773163106548804900,3.634804931640625,-6.216553211212158,-8.140382766723633,4.833501815795898
1773163106558187300,3.644187255859375,-6.570691108703613,-7.963313579559326,4.8813581466674805
1773163106567569400,3.6535693359375,-6.661618232727051,-7.652246952056885,5.221138954162598
1773163106576951800,3.662951904296875,-6.278766632080078,-7.523034572601318,5.029713153839111
1773163106586334000,3.672333984375,-5.580062389373779,-7.4225358963012695,5.149354457855225
1773163106600407600,3.686407470703125,-4.599005222320557,-7.250252723693848,5.19242525100708
1773163106609789700,3.695789794921875,-4.120440483093262,-6.929614543914795,5.402993679046631
1773163106619172000,3.705172119140625,-4.340580463409424,-6.417550563812256,5.484349727630615
1773163106628554200,3.71455419921875,-4.264009952545166,-6.183053493499756,5.163711071014404
1773163106637936600,3.7239365234375,-4.106083869934082,-6.235695838928223,4.488935470581055
1773163106647318800,3.73331884765625,-3.809373617172241,-6.436692714691162,3.617947816848755
1773163106656701200,3.742701171875,-3.493520975112915,-6.853044033050537,2.4837498664855957
1773163106666083300,3.752083251953125,-3.335594654083252,-7.465606689453125,1.5122638940811157
1773163106680157000,3.766156982421875,-3.5461630821228027,-8.61894702911377,0.4833501875400543
1773163106689539000,3.7755390625,-3.838087558746338,-9.55214786529541,-0.19621145725250244
1773163106698921500,3.78492138671875,-4.053441524505615,-10.671989440917969,-0.7848458290100098
1773163106708303600,3.7943037109375,-4.115654945373535,-11.877971649169922,-0.8231309652328491
1773163106717686000,3.80368603515625,-4.790431022644043,-12.662817001342773,-0.3924229145050049
1773163106727068200,3.813068115234375,-5.7858452796936035,-12.806386947631836,-0.19142581522464752
1773163106736450600,3.822450439453125,-7.073183536529541,-12.40439224243164,0.24885354936122894
1773163106745833000,3.8318330078125,-8.283951759338379,-11.978469848632812,0.9906286001205444
1773163106755215000,3.841215087890625,-8.437092781066895,-11.763115882873535,1.794616937637329
1773163106764597500,3.850597412109375,-7.259823799133301,-11.016555786132812,3.799802303314209
1773163106773979600,3.859979736328125,-4.110869407653809,-9.475577354431152,6.317051887512207
1773163106783362000,3.869362060546875,0.3206382393836975,-7.599604606628418,7.724031448364258
1773163106792744200,3.878744140625,1.7419748306274414,-6.675975322723389,6.9344000816345215
1773163106802126600,3.888126708984375,0.6747759580612183,-6.594619274139404,3.996013879776001
1773163106811508700,3.8975087890625,-1.2442678213119507,-6.3840508460998535,2.4023938179016113
1773163106820891100,3.90689111328125,-2.493321180343628,-6.460621356964111,1.2442678213119507
1773163106830273300,3.916273193359375,-2.517249345779419,-7.063612461090088,0.2919243574142456
1773163106839655700,3.92565576171875,-1.9573289155960083,-7.982456207275391,-0.1579262912273407
1773163106849038000,3.9350380859375,-0.9571290612220764,-8.915657043457031,0.14356936514377594
1773163106858420200,3.944420166015625,0.05742774158716202,-9.446864128112793,1.153340458869934
1773163106867802600,3.953802734375,0.6508477330207825,-9.738788604736328,2.478964328765869
1773163106877184800,3.963184814453125,0.7417750358581543,-9.963713645935059,3.6945180892944336
1773163106886567200,3.972567138671875,0.5886343717575073,-10.231709480285645,4.53200626373291
1773163106895949300,3.98194921875,0.3924229145050049,-10.351350784301758,5.072783946990967
1773163106905331700,3.991331787109375,0.27756741642951965,-10.198209762573242,5.278566837310791
1773163106914714000,4.000714111328125,0.35892340540885925,-9.600004196166992,5.364708423614502
1773163106924096300,4.01009619140625,0.46420758962631226,-8.796015739440918,5.168497085571289
1773163106933478700,4.019478759765625,0.4163511395454407,-8.02074146270752,5.020142078399658
1773163106942860800,4.02886083984375,0.12921242415905,-7.671389579772949,4.871787071228027
1773163106952243200,4.0382431640625,-0.12442677468061447,-7.585247993469238,4.704289436340332
1773163106961625300,4.047625244140625,-0.5359922647476196,-8.078168869018555,4.369294166564941
1773163106971007700,4.0570078125,-0.7752745151519775,-8.575876235961914,4.350151538848877
1773163106980390100,4.06639013671875,-0.9092726111412048,-9.006584167480469,4.34536600112915
1773163106989772300,4.075772216796875,-1.0241280794143677,-9.494720458984375,4.158725738525391
1773163106999154700,4.08515478515625,-1.0863415002822876,-9.580862045288086,4.034298896789551
1773163107008536800,4.094536865234375,-1.0097711086273193,-9.561718940734863,3.8572301864624023
1773163107017919200,4.103919189453125,-0.8183453679084778,-9.422935485839844,3.4121651649475098
1773163107027301600,4.113301513671875,-0.4498506486415863,-9.21715259552002,2.7804598808288574
1773163107036683800,4.122683837890625,-0.11485548317432404,-9.025727272033691,2.2301106452941895
1773163107046066200,4.132066162109375,0.20578274130821228,-9.183652877807617,1.6366907358169556
1773163107055448300,4.1414482421875,0.4546363055706024,-9.422935485839844,1.196411371231079
1773163107064830700,4.150830810546875,0.38763725757598877,-9.772287368774414,0.7848458290100098
1773163107074212900,4.160212890625,0.363709032535553,-10.131211280822754,0.20099709928035736
1773163107083595300,4.16959521484375,0.4737788736820221,-10.317851066589355,-0.16271193325519562
1773163107092977700,4.178977783203125,0.13878370821475983,-10.202995300292969,0.13878370821475983
1773163107102359800,4.18835986328125,-0.25363919138908386,-9.92542839050293,0.727418065071106
1773163107111742200,4.1977421875,-0.28235307335853577,-9.57607650756836,1.5409778356552124
1773163107121124400,4.207124267578125,0.05742774158716202,-9.17886734008789,2.335394859313965
1773163107130506800,4.2165068359375,0.4498506486415863,-8.786444664001465,3.053241729736328
1773163107139889000,4.225888916015625,0.9332008361816406,-8.451449394226074,3.871587038040161
1773163107149271300,4.235271240234375,1.6462619304656982,-8.049455642700195,4.584648132324219
1773163107158653700,4.24465380859375,2.1200408935546875,-7.9489569664001465,5.254638671875
1773163107168035800,4.254035888671875,2.0673987865448,-8.097311973571777,5.584847927093506
1773163107177418200,4.263418212890625,1.5553346872329712,-8.34138011932373,5.565705299377441
1773163107186800400,4.27280029296875,0.8757730722427368,-8.609375953674316,5.2737812995910645
1773163107196182800,4.282182861328125,0.09092725813388824,-8.805587768554688,4.790431022644043
1773163107205565000,4.29156494140625,-0.4163511395454407,-9.030512809753418,4.034298896789551
1773163107214947300,4.300947265625,-0.4498506486415863,-9.241081237792969,3.4025938510894775
1773163107224329700,4.310329833984375,-0.1339980661869049,-9.322437286376953,2.8809585571289062
1773163107233711900,4.3197119140625,0.349352091550827,-9.336793899536133,2.7086751461029053
1773163107243094300,4.32909423828125,0.7896314859390259,-9.317651748657227,2.66560435295105
1773163107252476700,4.3384765625,1.0193424224853516,-9.332008361816406,2.775674343109131
1773163107261858800,4.34785888671875,0.9954141974449158,-9.408578872680664,2.8666014671325684
1773163107271241200,4.3572412109375,0.8135597109794617,-9.494720458984375,3.091526746749878
1773163107280623400,4.366623291015625,0.5742774605751038,-9.523433685302734,3.2829527854919434
1773163107290005800,4.376005859375,0.17228323221206665,-9.45164966583252,3.517449378967285
1773163107299388000,4.385387939453125,-0.1339980661869049,-9.389435768127441,3.7663028240203857
1773163107308770300,4.394770263671875,-0.38285163044929504,-9.284152030944824,3.7902309894561768
1773163107318152700,4.404152587890625,-0.9092726111412048,-9.322437286376953,3.761517286300659
1773163107327534800,4.413534912109375,-1.1341979503631592,-9.260223388671875,3.9146578311920166
1773163107336917200,4.422917236328125,-1.0289137363433838,-9.245866775512695,4.053441524505615
1773163107346299600,4.432299560546875,-0.7465606927871704,-9.231510162353516,4.144368648529053
1773163107355681800,4.441681884765625,-0.11006984114646912,-9.049654960632324,4.350151538848877
1773163107365064200,4.451064208984375,0.35892340540885925,-8.95394229888916,4.53200626373291
1773163107374446300,4.4604462890625,0.9092726111412048,-8.748159408569336,4.742574691772461
1773163107383828700,4.469828857421875,1.4261223077774048,-8.470592498779297,4.934000492095947
1773163107393211000,4.4792109375,1.789831280708313,-8.240880966186523,5.072783946990967
1773163107402593300,4.48859326171875,2.0578274726867676,-8.13081169128418,5.2115678787231445
1773163107411975700,4.4979755859375,2.038684844970703,-8.441878318786621,5.3312087059021
1773163107421357800,4.50735791015625,1.9046868085861206,-9.18843936920166,5.580062389373779
1773163107430740200,4.516740234375,1.8664016723632812,-9.934999465942383,5.905486106872559
1773163107440122600,4.52612255859375,1.7563318014144897,-10.643275260925293,6.092126369476318
1773163107449504800,4.5355048828125,1.7850457429885864,-10.8969144821167,6.183053493499756
1773163107458887200,4.54488720703125,1.5601203441619873,-11.045269012451172,5.876772403717041
1773163107468269300,4.554269287109375,0.6843472719192505,-11.638689041137695,5.163711071014404
1773163107477651700,4.563651611328125,-0.41156548261642456,-12.854243278503418,4.177868366241455
1773163107491725000,4.57772509765625,-1.7754744291305542,-14.419149398803711,3.321237802505493
1773163107501107500,4.587107421875,-2.392822742462158,-14.725430488586426,3.1202406883239746
1773163107510489900,4.59648974609375,-2.493321180343628,-13.969298362731934,3.1250264644622803
1773163107519872000,4.6058720703125,-2.5220351219177246,-12.67717456817627,3.359523057937622
1773163107529254400,4.61525439453125,-2.455035924911499,-11.58126163482666,3.359523057937622
1773163107538636500,4.624636474609375,-2.0817556381225586,-10.700702667236328,3.239881753921509
1773163107548019000,4.63401904296875,-1.5649060010910034,-10.040284156799316,3.0340991020202637
1773163107557401300,4.6434013671875,-1.1820544004440308,-9.494720458984375,2.6943182945251465
1773163107566783500,4.652783447265625,-1.057627558708191,-9.035298347473145,2.392822742462158
1773163107576166000,4.662165771484375,-0.914058268070221,-8.72901725769043,1.8903298377990723
1773163107585548300,4.67154833984375,-0.7800601720809937,-8.49452018737793,1.4787644147872925
1773163107594930400,4.680930419921875,-0.6269195079803467,-8.537590980529785,1.0289137363433838
1773163107604312800,4.690312744140625,-0.7752745151519775,-8.992227554321289,0.8231309652328491
1773163107613695000,4.699695068359375,-0.8183453679084778,-10.241280555725098,0.8183453679084778
1773163107623077400,4.709077392578125,-0.363709032535553,-12.270394325256348,0.7322037220001221
1773163107632459800,4.718459716796875,0.35892340540885925,-14.036297798156738,0.43549370765686035
1773163107641842000,4.727842041015625,1.0528420209884644,-14.969498634338379,0.2153540402650833
1773163107651224300,4.737224365234375,1.1198409795761108,-14.778072357177734,0.4211367964744568
1773163107660606700,4.746606689453125,0.698704183101654,-13.217952728271484,0.97148597240448
1773163107669988900,4.75598876953125,0.27756741642951965,-10.700702667236328,1.7754744291305542
1773163107679371300,4.765371337890625,0.038285162299871445,-8.839086532592773,2.234896421432495
1773163107688753700,4.774753662109375,0.2153540402650833,-7.704888820648193,2.469393014907837
1773163107698135800,4.7841357421875,0.4259224236011505,-7.087540626525879,2.641676187515259
1773163107707518200,4.793518310546875,0.8997012972831726,-6.963113784790039,2.7182464599609375
1773163107716900400,4.802900390625,1.2921242713928223,-6.939185619354248,2.9288148880004883
1773163107726282800,4.81228271484375,1.4500504732131958,-6.943971157073975,3.1920254230499268
1773163107735665200,4.8216650390625,1.1437692642211914,-7.054041385650635,3.737588882446289
1773163107745047300,4.83104736328125,0.14356936514377594,-7.188039302825928,4.34536600112915
1773163107754429700,4.8404296875,-0.8901300430297852,-7.341179847717285,4.804787635803223
1773163107763812000,4.84981201171875,-1.794616937637329,-7.302894592285156,5.168497085571289
1773163107773194200,4.8591943359375,-2.0482561588287354,-7.288537979125977,5.201996326446533
1773163107782576600,4.86857666015625,-1.8999011516571045,-7.17368221282959,5.178068161010742
1773163107791958800,4.877958740234375,-1.6414763927459717,-6.9822564125061035,5.312066078186035
1773163107801341200,4.887341064453125,-1.2011969089508057,-6.9104719161987305,5.388636589050293
1773163107810723600,4.8967236328125,-0.9571290612220764,-6.891329288482666,5.402993679046631
1773163107820105700,4.906105712890625,-0.8039883971214294,-6.704689025878906,5.54177713394165
1773163107829488000,4.915488037109375,-0.7226324677467346,-6.580262184143066,5.474778175354004
1773163107838870500,4.92487060546875,-0.641276478767395,-6.666403770446777,4.919643402099609
1773163107848252700,4.934252685546875,-0.5216353535652161,-6.690331935882568,4.192225456237793
1773163107857635000,4.943635009765625,-0.3732803463935852,-6.570691108703613,3.728017568588257
1773163107867017200,4.953017333984375,-0.20578274130821228,-6.537191390991211,3.2542388439178467
1773163107876399600,4.962399658203125,0.1052841991186142,-6.623332977294922,2.775674343109131
1773163107885782000,4.971781982421875,0.3158525824546814,-6.790830612182617,2.344966173171997
1773163107895164200,4.9811640625,0.33020952343940735,-6.967899322509766,2.0961127281188965
1773163107904546600,4.990546630859375,0.04307080805301666,-7.226324558258057,2.043470621109009
1773163107913929000,4.999928955078125,-0.5312066078186035,-7.637889862060547,2.0195422172546387
1773163107923311000,5.00931103515625,-1.3543375730514526,-8.116454124450684,1.8951154947280884
1773163107932693500,5.018693603515625,-2.282752752304077,-8.307880401611328,1.8903298377990723
1773163107942076000,5.028075927734375,-3.211168050765991,-8.293522834777832,2.0578274726867676
1773163107951458000,5.0374580078125,-4.063013076782227,-8.312665939331055,2.541177749633789
1773163107960840400,5.04684033203125,-4.934000492095947,-8.461020469665527,3.3068809509277344
1773163107970222800,5.056222900390625,-5.632704734802246,-8.767302513122559,4.163511276245117
1773163107979605000,5.06560498046875,-6.111268997192383,-9.025727272033691,5.2354960441589355
1773163107988987400,5.0749873046875,-6.168696880340576,-9.298508644104004,5.934200286865234
1773163107998369800,5.084369873046875,-5.881557941436768,-9.489934921264648,7.197610378265381
1773163108007752000,5.093751953125,-5.498706340789795,-9.590433120727539,8.054241180419922
1773163108017134300,5.10313427734375,-5.1876397132873535,-9.844072341918945,8.413164138793945
1773163108026516700,5.112516845703125,-4.986642360687256,-9.997213363647461,8.202595710754395
1773163108035899000,5.12189892578125,-4.589433670043945,-9.920642852783203,7.5708909034729
1773163108045281300,5.13128125,-4.383651256561279,-9.628718376159668,6.594619274139404
1773163108054663700,5.14066357421875,-4.1347975730896,-9.32722282409668,5.85284423828125
1773163108064045800,5.1500458984375,-3.641875982284546,-9.30329418182373,5.106283664703369
1773163108073428200,5.15942822265625,-3.0580272674560547,-9.226723670959473,4.4410786628723145
1773163108082810600,5.168810546875,-2.66560435295105,-9.020941734313965,3.9433717727661133
1773163108092192800,5.17819287109375,-2.383251428604126,-8.599804878234863,3.4791641235351562
1773163108101575200,5.1875751953125,-1.9621145725250244,-8.178668022155762,3.3882367610931396
1773163108110957600,5.19695751953125,-1.5361921787261963,-7.987242221832275,3.211168050765991
1773163108120339700,5.206339599609375,-1.038485050201416,-7.858029365539551,3.4025938510894775
1773163108129722000,5.21572216796875,-0.6843472719192505,-8.599804878234863,3.9433717727661133
1773163108139104500,5.2251044921875,-0.24885354936122894,-9.992427825927734,5.20678186416626
1773163108148486700,5.234486572265625,0.2871387302875519,-11.461620330810547,6.618547439575195
1773163108157869000,5.243869140625,1.0289137363433838,-13.055240631103516,7.331608772277832
1773163108167251500,5.25325146484375,1.368694543838501,-13.146167755126953,7.403393268585205
1773163108181324800,5.26732470703125,0.17228323221206665,-10.375279426574707,5.781059741973877
1773163108190707200,5.276707275390625,-1.4691931009292603,-8.523234367370605,3.7423746585845947
1773163108200089600,5.286089599609375,-3.3164522647857666,-7.5804619789123535,2.297109842300415
1773163108209471700,5.2954716796875,-4.460221290588379,-7.221538543701172,1.4787644147872925
1773163108218854100,5.304854248046875,-4.488935470581055,-7.365108013153076,0.6891329288482666
1773163108228236300,5.314236328125,-3.8763725757598877,-7.901100158691406,-0.009571290574967861
1773163108237618700,5.32361865234375,-2.9383862018585205,-8.408378601074219,-0.38763725757598877
1773163108247001000,5.3330009765625,-1.34476637840271,-8.752944946289062,-0.46899324655532837
1773163108256383500,5.342383544921875,0.550349235534668,-9.049654960632324,-0.5742774605751038
1773163108265765600,5.351765625,1.6462619304656982,-9.221938133239746,-0.698704183101654
1773163108275148000,5.36114794921875,2.1918256282806396,-9.245866775512695,-0.727418065071106
1773163108284530400,5.370530517578125,1.7802600860595703,-9.399007797241211,-0.30149564146995544
1773163108293912600,5.37991259765625,1.0959128141403198,-9.619147300720215,0.5359922647476196
1773163108303295000,5.389294921875,0.7034898400306702,-9.987641334533691,1.588834285736084
1773163108312677400,5.398677490234375,0.7896314859390259,-10.313065528869629,2.6943182945251465
1773163108322059500,5.4080595703125,1.215553879737854,-10.226923942565918,3.8333017826080322
1773163108331442000,5.41744189453125,1.397408366203308,-9.934999465942383,4.709074974060059
1773163108340824300,5.42682421875,1.3160524368286133,-9.66221809387207,5.029713153839111
1773163108350206500,5.43620654296875,1.1341979503631592,-9.068798065185547,5.2737812995910645
1773163108359588900,5.4455888671875,0.6556333899497986,-8.34138011932373,5.599205017089844
1773163108368971300,5.45497119140625,0.004785645287483931,-7.977670669555664,5.8337016105651855
1773163108378353700,5.464353759765625,-0.45942193269729614,-8.149953842163086,5.948556900024414
1773163108387735800,5.47373583984375,-0.4450650215148926,-8.470592498779297,5.924628734588623
1773163108397118200,5.4831181640625,0.0526420995593071,-8.891729354858398,5.402993679046631
1773163108406500400,5.492500244140625,0.550349235534668,-9.260223388671875,4.570291042327881
1773163108415882800,5.5018828125,0.8614161610603333,-9.55214786529541,3.7471601963043213
1773163108425265200,5.51126513671875,1.153340458869934,-9.695717811584473,2.9479575157165527
1773163108434647600,5.5206474609375,1.1724830865859985,-9.657432556152344,2.1774685382843018
1773163108444029700,5.53002978515625,1.28255295753479,-9.442078590393066,1.588834285736084
1773163108453412000,5.539412109375,1.3543375730514526,-9.360722541809082,1.0145567655563354
1773163108462794500,5.54879443359375,1.2394821643829346,-9.399007797241211,0.46420758962631226
1773163108472176600,5.5581767578125,0.8183453679084778,-9.499505996704102,0.22971096634864807
1773163108481559000,5.56755908203125,0.3445664644241333,-9.585647583007812,0.33020952343940735
1773163108490941400,5.57694140625,-0.038285162299871445,-9.710074424743652,1.0241280794143677
1773163108500323600,5.586323486328125,0.05742774158716202,-9.820143699645996,2.0721843242645264
1773163108509706000,5.5957060546875,0.6221339106559753,-9.753145217895508,2.9048867225646973
1773163108519088400,5.60508837890625,1.34476637840271,-9.56650447845459,3.4648072719573975
1773163108528470800,5.614470703125,1.8616160154342651,-9.255437850952148,3.7710886001586914
1773163108537853000,5.62385302734375,2.115255117416382,-9.001798629760742,3.9672999382019043
1773163108547235300,5.6332353515625,2.139183521270752,-8.714659690856934,4.082155227661133
1773163108556617700,5.64261767578125,1.8137595653533936,-8.475378036499023,4.096512317657471
1773163108565999900,5.651999755859375,1.4739787578582764,-8.35573673248291,4.101297855377197
1773163108575382300,5.66138232421875,1.0767701864242554,-8.37009334564209,4.024727821350098
1773163108584764700,5.6707646484375,0.727418065071106,-8.4562349319458,3.713660717010498
1773163108594147000,5.68014697265625,0.5168496966362,-8.561519622802734,3.3308091163635254
1773163108603529200,5.689529296875,0.22971096634864807,-8.810373306274414,3.029313564300537
1773163108612911600,5.69891162109375,-0.004785645287483931,-9.073583602905273,2.9527430534362793
1773163108622294000,5.7082939453125,-0.16271193325519562,-9.269794464111328,2.933600664138794
1773163108631676200,5.71767626953125,-0.2919243574142456,-9.422935485839844,3.0101709365844727
1773163108641058600,5.72705859375,-0.08135596662759781,-9.523433685302734,3.029313564300537
1773163108650441000,5.73644091796875,0.09092725813388824,-9.571290969848633,3.1585259437561035
1773163108659823000,5.745822998046875,0.24885354936122894,-9.437292098999023,3.34995174407959
1773163108669205500,5.75520556640625,0.5694918036460876,-9.274580955505371,3.82373046875
1773163108678588000,5.764587890625,0.7992027401924133,-9.279366493225098,4.383651256561279
1773163108687970300,5.77397021484375,1.2394821643829346,-9.207581520080566,4.900500774383545
1773163108697352400,5.7833525390625,1.4644074440002441,-9.10229778289795,5.460421085357666
1773163108711426000,5.797426025390625,1.9525432586669922,-9.174081802368164,5.91505765914917
1773163108720808400,5.806808349609375,1.919043779373169,-9.355937004089355,5.962913990020752
1773163108730190600,5.816190673828125,1.6701902151107788,-9.547362327575684,5.771488189697266
1773163108739573000,5.825572998046875,1.2251251935958862,-9.734002113342285,5.374279499053955
1773163108748955400,5.834955322265625,0.7322037220001221,-9.949356079101562,4.9052863121032715
1773163108758337800,5.844337890625,0.38763725757598877,-10.308279991149902,4.503292083740234
1773163108767720000,5.853719970703125,0.4163511395454407,-10.6624174118042,4.153940200805664
1773163108777102300,5.863102294921875,0.5982056856155396,-10.796415328979492,3.9290146827697754
1773163108786484700,5.872484619140625,0.7178468108177185,-10.786844253540039,3.9290146827697754
1773163108795867000,5.881866943359375,0.7704889178276062,-10.700702667236328,4.1491546630859375
1773163108805249300,5.891249267578125,0.7226324677467346,-10.614561080932617,4.450650215148926
1773163108814631700,5.900631591796875,0.6221339106559753,-10.557133674621582,4.728217601776123
1773163108824014000,5.91001416015625,0.5264210104942322,-10.561919212341309,5.048855781555176
1773163108833396200,5.919396240234375,0.6364908218383789,-10.50927734375,5.307280540466309
1773163108842778600,5.928778564453125,0.4977070987224579,-10.408778190612793,5.522634506225586
1773163108852161000,5.9381611328125,-0.1339980661869049,-10.370492935180664,5.5034918785095215
1773163108861543400,5.94754345703125,-0.2105683982372284,-9.982855796813965,5.536991596221924
1773163108870925600,5.956925537109375,-0.35892340540885925,-9.78664493560791,5.2977094650268555
1773163108880308000,5.966307861328125,-0.7800601720809937,-9.743574142456055,4.800002098083496
1773163108889690400,5.9756904296875,-1.3878371715545654,-9.78664493560791,4.273581027984619
1773163108899072500,5.985072509765625,-1.7994025945663452,-9.753145217895508,3.8285162448883057
1773163108908455000,5.994454833984375,-2.0578274726867676,-9.796216011047363,3.5270206928253174
1773163108917837300,6.00383740234375,-2.124826431274414,-9.81535816192627,3.22552490234375
1773163108927219700,6.0132197265625,-2.2444677352905273,-9.81535816192627,2.981456995010376
1773163108936601900,6.022601806640625,-2.3018953800201416,-9.638289451599121,2.699103832244873
1773163108950675500,6.036675537109375,-2.1200408935546875,-8.896514892578125,2.1535403728485107
1773163108960057900,6.046057861328125,-1.6558332443237305,-8.236095428466797,1.8616160154342651
1773163108969440000,6.05543994140625,-1.153340458869934,-7.63310432434082,1.6941183805465698
1773163108978822400,6.064822509765625,-0.8374879360198975,-7.312466144561768,1.4931213855743408
1773163108988204800,6.074204833984375,-0.4737788736820221,-7.915457248687744,1.3830515146255493
1773163108997587200,6.083587158203125,-0.2105683982372284,-10.03549861907959,1.3878371715545654
1773163109006969300,6.09296923828125,0.25363919138908386,-12.739387512207031,1.129412293434143
1773163109016351700,6.102351806640625,1.196411371231079,-14.342578887939453,1.0145567655563354
1773163109025734100,6.111734130859375,1.9525432586669922,-14.864213943481445,0.9571290612220764
1773163109039807500,6.125807373046875,2.7517459392547607,-15.065211296081543,0.8327022790908813
1773163109049190000,6.13518994140625,2.2540390491485596,-14.428720474243164,1.0289137363433838
1773163109058572300,6.144572265625,0.914058268070221,-12.882957458496094,1.3160524368286133
1773163109067954700,6.15395458984375,-0.4019941985607147,-11.227124214172363,1.4739787578582764
1773163109077336800,6.1633369140625,-1.3256237506866455,-10.088140487670898,1.5601203441619873
1773163109086719200,6.17271923828125,-1.612762451171875,-9.461220741271973,1.5649060010910034
1773163109096101600,6.1821015625,-1.2299108505249023,-9.236295700073242,1.4500504732131958
1773163109105484000,6.191484130859375,-0.6029912829399109,-9.083154678344727,1.5361921787261963
1773163109114866200,6.2008662109375,-0.4259224236011505,-8.97787094116211,1.7802600860595703
1773163109124248600,6.21024853515625,-0.23449662327766418,-8.762516975402832,2.2301106452941895
1773163109133631000,6.219630859375,-0.49292147159576416,-8.638090133666992,2.981456995010376
1773163109143013400,6.229013427734375,-0.8327022790908813,-8.532805442810059,3.5030922889709473
1773163109152395500,6.2383955078125,-1.3878371715545654,-8.408378601074219,4.015156269073486
1773163109161778000,6.24777783203125,-1.6031911373138428,-8.039883613586426,4.335794448852539
1773163109171160300,6.257160400390625,-1.6462619304656982,-7.752745151519775,4.326223373413086
1773163109180542700,6.266542724609375,-1.6558332443237305,-7.652246952056885,4.058227062225342
1773163109189924900,6.2759248046875,-1.5170495510101318,-7.436892986297607,3.862015724182129
1773163109199307300,6.285307373046875,-1.3208380937576294,-7.1162543296813965,3.627519130706787
1773163109208689700,6.294689697265625,-1.215553879737854,-6.742974281311035,3.407379388809204
1773163109218072000,6.304072021484375,-1.2873386144638062,-6.455835342407227,3.0963125228881836
1773163109227454200,6.3134541015625,-1.1772687435150146,-6.149554252624512,2.7278177738189697
1773163109236836600,6.322836669921875,-0.8805587291717529,-5.9676995277404785,2.344966173171997
1773163109246219000,6.332218994140625,-0.6460621356964111,-5.79063081741333,2.038684844970703
1773163109255601400,6.341601318359375,-0.43549370765686035,-5.7619171142578125,1.7419748306274414
1773163109264983600,6.350983642578125,-0.363709032535553,-5.742774486541748,1.612762451171875
1773163109274366000,6.360365966796875,-0.3684946894645691,-5.656632900238037,1.5409778356552124
1773163109283748400,6.369748291015625,-0.3684946894645691,-5.752345561981201,1.5696916580200195
1773163109293130800,6.379130859375,-0.3924229145050049,-6.049055576324463,1.852044701576233
1773163109302513000,6.388512939453125,-0.7752745151519775,-6.436692714691162,2.2396819591522217
1773163109311895300,6.397895263671875,-1.4739787578582764,-6.905686378479004,2.8761727809906006
1773163109321277700,6.407277587890625,-2.2636101245880127,-7.441678524017334,3.5461630821228027
1773163109330660000,6.41666015625,-2.909672260284424,-8.111668586730957,3.9912281036376953
1773163109340042200,6.426042236328125,-3.7471601963043213,-8.863015174865723,4.737788677215576
1773163109349424600,6.435424560546875,-4.3788652420043945,-9.863214492797852,5.2354960441589355
1773163109358807000,6.44480712890625,-4.67078971862793,-10.542776107788086,5.9437713623046875
1773163109368189400,6.454189453125,-4.967499732971191,-10.638489723205566,7.058826923370361
1773163109377571800,6.46357177734375,-5.584847927093506,-10.590633392333984,7.77188777923584
1773163109386954000,6.4729541015625,-6.168696880340576,-10.1216402053833,8.738588333129883
1773163109396336400,6.48233642578125,-6.254838466644287,-9.542576789855957,9.442078590393066
1773163109405718800,6.49171875,-6.254838466644287,-8.915657043457031,10.030712127685547
1773163109415101200,6.50110107421875,-6.398407936096191,-8.374878883361816,10.045069694519043
1773163109424483300,6.5104833984375,-6.680760860443115,-8.403593063354492,8.819944381713867
1773163109433865700,6.51986572265625,-7.226324558258057,-8.662017822265625,7.858029365539551
1773163109443248000,6.529248046875,-6.340980052947998,-9.241081237792969,6.752545356750488
1773163109452630500,6.538630615234375,-4.622933387756348,-10.164710998535156,5.460421085357666
1773163109462012700,6.5480126953125,-2.7661030292510986,-11.030912399291992,4.34536600112915
1773163109471395000,6.55739501953125,-0.6364908218383789,-11.700902938842773,3.6131622791290283
1773163109480777500,6.566777587890625,1.8233308792114258,-12.141181945800781,3.1441688537597656
1773163109490159900,6.576159912109375,3.8428730964660645,-12.031112670898438,2.6703901290893555
1773163109499542000,6.5855419921875,4.666004180908203,-11.743973731994629,1.9669002294540405
1773163109508924400,6.59492431640625,4.536791801452637,-11.140982627868652,1.2586246728897095
1773163109518306800,6.604306884765625,3.680161237716675,-9.609575271606445,0.44027936458587646
1773163109527689200,6.613689208984375,2.0578274726867676,-7.75753116607666,-0.7992027401924133
1773163109537071400,6.6230712890625,-0.5599204897880554,-6.498906135559082,-1.770688772201538
1773163109551145000,6.63714501953125,-5.929414749145508,-6.273981094360352,-2.3784656524658203
1773163109560527400,6.64652734375,-6.97268533706665,-7.312466144561768,-2.4885356426239014
1773163109569909800,6.65590966796875,-5.101497650146484,-9.346364974975586,-2.359323024749756
1773163109579292000,6.6652919921875,-2.541177749633789,-11.23190975189209,-1.832902193069458
1773163109588674300,6.67467431640625,-0.2727817893028259,-11.729616165161133,-0.9858429431915283
1773163109598056700,6.684056640625,1.1868400573730469,-11.289337158203125,-0.09571290761232376
1773163109607439000,6.693439208984375,1.5122638940811157,-10.73420238494873,0.6460621356964111
1773163109616821200,6.7028212890625,0.97148597240448,-10.48534870147705,1.6031911373138428
1773163109626203600,6.71220361328125,0.6604190468788147,-10.375279426574707,2.6608188152313232
1773163109635586000,6.7215859375,1.0815558433532715,-10.198209762573242,3.627519130706787
1773163109644968400,6.730968505859375,1.8711873292922974,-9.978070259094238,4.460221290588379
1773163109654350800,6.740350830078125,2.5938198566436768,-9.585647583007812,5.149354457855225
1773163109663733000,6.74973291015625,2.9958138465881348,-9.20279598236084,5.560919761657715
1773163109673115400,6.759115478515625,2.885744094848633,-8.499305725097656,5.819344520568848
1773163109682497800,6.768497802734375,2.2683959007263184,-7.77188777923584,5.556134223937988
1773163109691880200,6.777880126953125,1.4691931009292603,-7.403393268585205,5.560919761657715
1773163109701262300,6.787262451171875,0.6843472719192505,-7.609176158905029,5.556134223937988
1773163109710644700,6.796644775390625,0.20578274130821228,-8.197810173034668,5.431707382202148
1773163109720027100,6.806027099609375,0.05742774158716202,-8.82951545715332,5.154139995574951
1773163109729409500,6.815409423828125,0.3206382393836975,-9.308079719543457,4.7234320640563965
1773163109738791700,6.824791748046875,0.5982056856155396,-9.729216575622559,4.297509670257568
1773163109748174000,6.834174072265625,0.8087740540504456,-9.973284721374512,3.8763725757598877
1773163109757556500,6.843556396484375,0.8757730722427368,-10.021141052246094,3.5365917682647705
1773163109766939000,6.85293896484375,0.8949156403541565,-9.872786521911621,3.1250264644622803
1773163109776321000,6.862321044921875,0.9427721500396729,-9.590433120727539,2.7182464599609375
1773163109785703400,6.871703369140625,0.7657032608985901,-9.336793899536133,2.3545374870300293
1773163109795085800,6.8810859375,0.7322037220001221,-9.183652877807617,2.196611166000366
1773163109809159400,6.895159423828125,1.1150553226470947,-9.41336441040039,1.9525432586669922
1773163109818541600,6.90454150390625,1.2059825658798218,-9.671789169311523,1.9860427379608154
1773163109827924000,6.913924072265625,1.0528420209884644,-9.695717811584473,2.3306093215942383
1773163109837306400,6.923306396484375,0.9284151792526245,-9.7005033493042,2.5698914527893066
1773163109851380000,6.9373798828125,0.9188438653945923,-9.494720458984375,2.7661030292510986
1773163109860762000,6.94676220703125,1.0432707071304321,-9.293723106384277,2.9288148880004883
1773163109870144500,6.95614453125,0.9858429431915283,-9.150154113769531,3.0388846397399902
1773163109879527000,6.96552685546875,0.9475577473640442,-9.025727272033691,3.263810157775879
1773163109888909300,6.974909423828125,0.9667003750801086,-9.068798065185547,3.1728827953338623
1773163109898291500,6.98429150390625,1.0001999139785767,-9.34157943725586,3.3403804302215576
1773163109907673900,6.993673828125,1.0671988725662231,-9.399007797241211,3.263810157775879
1773163109917056300,7.00305615234375,0.9906286001205444,-9.336793899536133,3.1680972576141357
1773163109926438700,7.012438720703125,0.9523434042930603,-9.265008926391602,3.091526746749878
1773163109935821000,7.021821044921875,0.8087740540504456,-9.198010444641113,2.8905298709869385
1773163109945203200,7.031203125,0.6029912829399109,-9.164510726928711,2.799602508544922
1773163109954585600,7.040585693359375,0.4450650215148926,-9.140582084655762,2.737389087677002
1773163109963968000,7.049968017578125,0.25363919138908386,-9.207581520080566,2.871387243270874
1773163109973350400,7.059350341796875,0.349352091550827,-9.379864692687988,3.014956474304199
1773163109982732500,7.068732666015625,0.5407779216766357,-9.55214786529541,3.3403804302215576
1773163109992115000,7.078114990234375,0.9475577473640442,-9.485149383544922,3.594019651412964
1773163110001497300,7.087497314453125,1.3351950645446777,-9.351150512695312,3.8668015003204346
1773163110010879700,7.096879638671875,1.588834285736084,-9.078369140625,4.244867324829102
1773163110020262100,7.10626220703125,1.6031911373138428,-8.958727836608887,4.756931304931641
1773163110029644300,7.115644287109375,1.4835500717163086,-8.8438720703125,4.986642360687256
1773163110039026700,7.125026611328125,1.2394821643829346,-8.96829891204834,5.522634506225586
1773163110048409000,7.1344091796875,0.9810572862625122,-9.025727272033691,5.982056617736816
1773163110057791500,7.14379150390625,0.7465606927871704,-9.030512809753418,6.235695838928223
1773163110067173600,7.153173583984375,0.349352091550827,-9.126225471496582,6.106483459472656
1773163110076556000,7.16255615234375,0,-9.547362327575684,5.656632900238037
1773163110090629600,7.176629638671875,-0.0526420995593071,-9.8871431350708,5.13021183013916
1773163110100012000,7.186011962890625,0.11485548317432404,-9.944570541381836,5.020142078399658
1773163110109394200,7.195394287109375,0.23449662327766418,-10.054640769958496,4.938786029815674
1773163110118776600,7.204776611328125,0.2632105052471161,-10.193424224853516,4.785645484924316
1773163110128159000,7.214158935546875,0.2919243574142456,-10.241280555725098,4.460221290588379
1773163110137541400,7.223541259765625,0.19142581522464752,-10.303494453430176,4.206582069396973
1773163110146923500,7.232923583984375,-0.11006984114646912,-10.437492370605469,3.996013879776001
1773163110156306000,7.242305908203125,-0.5599204897880554,-10.762916564941406,3.8668015003204346
1773163110165688300,7.251688232421875,-1.1150553226470947,-11.164910316467285,3.713660717010498
1773163110175070700,7.26107080078125,-1.6223337650299072,-11.251051902770996,3.6705899238586426
1773163110184452900,7.270452880859375,-1.9860427379608154,-11.002198219299316,3.6466617584228516
1773163110193835300,7.279835205078125,-2.1918256282806396,-10.657631874084473,3.675375461578369
1773163110203217700,7.2892177734375,-2.210968017578125,-10.38485050201416,3.656233072280884
1773163110212600000,7.29860009765625,-2.076970100402832,-10.131211280822754,3.603590965270996
1773163110221982500,7.307982421875,-1.9573289155960083,-9.882357597351074,3.3403804302215576
1773163110231364600,7.317364501953125,-2.00518536567688,-9.45164966583252,2.8809585571289062
1773163110240747000,7.3267470703125,-2.287538528442383,-8.906085968017578,2.4885356426239014
1773163110250129400,7.33612939453125,-2.163111686706543,-8.551948547363281,2.053041934967041
1773163110259511800,7.34551171875,-1.7180466651916504,-8.327022552490234,1.4835500717163086
1773163110268894000,7.35489404296875,-1.124626636505127,-8.37009334564209,1.0911271572113037
1773163110278276400,7.3642763671875,-0.5312066078186035,-9.016156196594238,1.0528420209884644
1773163110287658800,7.37365869140625,0.22971096634864807,-10.920842170715332,1.1485549211502075
1773163110297041200,7.383041259765625,1.3208380937576294,-13.581661224365234,0.7657032608985901
1773163110306423600,7.392423583984375,2.4263222217559814,-15.567704200744629,0.02392822690308094
1773163110315805700,7.4018056640625,2.991028308868408,-16.543975830078125,-0.4737788736820221
1773163110325188000,7.41118798828125,3.067598581314087,-16.768901824951172,-0.550349235534668
1773163110334570500,7.420570556640625,2.287538528442383,-15.759129524230957,-0.2632105052471161
1773163110343953000,7.429952880859375,0.5982056856155396,-13.438092231750488,0.33020952343940735
1773163110358026200,7.444026123046875,-1.2586246728897095,-10.207781791687012,0.9044869542121887
1773163110367408600,7.45340869140625,-1.5696916580200195,-9.078369140625,1.1820544004440308
1773163110376791000,7.462791015625,-1.0671988725662231,-8.595019340515137,1.4787644147872925
1773163110386173400,7.47217333984375,-0.45942193269729614,-8.293522834777832,2.210968017578125
1773163110395555600,7.4815556640625,-0.04785645380616188,-8.14516830444336,3.1728827953338623
1773163110404938000,7.49093798828125,-0.04785645380616188,-8.212167739868164,4.627718925476074
1773163110414320400,7.5003203125,-0.5455635786056519,-8.260024070739746,5.9916276931762695
1773163110423702800,7.509702880859375,-1.3495519161224365,-8.451449394226074,6.393621921539307
1773163110433085000,7.5190849609375,-2.172683000564575,-8.422736167907715,5.85284423828125
1773163110442467300,7.52846728515625,-2.1296122074127197,-8.34138011932373,4.622933387756348
1773163110451849700,7.537849609375,-1.5361921787261963,-8.23130989074707,3.22552490234375
1773163110461232000,7.547232177734375,-1.2538390159606934,-7.843672752380371,2.517249345779419
1773163110470614300,7.5566142578125,-1.0145567655563354,-7.3746795654296875,2.249253273010254
1773163110479996700,7.56599658203125,-0.914058268070221,-6.833901405334473,2.196611166000366
1773163110489379000,7.575379150390625,-1.0049854516983032,-6.403193473815918,2.3018953800201416
1773163110498761500,7.584761474609375,-0.97148597240448,-5.962913990020752,2.517249345779419
1773163110508143900,7.594143798828125,-0.641276478767395,-5.718846321105957,2.3976082801818848
1773163110517526000,7.603526123046875,-0.349352091550827,-5.651846885681152,2.3018953800201416
1773163110526908400,7.612908447265625,-0.15314064919948578,-5.704489231109619,2.163111686706543
1773163110536290800,7.622290771484375,-0.04307080805301666,-5.776273727416992,2.100898265838623
1773163110550364200,7.6363642578125,-0.15314064919948578,-5.881557941436768,1.9094724655151367
1773163110569129000,7.65512890625,-0.9571290612220764,-5.824130535125732,1.919043779373169
1773163110578511400,7.664511474609375,-1.3639088869094849,-5.8959150314331055,2.0578274726867676
1773163110587893800,7.673893798828125,-1.856830358505249,-6.159125328063965,2.3784656524658203
1773163110597276000,7.68327587890625,-2.287538528442383,-6.661618232727051,2.8426733016967773
1773163110606658300,7.692658203125,-2.5746772289276123,-7.456035137176514,3.3308091163635254
1773163110616040700,7.702040771484375,-2.3784656524658203,-8.35573673248291,4.082155227661133
1773163110625422800,7.7114228515625,-1.852044701576233,-9.226723670959473,4.957928657531738
1773163110634805200,7.72080517578125,-1.4979069232940674,-9.810572624206543,6.111268997192383
1773163110644187600,7.730187744140625,-1.679761528968811,-10.183853149414062,7.551748275756836
1773163110653570000,7.739570068359375,-2.6177480220794678,-10.432706832885742,8.800801277160645
1773163110662952400,7.748952392578125,-4.388436794281006,-10.451848983764648,9.600004196166992
1773163110672334600,7.75833447265625,-6.135197162628174,-10.059426307678223,10.078569412231445
1773163110681717000,7.767717041015625,-7.609176158905029,-9.4660062789917,10.222138404846191
1773163110691099400,7.777099365234375,-8.839086532592773,-8.834300994873047,9.485149383544922
1773163110700481800,7.786481689453125,-9.30329418182373,-8.518448829650879,7.9968132972717285
1773163110709864000,7.795864013671875,-7.781459331512451,-8.532805442810059,6.594619274139404
1773163110719246300,7.805246337890625,-5.680561065673828,-9.097511291503906,5.201996326446533
1773163110728628700,7.814628662109375,-3.972085475921631,-9.77707290649414,4.043870449066162
1773163110738011100,7.82401123046875,-2.493321180343628,-10.336994171142578,3.2303106784820557
1773163110747393300,7.833393310546875,-1.0049854516983032,-10.815558433532715,2.909672260284424
1773163110756775700,7.842775634765625,0.46899324655532837,-11.179266929626465,2.9383862018585205
1773163110766158000,7.852157958984375,2.0099709033966064,-11.657832145690918,2.9479575157165527
1773163110775540500,7.86154052734375,3.053241729736328,-12.112467765808105,3.105883836746216
1773163110784922600,7.870922607421875,3.3882367610931396,-12.3278226852417,3.091526746749878
1773163110794305000,7.880304931640625,3.0101709365844727,-12.050254821777344,2.445464849472046
1773163110803687400,7.8896875,2.1439690589904785,-10.767702102661133,1.550549030303955
1773163110813069800,7.89906982421875,0.9236295223236084,-8.85344409942627,0.6747759580612183
1773163110822452000,7.908451904296875,-0.5838487148284912,-7.3746795654296875,-0.22492532432079315
1773163110831834400,7.91783447265625,-2.550748825073242,-6.867401123046875,-0.8949156403541565
1773163110841216800,7.927216796875,-4.589433670043945,-7.274180889129639,-1.4213366508483887
1773163110850599200,7.93659912109375,-5.7858452796936035,-8.437092781066895,-1.794616937637329
1773163110859981300,7.945981201171875,-4.996213912963867,-9.600004196166992,-1.5792629718780518
1773163110869363700,7.95536376953125,-2.7804598808288574,-9.877572059631348,-0.35892340540885925
1773163110883437300,7.969437255859375,0.8279166221618652,-9.810572624206543,0.885344386100769
1773163110892819500,7.9788193359375,1.8855443000793457,-9.863214492797852,1.7180466651916504
1773163110902201900,7.988201904296875,1.9621145725250244,-9.992427825927734,2.4119651317596436
1773163110911584300,7.997584228515625,1.7084753513336182,-10.073782920837402,3.0484559535980225
1773163110920966700,8.006966552734376,1.4261223077774048,-10.088140487670898,3.713660717010498
1773163110930349000,8.01634912109375,1.3495519161224365,-9.997213363647461,4.493721008300781
1773163110939731200,8.025731201171874,1.6271194219589233,-9.77707290649414,5.240281581878662
1773163110949113600,8.035113525390624,2.258824586868286,-9.437292098999023,5.690132141113281
1773163110958496000,8.04449609375,2.6273193359375,-8.872586250305176,5.690132141113281
1773163110967878400,8.05387841796875,2.383251428604126,-8.193024635314941,5.350351333618164
1773163110977260500,8.063260498046875,1.4691931009292603,-7.953742504119873,4.718646049499512
1773163110991334100,8.077334228515625,0.13878370821475983,-7.968099594116211,4.431507587432861
1773163111000716500,8.086716552734375,-0.23449662327766418,-8.35573673248291,4.1970109939575195
1773163111010098700,8.0960986328125,-0.2679961323738098,-9.011369705200195,3.7950167655944824
1773163111019481000,8.105481201171875,0.09571290761232376,-9.456435203552246,3.627519130706787
1773163111028863500,8.114863525390625,0.5742774605751038,-9.772287368774414,3.383451223373413
1773163111038246000,8.124245849609375,0.9667003750801086,-9.930213928222656,3.1106693744659424
1773163111047628000,8.1336279296875,1.1341979503631592,-9.791430473327637,2.895315408706665
1773163111061701600,8.14770166015625,1.2729816436767578,-9.408578872680664,2.311466693878174
1773163111071084000,8.157083984375,0.9810572862625122,-9.006584167480469,1.9908283948898315
1773163111080466200,8.166466064453125,0.8374879360198975,-8.805587768554688,1.8903298377990723
1773163111089848600,8.1758486328125,0.7992027401924133,-8.810373306274414,1.8951154947280884
1773163111099231000,8.18523095703125,1.0336993932724,-8.973084449768066,1.789831280708313
1773163111108613400,8.19461328125,1.1581261157989502,-9.044869422912598,2.0338993072509766
1773163111117995500,8.20399560546875,1.2729816436767578,-9.154939651489258,2.3736801147460938
1773163111127378000,8.2133779296875,1.2203395366668701,-9.226723670959473,2.833101987838745
1773163111136760300,8.22276025390625,1.306481122970581,-9.193224906921387,3.1968109607696533
1773163111150834000,8.236833984375,1.430907964706421,-9.140582084655762,3.407379388809204
1773163111160216000,8.246216064453124,1.1198409795761108,-9.154939651489258,3.460021495819092
1773163111169598500,8.255598388671874,0.9523434042930603,-9.145368576049805,3.4887354373931885
1773163111178980900,8.26498095703125,0.7034898400306702,-9.154939651489258,3.761517286300659
1773163111188363000,8.274363037109374,0.7082754969596863,-9.044869422912598,3.6705899238586426
1773163111197745400,8.283745361328124,0.6269195079803467,-9.040083885192871,3.7423746585845947
1773163111207127800,8.2931279296875,0.4546363055706024,-9.020941734313965,3.493520975112915
1773163111216510200,8.30251025390625,0.2967100143432617,-8.949156761169434,3.311666488647461
1773163111225892400,8.311892333984375,0.1866401731967926,-8.858229637145996,3.1728827953338623
1773163111235274800,8.321274658203125,0.1579262912273407,-8.896514892578125,3.311666488647461
1773163111244657200,8.3306572265625,0.22492532432079315,-8.834300994873047,3.8333017826080322
1773163111254039600,8.34003955078125,0.3397808074951172,-8.800801277160645,4.4650068283081055
1773163111263421700,8.349421630859375,0.5264210104942322,-8.70508861541748,5.1876397132873535
1773163111272804000,8.35880419921875,0.7465606927871704,-8.719446182250977,5.824130535125732
1773163111282186500,8.3681865234375,1.0193424224853516,-8.748159408569336,6.3361945152282715
1773163111291569000,8.37756884765625,0.9906286001205444,-8.776873588562012,6.661618232727051
1773163111300951000,8.386950927734375,0.698704183101654,-8.96829891204834,7.17368221282959
1773163111310333400,8.39633349609375,0.2679961323738098,-9.312865257263184,7.17368221282959
1773163111319715800,8.4057158203125,-0.09092725813388824,-9.906285285949707,6.728617191314697
1773163111329098200,8.41509814453125,-0.05742774158716202,-10.581061363220215,6.058627128601074
1773163111338480400,8.42448046875,0.08135596662759781,-11.169695854187012,5.355136871337891
1773163111347862800,8.43386279296875,0.11964113265275955,-11.624332427978516,4.981856822967529
1773163111357245200,8.4432451171875,0.19142581522464752,-12.122039794921875,4.7473602294921875
1773163111366627300,8.45262744140625,0.43549370765686035,-12.65324592590332,4.398007869720459
1773163111376009700,8.462009765625,0.46420758962631226,-12.796815872192383,4.287938117980957
1773163111385392000,8.47139208984375,0.31106695532798767,-12.509676933288574,3.9672999382019043
1773163111394774500,8.4807744140625,-0.08135596662759781,-11.978469848632812,3.7184464931488037
1773163111404156700,8.49015673828125,-0.885344386100769,-11.586047172546387,3.7710886001586914
1773163111413539000,8.4995390625,-1.4069796800613403,-11.294122695922852,3.838087558746338
1773163111422921500,8.50892138671875,-1.373480200767517,-10.939985275268555,3.8285162448883057
1773163111432303900,8.518303955078125,-1.2442678213119507,-10.52363395690918,3.641875982284546
1773163111441686000,8.52768603515625,-1.3208380937576294,-9.958928108215332,3.4025938510894775
1773163111451068400,8.537068359375,-1.526620864868164,-9.547362327575684,2.9623143672943115
1773163111460450800,8.546450927734375,-1.8424733877182007,-9.145368576049805,2.612962245941162
1773163111469833000,8.5558330078125,-2.1678972244262695,-8.819944381713867,2.172683000564575
1773163111479215400,8.56521533203125,-2.368894338607788,-8.561519622802734,2.0003998279571533
1773163111488597800,8.57459765625,-2.344966173171997,-8.413164138793945,1.5122638940811157
1773163111497980200,8.583980224609375,-1.8041882514953613,-8.575876235961914,0.7896314859390259
1773163111507362300,8.5933623046875,-1.0911271572113037,-9.4660062789917,0.3924229145050049
1773163111516744700,8.60274462890625,-0.09092725813388824,-11.633903503417969,0.2105683982372284
1773163111530818000,8.616818115234375,1.459621787071228,-15.342779159545898,-0.914058268070221
1773163111540200400,8.626200439453125,2.2157537937164307,-16.558332443237305,-1.7371892929077148
1773163111549582800,8.635582763671875,2.249253273010254,-16.63968849182129,-1.7371892929077148
1773163111558965200,8.64496533203125,1.397408366203308,-15.050854682922363,-1.0432707071304321
1773163111568347400,8.654347412109376,-0.22492532432079315,-12.30389404296875,-0.019142581149935722
1773163111577729800,8.663729736328126,-1.0719845294952393,-9.834501266479492,0.4211367964744568
1773163111587112200,8.6731123046875,-1.0049854516983032,-8.432307243347168,0.7561319470405579
1773163111596494600,8.68249462890625,-0.2919243574142456,-7.805387496948242,1.3208380937576294
1773163111605876700,8.691876708984376,0.07657032459974289,-7.551748275756836,2.172683000564575
1773163111615259100,8.701259033203126,0.9044869542121887,-7.465606689453125,3.6610186100006104
1773163111624641500,8.7106416015625,1.5122638940811157,-7.657032489776611,5.063212871551514
1773163111634023700,8.720023681640624,1.4691931009292603,-7.992027759552002,6.556334018707275
1773163111643406000,8.729406005859374,0.22492532432079315,-8.14516830444336,7.599604606628418
1773163111652788500,8.73878857421875,-1.526620864868164,-8.183453559875488,7.81974458694458
1773163111662170600,8.748170654296874,-2.909672260284424,-8.346165657043457,6.809973239898682
1773163111671553000,8.757552978515625,-3.1250264644622803,-8.432307243347168,5.450850009918213
1773163111680935400,8.766935302734375,-2.5746772289276123,-8.298309326171875,4.3549370765686035
1773163111695009000,8.781009033203125,-1.6031911373138428,-7.6043901443481445,3.6993038654327393
1773163111704391200,8.79039111328125,-1.4404792785644531,-7.001399040222168,3.665804386138916
1773163111713773600,8.799773681640625,-1.3160524368286133,-6.546762943267822,3.507878065109253
1773163111723155700,8.80915576171875,-1.0528420209884644,-6.183053493499756,3.2303106784820557
1773163111732538000,8.8185380859375,-0.8231309652328491,-5.924628734588623,3.019742250442505
1773163111741920500,8.82792041015625,-0.5790630578994751,-5.843272686004639,2.8139593601226807
1773163111751303000,8.837302978515625,-0.2967100143432617,-5.91505765914917,2.5220351219177246
1773163111760685000,8.84668505859375,-0.19621145725250244,-5.97727108001709,2.225325107574463
1773163111770067500,8.8560673828125,-0.13878370821475983,-6.058627128601074,2.0099709033966064
1773163111779449900,8.865449951171875,-0.15314064919948578,-6.10169792175293,1.8951154947280884
1773163111788832300,8.874832275390625,-0.2392822653055191,-6.221338748931885,1.9286150932312012
1773163111798214400,8.88421435546875,-0.2871387302875519,-6.441478729248047,2.139183521270752
1773163111807596800,8.8935966796875,-0.44027936458587646,-6.728617191314697,2.3641088008880615
1773163111816979200,8.902979248046876,-0.5838487148284912,-7.1162543296813965,2.775674343109131
1773163111826361300,8.912361328125,-0.8614161610603333,-7.417750358581543,3.311666488647461
1773163111840435000,8.92643505859375,-1.4787644147872925,-7.929814338684082,3.88594388961792
1773163111849817300,8.9358173828125,-1.852044701576233,-8.37966537475586,4.091726779937744
1773163111859199500,8.945199462890624,-2.2301106452941895,-8.882157325744629,4.42193603515625
1773163111868582000,8.954581787109374,-2.857030153274536,-9.394221305847168,4.871787071228027
1773163111877964300,8.96396435546875,-3.6993038654327393,-9.69093132019043,5.632704734802246
1773163111887346400,8.973346435546874,-4.632504463195801,-9.868000984191895,6.3122663497924805
1773163111896728800,8.982728759765624,-5.97727108001709,-9.896714210510254,7.307680130004883
1773163111906111200,8.992111328125,-7.29810905456543,-9.77707290649414,7.929814338684082
1773163111915493400,9.001493408203125,-7.963313579559326,-9.394221305847168,8.997013092041016
1773163111924875800,9.010875732421875,-7.920242786407471,-8.738588333129883,10.131211280822754
1773163111934258200,9.020258056640625,-7.5565338134765625,-8.102097511291504,10.85862922668457
1773163111943640300,9.029640380859375,-7.379465103149414,-7.9728851318359375,10.681560516357422
1773163111953022700,9.039022705078125,-7.231110095977783,-8.0350980758667,9.882357597351074
1773163111962405000,9.048405029296875,-5.546562671661377,-8.25523853302002,8.470592498779297
1773163111971787500,9.05778759765625,-3.5270206928253174,-9.154939651489258,6.484549522399902
1773163111981169700,9.067169677734375,-1.5936198234558105,-9.781859397888184,5.2115678787231445
1773163111990552000,9.076552001953125,-0.397208571434021,-9.982855796813965,4.756931304931641
1773163111999934200,9.085934326171875,0.004785645287483931,-10.341779708862305,4.393222332000732
1773163112009316600,9.095316650390625,0.2919243574142456,-10.547562599182129,3.90987229347229
1773163112018699000,9.104698974609375,0.6556333899497986,-10.700702667236328,3.2781670093536377
1773163112028081400,9.114081298828125,1.2681959867477417,-11.054841041564941,2.3018953800201416
1773163112037463600,9.123463623046876,2.2396819591522217,-11.265409469604492,1.2634103298187256
1773163112046846000,9.132845947265626,2.775674343109131,-11.236695289611816,0.7417750358581543
1773163112056228400,9.142228271484376,3.153740167617798,-11.093125343322754,0.7896314859390259
1773163112065610500,9.151610595703126,2.8522446155548096,-10.600204467773438,0.5455635786056519
1773163112074993000,9.160992919921876,1.4835500717163086,-9.863214492797852,-0.397208571434021
1773163112084375300,9.170375244140626,-1.1629117727279663,-9.265008926391602,-1.3495519161224365
1773163112093757400,9.17975732421875,-4.450650215148926,-8.882157325744629,-1.0432707071304321
1773163112107831000,9.1938310546875,-7.010970115661621,-8.126026153564453,1.4117653369903564
1773163112117213400,9.20321337890625,-5.627918720245361,-8.00638484954834,2.857030153274536
1773163112126595600,9.212595703125,-3.1202406883239746,-8.681160926818848,3.6610186100006104
1773163112140669200,9.226669189453125,-0.46899324655532837,-9.738788604736328,3.90987229347229
1773163112150051300,9.23605126953125,0.4259224236011505,-9.820143699645996,3.3068809509277344
1773163112159433700,9.245433837890625,1.038485050201416,-9.293723106384277,2.943171739578247
1773163112168816000,9.254816162109375,1.5170495510101318,-8.638090133666992,2.8761727809906006
1773163112178198300,9.2641982421875,2.3162522315979004,-8.212167739868164,2.699103832244873
1773163112187580700,9.27358056640625,3.1728827953338623,-7.9968132972717285,2.7278177738189697
1773163112196963000,9.282963134765625,3.2063822746276855,-8.202595710754395,2.909672260284424
1773163112206345200,9.29234521484375,2.8666014671325684,-8.528019905090332,3.359523057937622
1773163112215727600,9.3017275390625,2.699103832244873,-8.8438720703125,3.737588882446289
1773163112225110000,9.311110107421875,2.306680917739868,-9.083154678344727,4.168296813964844
1773163112234492200,9.3204921875,1.5744773149490356,-9.226723670959473,4.493721008300781
1773163112243874600,9.32987451171875,0.6604190468788147,-8.987442016601562,4.67078971862793
1773163112253257000,9.339257080078125,-0.3158525824546814,-8.700303077697754,5.082355499267578
1773163112262639000,9.34863916015625,-1.2634103298187256,-8.484949111938477,5.804987907409668
1773163112272021500,9.358021484375,-1.8616160154342651,-8.46580696105957,6.293123722076416
1773163112281404000,9.36740380859375,-1.7324036359786987,-8.58066177368164,6.230910301208496
1773163112290786000,9.3767861328125,-0.9475577473640442,-8.925228118896484,5.546562671661377
1773163112300168400,9.38616845703125,0.3158525824546814,-9.131011009216309,4.321437835693359
1773163112309550800,9.39555078125,1.2299108505249023,-9.068798065185547,3.3786656856536865
1773163112318933000,9.40493310546875,1.6366907358169556,-8.982656478881836,2.6225335597991943
1773163112328315400,9.4143154296875,1.7228323221206665,-8.910871505737305,1.7371892929077148
1773163112337697800,9.42369775390625,1.8903298377990723,-8.930013656616211,0.6029912829399109
1773163112347080000,9.433079833984374,2.0482561588287354,-8.973084449768066,-0.11485548317432404
1773163112356462300,9.44246240234375,1.7180466651916504,-9.135796546936035,-0.45942193269729614
1773163112370535700,9.45653564453125,0.3158525824546814,-9.32722282409668,0.33020952343940735
1773163112379918000,9.46591796875,-0.4211367964744568,-9.394221305847168,2.0243279933929443
1773163112389300500,9.475300537109375,-0.24885354936122894,-9.379864692687988,3.407379388809204
1773163112398683000,9.484682861328125,0.3206382393836975,-9.269794464111328,4.455435752868652
1773163112408065000,9.49406494140625,0.7992027401924133,-9.044869422912598,5.087141036987305
1773163112417447400,9.503447509765625,0.97148597240448,-8.662017822265625,5.278566837310791
1773163112426829600,9.51282958984375,1.1676974296569824,-8.470592498779297,5.240281581878662
1773163112436212000,9.5222119140625,1.210768222808838,-8.408378601074219,4.996213912963867
1773163112450285600,9.53628564453125,0.9092726111412048,-8.709874153137207,3.6466617584228516
1773163112459667700,9.545667724609375,0.6269195079803467,-9.164510726928711,2.531606435775757
1773163112469050000,9.555050048828125,0.46420758962631226,-9.442078590393066,1.674975872039795
1773163112478432500,9.5644326171875,0.397208571434021,-9.623932838439941,1.1102696657180786
1773163112487814700,9.573814697265625,0.30149564146995544,-9.743574142456055,0.8135597109794617
1773163112497197000,9.583197021484375,0.038285162299871445,-9.829715728759766,0.8662018179893494
1773163112506579200,9.5925791015625,-0.2919243574142456,-10.016355514526367,1.1868400573730469
1773163112515961600,9.601961669921875,-0.7848458290100098,-10.045069694519043,1.6366907358169556
1773163112525344000,9.611343994140626,-1.2011969089508057,-10.193424224853516,2.297109842300415
1773163112534726100,9.62072607421875,-0.8805587291717529,-10.313065528869629,2.9718856811523438
1773163112544108500,9.630108642578126,-0.14356936514377594,-10.217352867126465,3.469592809677124
1773163112553491000,9.639490966796876,0.6221339106559753,-9.652647018432617,4.024727821350098
1773163112562873000,9.648873046875,1.1629117727279663,-8.96829891204834,4.646861553192139
1773163112572255500,9.65825537109375,1.5026925802230835,-8.48016357421875,5.249852657318115
1773163112581637600,9.6676376953125,1.545763373374939,-8.202595710754395,5.618347644805908
1773163112591020000,9.67702001953125,1.3160524368286133,-8.169096946716309,5.7619171142578125
1773163112600402400,9.68640234375,0.97148597240448,-8.111668586730957,5.594419479370117
1773163112609784600,9.69578466796875,0.6795616149902344,-8.068597793579102,5.302495002746582
1773163112619167000,9.7051669921875,0.4833501875400543,-8.135597229003906,4.742574691772461
1773163112628549400,9.71454931640625,0.38285163044929504,-8.504091262817383,4.034298896789551
1773163112637931500,9.723931640625,0.6699903607368469,-8.987442016601562,3.493520975112915
1773163112647314000,9.73331396484375,1.2634103298187256,-9.389435768127441,3.1728827953338623
1773163112656696300,9.7426962890625,1.828116536140442,-9.748359680175781,2.9479575157165527
1773163112666078500,9.752078369140625,2.0673987865448,-9.91107177734375,3.043670415878296
1773163112675460900,9.7614609375,2.0243279933929443,-9.882357597351074,3.3308091163635254
1773163112684843000,9.770843017578125,1.852044701576233,-9.719645500183105,3.8524444103240967
1773163112694225400,9.780225341796875,1.550549030303955,-9.671789169311523,4.3310089111328125
1773163112703607800,9.78960791015625,1.2729816436767578,-9.643074989318848,4.804787635803223
1773163112712990000,9.798989990234375,0.8614161610603333,-9.805787086486816,5.3694939613342285
1773163112722372400,9.808372314453125,0.5599204897880554,-10.059426307678223,5.723631858825684
1773163112731754800,9.817754638671875,0.28235307335853577,-10.52363395690918,6.005984783172607
1773163112741137000,9.827136962890625,0.14356936514377594,-11.016555786132812,6.259624004364014
1773163112750519300,9.836519287109375,0.3924229145050049,-11.236695289611816,6.144768714904785
1773163112759901400,9.8459013671875,0.6843472719192505,-10.963912963867188,5.9676995277404785
1773163112769283800,9.855283935546876,0.7513462901115417,-10.542776107788086,5.584847927093506
1773163112778666200,9.864666259765626,0.48813581466674805,-10.26042366027832,5.340780258178711
1773163112788048400,9.87404833984375,-0.02392822690308094,-10.126425743103027,5.101497650146484
1773163112797430800,9.8834306640625,-0.6221339106559753,-10.202995300292969,4.718646049499512
1773163112806813200,9.892813232421876,-1.4979069232940674,-10.217352867126465,4.1970109939575195
1773163112816195300,9.9021953125,-2.6847469806671143,-10.269994735717773,3.627519130706787
1773163112825577700,9.91157763671875,-3.6993038654327393,-10.461421012878418,3.359523057937622
1773163112834960000,9.9209599609375,-3.579662561416626,-10.62413215637207,2.981456995010376
1773163112844342300,9.93034228515625,-2.60339093208313,-10.514062881469727,2.68953275680542
1773163112853724700,9.939724609375,-1.459621787071228,-10.15035343170166,2.4119651317596436
1773163112863106800,9.94910693359375,-0.7130611538887024,-9.638289451599121,2.201396942138672
1773163112872489200,9.9584892578125,-0.08614161610603333,-9.140582084655762,2.00518536567688
1773163112881871600,9.96787158203125,0.27756741642951965,-8.762516975402832,1.8376877307891846
1773163112891253800,9.977253662109375,0.31106695532798767,-8.805587768554688,1.6893328428268433
1773163112900636200,9.98663623046875,0.27756741642951965,-9.714859962463379,1.4404792785644531
1773163112910018300,9.996018310546875,0.5359922647476196,-11.227124214172363,1.1629117727279663
1773163112924092000,10.010091796875,1.459621787071228,-13.988441467285156,0.23449662327766418
1773163112933474000,10.01947412109375,1.8951154947280884,-15.03171157836914,0.06699903309345245
1773163112942856400,10.0288564453125,1.9669002294540405,-15.467206001281738,0.11485548317432404
1773163112952238800,10.03823876953125,1.5314065217971802,-15.371492385864258,0.363709032535553
1773163112961621000,10.04762109375,0.7130611538887024,-14.45743465423584,0.6699903607368469
1773163112971003400,10.05700341796875,-0.2632105052471161,-12.835101127624512,0.9092726111412048
1773163112980385500,10.066385498046875,-1.0049854516983032,-11.13619613647461,1.215553879737854
1773163112989768000,10.075767822265625,-1.0145567655563354,-9.872786521911621,1.5361921787261963
1773163112999150300,10.085150390625,-0.4163511395454407,-9.131011009216309,1.7180466651916504
1773163113008532500,10.094532470703125,0.2679961323738098,-8.638090133666992,2.043470621109009
1773163113017915000,10.103914794921875,0.4546363055706024,-8.374878883361816,2.5363919734954834
1773163113027297000,10.113297119140626,0.1866401731967926,-8.159524917602539,3.1728827953338623
1773163113036679400,10.122679443359376,-0.3684946894645691,-8.044670104980469,3.5365917682647705
1773163113046061800,10.132061767578126,-0.9762716293334961,-7.9968132972717285,3.761517286300659
1773163113055444000,10.14144384765625,-1.3830515146255493,-8.087740898132324,3.565305709838867
1773163113064826400,10.150826416015626,-1.6031911373138428,-8.02074146270752,2.895315408706665
1773163113074208800,10.160208740234374,-1.7371892929077148,-7.872386455535889,2.359323024749756
1773163113083591000,10.1695908203125,-1.8233308792114258,-7.470392227172852,2.187039852142334
1773163113092973300,10.178973388671874,-1.7132610082626343,-7.020541667938232,2.2157537937164307
1773163113102355500,10.18835546875,-1.5601203441619873,-6.556334018707275,2.321038007736206
1773163113111737900,10.19773779296875,-1.3782658576965332,-6.192625045776367,2.531606435775757
1773163113121120000,10.2071201171875,-1.2203395366668701,-5.824130535125732,2.6560330390930176
1773163113130502400,10.21650244140625,-1.0289137363433838,-5.647061347961426,2.6177480220794678
1773163113139884800,10.225884765625,-0.8087740540504456,-5.747560024261475,2.4885356426239014
1773163113149267000,10.235266845703125,-0.5551348328590393,-5.9437713623046875,2.4358935356140137
1773163113158649300,10.2446494140625,-0.41156548261642456,-6.0777692794799805,2.321038007736206
1773163113168031500,10.254031494140625,-0.5359922647476196,-6.135197162628174,2.5363919734954834
1773163113177414000,10.263413818359375,-0.4498506486415863,-6.221338748931885,2.641676187515259
1773163113186796000,10.272796142578125,-0.5551348328590393,-6.498906135559082,2.675175666809082
1773163113196178400,10.282178466796875,-0.8901300430297852,-6.996613502502441,2.967100143432617
1773163113205560800,10.291560791015625,-1.2490534782409668,-7.499105930328369,3.3643085956573486
1773163113214943000,10.30094287109375,-1.6893328428268433,-7.867600917816162,3.809373617172241
1773163113224325400,10.310325439453125,-2.1296122074127197,-8.097311973571777,4.177868366241455
1773163113233707800,10.319707763671875,-2.3401806354522705,-8.360522270202637,4.7234320640563965
1773163113243090000,10.32908984375,-2.139183521270752,-8.762516975402832,4.9052863121032715
1773163113252472300,10.338472412109375,-2.0338993072509766,-9.068798065185547,5.2977094650268555
1773163113261854500,10.3478544921875,-2.139183521270752,-9.001798629760742,5.905486106872559
1773163113271236900,10.35723681640625,-2.68953275680542,-8.901300430297852,6.096911907196045
1773163113280619000,10.366618896484376,-3.4983067512512207,-8.652446746826172,6.608976364135742
1773163113290001400,10.37600146484375,-4.1491546630859375,-8.403593063354492,6.881757736206055
1773163113299383800,10.3853837890625,-4.642076015472412,-8.288737297058105,7.465606689453125
1773163113308766000,10.394765869140626,-5.19242525100708,-8.159524917602539,7.69531774520874
1773163113318148400,10.4041484375,-5.651846885681152,-8.102097511291504,7.8819580078125
1773163113327530500,10.413530517578126,-6.173482418060303,-7.963313579559326,7.81974458694458
1773163113336913000,10.422912841796874,-6.63769006729126,-7.661818027496338,7.867600917816162
1773163113350986200,10.436986328125,-5.8959150314331055,-7.738388538360596,6.632904529571533
1773163113360368600,10.44636865234375,-5.221138954162598,-7.89631462097168,5.714060306549072
1773163113369750800,10.455750732421874,-4.613361835479736,-7.987242221832275,5.000999450683594
1773163113379133200,10.46513330078125,-3.737588882446289,-8.011170387268066,4.46979284286499
1773163113388515600,10.474515625,-2.775674343109131,-8.087740898132324,4.029513359069824
1773163113397897700,10.483897705078125,-2.0578274726867676,-8.317451477050781,3.651447296142578
1773163113407279900,10.49327978515625,-1.5601203441619873,-8.638090133666992,3.4504501819610596
1773163113416662300,10.502662353515625,-1.0767701864242554,-8.863015174865723,3.460021495819092
1773163113426044700,10.512044677734375,-0.5216353535652161,-9.035298347473145,3.555734395980835
1773163113440118000,10.526117919921875,-0.10049854964017868,-9.523433685302734,3.656233072280884
1773163113449500400,10.53550048828125,-0.32542386651039124,-10.442277908325195,3.8189449310302734
1773163113458882600,10.544882568359375,-0.8183453679084778,-12.20339584350586,4.350151538848877
1773163113468265000,10.554264892578125,-1.588834285736084,-14.356935501098633,5.3216376304626465
1773163113477647000,10.563647216796875,-2.6321048736572266,-16.031911849975586,6.254838466644287
1773163113487029500,10.573029541015625,-4.158725738525391,-17.218751907348633,6.857829570770264
1773163113496411600,10.58241162109375,-5.465207099914551,-15.926627159118652,6.345765590667725
1773163113505794000,10.5917939453125,-5.527420520782471,-11.303693771362305,4.498506546020508
1773163113515176400,10.601176513671875,-3.2063822746276855,-8.551948547363281,3.153740167617798
1773163113524558600,10.61055859375,-0.6173482537269592,-7.3746795654296875,1.5026925802230835
1773163113533941000,10.61994091796875,0.5407779216766357,-6.441478729248047,0.22971096634864807
1773163113543323100,10.6293232421875,0.062213387340307236,-5.704489231109619,-0.4307080805301666
1773163113552705500,10.63870556640625,-1.6558332443237305,-5.015356063842773,-0.35892340540885925
1773163113562087700,10.648087646484376,-2.8905298709869385,-5.020142078399658,-0.5120640397071838
1773163113571470000,10.657469970703126,-2.3880369663238525,-5.996413707733154,-1.3208380937576294
1773163113580852200,10.666852294921876,-0.2967100143432617,-7.144968509674072,-1.459621787071228
1773163113590234600,10.676234619140626,1.4261223077774048,-7.77188777923584,-0.6125625967979431
1773163113599616800,10.68561669921875,2.00518536567688,-8.226524353027344,0.2153540402650833
1773163113608999200,10.694999267578124,1.8711873292922974,-9.030512809753418,1.0911271572113037
1773163113618381600,10.704381591796874,1.215553879737854,-10.02592658996582,2.0721843242645264
1773163113627763700,10.713763671875,0.4498506486415863,-11.519047737121582,3.2446675300598145
1773163113637146000,10.72314599609375,0.32542386651039124,-12.696316719055176,4.790431022644043
1773163113646528300,10.7325283203125,0.851844847202301,-12.825529098510742,5.637490272521973
1773163113655910700,10.74191064453125,1.4404792785644531,-12.031112670898438,5.723631858825684
1773163113665292800,10.751292724609375,1.0815558433532715,-10.408778190612793,5.388636589050293
1773163113674675200,10.76067529296875,0.3397808074951172,-8.614161491394043,4.8574299812316895
1773163113684057300,10.770057373046875,-0.33499518036842346,-7.408178806304932,4.383651256561279
1773163113693439700,10.779439697265625,-0.41156548261642456,-7.140182971954346,4.053441524505615
1773163113702822100,10.788822265625,-0.04307080805301666,-7.6043901443481445,3.9194436073303223
1773163113712204300,10.798204345703125,0.5072783827781677,-8.317451477050781,3.8045880794525146
1773163113721586400,10.80758642578125,1.1341979503631592,-8.915657043457031,3.704089403152466
1773163113730968800,10.81696875,1.5744773149490356,-9.489934921264648,3.3164522647857666
1773163113740351200,10.826351318359375,1.588834285736084,-9.872786521911621,2.6560330390930176
1773163113749733400,10.8357333984375,1.3782658576965332,-10.040284156799316,1.9046868085861206
1773163113759115800,10.84511572265625,0.8135597109794617,-10.06421184539795,1.4021940231323242
1773163113768498000,10.854497802734375,0.4163511395454407,-10.159924507141113,0.914058268070221
1773163113777880300,10.86388037109375,0.14356936514377594,-10.188638687133789,0.6460621356964111
1773163113787262500,10.873262451171875,0.15314064919948578,-10.092926025390625,0.6652047038078308
1773163113796644900,10.882644775390625,0.35892340540885925,-9.963713645935059,0.9379864931106567
1773163113806027000,10.892027099609376,0.5647061467170715,-9.915857315063477,1.2203395366668701
1773163113815409400,10.901409423828126,0.7657032608985901,-9.872786521911621,1.5840486288070679
1773163113824791600,10.91079150390625,0.8997012972831726,-9.805787086486816,1.8185452222824097
1773163113834174000,10.920174072265626,1.0049854516983032,-9.772287368774414,2.1343977451324463
1773163113843556000,10.92955615234375,1.1389836072921753,-9.643074989318848,2.287538528442383
1773163113852938500,10.9389384765625,1.4500504732131958,-9.518648147583008,2.60339093208313
1773163113862321000,10.94832080078125,1.7802600860595703,-9.370293617248535,2.8905298709869385
1773163113871703000,10.957703125,2.0578274726867676,-9.32722282409668,3.2303106784820557
1773163113881085400,10.96708544921875,2.2779672145843506,-9.245866775512695,3.6323046684265137
1773163113890467600,10.976467529296874,2.4406790733337402,-9.18843936920166,4.096512317657471
1773163113899850000,10.98585009765625,2.3880369663238525,-9.150154113769531,4.498506546020508
1773163113909232000,10.995232177734374,2.2301106452941895,-9.049654960632324,4.886143684387207
1773163113918614500,11.004614501953125,1.9669002294540405,-8.906085968017578,5.106283664703369
1773163113927996700,11.01399658203125,1.6462619304656982,-8.819944381713867,5.412564754486084
1773163113937379000,11.023379150390625,1.2251251935958862,-8.724231719970703,5.685346603393555
1773163113946761200,11.03276123046875,0.7369893789291382,-8.666803359985352,5.484349727630615
1773163113956143600,11.0421435546875,0.30628129839897156,-8.834300994873047,4.910071849822998
1773163113965525800,11.05152587890625,0.3158525824546814,-8.925228118896484,4.388436794281006
1773163113974908200,11.060908203125,0.48813581466674805,-9.025727272033691,4.168296813964844
1773163113984290300,11.070290283203125,0.7848458290100098,-9.025727272033691,4.053441524505615
1773163113993672700,11.079672607421875,1.0863415002822876,-8.992227554321289,3.799802303314209
1773163114003054800,11.089054931640625,1.3112667798995972,-8.839086532592773,3.6705899238586426
1773163114012437200,11.098437255859375,1.368694543838501,-8.85344409942627,3.6370904445648193
1773163114021819400,11.1078193359375,1.435693621635437,-8.781659126281738,3.704089403152466
1773163114031201800,11.117201904296875,1.5696916580200195,-8.700303077697754,3.6705899238586426
1773163114040584000,11.126583984375,1.550549030303955,-8.671588897705078,3.7950167655944824
1773163114049966300,11.13596630859375,1.459621787071228,-8.6907320022583,3.88594388961792
1773163114059348500,11.145348388671875,1.4261223077774048,-8.805587768554688,4.000799655914307
1773163114068731000,11.15473095703125,1.5170495510101318,-8.920442581176758,3.8907296657562256
1773163114078113000,11.164113037109376,1.5840486288070679,-9.078369140625,3.933800458908081
1773163114087495400,11.173495361328126,1.6462619304656982,-9.17886734008789,3.895515203475952
1773163114096877600,11.182877685546876,1.588834285736084,-9.308079719543457,3.7902309894561768
1773163114106260000,11.192260009765626,1.5840486288070679,-9.370293617248535,3.6610186100006104
1773163114115642000,11.20164208984375,1.5361921787261963,-9.346364974975586,3.6083765029907227
1773163114125024500,11.2110244140625,1.4117653369903564,-9.408578872680664,3.78544545173645
1773163114134406700,11.22040673828125,1.4739787578582764,-9.470791816711426,3.603590965270996
1773163114143789000,11.2297890625,1.612762451171875,-9.399007797241211,3.5844483375549316
1773163114153171200,11.239171142578124,1.6845471858978271,-9.30329418182373,3.651447296142578
1773163114162553600,11.2485537109375,1.588834285736084,-9.221938133239746,3.90987229347229
1773163114171935700,11.257935791015624,1.521835207939148,-9.169296264648438,3.9912281036376953
1773163114181318100,11.267318115234374,1.430907964706421,-9.016156196594238,4.058227062225342
1773163114190700300,11.2767001953125,1.2586246728897095,-8.863015174865723,4.158725738525391
1773163114200082700,11.286082763671875,1.0863415002822876,-8.872586250305176,4.177868366241455
1773163114209464800,11.29546484375,0.8614161610603333,-8.973084449768066,4.292723655700684
1773163114218847200,11.30484716796875,0.8135597109794617,-9.212367057800293,4.158725738525391
1773163114228229400,11.3142294921875,0.8709874153137207,-9.494720458984375,4.130012035369873
1773163114237611800,11.32361181640625,0.9188438653945923,-9.724431037902832,4.091726779937744
1773163114246994000,11.332993896484375,1.038485050201416,-9.868000984191895,3.900300979614258
1773163114256376300,11.342376220703125,1.100698471069336,-9.872786521911621,3.6705899238586426
1773163114265758500,11.351758544921875,1.0049854516983032,-9.7005033493042,3.3403804302215576
1773163114275140900,11.361140869140625,0.6556333899497986,-9.30329418182373,3.0723843574523926
1773163114284523000,11.37052294921875,0.11006984114646912,-8.987442016601562,2.8905298709869385
1773163114293905400,11.379905517578125,-0.35413774847984314,-8.8438720703125,2.8522446155548096
1773163114303287600,11.38928759765625,-0.7417750358581543,-8.915657043457031,2.9623143672943115
1773163114312670000,11.398669921875,-0.9092726111412048,-9.221938133239746,3.139383316040039
1773163114322052000,11.408052001953125,-1.0671988725662231,-9.743574142456055,3.273381471633911
1773163114331434500,11.4174345703125,-1.1341979503631592,-10.380064964294434,3.2590243816375732
1773163114340816600,11.426816650390625,-1.3543375730514526,-11.050054550170898,3.019742250442505
1773163114350199000,11.436198974609376,-1.6510475873947144,-11.58126163482666,2.7421748638153076
1773163114359581200,11.445581298828126,-1.8137595653533936,-12.102896690368652,2.3545374870300293
1773163114368963600,11.454963623046876,-1.5840486288070679,-12.433106422424316,1.919043779373169
1773163114378345700,11.464345703125,-1.038485050201416,-12.744173049926758,1.3208380937576294
1773163114387728100,11.47372802734375,-0.45942193269729614,-12.830314636230469,0.9475577473640442
1773163114397110300,11.4831103515625,0.09571290761232376,-12.772887229919434,0.6891329288482666
1773163114406492700,11.49249267578125,0.7465606927871704,-12.63888931274414,0.3924229145050049
1773163114415874800,11.501874755859374,1.3112667798995972,-12.126825332641602,0.3732803463935852
1773163114425257000,11.511257080078124,1.5744773149490356,-11.739188194274902,0.16271193325519562
1773163114434639400,11.520639404296874,1.6941183805465698,-11.365907669067383,0.24885354936122894
1773163114444021500,11.530021484375,1.7180466651916504,-11.10748291015625,0.727418065071106
1773163114453404000,11.53940380859375,1.4787644147872925,-11.006983757019043,1.038485050201416
1773163114462786000,11.5487861328125,1.0001999139785767,-10.825129508972168,1.1102696657180786
1773163114472168400,11.55816845703125,0.06699903309345245,-10.346565246582031,1.6606189012527466
1773163114481550600,11.567550537109375,-0.4833501875400543,-9.958928108215332,2.56510591506958
1773163114490933000,11.57693310546875,-0.4977070987224579,-9.619147300720215,3.2446675300598145
1773163114500315100,11.586315185546875,-0.3445664644241333,-9.255437850952148,3.895515203475952
1773163114509697500,11.595697509765625,0.0526420995593071,-8.86780071258545,4.412364959716797
1773163114519079700,11.60507958984375,0.22013968229293823,-8.384450912475586,4.876572608947754
1773163114528462000,11.614462158203125,0.3924229145050049,-7.752745151519775,5.254638671875
1773163114537844200,11.62384423828125,0.30628129839897156,-7.23589563369751,5.4795637130737305
1773163114547226600,11.6332265625,0.12921242415905,-6.867401123046875,5.407779216766357
1773163114556608800,11.64260888671875,-0.15314064919948578,-6.656832695007324,4.766502857208252
1773163114565991200,11.6519912109375,-0.4163511395454407,-6.623332977294922,4.029513359069824
1773163114575373300,11.661373291015625,-0.5312066078186035,-6.647261142730713,3.5126636028289795
1773163114584755500,11.67075537109375,-0.6699903607368469,-6.776473522186279,3.445664644241333
1773163114594137900,11.680137939453125,-0.7513462901115417,-6.943971157073975,3.689732551574707
1773163114603520000,11.68952001953125,-0.8374879360198975,-7.125825881958008,4.015156269073486
1773163114612902400,11.69890234375,-1.0097711086273193,-7.274180889129639,4.2592244148254395
1773163114622284500,11.708284423828125,-1.1676974296569824,-7.365108013153076,4.335794448852539
1773163114631667000,11.7176669921875,-1.2203395366668701,-7.408178806304932,4.335794448852539
1773163114641049000,11.727049072265626,-1.129412293434143,-7.432106971740723,4.359723091125488
1773163114650431200,11.73643115234375,-1.1437692642211914,-7.451249599456787,4.431507587432861
1773163114659813600,11.745813720703126,-1.4165509939193726,-7.513463020324707,4.536791801452637
1773163114669195800,11.75519580078125,-1.5122638940811157,-7.527820110321045,4.541577339172363
1773163114678578200,11.764578125,-1.6941183805465698,-7.566105365753174,4.584648132324219
1773163114687960300,11.773960205078126,-1.8472590446472168,-7.724031448364258,4.522434711456299
1773163114697342700,11.7833427734375,-2.0338993072509766,-7.9489569664001465,4.53200626373291
1773163114706724900,11.792724853515624,-2.1583259105682373,-8.09252643585205,4.646861553192139
1773163114716107300,11.802107177734374,-2.172683000564575,-8.154739379882812,4.785645484924316
1773163114730180600,11.8161806640625,-2.2636101245880127,-8.197810173034668,4.9292144775390625
1773163114739562800,11.825562744140624,-2.3018953800201416,-8.25523853302002,4.6995038986206055
1773163114748945200,11.834945068359374,-2.3641088008880615,-8.264809608459473,4.627718925476074
1773163114758327300,11.844327392578125,-2.4263222217559814,-8.374878883361816,4.73300313949585
1773163114767709700,11.853709716796875,-2.3976082801818848,-8.484949111938477,4.809573650360107
1773163114777091800,11.863091796875,-2.416750907897949,-8.518448829650879,4.900500774383545
1773163114791165200,11.877165283203125,-2.6703901290893555,-8.307880401611328,5.13021183013916
1773163114800547600,11.886547607421875,-2.861815929412842,-8.23130989074707,5.154139995574951
1773163114809929700,11.8959296875,-3.1489546298980713,-8.140382766723633,5.240281581878662
1773163114819311900,11.905311767578125,-3.445664644241333,-8.140382766723633,5.259424209594727
1773163114828694300,11.9146943359375,-3.7328033447265625,-8.264809608459473,5.158925533294678
1773163114838076400,11.924076416015625,-4.053441524505615,-8.298309326171875,5.139782905578613
1773163114847458800,11.933458740234375,-4.393222332000732,-8.408378601074219,5.058426856994629
1773163114856841000,11.942841064453125,-4.618147850036621,-8.475378036499023,4.948357105255127
1773163114870914300,11.956914306640625,-4.575077056884766,-8.417949676513672,4.910071849822998
1773163114880296700,11.966296630859375,-4.445864677429199,-8.279166221618652,4.785645484924316
1773163114889678800,11.975678955078125,-4.2831525802612305,-8.082955360412598,4.694717884063721
1773163114899061200,11.985061279296875,-4.019941806793213,-7.915457248687744,4.632504463195801
1773163114908443400,11.994443359375,-3.6466617584228516,-7.843672752380371,4.579862594604492
1773163114917825800,12.00382568359375,-3.2542388439178467,-7.795815944671631,4.570291042327881
1773163114927208000,12.0132080078125,-2.967100143432617,-7.776673793792725,4.53200626373291
1773163114936590000,12.022590087890626,-2.7326035499572754,-7.747959613800049,4.445864677429199
1773163114945972500,12.031972412109376,-2.5459632873535156,-7.690532207489014,4.2831525802612305
1773163114955354600,12.041354736328126,-2.3736801147460938,-7.810173034667969,4.067798614501953
1773163114964737000,12.050737060546876,-2.172683000564575,-8.346165657043457,3.900300979614258
1773163114974119200,12.060119140625,-1.9621145725250244,-9.255437850952148,3.838087558746338
1773163114983501600,12.06950146484375,-1.9142581224441528,-10.231709480285645,3.88594388961792
1773163114992883700,12.0788837890625,-2.258824586868286,-10.724631309509277,3.88594388961792
1773163115002265900,12.088265869140624,-2.7804598808288574,-10.514062881469727,3.665804386138916
1773163115011648300,12.097648193359374,-3.2159535884857178,-9.934999465942383,3.2350962162017822
1773163115021030400,12.107030517578124,-3.3690943717956543,-9.571290969848633,2.775674343109131
1773163115030412800,12.116412841796874,-3.0388846397399902,-9.446864128112793,2.6464617252349854
1773163115039795000,12.125794921875,-2.50289249420166,-9.489934921264648,2.981456995010376
1773163115049177000,12.135177001953124,-2.225325107574463,-9.600004196166992,3.3882367610931396
1773163115058559500,12.1445595703125,-2.66560435295105,-9.513862609863281,3.675375461578369
1773163115067941600,12.153941650390625,-3.16331148147583,-9.221938133239746,3.689732551574707
1773163115082015000,12.168014892578125,-2.5220351219177246,-8.767302513122559,3.3403804302215576
1773163115091397400,12.1773974609375,-2.1822543144226074,-8.647661209106445,2.746960401535034
1773163115100779500,12.186779541015625,-2.2683959007263184,-8.719446182250977,1.9716858863830566
1773163115110162000,12.196161865234375,-2.2444677352905273,-8.839086532592773,1.4404792785644531
1773163115119544000,12.2055439453125,-1.9142581224441528,-9.169296264648438,0.9667003750801086
1773163115128926200,12.21492626953125,-1.368694543838501,-9.485149383544922,0.6556333899497986
1773163115138308600,12.22430859375,-0.4737788736820221,-9.623932838439941,0.6460621356964111
1773163115147690800,12.233690673828125,0.22971096634864807,-9.604789733886719,1.2394821643829346
1773163115161764000,12.24776416015625,0.8327022790908813,-9.604789733886719,2.5698914527893066
1773163115171146500,12.257146484375,1.0528420209884644,-9.686145782470703,3.273381471633911
1773163115180528600,12.266528564453125,1.3878371715545654,-9.667003631591797,3.8524444103240967
1773163115189910800,12.275910888671875,1.5170495510101318,-9.643074989318848,4.230510234832764
1773163115199293200,12.285293212890625,1.2921242713928223,-9.590433120727539,4.460221290588379
1773163115208675300,12.29467529296875,0.6747759580612183,-9.600004196166992,4.335794448852539
1773163115218057700,12.3040576171875,-0.12442677468061447,-9.384650230407715,4.158725738525391
1773163115227439900,12.31343994140625,-0.8231309652328491,-9.250652313232422,3.9672999382019043
1773163115236822000,12.322822021484376,-1.2681959867477417,-9.198010444641113,3.9529430866241455
1773163115250895600,12.3368955078125,-1.2729816436767578,-8.982656478881836,4.249652862548828
1773163115260277800,12.34627783203125,-0.9475577473640442,-8.930013656616211,4.3310089111328125
1773163115269660000,12.355659912109376,-0.5838487148284912,-8.997013092041016,4.254438877105713
1773163115279042300,12.365042236328126,-0.16271193325519562,-8.992227554321289,4.1347975730896
1773163115288424400,12.374424560546874,0.25363919138908386,-9.020941734313965,3.8907296657562256
1773163115297806600,12.383806640625,0.641276478767395,-9.131011009216309,3.5988051891326904
