time,seconds_elapsed,z,y,x
1773163103021004800,0.1070048828125,0.053963661193847656,0.06803131103515625,0.11014854907989502
1773163103029337600,0.115337646484375,0.0027303695678710938,0.07181096076965332,0.14112365245819092
1773163103037670700,0.123670654296875,0.052745819091796875,0.05833005905151367,-0.0033975839614868164
1773163103054336800,0.140336669921875,0.6013069152832031,-0.24278879165649414,-0.27842891216278076
1773163103062669800,0.148669921875,0.9438152313232422,-0.5343632698059082,-0.32573461532592773
1773163103071003000,0.1570029296875,0.7099456787109375,-0.8313398361206055,-0.3483165502548218
1773163103079336000,0.1653359375,0.002925872802734375,-0.8976624011993408,-0.3742152452468872
1773163103087668700,0.173668701171875,-0.9338846206665039,-0.6593568325042725,-0.3396739959716797
1773163103096001800,0.182001708984375,-1.6393842697143555,-0.313884973526001,-0.313498318195343
1773163103104334800,0.1903349609375,-1.9585800170898438,-0.11103487014770508,-0.08141058683395386
1773163103112668000,0.19866796875,-1.9098587036132812,-0.04049968719482422,0.25715965032577515
1773163103121001000,0.2070009765625,-2.593364715576172,-0.561547040939331,1.040335774421692
1773163103129334000,0.215333984375,-2.235846519470215,-0.186234712600708,0.2077486515045166
1773163103137667000,0.2236669921875,-1.6511964797973633,0.11394619941711426,-0.4819474220275879
1773163103146000000,0.231999755859375,-0.8162517547607422,0.1932697296142578,-0.5189033150672913
1773163103154333000,0.2403330078125,-0.005534172058105469,0.08815860748291016,0.12169039249420166
1773163103162666000,0.248666015625,0.1272287368774414,-0.12021422386169434,0.5886441469192505
1773163103170999000,0.2569990234375,-0.4093027114868164,-0.28022289276123047,0.5720884799957275
1773163103179332000,0.26533203125,-1.2139825820922852,-0.48442935943603516,0.41448962688446045
1773163103187665200,0.2736650390625,-1.8595857620239258,-0.737647294998169,0.0786135196685791
1773163103195998200,0.281998291015625,-2.3370494842529297,-1.0787360668182373,-0.2230607271194458
1773163103204331300,0.290331298828125,-2.8035831451416016,-1.211951494216919,-0.334916353225708
1773163103212664000,0.2986640625,-3.0505223274230957,-0.9019229412078857,-0.3004196882247925
1773163103220997000,0.3069970703125,-3.169980049133301,-0.4862346649169922,0.12322032451629639
1773163103229330200,0.315330078125,-3.0509567260742188,-0.22038698196411133,0.6428995132446289
1773163103237663200,0.323663330078125,-2.9352927207946777,-0.10957193374633789,1.0342671871185303
1773163103245996300,0.331996337890625,-2.737232208251953,-0.1415081024169922,1.0440809726715088
1773163103254329300,0.340329345703125,-2.711714267730713,-0.3232698440551758,0.8215569257736206
1773163103262662400,0.348662353515625,-2.7027621269226074,-0.5111856460571289,0.45260536670684814
1773163103270995200,0.3569951171875,-2.405640125274658,-0.6710166931152344,-0.06354355812072754
1773163103279328300,0.365328369140625,-2.319838047027588,-0.712425708770752,-0.5316545963287354
1773163103287661300,0.373661376953125,-2.2542052268981934,-0.8035273551940918,-1.0529310703277588
1773163103295994400,0.381994384765625,-1.9055957794189453,-1.2390632629394531,-1.785237431526184
1773163103304327400,0.390327392578125,-1.7932987213134766,-1.557441234588623,-2.408374547958374
1773163103312660500,0.398660400390625,-1.6733736991882324,-1.2679600715637207,-2.8469674587249756
1773163103320993500,0.40699365234375,-1.627532958984375,-0.5296001434326172,-3.2888073921203613
1773163103329326300,0.415326416015625,-1.5209951400756836,0.09712648391723633,-3.046060562133789
1773163103337659400,0.423659423828125,-1.694760799407959,0.06078767776489258,-2.007791757583618
1773163103345992400,0.431992431640625,-2.4172377586364746,-0.5937542915344238,-0.16700375080108643
1773163103354325500,0.440325439453125,-2.4010868072509766,-0.9055776596069336,0.7809314727783203
1773163103362658600,0.448658447265625,-1.9464173316955566,-1.1919338703155518,0.9511078596115112
1773163103370991600,0.45699169921875,-1.7549071311950684,-1.6021976470947266,0.6254431009292603
1773163103379324700,0.46532470703125,-1.8717169761657715,-1.641585350036621,0.31368184089660645
1773163103387657700,0.47365771484375,-2.433574676513672,-1.5038723945617676,0.08536732196807861
1773163103395990500,0.481990478515625,-3.192258358001709,-1.0692546367645264,0.04254257678985596
1773163103404323600,0.490323486328125,-3.5294642448425293,-0.7542684078216553,-0.015568137168884277
1773163103412656600,0.49865673828125,-3.3911266326904297,-0.528386116027832,-0.010509848594665527
1773163103420989700,0.50698974609375,-3.2049336433410645,-0.4761672019958496,0.023100852966308594
1773163103429322800,0.51532275390625,-2.822202205657959,-0.6179947853088379,0.14974570274353027
1773163103437655800,0.52365576171875,-2.0520944595336914,-0.5563859939575195,0.5439469814300537
1773163103445988900,0.53198876953125,-1.4959850311279297,-0.4190330505371094,0.9485005140304565
1773163103454321700,0.54032177734375,-1.2717299461364746,-0.46079349517822266,1.2125412225723267
1773163103462654700,0.54865478515625,-1.4395318031311035,-0.5636272430419922,1.1707884073257446
1773163103470987800,0.55698779296875,-1.7520179748535156,-0.7165842056274414,0.787949800491333
1773163103479320800,0.56532080078125,-2.152061939239502,-1.0418860912322998,0.20207500457763672
1773163103487654000,0.57365380859375,-2.268556594848633,-1.5020029544830322,-0.5928481817245483
1773163103495987000,0.581987060546875,-2.4387736320495605,-1.7248790264129639,-0.9959903955459595
1773163103504320000,0.590320068359375,-2.7633838653564453,-1.3688278198242188,-0.1730438470840454
1773163103512652800,0.59865283203125,-2.8264107704162598,-1.6151454448699951,-0.8500171899795532
1773163103520985900,0.60698583984375,-5.284030437469482,-0.8656430244445801,-0.43057024478912354
1773163103529319000,0.61531884765625,-3.1237521171569824,-0.4626460075378418,-0.25549888610839844
1773163103537652000,0.62365185546875,-2.857532501220703,-0.37653541564941406,0.025885343551635742
1773163103545985000,0.631985107421875,-2.856934070587158,-0.33249711990356445,0.17892146110534668
1773163103554318000,0.640318115234375,-2.7948927879333496,-1.1136138439178467,-0.09643721580505371
1773163103562651100,0.648651123046875,-2.3882369995117188,-1.4091377258300781,-0.32097291946411133
1773163103570984000,0.65698388671875,-2.421342372894287,-1.407926321029663,-0.3642692565917969
1773163103579317000,0.66531689453125,-2.8551039695739746,-1.2983109951019287,-0.12533235549926758
1773163103587650000,0.673650146484375,-2.826521873474121,-1.3711445331573486,-0.08250284194946289
1773163103595983000,0.681983154296875,-2.9824624061584473,-1.5888409614562988,-0.17904162406921387
1773163103604316200,0.690316162109375,-3.084567070007324,-1.8044025897979736,-0.3157317638397217
1773163103612649200,0.698649169921875,-3.108865261077881,-1.975189208984375,-0.49405622482299805
1773163103620982300,0.706982177734375,-3.309404134750366,-2.101539134979248,-0.5903334617614746
1773163103629315300,0.7153154296875,-3.5122342109680176,-2.352161407470703,-0.7217589616775513
1773163103637648100,0.723648193359375,-3.643399238586426,-2.836266040802002,-1.0963554382324219
1773163103645981200,0.731981201171875,-3.7711808681488037,-3.1083507537841797,-1.328295350074768
1773163103654314200,0.740314208984375,-4.435055732727051,-2.687451124191284,-0.8642287254333496
1773163103662647300,0.748647216796875,-5.142426490783691,-2.6542234420776367,-0.6520895957946777
1773163103670980400,0.75698046875,-4.812753200531006,-2.672600269317627,-0.7565116882324219
1773163103679313400,0.7653134765625,-3.995978355407715,-2.539280652999878,-1.0700299739837646
1773163103687646500,0.773646484375,-3.294276714324951,-2.5773544311523438,-1.2205369472503662
1773163103695979300,0.781979248046875,-2.583530902862549,-2.5809950828552246,-1.159252643585205
1773163103712645400,0.798645263671875,-1.5223028659820557,-2.4074175357818604,-1.0450258255004883
1773163103720978400,0.806978515625,-1.3290009498596191,-2.034193992614746,-1.104053258895874
1773163103729311500,0.8153115234375,-1.0958285331726074,-1.9136985540390015,-1.0983238220214844
1773163103737644500,0.82364453125,-0.8408722877502441,-2.1328492164611816,-1.6343040466308594
1773163103745977600,0.8319775390625,-0.710047721862793,-2.4308319091796875,-2.428266763687134
1773163103754310400,0.840310302734375,-0.40025854110717773,-2.839322090148926,-2.7784507274627686
1773163103762643500,0.8486435546875,-0.2989182472229004,-2.8820180892944336,-2.634125232696533
1773163103770976500,0.8569765625,-0.6768226623535156,-2.4658241271972656,-2.007791042327881
1773163103779309600,0.8653095703125,-1.0337157249450684,-1.9365955591201782,-1.0447983741760254
1773163103787642600,0.873642578125,-1.0886390209197998,-1.3910770416259766,-0.23737335205078125
1773163103795975700,0.8819755859375,-0.7822051048278809,-0.9813733100891113,0.3968372344970703
1773163103804308700,0.890308837890625,0.09733247756958008,-0.718949556350708,0.6422700881958008
1773163103812641800,0.898641845703125,1.6418962478637695,-0.5226695537567139,0.5222220420837402
1773163103820974600,0.906974609375,3.194523572921753,-0.35228729248046875,0.2913780212402344
1773163103829307600,0.9153076171875,4.228903770446777,-0.29007601737976074,-0.07645940780639648
1773163103837640700,0.923640625,5.1252946853637695,-0.40698862075805664,-0.5111184120178223
1773163103845973800,0.931973876953125,5.819777488708496,0.11897158622741699,-0.5511574745178223
1773163103854306800,0.940306884765625,5.28005313873291,0.5915164947509766,-0.24399852752685547
1773163103862639900,0.948639892578125,3.818725824356079,1.504023551940918,0.6496500968933105
1773163103870973000,0.956972900390625,2.980314016342163,2.2411348819732666,1.4162344932556152
1773163103879305700,0.9653056640625,2.868846893310547,2.64961576461792,2.0834407806396484
1773163103887638800,0.973638671875,3.311715841293335,2.7247700691223145,2.3925204277038574
1773163103895971800,0.981971923828125,3.8343334197998047,3.2054290771484375,2.652683734893799
1773163103904305000,0.990304931640625,3.4525740146636963,3.9564085006713867,2.732452869415283
1773163103912638000,0.998637939453125,2.1878502368927,4.458055019378662,3.2862534523010254
1773163103920971000,1.006970947265625,1.8720784187316895,4.6526288986206055,3.8878302574157715
1773163103929304000,1.015303955078125,2.838156223297119,5.022663116455078,4.1189703941345215
1773163103937636900,1.023636962890625,4.23817777633667,5.067043781280518,4.2862958908081055
1773163103945970000,1.031969970703125,5.805942535400391,4.7320876121521,4.068350791931152
1773163103954303000,1.040302978515625,7.035577297210693,4.368587017059326,3.645291328430176
1773163103962636000,1.048635986328125,7.392053604125977,4.10835075378418,3.2031941413879395
1773163103970969000,1.056968994140625,7.478205680847168,4.0396037101745605,3.208977699279785
1773163103979302100,1.06530224609375,7.155055046081543,4.205898284912109,3.0104336738586426
1773163103987635200,1.07363525390625,6.593775749206543,3.9865455627441406,2.5398402214050293
1773163103995968000,1.081968017578125,5.590420246124268,3.6917383670806885,2.3764615058898926
1773163104004301000,1.090301025390625,4.4416728019714355,3.8121654987335205,2.4909305572509766
1773163104012634000,1.098634033203125,3.167818546295166,3.8262996673583984,2.4485960006713867
1773163104020967200,1.10696728515625,2.5774569511413574,3.6477551460266113,2.5855894088745117
1773163104029300200,1.11530029296875,2.706554889678955,3.2939717769622803,2.738071918487549
1773163104037633300,1.12363330078125,2.882430076599121,3.037940740585327,2.7563862800598145
1773163104045966300,1.13196630859375,2.6931495666503906,2.872225046157837,2.812587261199951
1773163104054299400,1.14029931640625,2.6861748695373535,2.556994676589966,2.841139793395996
1773163104062632200,1.148632080078125,2.884946823120117,2.361515760421753,2.864755153656006
1773163104070965200,1.15696533203125,2.691326141357422,2.0554544925689697,2.4919304847717285
1773163104079298300,1.16529833984375,2.558772087097168,1.5643260478973389,2.0681796073913574
1773163104087631400,1.17363134765625,2.5673460960388184,1.208755373954773,1.7200407981872559
1773163104095964400,1.18196435546875,2.67293119430542,0.7934681177139282,1.56486177444458
1773163104104297500,1.19029736328125,2.7471609115600586,0.5139650106430054,1.7744426727294922
1773163104112630500,1.198630615234375,1.5274486541748047,-0.11688998341560364,1.4598302841186523
1773163104120963300,1.20696337890625,1.8138928413391113,0.3622257709503174,1.9022483825683594
1773163104129296400,1.21529638671875,1.9018168449401855,1.186622142791748,2.3417835235595703
1773163104137629400,1.22362939453125,2.1268298625946045,1.0547966957092285,2.1251392364501953
1773163104145962500,1.23196240234375,1.8416571617126465,0.41426748037338257,1.7732610702514648
1773163104154295600,1.240295654296875,1.7561964988708496,-0.4934840798377991,0.6958408355712891
1773163104162628600,1.248628662109375,1.601647138595581,-0.9372378587722778,-0.12694072723388672
1773163104170961700,1.256961669921875,1.6280925273895264,-1.2383270263671875,-0.8530735969543457
1773163104179294500,1.26529443359375,2.012765645980835,-1.8871986865997314,-1.707127571105957
1773163104187627500,1.27362744140625,2.397322416305542,-2.336292028427124,-1.9177813529968262
1773163104195960600,1.281960693359375,2.532696008682251,-1.7487417459487915,-0.7438106536865234
1773163104204293600,1.290293701171875,1.0957255363464355,-1.2923210859298706,0.5260505676269531
1773163104212626700,1.298626708984375,-0.5576028823852539,-1.0144059658050537,1.211949348449707
1773163104220959700,1.306959716796875,-1.650436520576477,-0.7627062201499939,1.2989864349365234
1773163104229292800,1.315292724609375,-2.4411706924438477,-0.20623493194580078,1.3903417587280273
1773163104237625900,1.3236259765625,-2.6451303958892822,0.10475993156433105,1.0513582229614258
1773163104245958700,1.331958740234375,-2.1999988555908203,-0.005832850933074951,0.3698863983154297
1773163104254291700,1.340291748046875,-1.6218363046646118,-0.09883713722229004,-0.43643951416015625
1773163104262624800,1.348624755859375,-1.2152736186981201,-0.23044288158416748,-1.453695297241211
1773163104270957800,1.356957763671875,-0.8322449922561646,-0.25317394733428955,-2.091207981109619
1773163104279291000,1.365290771484375,-0.6864215135574341,0.15074372291564941,-1.9336633682250977
1773163104287624000,1.3736240234375,-1.2749696969985962,0.6186032295227051,-1.0120768547058105
1773163104295957000,1.38195703125,-1.8834245204925537,1.019177794456482,0.3382682800292969
1773163104304289800,1.390289794921875,-2.583787441253662,1.1894745826721191,1.1086454391479492
1773163104312622800,1.398622802734375,-2.590864658355713,1.7173402309417725,1.9595956802368164
1773163104320956000,1.406955810546875,-2.475205898284912,2.494192123413086,2.751847267150879
1773163104329289000,1.4152890625,-2.587862491607666,2.8714451789855957,2.8670530319213867
1773163104337622000,1.4236220703125,-3.061211585998535,2.74885892868042,2.321308135986328
1773163104345955000,1.431955078125,-3.2181084156036377,2.2434659004211426,0.8923273086547852
1773163104354288000,1.4402880859375,-3.21641206741333,1.7699042558670044,-0.31728553771972656
1773163104362621000,1.448620849609375,-3.244020462036133,1.4283432960510254,-1.5783815383911133
1773163104370954000,1.4569541015625,-3.0900659561157227,1.1387107372283936,-2.593987464904785
1773163104379287000,1.465287109375,-2.43821120262146,1.153777837753296,-2.9673757553100586
1773163104387620000,1.4736201171875,-1.5226103067398071,1.3326447010040283,-3.051395893096924
1773163104395953200,1.481953125,-0.605093777179718,1.3596457242965698,-3.0912346839904785
1773163104404286200,1.4902861328125,-0.16688430309295654,0.7975505590438843,-3.1688947677612305
1773163104412619300,1.498619384765625,0.013564765453338623,0.2331017255783081,-3.3289146423339844
1773163104420952000,1.5069521484375,0.30257418751716614,0.03925466537475586,-2.963508129119873
1773163104429285000,1.51528515625,-0.1683642864227295,0.30917680263519287,-2.135563373565674
1773163104437618200,1.5236181640625,-0.6021628379821777,0.702559232711792,-1.4793815612792969
1773163104445951200,1.531951171875,-0.9529918432235718,0.9898189306259155,-0.46808671951293945
1773163104454284300,1.5402841796875,-3.6268606185913086,0.24125051498413086,0.1980915069580078
1773163104462617300,1.548617431640625,-7.640402793884277,0.8934569358825684,3.5520143508911133
1773163104470950400,1.556950439453125,-6.311379909515381,1.1324124336242676,5.461031913757324
1773163104479283500,1.565283447265625,-0.6930972337722778,2.2883574962615967,7.957056045532227
1773163104495949300,1.58194921875,-2.253497362136841,1.9381835460662842,6.7354278564453125
1773163104504282400,1.590282470703125,0.05200397968292236,0.9728333950042725,5.107501029968262
1773163104512615400,1.598615478515625,-0.12060666084289551,-0.4007997512817383,5.344342231750488
1773163104529281500,1.615281494140625,-0.08929324150085449,-1.315720796585083,3.6873350143432617
1773163104537614600,1.623614501953125,-0.45670270919799805,-2.1899149417877197,3.0573291778564453
1773163104545947400,1.631947509765625,-0.8098876476287842,-2.3295536041259766,2.6400156021118164
1773163104554280400,1.640280517578125,-1.589677095413208,-1.8472120761871338,2.2897605895996094
1773163104562613500,1.648613525390625,-2.556805372238159,-1.8434627056121826,2.1430673599243164
1773163104570946600,1.656946533203125,-3.045657157897949,-1.8382978439331055,0.6573400497436523
1773163104579279600,1.665279541015625,-2.671963691711426,-0.5988597869873047,-3.8982272148132324
1773163104587612700,1.67361279296875,-1.255051851272583,-0.8633370399475098,-4.792290687561035
1773163104595945700,1.68194580078125,2.374624490737915,-1.899878978729248,-5.848701477050781
1773163104604278500,1.690278564453125,3.6160941123962402,-2.8845643997192383,-5.9957275390625
1773163104612611600,1.698611572265625,3.908592462539673,-3.6033568382263184,-5.590753078460693
1773163104620944600,1.706944580078125,3.605196952819824,-3.7752819061279297,-5.1498918533325195
1773163104629277700,1.715277587890625,2.3504080772399902,-2.7210373878479004,-4.294790267944336
1773163104637610800,1.72361083984375,0.7460455894470215,-0.9346704483032227,-3.4255435466766357
1773163104645943800,1.73194384765625,-1.173328161239624,0.4962277412414551,-2.725399971008301
1773163104654276900,1.74027685546875,-3.1460299491882324,1.5899925231933594,-1.9408631324768066
1773163104662609700,1.748609619140625,-2.7209808826446533,1.526576042175293,-1.9684691429138184
1773163104670942700,1.756942626953125,-0.7743229866027832,1.8381118774414062,-2.5798733234405518
1773163104679275800,1.76527587890625,-0.639289140701294,1.1649913787841797,-2.3689634799957275
1773163104687608800,1.77360888671875,2.8113515377044678,1.0961995124816895,-1.6529045104980469
1773163104695942000,1.78194189453125,2.3068337440490723,1.0217843055725098,-0.6180515289306641
1773163104704275000,1.79027490234375,-0.45840883255004883,0.9771285057067871,0.36051034927368164
1773163104712608000,1.79860791015625,-2.8513922691345215,1.0661635398864746,0.6509428024291992
1773163104720941000,1.806941162109375,-3.949805974960327,1.2428193092346191,0.31529712677001953
1773163104729273900,1.81527392578125,-3.390002965927124,1.080449104309082,-0.7099628448486328
1773163104737607000,1.82360693359375,-1.9482944011688232,0.04826688766479492,-2.2419300079345703
1773163104745940000,1.83193994140625,-0.27152299880981445,-0.4116802215576172,-2.736870527267456
1773163104754273000,1.84027294921875,0.31591808795928955,-0.41872501373291016,-2.5818638801574707
1773163104762606000,1.848606201171875,0.6921604871749878,-0.4219789505004883,-2.409412384033203
1773163104770939100,1.856939208984375,0.21116411685943604,0.042606353759765625,-2.165224552154541
1773163104779272200,1.865272216796875,0.38715028762817383,0.6301822662353516,-1.7772910594940186
1773163104787605000,1.87360498046875,0.6513106822967529,0.976895809173584,-1.375326156616211
1773163104795938000,1.88193798828125,0.960425615310669,1.7153048515319824,-0.7815443277359009
1773163104804271000,1.89027099609375,1.3086642026901245,1.2540655136108398,-0.1236950159072876
1773163104812604200,1.898604248046875,1.984224557876587,-1.7136812210083008,0.6878383159637451
1773163104820937200,1.906937255859375,1.7383794784545898,-4.603872299194336,1.739614486694336
1773163104829270300,1.915270263671875,0.4112149477005005,-8.015073776245117,3.0586955547332764
1773163104837603300,1.923603271484375,-1.8413662910461426,-11.747583389282227,4.216195106506348
1773163104845936000,1.93193603515625,-3.3862862586975098,-15.27440357208252,5.152911186218262
1773163104854269200,1.940269287109375,-2.791041374206543,-17.736446380615234,4.62722110748291
1773163104862602200,1.948602294921875,-0.5171009302139282,-17.34516143798828,2.2853963375091553
1773163104870935300,1.956935302734375,2.119516134262085,-13.709577560424805,-1.0557836294174194
1773163104879268400,1.965268310546875,3.2119860649108887,-9.065555572509766,-2.810593605041504
1773163104887601400,1.973601318359375,2.521737575531006,-5.094880104064941,-3.0205845832824707
1773163104895934500,1.9819345703125,1.1385408639907837,-1.8637495040893555,-2.420850992202759
1773163104904267500,1.990267578125,-0.37883949279785156,0.4785900115966797,-1.7169214487075806
1773163104912600300,1.998600341796875,-1.711803674697876,2.0625462532043457,-1.1876649856567383
1773163104920933400,2.006933349609375,-2.728820562362671,3.011690616607666,-0.7292555570602417
1773163104929266400,2.015266357421875,-3.2829556465148926,3.3299288749694824,-0.3028569221496582
1773163104937599500,2.023599609375,-3.393264055252075,3.067171096801758,0.3396780490875244
1773163104945932500,2.0319326171875,-3.015598773956299,2.2581710815429688,0.9903898239135742
1773163104954265600,2.040265625,-2.5358622074127197,1.0007810592651367,1.879582405090332
1773163104962598700,2.0485986328125,-1.7938406467437744,-0.4841604232788086,2.2641615867614746
1773163104970931500,2.056931396484375,-0.6166490912437439,-1.697678565979004,2.3706858158111572
1773163104979264500,2.065264404296875,0.46036913990974426,-2.459695816040039,2.6430227756500244
1773163104987597600,2.07359765625,1.398951768875122,-2.181093215942383,2.8743441104888916
1773163104995930600,2.0819306640625,1.436779260635376,-1.463979721069336,2.616973400115967
1773163105004263700,2.090263671875,0.899030864238739,-0.46929168701171875,2.025836706161499
1773163105012596700,2.0985966796875,0.2827799320220947,-0.10678291320800781,1.2091193199157715
1773163105020929800,2.1069296875,-0.16211754083633423,0.039740562438964844,0.6981244087219238
1773163105029262600,2.1152626953125,-0.32070523500442505,0.10468101501464844,0.4239025115966797
1773163105037595600,2.123595703125,-0.21623492240905762,0.10775566101074219,0.16769623756408691
1773163105045928700,2.1319287109375,-0.001044631004333496,-0.010970115661621094,-0.06840825080871582
1773163105054261800,2.14026171875,0.23646098375320435,-0.1422271728515625,-0.2690095901489258
1773163105062594800,2.1485947265625,0.461185485124588,-0.2761878967285156,-0.33754920959472656
1773163105070928000,2.156927978515625,0.6753839254379272,-0.38979148864746094,-0.4417673349380493
1773163105079261000,2.165260986328125,0.8770020008087158,-0.49352359771728516,-0.5867055654525757
1773163105087593700,2.17359375,0.9463866949081421,-0.5660791397094727,-0.6479378938674927
1773163105095926800,2.1819267578125,0.776609480381012,-0.5619440078735352,-0.684328556060791
1773163105104259800,2.190259765625,0.452755331993103,-0.5405855178833008,-0.7138633728027344
1773163105112593000,2.198593017578125,-0.004678964614868164,-0.4514579772949219,-0.7403397560119629
1773163105120926000,2.206926025390625,-0.37557491660118103,-0.3561592102050781,-0.843158483505249
1773163105129259000,2.215259033203125,-0.5400238037109375,-0.3106355667114258,-0.9580239057540894
1773163105137592000,2.223592041015625,-0.47534215450286865,-0.30367374420166016,-1.0318716764450073
1773163105145925000,2.231925048828125,-0.3582206070423126,-0.34551429748535156,-1.0026662349700928
1773163105154258000,2.2402578125,-0.20111308991909027,-0.3942070007324219,-0.9628938436508179
1773163105162591000,2.248591064453125,-0.03388039767742157,-0.42397499084472656,-0.8952242136001587
1773163105170924000,2.256924072265625,0.13767866790294647,-0.4819345474243164,-0.726111888885498
1773163105179257000,2.265257080078125,0.2578480541706085,-0.5420436859130859,-0.510454535484314
1773163105187590100,2.273590087890625,0.4632679224014282,-0.5554008483886719,-0.24850869178771973
1773163105195923200,2.281923095703125,0.630459725856781,-0.5648183822631836,0.0024292469024658203
1773163105204256300,2.29025634765625,0.7698236107826233,-0.5315170288085938,0.25325632095336914
1773163105212589000,2.298589111328125,0.9442682862281799,-0.3358793258666992,0.5719130039215088
1773163105220922000,2.306922119140625,1.0772154331207275,0.002849578857421875,0.9082343578338623
1773163105229255200,2.315255126953125,1.1756974458694458,0.2850914001464844,1.235485553741455
1773163105237588200,2.323588134765625,1.2407187223434448,0.24594974517822266,1.5649197101593018
1773163105245921300,2.33192138671875,1.2271732091903687,0.1251049041748047,1.8220586776733398
1773163105254254300,2.34025439453125,1.250441551208496,0.13402271270751953,2.0618462562561035
1773163105262587400,2.34858740234375,1.2580616474151611,0.13528060913085938,2.3599486351013184
1773163105270920200,2.356920166015625,1.214536190032959,0.18342876434326172,2.7405200004577637
1773163105279253200,2.365253173828125,1.2142751216888428,0.3447227478027344,3.024151086807251
1773163105287586300,2.37358642578125,1.109710454940796,0.5726842880249023,3.284445285797119
1773163105295919400,2.38191943359375,1.0599393844604492,0.8763542175292969,3.475290060043335
1773163105304252400,2.39025244140625,0.9752674102783203,1.050553321838379,3.5893378257751465
1773163105312585500,2.39858544921875,0.8393142223358154,1.0310640335083008,3.729674816131592
1773163105320918500,2.40691845703125,0.7636774778366089,0.9503545761108398,3.804156541824341
1773163105329251600,2.41525146484375,0.8535701632499695,0.8131637573242188,3.6734609603881836
1773163105337584400,2.42358447265625,0.8158459663391113,0.5138301849365234,3.4245667457580566
1773163105354250500,2.44025048828125,0.23042327165603638,0.03439807891845703,1.916609525680542
1773163105362583600,2.44858349609375,0.28005337715148926,-0.14666461944580078,1.0311462879180908
1773163105370916600,2.45691650390625,0.5348110795021057,-0.5953254699707031,-0.03548884391784668
1773163105379249700,2.465249755859375,0.7214309573173523,-0.9799365997314453,-0.9305448532104492
1773163105387582700,2.473582763671875,0.740510106086731,-1.1672172546386719,-1.8320965766906738
1773163105395915500,2.48191552734375,0.5014918446540833,-1.2961368560791016,-2.6226325035095215
1773163105404248600,2.49024853515625,0.15748029947280884,-1.4865121841430664,-3.1939096450805664
1773163105412581600,2.49858154296875,-0.26338380575180054,-1.7792472839355469,-3.9911298751831055
1773163105420914700,2.506914794921875,-0.6561439037322998,-1.9725465774536133,-4.856724739074707
1773163105429247700,2.515247802734375,-0.8331155180931091,-2.012251853942871,-5.4642767906188965
1773163105437580800,2.523580810546875,-0.8486594557762146,-1.9187240600585938,-5.679160118103027
1773163105445913900,2.531913818359375,-0.8382293581962585,-1.85809326171875,-5.473843574523926
1773163105454246700,2.54024658203125,-0.7607086896896362,-1.7381515502929688,-4.839198112487793
1773163105462579700,2.548579833984375,-0.5082341432571411,-1.4571924209594727,-3.849332571029663
1773163105470912800,2.556912841796875,-0.10083270072937012,-1.1784296035766602,-2.809128522872925
1773163105479245800,2.565245849609375,0.3806155323982239,-0.956791877746582,-2.02577805519104
1773163105487579000,2.573578857421875,0.6699142456054688,-0.8084249496459961,-1.3770323991775513
1773163105495912000,2.581911865234375,0.8532142639160156,-0.7673158645629883,-0.8488544225692749
1773163105504245000,2.590244873046875,0.9378300905227661,-0.6947469711303711,-0.40136122703552246
1773163105512577800,2.598577880859375,0.911847710609436,-0.5995998382568359,-0.13600730895996094
1773163105520910800,2.606910888671875,0.8667888641357422,-0.4506378173828125,0.1403954029083252
1773163105529244000,2.615243896484375,0.821602463722229,-0.3133068084716797,0.34474992752075195
1773163105537577000,2.623576904296875,0.7563474178314209,-0.17946147918701172,0.5882306098937988
1773163105545910000,2.631909912109375,0.5895282030105591,-0.06270599365234375,0.836510419845581
1773163105554243000,2.6402431640625,0.41349196434020996,0.05523204803466797,1.037130355834961
1773163105562576100,2.648576171875,0.2869182825088501,0.12348556518554688,1.2296781539916992
1773163105570909200,2.6569091796875,0.17457902431488037,0.10870933532714844,1.2663066387176514
1773163105579242000,2.665241943359375,0.03179740905761719,0.05243206024169922,1.2046303749084473
1773163105587575000,2.673574951171875,-0.10680258274078369,-0.04153156280517578,1.2763257026672363
1773163105595908000,2.681908203125,-0.20247936248779297,-0.16732406616210938,1.2410213947296143
1773163105604241200,2.6902412109375,-0.3548097014427185,-0.26354217529296875,1.020151138305664
1773163105612574200,2.69857421875,-0.5078847408294678,-0.30324268341064453,0.6309921741485596
1773163105620907300,2.7069072265625,-0.6355571150779724,-0.21534252166748047,0.35660314559936523
1773163105629240300,2.715240234375,-0.8425253033638,-0.11703300476074219,0.17126250267028809
1773163105637573000,2.723572998046875,-0.897018313407898,0.0917043685913086,-0.020100831985473633
1773163105645906200,2.73190625,-0.941195011138916,0.09270858764648438,-0.025583744049072266
1773163105654239200,2.7402392578125,-0.9793796539306641,-0.05401039123535156,0.18100214004516602
1773163105662572300,2.748572265625,-0.7903485894203186,-0.1471405029296875,0.5770955085754395
1773163105670905300,2.7569052734375,-0.453158438205719,-0.19907188415527344,1.046936273574829
1773163105679238400,2.76523828125,0.0363696813583374,-0.13691997528076172,1.2731120586395264
1773163105687571500,2.773571533203125,0.49294328689575195,0.27468109130859375,1.2400104999542236
1773163105695904300,2.781904296875,0.07568395137786865,0.17824459075927734,1.2175865173339844
1773163105704237300,2.7902373046875,-0.21295499801635742,0.12784385681152344,1.3953378200531006
1773163105712570400,2.7985703125,-0.04573774337768555,0.40093994140625,1.6060924530029297
1773163105720903400,2.8069033203125,0.18048667907714844,0.5869817733764648,1.4843933582305908
1773163105729236500,2.815236572265625,0.03021526336669922,0.5591878890991211,1.4403266906738281
1773163105737569500,2.823569580078125,-0.19515204429626465,0.04796123504638672,1.1698074340820312
1773163105745902600,2.831902587890625,-0.07860541343688965,-0.14928913116455078,1.337632417678833
1773163105754235400,2.8402353515625,-0.00699305534362793,-0.2591419219970703,1.4040844440460205
1773163105762568400,2.848568359375,0.10136556625366211,-0.36348724365234375,1.4626822471618652
1773163105770901500,2.856901611328125,0.11237585544586182,-0.3648509979248047,1.5682246685028076
1773163105779234600,2.865234619140625,0.08400380611419678,-0.5035610198974609,1.6934928894042969
1773163105787567600,2.873567626953125,-0.0973351001739502,-0.6727666854858398,1.6945858001708984
1773163105795900700,2.881900634765625,-0.28360772132873535,-0.7339963912963867,1.4737122058868408
1773163105804233700,2.890233642578125,-0.39156126976013184,-0.6090030670166016,1.0563349723815918
1773163105812566800,2.89856689453125,-0.6215593814849854,-0.5988616943359375,0.8267168998718262
1773163105820899600,2.906899658203125,-0.8232358694076538,-0.7336912155151367,0.6591434478759766
1773163105829232600,2.915232666015625,-0.804746150970459,-0.8662281036376953,0.5803825855255127
1773163105837565700,2.923565673828125,-0.7229883670806885,-0.8773641586303711,0.6770937442779541
1773163105845898800,2.931898681640625,-0.6436969041824341,-0.8492326736450195,0.8424808979034424
1773163105854231800,2.940231689453125,-0.630246639251709,-0.7494754791259766,1.0379648208618164
1773163105862564900,2.94856494140625,-0.6267415285110474,-0.6180028915405273,1.285640001296997
1773163105870898000,2.95689794921875,-0.5897490978240967,-0.48517322540283203,1.5415832996368408
1773163105879230700,2.965230712890625,-0.581597089767456,-0.43448734283447266,1.7986226081848145
1773163105887563800,2.973563720703125,-0.5765005350112915,-0.4464998245239258,2.0511715412139893
1773163105895896800,2.981896728515625,-0.5297931432723999,-0.4080162048339844,2.1427013874053955
1773163105904230000,2.99022998046875,-0.6338459253311157,-0.3732919692993164,2.1926448345184326
1773163105912563000,2.99856298828125,-0.8268828392028809,-0.4168252944946289,2.1855971813201904
1773163105920896000,3.00689599609375,-0.9552465677261353,-0.5070791244506836,2.329331159591675
1773163105929229000,3.01522900390625,-1.2744648456573486,-0.7601375579833984,2.5586352348327637
1773163105937561900,3.023561767578125,-1.4360252618789673,-1.1136341094970703,2.7818026542663574
1773163105945895000,3.03189501953125,-1.2838735580444336,-1.3050203323364258,3.1356048583984375
1773163105954228000,3.04022802734375,-0.9137764573097229,-1.3989992141723633,3.485379219055176
1773163105962561000,3.04856103515625,-0.35095369815826416,-1.465540885925293,3.657883882522583
1773163105970894000,3.05689404296875,0.2316821813583374,-1.3284730911254883,3.725853443145752
1773163105979227100,3.06522705078125,0.35451650619506836,-1.0327978134155273,3.6907031536102295
1773163105987560200,3.073560302734375,0.20674538612365723,-0.7576971054077148,3.219558000564575
1773163105995893200,3.081893310546875,-0.2506169080734253,-0.5457897186279297,2.595761299133301
1773163106004226000,3.09022607421875,-0.9800872802734375,-0.5390768051147461,1.8882358074188232
1773163106012559000,3.09855908203125,-1.7257916927337646,-0.6172475814819336,1.1094164848327637
1773163106020892200,3.10689208984375,-2.4756808280944824,-0.5860586166381836,0.5982131958007812
1773163106029225200,3.11522509765625,-3.0696945190429688,-0.41402244567871094,0.2804098129272461
1773163106037558300,3.123558349609375,-3.4485554695129395,-0.13836383819580078,0.09368610382080078
1773163106045891300,3.131891357421875,-3.4850378036499023,0.26873779296875,0.06401419639587402
1773163106054224400,3.140224365234375,-3.411349058151245,0.6228656768798828,0.1325244903564453
1773163106062557200,3.14855712890625,-3.1474690437316895,0.9258346557617188,0.22892212867736816
1773163106070890200,3.15689013671875,-2.951892852783203,1.13700532913208,0.33792972564697266
1773163106079223300,3.165223388671875,-2.8546524047851562,1.1064071655273438,0.4535202980041504
1773163106087556400,3.173556396484375,-2.8123087882995605,0.8212661743164062,0.509406328201294
1773163106095889400,3.181889404296875,-2.823880672454834,0.45821094512939453,0.5147123336791992
1773163106104222500,3.190222412109375,-2.8438496589660645,-0.0011091232299804688,0.32953691482543945
1773163106112555500,3.198555419921875,-2.5317037105560303,-0.2910289764404297,-0.0959937572479248
1773163106120888300,3.206888427734375,-1.9671870470046997,-0.3921241760253906,-0.5632646083831787
1773163106129221400,3.215221435546875,-1.230736494064331,-0.528162956237793,-1.2294597625732422
1773163106137554400,3.223554443359375,-0.6017227172851562,-0.7800655364990234,-1.8409690856933594
1773163106145887500,3.231887451171875,-0.10112985968589783,-1.4254064559936523,-2.278838634490967
1773163106154220500,3.240220458984375,0.28526097536087036,-2.753223419189453,-2.5016608238220215
1773163106162553600,3.2485537109375,1.0183913707733154,-4.3173627853393555,-2.909897565841675
1773163106170886700,3.25688671875,1.8493411540985107,-5.615887641906738,-3.518597364425659
1773163106179219500,3.265219482421875,2.529650926589966,-6.6328020095825195,-4.0340895652771
1773163106187552500,3.273552490234375,2.8095591068267822,-7.672153472900391,-4.571542739868164
1773163106195885600,3.281885498046875,2.6383986473083496,-8.46169662475586,-4.894917011260986
1773163106204218600,3.290218505859375,2.062621831893921,-8.41285228729248,-4.661421775817871
1773163106212551700,3.2985517578125,1.082363486289978,-7.422944068908691,-4.139378070831299
1773163106220884700,3.306884765625,0.15453147888183594,-5.645957946777344,-3.51698899269104
1773163106229217800,3.3152177734375,-0.13316607475280762,-3.773193359375,-2.8486316204071045
1773163106237550800,3.32355078125,0.2121068239212036,-2.3366336822509766,-2.529623031616211
1773163106245883600,3.331883544921875,0.8053467869758606,-1.4098701477050781,-2.399413585662842
1773163106254216700,3.340216796875,1.1115607023239136,-0.7435331344604492,-1.7726860046386719
1773163106262549800,3.3485498046875,1.4062267541885376,-0.32970714569091797,-0.9016561508178711
1773163106270882800,3.3568828125,1.6201764345169067,-0.25046730041503906,-0.2997469902038574
1773163106279215900,3.3652158203125,1.612818956375122,-0.2973508834838867,0.18788909912109375
1773163106287549000,3.373548828125,1.3028879165649414,-0.20291900634765625,0.5030512809753418
1773163106295882000,3.381882080078125,0.7253450155258179,-0.1379871368408203,0.30115556716918945
1773163106304214800,3.39021484375,0.06370401382446289,-0.18992996215820312,-0.1192479133605957
1773163106312547800,3.3985478515625,-0.40575289726257324,-0.5830402374267578,-1.0175576210021973
1773163106320881000,3.406880859375,-0.4579930305480957,-1.0733423233032227,-1.9463231563568115
1773163106329214000,3.4152138671875,-0.1444416046142578,-1.4364957809448242,-2.6612579822540283
1773163106337547000,3.423547119140625,0.24019694328308105,-1.4587411880493164,-3.0084877014160156
1773163106345880000,3.431880126953125,0.4916977882385254,-1.1187124252319336,-2.9621448516845703
1773163106354213000,3.440213134765625,0.6749571561813354,-0.6593494415283203,-2.845597267150879
1773163106362546000,3.4485458984375,0.7563126087188721,-0.3180117607116699,-2.7285172939300537
1773163106370879000,3.45687890625,0.7102051973342896,0.08046913146972656,-2.7171459197998047
1773163106379212000,3.4652119140625,0.7224233150482178,0.4448890686035156,-2.7552061080932617
1773163106387545000,3.473545166015625,0.7732046842575073,0.7192831039428711,-3.101736068725586
1773163106395878100,3.481878173828125,1.0941842794418335,1.0550413131713867,-3.05842661857605
1773163106404211200,3.490211181640625,1.319603681564331,1.2904953956604004,-2.984722375869751
1773163106412544300,3.498544189453125,1.3849194049835205,1.3740129470825195,-3.040015459060669
1773163106420877300,3.506877197265625,1.403943657875061,1.305738925933838,-3.0160179138183594
1773163106429210000,3.515210205078125,1.3538271188735962,1.2117524147033691,-2.8392529487609863
1773163106437543200,3.523543212890625,1.3601949214935303,1.1012277603149414,-2.593269109725952
1773163106445876200,3.531876220703125,1.393358826637268,0.8871097564697266,-2.3441169261932373
1773163106454209300,3.540209228515625,1.4916881322860718,0.7198619842529297,-1.901581048965454
1773163106462542300,3.548542236328125,1.5412623882293701,0.6053314208984375,-1.3643710613250732
1773163106470875400,3.55687548828125,1.471146583557129,0.4782834053039551,-0.888740062713623
1773163106479208400,3.56520849609375,1.2540947198867798,0.41868066787719727,-0.30037355422973633
1773163106487541200,3.573541259765625,1.0901000499725342,0.3472743034362793,0.3303837776184082
1773163106495874300,3.581874267578125,0.6907930374145508,0.29027366638183594,0.7716989517211914
1773163106504207400,3.590207275390625,0.1379241943359375,0.18716144561767578,1.0452957153320312
1773163106512540400,3.59854052734375,-0.35239362716674805,0.09915494918823242,1.033041000366211
1773163106520873500,3.60687353515625,-1.0849051475524902,0.017975807189941406,1.1533145904541016
1773163106529206500,3.61520654296875,-1.5823426246643066,-0.11951780319213867,1.0013670921325684
1773163106537539600,3.62353955078125,-2.182286024093628,-0.21553421020507812,0.9220545291900635
1773163106545872400,3.631872314453125,-2.5994184017181396,-0.15593624114990234,0.9402360916137695
1773163106554205400,3.640205322265625,-2.9563722610473633,-0.0009136199951171875,1.0952494144439697
1773163106562538500,3.64853857421875,-3.1863837242126465,0.24363994598388672,1.25178861618042
1773163106570871600,3.65687158203125,-2.9233062267303467,0.44675493240356445,1.388305425643921
1773163106579204600,3.66520458984375,-2.3870177268981934,0.5525894165039062,1.3592593669891357
1773163106587537700,3.67353759765625,-1.729665756225586,0.6417527198791504,1.5861775875091553
1773163106595870700,3.68187060546875,-1.0444660186767578,0.7439584732055664,1.7225720882415771
1773163106604203500,3.69020361328125,-0.45822596549987793,0.9106245040893555,1.7709910869598389
1773163106612536600,3.69853662109375,-0.3083977699279785,1.3012027740478516,2.1154167652130127
1773163106620869600,3.70686962890625,-0.3886435031890869,1.715378761291504,2.104976177215576
1773163106629202700,3.71520263671875,-0.310894250869751,1.9084367752075195,1.834322452545166
1773163106637535700,3.72353564453125,-0.16272521018981934,1.870218276977539,1.2737128734588623
1773163106645868800,3.731868896484375,0.09157013893127441,1.7089576721191406,0.5393214225769043
1773163106654201900,3.740201904296875,0.3603854179382324,1.3973355293273926,-0.38117074966430664
1773163106662535000,3.748534912109375,0.5422110557556152,0.9038190841674805,-1.304683804512024
1773163106670867700,3.75686767578125,0.5280728340148926,0.33606386184692383,-2.0477170944213867
1773163106679200800,3.76520068359375,0.35904526710510254,-0.35416221618652344,-2.5389816761016846
1773163106687533800,3.773533935546875,0.0894627571105957,-1.1340970993041992,-3.089512348175049
1773163106695867000,3.781866943359375,-0.20662307739257812,-2.054269790649414,-3.6856908798217773
1773163106704200000,3.790199951171875,-0.2943873405456543,-3.0736074447631836,-3.905250072479248
1773163106712533000,3.798532958984375,-0.6567602157592773,-4.012006759643555,-3.663555145263672
1773163106720866000,3.806865966796875,-1.3993687629699707,-4.4905195236206055,-3.420536994934082
1773163106729198800,3.81519873046875,-2.449099540710449,-4.42933464050293,-3.203894853591919
1773163106737532000,3.823531982421875,-3.6065659523010254,-4.008371353149414,-2.7678022384643555
1773163106745865000,3.831864990234375,-4.666367530822754,-3.6351261138916016,-2.1185944080352783
1773163106754198000,3.840197998046875,-4.84012508392334,-3.436300277709961,-1.4142177104949951
1773163106762531000,3.848531005859375,-3.87351393699646,-2.8989477157592773,0.15622973442077637
1773163106770864000,3.856864013671875,-1.7714931964874268,-1.6818361282348633,2.450448989868164
1773163106779197200,3.865197265625,2.095750331878662,-0.18981456756591797,3.762301206588745
1773163106787530000,3.873530029296875,4.811590194702148,1.2732138633728027,4.489996910095215
1773163106795863000,3.881863037109375,5.074227333068848,1.683152198791504,2.5484910011291504
1773163106804196000,3.890196044921875,3.617584228515625,1.7445483207702637,0.05275917053222656
1773163106812529200,3.898529052734375,1.888620376586914,1.9361062049865723,-1.2752702236175537
1773163106820862200,3.9068623046875,0.7132246494293213,1.8681683540344238,-2.325561046600342
1773163106829195300,3.9151953125,0.5783603191375732,1.3719606399536133,-3.175124168395996
1773163106837528300,3.9235283203125,0.9306976795196533,0.6189823150634766,-3.6399378776550293
1773163106845861400,3.931861328125,1.6808862686157227,-0.1983489990234375,-3.5546798706054688
1773163106854194200,3.940194091796875,2.5855660438537598,-0.7186679840087891,-2.8159499168395996
1773163106862527200,3.94852734375,3.21720290184021,-1.0462770462036133,-1.7129449844360352
1773163106870860300,3.9568603515625,3.4189224243164062,-1.1963701248168945,-0.40970492362976074
1773163106879193300,3.965193359375,3.3360447883605957,-1.3851051330566406,0.6269469261169434
1773163106887526400,3.9735263671875,3.081847906112671,-1.575225830078125,1.363703727722168
1773163106895859500,3.981859375,2.8006250858306885,-1.6255378723144531,1.8685669898986816
1773163106904192500,3.990192626953125,2.5787148475646973,-1.4813461303710938,2.054292678833008
1773163106912525300,3.998525390625,2.512127637863159,-0.9451513290405273,2.2238540649414062
1773163106920858400,4.0068583984375,2.4850573539733887,-0.2243490219116211,2.0628466606140137
1773163106929191400,4.01519140625,2.3679351806640625,0.48415660858154297,1.9067180156707764
1773163106937524500,4.0235244140625,2.1136045455932617,1.0507721900939941,1.8088507652282715
1773163106945857500,4.031857421875,1.7550255060195923,1.2763895988464355,1.6136445999145508
1773163106954190600,4.040190673828125,1.3641276359558105,1.2390880584716797,1.4437205791473389
1773163106962523600,4.048523681640625,0.9204514622688293,0.8101873397827148,1.1897847652435303
1773163106970856400,4.0568564453125,0.6179038882255554,0.3920869827270508,1.199394941329956
1773163106979189500,4.065189453125,0.4073183536529541,0.018927574157714844,1.2131593227386475
1773163106987522600,4.0735224609375,0.23920178413391113,-0.39116382598876953,1.0589911937713623
1773163106995855600,4.081855712890625,0.06957793235778809,-0.5496664047241211,0.9630670547485352
1773163107004188700,4.090188720703125,0.018540143966674805,-0.5546360015869141,0.8841252326965332
1773163107012521700,4.098521728515625,0.015327692031860352,-0.5084295272827148,0.5672080516815186
1773163107020854800,4.106854736328125,0.2149985432624817,-0.30685997009277344,0.15663886070251465
1773163107029187600,4.1151875,0.48609766364097595,-0.10975074768066406,-0.39653658866882324
1773163107037520600,4.123520751953125,0.6955263614654541,0.03171253204345703,-0.9079082012176514
1773163107045853700,4.131853759765625,0.9036397933959961,-0.1110982894897461,-1.4395626783370972
1773163107054186800,4.140186767578125,1.056566834449768,-0.3102607727050781,-1.8230690956115723
1773163107062519800,4.148519775390625,0.9488929510116577,-0.597315788269043,-2.213853120803833
1773163107070852900,4.156852783203125,0.8721530437469482,-0.9164962768554688,-2.7056832313537598
1773163107079186000,4.16518603515625,0.8107876777648926,-1.184769630432129,-3.1742944717407227
1773163107087519000,4.17351904296875,0.6586036682128906,-1.1854095458984375,-3.1431467533111572
1773163107095851800,4.181851806640625,0.24425438046455383,-1.0084466934204102,-2.7479031085968018
1773163107104184800,4.190184814453125,-0.13646923005580902,-0.7534666061401367,-2.1293365955352783
1773163107112518000,4.198517822265625,-0.18310829997062683,-0.4124898910522461,-1.380002498626709
1773163107120851000,4.206850830078125,0.04918710142374039,-0.04852294921875,-0.6332747936248779
1773163107129184000,4.21518408203125,0.33421584963798523,0.319671630859375,0.05247020721435547
1773163107137517000,4.22351708984375,0.6762808561325073,0.6194543838500977,0.7897322177886963
1773163107145850000,4.23185009765625,1.2045068740844727,1.0014190673828125,1.517322301864624
1773163107154183000,4.240182861328125,1.7542837858200073,1.2194862365722656,2.192441463470459
1773163107162516000,4.248515869140625,1.8966763019561768,1.2109403610229492,2.704047441482544
1773163107170849000,4.25684912109375,1.6156468391418457,1.0334253311157227,2.8722164630889893
1773163107179182000,4.26518212890625,1.0587055683135986,0.8060483932495117,2.8327062129974365
1773163107187515100,4.27351513671875,0.3751104474067688,0.5900897979736328,2.5834786891937256
1773163107195848200,4.28184814453125,-0.38195955753326416,0.4201622009277344,2.1772215366363525
1773163107204181200,4.29018115234375,-0.9100978970527649,0.2200307846069336,1.5396535396575928
1773163107212514000,4.29851416015625,-1.0662367343902588,0.0220184326171875,0.9703958034515381
1773163107220847000,4.30684716796875,-0.9049750566482544,-0.07518291473388672,0.46436095237731934
1773163107229180200,4.31518017578125,-0.6047819256782532,-0.0850973129272461,0.2225654125213623
1773163107237513200,4.32351318359375,-0.1635679006576538,-0.11916065216064453,0.10570549964904785
1773163107245846300,4.33184619140625,0.08540159463882446,-0.08812427520751953,0.1958308219909668
1773163107254179300,4.340179443359375,0.16705423593521118,-0.10325241088867188,0.3376295566558838
1773163107262512400,4.348512451171875,0.0642470121383667,-0.1678924560546875,0.464458703994751
1773163107270845400,4.356845458984375,-0.1566791534423828,-0.2401895523071289,0.6986949443817139
1773163107279178200,4.36517822265625,-0.41518843173980713,-0.26654815673828125,0.9001173973083496
1773163107287511300,4.37351123046875,-0.8097831606864929,-0.220489501953125,1.1403515338897705
1773163107295844400,4.38184423828125,-1.1740210056304932,-0.14454269409179688,1.426994800567627
1773163107304177400,4.390177490234375,-1.4650243520736694,-0.0689229965209961,1.5707998275756836
1773163107312510500,4.398510498046875,-1.81202232837677,-0.03633880615234375,1.5570647716522217
1773163107320843500,4.406843505859375,-2.2553954124450684,-0.01968860626220703,1.6382334232330322
1773163107329176600,4.415176513671875,-2.3944859504699707,0.03690910339355469,1.8113715648651123
1773163107337509400,4.42350927734375,-2.304450035095215,0.04053211212158203,1.9588689804077148
1773163107345842400,4.431842529296875,-2.0587642192840576,0.059058189392089844,2.0675039291381836
1773163107354175500,4.440175537109375,-1.5308191776275635,0.21681690216064453,2.2634987831115723
1773163107362508500,4.448508544921875,-1.0870552062988281,0.3305788040161133,2.460111379623413
1773163107370841600,4.456841552734375,-0.5758689045906067,0.46437740325927734,2.6613779067993164
1773163107379174700,4.465174560546875,-0.090606689453125,0.7046518325805664,2.834855079650879
1773163107387507700,4.4735078125,0.28216779232025146,0.9625749588012695,3.0811514854431152
1773163107395840500,4.481840576171875,0.5786842107772827,1.1056814193725586,3.148888111114502
1773163107404173600,4.490173583984375,0.8267912864685059,1.1506538391113281,3.2769594192504883
1773163107412506600,4.498506591796875,0.7693893909454346,0.8435335159301758,3.4042327404022217
1773163107420839700,4.506839599609375,0.6509970426559448,0.1823406219482422,3.627870559692383
1773163107429172700,4.5151728515625,0.6123144626617432,-0.49077510833740234,3.899026393890381
1773163107437505800,4.523505859375,0.5314846038818359,-1.1267757415771484,4.101996421813965
1773163107445838800,4.5318388671875,0.48841941356658936,-1.4646177291870117,4.226231098175049
1773163107454171600,4.540171630859375,0.4645349979400635,-1.603165626525879,4.113382339477539
1773163107462504700,4.548504638671875,0.006294965744018555,-1.8840255737304688,3.606990098953247
1773163107470837800,4.556837646484375,-0.9297275543212891,-2.620330810546875,2.85426664352417
1773163107479170800,4.5651708984375,-1.874953031539917,-3.75380802154541,1.969724178314209
1773163107487504000,4.57350390625,-2.762829303741455,-4.825247764587402,1.3406832218170166
1773163107495837000,4.5818369140625,-3.3496346473693848,-5.350076675415039,1.0571873188018799
1773163107504170000,4.590169921875,-3.6521072387695312,-5.21412467956543,0.882817268371582
1773163107512503000,4.5985029296875,-3.6267757415771484,-4.338606834411621,0.9563722610473633
1773163107520835800,4.6068359375,-3.5724923610687256,-3.1882410049438477,1.1001455783843994
1773163107529169000,4.6151689453125,-3.412132501602173,-2.227602958679199,1.0415027141571045
1773163107537502000,4.623501953125,-2.982283353805542,-1.433279037475586,0.8837757110595703
1773163107545835000,4.6318349609375,-2.3985612392425537,-0.8264923095703125,0.6333978176116943
1773163107554168000,4.64016796875,-1.861369252204895,-0.3424844741821289,0.2693462371826172
1773163107562501000,4.648501220703125,-1.4991052150726318,0.07811737060546875,-0.07991647720336914
1773163107570834200,4.656834228515625,-1.2673829793930054,0.43267345428466797,-0.5073821544647217
1773163107579167000,4.6651669921875,-0.9636067152023315,0.6499185562133789,-1.0141524076461792
1773163107587500000,4.6735,-0.61720210313797,0.7526693344116211,-1.500270962715149
1773163107595833000,4.6818330078125,-0.33228737115859985,0.6376409530639648,-1.9780597686767578
1773163107604166100,4.690166259765625,-0.28659600019454956,0.18654155731201172,-2.256781816482544
1773163107612499200,4.698499267578125,-0.17120224237442017,-0.9111881256103516,-2.366034507751465
1773163107620832300,4.706832275390625,0.3283502459526062,-2.683781623840332,-2.516495943069458
1773163107629165300,4.715165283203125,1.075027346611023,-4.4199676513671875,-2.836528778076172
1773163107637498000,4.723498046875,1.8600494861602783,-5.690627098083496,-3.1263465881347656
1773163107645831200,4.7318310546875,2.4092750549316406,-5.999693870544434,-3.2890400886535645
1773163107654164200,4.740164306640625,2.3085827827453613,-5.508174896240234,-3.0356028079986572
1773163107662497300,4.748497314453125,2.0667967796325684,-3.8026609420776367,-2.534931182861328
1773163107670830300,4.756830322265625,1.7750433683395386,-1.6538114547729492,-1.8798421621322632
1773163107679163400,4.765163330078125,1.67232084274292,-0.056740760803222656,-1.5333354473114014
1773163107687496400,4.773496337890625,1.9221913814544678,0.9336638450622559,-1.372335433959961
1773163107695829200,4.781829345703125,2.1882777214050293,1.4960885047912598,-1.2802238464355469
1773163107704162300,4.790162353515625,2.601349353790283,1.6555752754211426,-1.2624835968017578
1773163107712495400,4.798495361328125,3.127668857574463,1.6741681098937988,-1.1650032997131348
1773163107720828400,4.806828369140625,3.523759365081787,1.688917636871338,-0.9885115623474121
1773163107729161500,4.815161376953125,3.53098726272583,1.563985824584961,-0.7036428451538086
1773163107737494500,4.82349462890625,3.116905689239502,1.419426441192627,-0.2256765365600586
1773163107745827600,4.83182763671875,2.231165885925293,1.2759628295898438,0.23340129852294922
1773163107754160600,4.84016064453125,1.3018207550048828,1.1121001243591309,0.5796661376953125
1773163107762493400,4.848493408203125,0.4406536817550659,1.1150827407836914,0.8437719345092773
1773163107770826500,4.856826416015625,0.11523604393005371,1.0899481773376465,0.8654055595397949
1773163107779159600,4.86515966796875,0.13865375518798828,1.1453967094421387,0.8016195297241211
1773163107787492600,4.87349267578125,0.3281444311141968,1.227632999420166,0.753781795501709
1773163107795825700,4.88182568359375,0.6747761964797974,1.3311753273010254,0.8146333694458008
1773163107804158700,4.89015869140625,1.0171291828155518,1.3092718124389648,0.7609748840332031
1773163107812491800,4.89849169921875,1.1929388046264648,1.3440933227539062,0.7576198577880859
1773163107820824600,4.906824462890625,1.3155744075775146,1.4830727577209473,0.8306493759155273
1773163107829157600,4.91515771484375,1.3756415843963623,1.5661158561706543,0.7208700180053711
1773163107837490700,4.92349072265625,1.433319330215454,1.4755840301513672,0.22902488708496094
1773163107845823700,4.93182373046875,1.5220739841461182,1.424403190612793,-0.4715151786804199
1773163107854156800,4.94015673828125,1.670971393585205,1.4776439666748047,-0.9757194519042969
1773163107862489900,4.94848974609375,1.7314338684082031,1.5233755111694336,-1.3809642791748047
1773163107870823000,4.956822998046875,1.9557321071624756,1.5002264976501465,-1.8302528858184814
1773163107879155700,4.96515576171875,2.2678678035736084,1.3804359436035156,-2.270991802215576
1773163107887488800,4.97348876953125,2.3700132369995117,1.2424273490905762,-2.5682194232940674
1773163107895821800,4.98182177734375,2.3388328552246094,1.079465389251709,-2.7701261043548584
1773163107904155000,4.99015478515625,2.04964542388916,0.862248420715332,-2.797110080718994
1773163107912488000,4.998488037109375,1.5171438455581665,0.5199246406555176,-2.7857205867767334
1773163107920821000,5.006821044921875,0.7902311086654663,0.11026573181152344,-2.871037006378174
1773163107929154000,5.015154052734375,-0.08644628524780273,-0.1289205551147461,-2.9067130088806152
1773163107937487000,5.023487060546875,-0.980940580368042,-0.1871166229248047,-2.8481078147888184
1773163107945820000,5.03181982421875,-1.7855027914047241,-0.1199798583984375,-2.5290889739990234
1773163107954153000,5.040153076171875,-2.6080710887908936,-0.15439319610595703,-1.97511625289917
1773163107962486000,5.048486083984375,-3.375826358795166,-0.31092262268066406,-1.2461662292480469
1773163107970819000,5.056819091796875,-3.996922016143799,-0.5550460815429688,-0.44231271743774414
1773163107979152100,5.065152099609375,-4.423627853393555,-0.7667350769042969,0.5319600105285645
1773163107987485200,5.073485107421875,-4.494714260101318,-0.9973411560058594,1.1862545013427734
1773163107995818200,5.081818359375,-4.254093647003174,-1.2006731033325195,2.189392566680908
1773163108004151000,5.090151123046875,-3.915400266647339,-1.2300958633422852,3.224487781524658
1773163108012484000,5.098484130859375,-3.5364253520965576,-1.4595394134521484,3.6383213996887207
1773163108020817200,5.106817138671875,-3.3145482540130615,-1.6436233520507812,3.8027544021606445
1773163108029150200,5.115150146484375,-2.9924843311309814,-1.6902494430541992,3.4682765007019043
1773163108037483300,5.123483154296875,-2.6095728874206543,-1.6305885314941406,2.7506422996520996
1773163108045816300,5.13181640625,-2.3699498176574707,-1.3670196533203125,1.9087233543395996
1773163108054149400,5.1401494140625,-2.088979482650757,-1.1146564483642578,1.2403464317321777
1773163108062482200,5.148482177734375,-1.6144826412200928,-1.0745000839233398,0.5621070861816406
1773163108070815200,5.156815185546875,-1.0510098934173584,-1.0508155822753906,-0.0518641471862793
1773163108079148300,5.165148193359375,-0.5297214984893799,-0.9383039474487305,-0.4752635955810547
1773163108087481300,5.1734814453125,-0.25769710540771484,-0.6985702514648438,-0.9988584518432617
1773163108095814400,5.181814453125,0.07619190216064453,-0.3529195785522461,-1.2882344722747803
1773163108112480500,5.19848046875,0.9597064256668091,0.19396209716796875,-1.4443461894989014
1773163108120813300,5.206813232421875,1.399984359741211,0.23460912704467773,-1.246147632598877
1773163108129146400,5.215146484375,1.7179772853851318,-0.4245309829711914,-0.7686266899108887
1773163108137479400,5.2234794921875,2.080092430114746,-1.6014747619628906,0.2858238220214844
1773163108145812500,5.2318125,2.5414528846740723,-2.9429197311401367,1.5170817375183105
1773163108154145500,5.2401455078125,3.0602598190307617,-4.35551643371582,2.393777370452881
1773163108162478600,5.248478515625,3.472043514251709,-5.1611175537109375,2.706470489501953
1773163108170811600,5.256811767578125,3.4347009658813477,-4.390293121337891,2.5055956840515137
1773163108179144700,5.265144775390625,2.5479917526245117,-2.654280662536621,1.4697723388671875
1773163108187477500,5.2734775390625,1.2009773254394531,-0.8876323699951172,-0.3807950019836426
1773163108195810600,5.281810546875,-0.5126993656158447,0.3480644226074219,-1.8976457118988037
1773163108204143600,5.2901435546875,-2.0583086013793945,0.826960563659668,-2.8845677375793457
1773163108212476700,5.2984765625,-2.7351198196411133,0.9840178489685059,-3.581940174102783
1773163108220809700,5.306809814453125,-2.5984153747558594,0.7857465744018555,-4.280246734619141
1773163108229142800,5.315142822265625,-2.0716423988342285,0.2951850891113281,-4.846954822540283
1773163108237475800,5.323475830078125,-1.2885197401046753,-0.13416290283203125,-5.152003288269043
1773163108245808600,5.33180859375,0.03247570991516113,-0.42270946502685547,-5.1897406578063965
1773163108254141700,5.3401416015625,1.680227518081665,-0.6586418151855469,-5.195757865905762
1773163108262474800,5.348474853515625,2.7969741821289062,-0.8097829818725586,-5.279812812805176
1773163108270807800,5.356807861328125,3.480626344680786,-0.8383884429931641,-5.311428546905518
1773163108279140900,5.365140869140625,3.3865702152252197,-0.86578369140625,-5.0980448722839355
1773163108287474000,5.373473876953125,2.817375659942627,-0.9637317657470703,-4.479014873504639
1773163108295807000,5.381806884765625,2.194439172744751,-1.1376314163208008,-3.575850486755371
1773163108304139800,5.390139892578125,1.8394463062286377,-1.4284048080444336,-2.5769259929656982
1773163108312472800,5.398472900390625,1.8707689046859741,-1.6680841445922852,-1.5162250995635986
1773163108320806000,5.406805908203125,2.196383237838745,-1.5806827545166016,-0.4433748722076416
1773163108329139000,5.415138916015625,2.3827619552612305,-1.2874536514282227,0.481508731842041
1773163108337472000,5.423471923828125,2.2790374755859375,-1.0335979461669922,0.9314181804656982
1773163108345805000,5.43180517578125,2.136338710784912,-0.5607147216796875,1.1388309001922607
1773163108354138000,5.44013818359375,1.8031572103500366,0.05278301239013672,1.5012445449829102
1773163108362471200,5.44847119140625,1.1487876176834106,0.6544990539550781,1.7953906059265137
1773163108370804000,5.456803955078125,0.5188962817192078,0.8528757095336914,2.0004689693450928
1773163108379137000,5.465136962890625,0.06620964407920837,0.6825218200683594,2.1319026947021484
1773163108387470000,5.473469970703125,0.006783574819564819,0.40896034240722656,2.107142686843872
1773163108395803100,5.48180322265625,0.34795448184013367,0.045014381408691406,1.6681933403015137
1773163108404136200,5.49013623046875,0.7345251441001892,-0.29735374450683594,0.9524075984954834
1773163108412469200,5.49846923828125,0.970011293888092,-0.5961399078369141,0.2274470329284668
1773163108420802300,5.50680224609375,1.213099718093872,-0.7609062194824219,-0.4653446674346924
1773163108429135000,5.515135009765625,1.2437763214111328,-0.7828836441040039,-1.2572791576385498
1773163108437468200,5.52346826171875,1.1265175342559814,-0.7054767608642578,-1.8446478843688965
1773163108445801200,5.53180126953125,1.1781361103057861,-0.5301961898803711,-2.3147761821746826
1773163108454134300,5.54013427734375,1.1376700401306152,-0.48003578186035156,-2.850294828414917
1773163108462467300,5.54846728515625,0.9475855827331543,-0.5074901580810547,-3.3150887489318848
1773163108470800400,5.55680029296875,0.5087171792984009,-0.5750207901000977,-3.486598253250122
1773163108479133400,5.565133544921875,0.014906764030456543,-0.6360330581665039,-3.4410197734832764
1773163108487466200,5.57346630859375,-0.4464626908302307,-0.7465658187866211,-2.946533203125
1773163108495799300,5.58179931640625,-0.6092495322227478,-0.8507289886474609,-2.073279857635498
1773163108504132400,5.59013232421875,-0.37495169043540955,-0.8560848236083984,-1.1709299087524414
1773163108512465400,5.59846533203125,0.1565876007080078,-0.7266120910644531,-0.41307950019836426
1773163108520798500,5.606798583984375,0.7367630004882812,-0.5142440795898438,0.05194258689880371
1773163108529131500,5.615131591796875,1.1238086223602295,-0.2227954864501953,0.36220526695251465
1773163108537464600,5.623464599609375,1.2919600009918213,0.01725006103515625,0.587090253829956
1773163108545797400,5.63179736328125,1.2795417308807373,0.28354549407958984,0.743211030960083
1773163108554130400,5.64013037109375,0.9747371077537537,0.5274257659912109,0.8327820301055908
1773163108562463500,5.64846337890625,0.5954066514968872,0.6748933792114258,0.8566343784332275
1773163108570796500,5.656796630859375,0.18146169185638428,0.6869335174560547,0.9409959316253662
1773163108579129600,5.665129638671875,-0.2002190351486206,0.6767997741699219,0.7737982273101807
1773163108587462700,5.673462646484375,-0.4984818696975708,0.6020355224609375,0.509554386138916
1773163108595795700,5.681795654296875,-0.7603769302368164,0.4832315444946289,0.20989012718200684
1773163108604128800,5.690128662109375,-1.0758782625198364,0.2666168212890625,0.010915040969848633
1773163108612461600,5.698461669921875,-1.3309322595596313,0.040576934814453125,-0.012625455856323242
1773163108620794600,5.706794677734375,-1.5289125442504883,-0.12514305114746094,0.007102251052856445
1773163108629127700,5.715127685546875,-1.6876542568206787,-0.2501106262207031,0.1228170394897461
1773163108637460700,5.723460693359375,-1.6378629207611084,-0.3990297317504883,0.15783071517944336
1773163108645793800,5.731793701171875,-1.4084131717681885,-0.3522224426269531,0.3154869079589844
1773163108654126800,5.740126953125,-1.3903295993804932,-0.35958385467529297,0.4586355686187744
1773163108662460000,5.7484599609375,-1.2044339179992676,-0.22101211547851562,0.8146772384643555
1773163108670792700,5.756792724609375,-0.9485186338424683,-0.10391044616699219,1.3017892837524414
1773163108679125800,5.765125732421875,-0.7445660829544067,-0.07900524139404297,1.8547234535217285
1773163108687458800,5.773458740234375,-0.368823766708374,-0.003917694091796875,2.360490560531616
1773163108695791900,5.7817919921875,-0.17867839336395264,0.10111522674560547,2.8983418941497803
1773163108704125000,5.790125,0.11490964889526367,0.08357906341552734,3.303126335144043
1773163108712458000,5.7984580078125,0.331341028213501,0.04012584686279297,3.5210561752319336
1773163108720791000,5.806791015625,0.27372145652770996,-0.11854839324951172,3.5859575271606445
1773163108729123800,5.815123779296875,0.03179478645324707,-0.2794523239135742,3.4428768157958984
1773163108737457000,5.823456787109375,-0.3487194776535034,-0.4470100402832031,3.1241955757141113
1773163108745790000,5.8317900390625,-0.8079338073730469,-0.6087636947631836,2.7264885902404785
1773163108754123000,5.840123046875,-1.2205662727355957,-0.8853797912597656,2.3894591331481934
1773163108762456000,5.8484560546875,-1.3727858066558838,-1.2063665390014648,2.0668907165527344
1773163108770789000,5.8567890625,-1.2689788341522217,-1.4494361877441406,1.818357229232788
1773163108779122200,5.8651220703125,-1.1180773973464966,-1.5325508117675781,1.6934731006622314
1773163108787455000,5.873455078125,-1.0230146646499634,-1.4907903671264648,1.7565510272979736
1773163108795788000,5.8817880859375,-0.9746481776237488,-1.4031057357788086,1.9843552112579346
1773163108804121000,5.89012109375,-1.0106632709503174,-1.3162612915039062,2.274412155151367
1773163108812454100,5.8984541015625,-1.091958999633789,-1.2518720626831055,2.558856725692749
1773163108820787200,5.906787109375,-1.1759065389633179,-1.2469139099121094,2.839384078979492
1773163108829120300,5.915120361328125,-1.1773505210876465,-1.254899024963379,3.0922229290008545
1773163108837453300,5.923453369140625,-0.9371820092201233,-1.0608196258544922,3.378192663192749
1773163108845786400,5.931786376953125,-1.4603877067565918,-1.066488265991211,3.468686103820801
1773163108854119200,5.940119140625,-1.8169639110565186,-0.9233303070068359,3.4417595863342285
1773163108862452200,5.9484521484375,-1.8597016334533691,-0.597966194152832,3.4361343383789062
1773163108870785300,5.956785400390625,-1.9599189758300781,-0.4241943359375,3.1996591091156006
1773163108879118300,5.965118408203125,-2.284191131591797,-0.38051319122314453,2.735961675643921
1773163108887451400,5.973451416015625,-2.747951030731201,-0.3979940414428711,2.2238826751708984
1773163108895784400,5.981784423828125,-3.1126742362976074,-0.3972921371459961,1.732104778289795
1773163108904117500,5.990117431640625,-3.3136186599731445,-0.3994464874267578,1.3972480297088623
1773163108912450300,5.9984501953125,-3.359654426574707,-0.41326904296875,1.1177456378936768
1773163108920783400,6.006783447265625,-3.3138537406921387,-0.4658374786376953,0.7894978523254395
1773163108929116400,6.015116455078125,-3.277764320373535,-0.42096614837646484,0.49053025245666504
1773163108937449500,6.023449462890625,-3.1972129344940186,-0.23430156707763672,0.1602647304534912
1773163108945782500,6.031782470703125,-2.9522433280944824,0.1607990264892578,-0.27477049827575684
1773163108954115600,6.040115478515625,-2.584580183029175,0.6908864974975586,-0.5900561809539795
1773163108962448600,6.04844873046875,-1.897935390472412,1.2694902420043945,-0.9009839296340942
1773163108970781400,6.056781494140625,-1.2916117906570435,1.7435717582702637,-1.1321766376495361
1773163108979114500,6.065114501953125,-0.8162002563476562,1.957819938659668,-1.4048140048980713
1773163108987447600,6.073447509765625,-0.2965252697467804,1.4016690254211426,-1.596754550933838
1773163108995780600,6.081780517578125,0.13552087545394897,-0.3578643798828125,-1.698176622390747
1773163109004113700,6.09011376953125,0.6372894048690796,-2.773763656616211,-1.9324665069580078
1773163109012446700,6.09844677734375,1.511111855506897,-4.710070610046387,-2.257484197616577
1773163109020779800,6.10677978515625,2.435267210006714,-5.514062881469727,-2.371354341506958
1773163109029112800,6.11511279296875,3.2066314220428467,-5.851424217224121,-2.505159378051758
1773163109037445600,6.123445556640625,3.7895054817199707,-6.020142555236816,-2.6679787635803223
1773163109045778700,6.13177880859375,3.7492260932922363,-5.774145126342773,-2.6955666542053223
1773163109054111700,6.14011181640625,2.9634804725646973,-4.698935508728027,-2.562875509262085
1773163109062444800,6.14844482421875,1.7368030548095703,-3.250398635864258,-2.371790885925293
1773163109070777900,6.15677783203125,0.7650413513183594,-1.9847049713134766,-2.3876991271972656
1773163109079111000,6.16511083984375,0.18017256259918213,-1.1653451919555664,-2.4341630935668945
1773163109087444000,6.17344384765625,0.06283628940582275,-0.7129669189453125,-2.524451494216919
1773163109095776800,6.18177685546875,0.4877716302871704,-0.5773763656616211,-2.7170379161834717
1773163109104109800,6.19010986328125,1.132454514503479,-0.5093059539794922,-2.7497100830078125
1773163109112443000,6.19844287109375,1.427215337753296,-0.4531126022338867,-2.622101068496704
1773163109120776000,6.20677587890625,1.6565649509429932,-0.3132610321044922,-2.3591058254241943
1773163109129109000,6.21510888671875,1.6587175130844116,-0.2626810073852539,-1.8407115936279297
1773163109137442000,6.223442138671875,1.4312165975570679,-0.1777048110961914,-1.3363900184631348
1773163109145775000,6.231775146484375,1.0351157188415527,-0.11032390594482422,-0.8828058242797852
1773163109154108000,6.24010791015625,0.6444848775863647,-0.00041484832763671875,-0.522066593170166
1773163109162441000,6.24844091796875,0.49810755252838135,0.2907247543334961,-0.31615734100341797
1773163109170774000,6.25677392578125,0.48348355293273926,0.5115947723388672,-0.3751811981201172
1773163109179107000,6.265107177734375,0.5067411661148071,0.5673093795776367,-0.6501870155334473
1773163109187440000,6.273440185546875,0.6279672384262085,0.7127304077148438,-0.8836636543273926
1773163109195773200,6.281773193359375,0.7741333246231079,0.9193062782287598,-1.1260669231414795
1773163109204106200,6.290106201171875,0.9437030553817749,1.2537121772766113,-1.2781281471252441
1773163109212439000,6.29843896484375,0.9691492319107056,1.4727497100830078,-1.5873258113861084
1773163109220772000,6.306772216796875,0.9616849422454834,1.772862434387207,-1.8337929248809814
1773163109229105200,6.315105224609375,1.1353999376296997,1.9933571815490723,-2.1958987712860107
1773163109237438200,6.323438232421875,1.4141712188720703,2.1566567420959473,-2.523338794708252
1773163109245771300,6.331771240234375,1.6338750123977661,2.310464859008789,-2.7795376777648926
1773163109254104300,6.340104248046875,1.8321731090545654,2.3480143547058105,-3.019864559173584
1773163109262437400,6.348437255859375,1.9251554012298584,2.3708858489990234,-3.1403517723083496
1773163109270770400,6.3567705078125,1.9239869117736816,2.4127063751220703,-3.2119874954223633
1773163109279103200,6.365103271484375,1.9044520854949951,2.463634490966797,-3.152528762817383
1773163109287436300,6.373436279296875,1.8714848756790161,2.307468891143799,-3.0046300888061523
1773163109295769300,6.381769287109375,1.7894952297210693,2.0599417686462402,-2.652716636657715
1773163109304102400,6.390102294921875,1.3346110582351685,1.7115345001220703,-2.212216377258301
1773163109312435500,6.398435546875,0.671135663986206,1.332280158996582,-1.5692708492279053
1773163109320768500,6.4067685546875,-0.05554366111755371,0.8932862281799316,-0.9118809700012207
1773163109329101600,6.4151015625,-0.6421468257904053,0.35205793380737305,-0.4331784248352051
1773163109337434400,6.423434326171875,-1.409134864807129,-0.27156639099121094,0.18172979354858398
1773163109345767400,6.431767333984375,-1.9540307521820068,-1.1195220947265625,0.7016000747680664
1773163109354100500,6.4401005859375,-2.3906736373901367,-1.755380630493164,1.423229694366455
1773163109362433500,6.44843359375,-2.718441963195801,-2.102921485900879,2.3287620544433594
1773163109370766600,6.4567666015625,-3.1413474082946777,-2.104607582092285,3.222907066345215
1773163109379099600,6.465099609375,-3.6563990116119385,-1.9641361236572266,3.817122459411621
1773163109387432700,6.4734326171875,-4.182018280029297,-1.527456283569336,4.695549964904785
1773163109395765500,6.481765625,-4.268138408660889,-1.0089263916015625,5.305418014526367
1773163109404098600,6.4900986328125,-4.275719165802002,-0.41991424560546875,5.871005058288574
1773163109412431600,6.498431640625,-4.327880382537842,0.042885780334472656,6.002481937408447
1773163109420764700,6.5067646484375,-4.5145978927612305,0.1703777313232422,5.00090217590332
1773163109429097700,6.51509765625,-5.058168888092041,-0.09154891967773438,3.962527275085449
1773163109437430800,6.5234306640625,-5.011600971221924,-0.34221935272216797,3.095649242401123
1773163109445763800,6.531763916015625,-3.8979134559631348,-1.0486211776733398,1.9625701904296875
1773163109454097000,6.540096923828125,-2.3158857822418213,-1.892622947692871,0.7921380996704102
1773163109462429700,6.5484296875,-0.6268308162689209,-2.660045623779297,-0.19906330108642578
1773163109470762800,6.5567626953125,1.287298321723938,-3.2681026458740234,-0.8741817474365234
1773163109479095800,6.565095703125,3.4616193771362305,-3.718794822692871,-1.339972734451294
1773163109487428900,6.573428955078125,5.416147708892822,-3.742420196533203,-1.7506077289581299
1773163109495762000,6.581761962890625,6.514883995056152,-3.510120391845703,-2.3190770149230957
1773163109504095000,6.590094970703125,6.65499210357666,-3.182027816772461,-2.9351837635040283
1773163109512428000,6.598427978515625,6.2250657081604,-2.2234201431274414,-3.565077781677246
1773163109520760800,6.6067607421875,5.205872535705566,-0.6732845306396484,-4.423669815063477
1773163109529094000,6.615093994140625,3.477847099304199,0.9001002311706543,-5.500933647155762
1773163109537427000,6.623427001953125,0.9837639927864075,1.9699044227600098,-6.332457065582275
1773163109545760000,6.631760009765625,-2.455437660217285,2.306929111480713,-6.773930549621582
1773163109554093000,6.640093017578125,-5.0129523277282715,1.9444046020507812,-6.9462995529174805
1773163109562426000,6.648426025390625,-5.210167407989502,0.7963733673095703,-6.977626800537109
1773163109570759200,6.65675927734375,-3.4375903606414795,-1.0548772811889648,-6.819194793701172
1773163109579092000,6.665092041015625,-1.2115991115570068,-2.677445411682129,-6.29010009765625
1773163109587425000,6.673425048828125,0.7551891207695007,-3.143932342529297,-5.46535587310791
1773163109595758000,6.681758056640625,2.1122336387634277,-2.8187332153320312,-4.61367130279541
1773163109604091100,6.690091064453125,2.707681655883789,-2.2570676803588867,-3.871490716934204
1773163109612424200,6.698424072265625,2.366602897644043,-1.8681402206420898,-3.020756244659424
1773163109620757200,6.70675732421875,1.7770216464996338,-1.6328039169311523,-2.0168442726135254
1773163109629090300,6.71509033203125,1.729551076889038,-1.5172300338745117,-0.9872543811798096
1773163109637423000,6.723423095703125,2.1858601570129395,-1.3108386993408203,-0.0872194766998291
1773163109645756200,6.731756103515625,2.854846715927124,-1.062260627746582,0.6890444755554199
1773163109654089200,6.740089111328125,3.4653351306915283,-0.6887092590332031,1.3500566482543945
1773163109662422300,6.74842236328125,3.81596040725708,-0.31838512420654297,1.7779815196990967
1773163109670755300,6.75675537109375,3.7379021644592285,0.2783851623535156,2.0643391609191895
1773163109679088400,6.76508837890625,3.260019302368164,0.9334897994995117,1.9829597473144531
1773163109687421400,6.77342138671875,2.4979217052459717,1.4920568466186523,1.836641550064087
1773163109695754500,6.78175439453125,1.6598901748657227,1.5517549514770508,1.8994431495666504
1773163109704087300,6.79008740234375,0.9415870904922485,1.195971965789795,1.8472959995269775
1773163109712420400,6.79842041015625,0.5312045812606812,0.6497621536254883,1.6938776969909668
1773163109720753400,6.80675341796875,0.34978795051574707,0.11162471771240234,1.4178144931793213
1773163109729086500,6.81508642578125,0.49898192286491394,-0.31825828552246094,1.015812635421753
1773163109737419500,6.82341943359375,0.6661665439605713,-0.701629638671875,0.6144113540649414
1773163109745752600,6.831752685546875,0.7693014740943909,-0.9582290649414062,0.22301268577575684
1773163109754085600,6.840085693359375,0.7780673503875732,-1.0826387405395508,-0.07274937629699707
1773163109762418400,6.84841845703125,0.7931832075119019,-0.9851903915405273,-0.420684814453125
1773163109770751500,6.85675146484375,0.7403703927993774,-0.7806386947631836,-0.8547751903533936
1773163109779084500,6.86508447265625,0.5718854665756226,-0.5663595199584961,-1.1314029693603516
1773163109787417600,6.87341748046875,0.39883315563201904,-0.33537960052490234,-1.4450786113739014
1773163109795750700,6.881750732421875,0.3185567855834961,-0.22808837890625,-1.566852331161499
1773163109804083700,6.890083740234375,0.4763646721839905,-0.30146121978759766,-1.7200734615325928
1773163109812416800,6.898416748046875,0.6187149286270142,-0.5295085906982422,-1.7453669309616089
1773163109820749600,6.90674951171875,0.5804423689842224,-0.7139387130737305,-1.619553565979004
1773163109829082600,6.91508251953125,0.398204505443573,-0.7053003311157227,-1.2715809345245361
1773163109837415700,6.923415771484375,0.23709553480148315,-0.7040624618530273,-1.0558357238769531
1773163109845748700,6.931748779296875,0.21561658382415771,-0.6247272491455078,-0.9671835899353027
1773163109854081800,6.940081787109375,0.14984184503555298,-0.43916797637939453,-0.7406160831451416
1773163109862414800,6.948414794921875,0.19657647609710693,-0.2453603744506836,-0.5709631443023682
1773163109870748000,6.956747802734375,0.09928596019744873,-0.10616779327392578,-0.43657493591308594
1773163109879081000,6.9650810546875,0.014625966548919678,0.011507987976074219,-0.20268630981445312
1773163109887413800,6.973413818359375,-0.020319104194641113,-0.005455970764160156,-0.23610162734985352
1773163109895746800,6.981746826171875,-0.05939096212387085,-0.217620849609375,-0.06385493278503418
1773163109904080000,6.990079833984375,-0.03220391273498535,-0.3230733871459961,-0.08056902885437012
1773163109912413000,6.998412841796875,-0.12262487411499023,-0.2823190689086914,-0.05468297004699707
1773163109920746000,7.00674609375,-0.21406489610671997,-0.2170724868774414,-0.1049649715423584
1773163109929079000,7.0150791015625,-0.3214936852455139,-0.13918781280517578,-0.18851828575134277
1773163109937412000,7.023412109375,-0.5346329808235168,-0.11246490478515625,-0.3323695659637451
1773163109945745000,7.031744873046875,-0.7697412967681885,-0.055309295654296875,-0.32194972038269043
1773163109954078000,7.040077880859375,-0.956486701965332,-0.02166461944580078,-0.31891918182373047
1773163109962411000,7.048410888671875,-1.16755211353302,-0.05325889587402344,-0.15970945358276367
1773163109970744000,7.056744140625,-1.1529704332351685,-0.16936588287353516,0.03903317451477051
1773163109979077000,7.0650771484375,-1.065011739730835,-0.3243293762207031,0.33737659454345703
1773163109987410200,7.07341015625,-0.8702600002288818,-0.3343839645385742,0.6443758010864258
1773163109995743200,7.0817431640625,-0.5144518613815308,-0.2259502410888672,0.9681508541107178
1773163110004076000,7.090075927734375,-0.21469664573669434,-0.05517387390136719,1.3124303817749023
1773163110012409000,7.0984091796875,-0.06470859050750732,0.1722707748413086,1.7287960052490234
1773163110020742100,7.1067421875,-0.10582613945007324,0.2944374084472656,2.2398040294647217
1773163110029075200,7.1150751953125,-0.2450193166732788,0.40776824951171875,2.5006542205810547
1773163110037408300,7.123408203125,-0.48705995082855225,0.29853248596191406,3.0160040855407715
1773163110045741300,7.1317412109375,-0.7557144165039062,0.25011444091796875,3.480830430984497
1773163110054074400,7.140074462890625,-0.9751558899879456,0.23415756225585938,3.8424136638641357
1773163110062407200,7.1484072265625,-1.2925362586975098,0.23356914520263672,3.9565484523773193
1773163110070740200,7.156740234375,-1.6826788187026978,0.022281646728515625,3.694936513900757
1773163110079073300,7.1650732421875,-1.952634572982788,-0.3617734909057617,3.3666181564331055
1773163110087406300,7.17340625,-2.0253500938415527,-0.5567693710327148,3.065836191177368
1773163110095739400,7.181739501953125,-1.868234395980835,-0.6218376159667969,2.8919310569763184
1773163110104072400,7.190072509765625,-1.7252845764160156,-0.681797981262207,2.823566436767578
1773163110112405500,7.198405517578125,-1.7013643980026245,-0.7632389068603516,2.8026726245880127
1773163110120738600,7.206738525390625,-1.6317236423492432,-0.8918075561523438,2.605736494064331
1773163110129071400,7.2150712890625,-1.6032657623291016,-0.9159469604492188,2.3441708087921143
1773163110137404400,7.223404296875,-1.6801841259002686,-0.9649133682250977,2.1239213943481445
1773163110145737500,7.231737548828125,-1.92131507396698,-1.0720930099487305,1.9361848831176758
1773163110154070500,7.240070556640625,-2.2583727836608887,-1.3430681228637695,1.788426160812378
1773163110162403600,7.248403564453125,-2.7044010162353516,-1.6932764053344727,1.6435444355010986
1773163110170736600,7.256736572265625,-3.146472930908203,-1.8567438125610352,1.5010735988616943
1773163110179069700,7.265069580078125,-3.471494197845459,-1.8028039932250977,1.445744514465332
1773163110187402500,7.273402587890625,-3.6852359771728516,-1.5228462219238281,1.373760461807251
1773163110195735600,7.281735595703125,-3.72975492477417,-1.2369070053100586,1.3496999740600586
1773163110204068600,7.290068603515625,-3.6150546073913574,-0.9944791793823242,1.259312391281128
1773163110212401700,7.298401611328125,-3.373940944671631,-0.7705469131469727,1.1387715339660645
1773163110220734700,7.306734619140625,-3.1227264404296875,-0.5527725219726562,0.8297936916351318
1773163110229067800,7.31506787109375,-2.9870076179504395,-0.20801258087158203,0.37470030784606934
1773163110237400800,7.32340087890625,-3.024783134460449,0.24805068969726562,-0.1326446533203125
1773163110245733600,7.331733642578125,-2.907999038696289,0.6248579025268555,-0.5419869422912598
1773163110254066700,7.340066650390625,-2.4564483165740967,0.8916635513305664,-1.0885369777679443
1773163110262399700,7.348399658203125,-1.778630256652832,0.9662094116210938,-1.6736855506896973
1773163110270732800,7.35673291015625,-1.0354509353637695,0.7724838256835938,-2.066662549972534
1773163110279065900,7.36506591796875,-0.2949683666229248,0.05667304992675781,-2.1712634563446045
1773163110287399000,7.37339892578125,0.5750676393508911,-1.696725845336914,-2.1967506408691406
1773163110295732000,7.38173193359375,1.6926331520080566,-4.074225425720215,-2.6060967445373535
1773163110304064800,7.390064697265625,2.854904890060425,-6.081928253173828,-3.3220691680908203
1773163110312397800,7.398397705078125,3.631868839263916,-7.208183288574219,-3.9748446941375732
1773163110320731000,7.40673095703125,4.026167392730713,-7.7787933349609375,-4.342236042022705
1773163110329064000,7.41506396484375,3.800433874130249,-7.479082107543945,-4.235675811767578
1773163110337397000,7.42339697265625,2.8865580558776855,-6.145776748657227,-3.931457042694092
1773163110345730000,7.43172998046875,1.4158273935317993,-4.060137748718262,-3.5169789791107178
1773163110354063000,7.44006298828125,0.35145699977874756,-2.1391143798828125,-3.284937858581543
1773163110362396200,7.448396240234375,-0.23208117485046387,-0.7616844177246094,-3.0321178436279297
1773163110370729000,7.45672900390625,-0.042304039001464844,-0.07696914672851562,-2.890415668487549
1773163110379062000,7.46506201171875,0.529236912727356,0.22154998779296875,-2.567068099975586
1773163110387395000,7.47339501953125,1.1571546792984009,0.4333963394165039,-1.9297726154327393
1773163110395728100,7.48172802734375,1.5922578573226929,0.5203723907470703,-1.093989610671997
1773163110404061200,7.490061279296875,1.6759589910507202,0.43981170654296875,0.1644587516784668
1773163110412394200,7.498394287109375,1.3208004236221313,0.36586856842041016,1.372232437133789
1773163110420727300,7.506727294921875,0.7102164030075073,0.17178821563720703,1.9616150856018066
1773163110429060000,7.51506005859375,-0.024260520935058594,0.1080007553100586,1.7573885917663574
1773163110437393200,7.52339306640625,-0.38395071029663086,0.11741161346435547,0.8152947425842285
1773163110445726200,7.531726318359375,0.003309965133666992,0.14084720611572266,-0.4581928253173828
1773163110454059300,7.540059326171875,0.504788875579834,0.2970418930053711,-1.5433738231658936
1773163110462392300,7.548392333984375,0.7880345582962036,0.6402063369750977,-2.132352352142334
1773163110470725400,7.556725341796875,1.0105304718017578,1.0298385620117188,-2.377185106277466
1773163110479058400,7.565058349609375,1.1204581260681152,1.4993634223937988,-2.434386730194092
1773163110487391200,7.57339111328125,1.094017505645752,1.8827271461486816,-2.367358684539795
1773163110495724300,7.581724365234375,1.0634533166885376,2.2576284408569336,-2.1685080528259277
1773163110504057300,7.590057373046875,1.304443359375,2.5342116355895996,-2.181612253189087
1773163110512390400,7.598390380859375,1.5947500467300415,2.681438446044922,-2.2716357707977295
1773163110520723500,7.606723388671875,1.8430202007293701,2.700745105743408,-2.3499958515167236
1773163110529056500,7.615056396484375,1.981215238571167,2.633044719696045,-2.438044786453247
1773163110537389600,7.6233896484375,2.051973342895508,2.576030731201172,-2.454721450805664
1773163110545722600,7.63172265625,2.0052809715270996,2.55686092376709,-2.515399217605591
1773163110554055400,7.640055419921875,1.8064568042755127,2.4842677116394043,-2.6452274322509766
1773163110570721500,7.656721435546875,0.9839149713516235,2.5855512619018555,-2.4490907192230225
1773163110579054600,7.6650546875,0.5989046096801758,2.543606758117676,-2.2543344497680664
1773163110587387600,7.6733876953125,0.13839375972747803,2.335993766784668,-1.9144330024719238
1773163110595720700,7.681720703125,-0.2807192802429199,1.9513511657714844,-1.4529461860656738
1773163110604053800,7.6900537109375,-0.5802780389785767,1.3046417236328125,-0.9759390354156494
1773163110612386600,7.698386474609375,-0.6390292644500732,0.6169619560241699,-0.2728714942932129
1773163110620719600,7.7067197265625,-0.12921786308288574,-0.26205921173095703,0.34787750244140625
1773163110629052700,7.715052734375,0.15681099891662598,-0.8428220748901367,1.344787359237671
1773163110637385700,7.7233857421875,0.2786749601364136,-1.2546701431274414,2.5194318294525146
1773163110645718800,7.73171875,-0.05440068244934082,-1.5338993072509766,3.8599441051483154
1773163110654051800,7.7400517578125,-1.012965202331543,-1.7049446105957031,4.955143451690674
1773163110662385000,7.748385009765625,-2.639864921569824,-1.7002630233764648,5.671087741851807
1773163110670717700,7.7567177734375,-4.2620038986206055,-1.365391731262207,6.119678497314453
1773163110679050800,7.76505078125,-5.71698522567749,-0.8395509719848633,6.428203582763672
1773163110687383800,7.7733837890625,-6.858508586883545,-0.3167448043823242,5.958895683288574
1773163110695716900,7.781716796875,-7.615416526794434,0.11364173889160156,4.699682712554932
1773163110704050000,7.7900498046875,-7.318120002746582,0.2942371368408203,3.4091601371765137
1773163110712383000,7.798383056640625,-5.558419704437256,0.033374786376953125,2.107029914855957
1773163110720716000,7.806716064453125,-3.7249302864074707,-0.5429706573486328,0.8671903610229492
1773163110729048800,7.815048828125,-2.173919677734375,-1.142073631286621,-0.1656026840209961
1773163110737382000,7.8233818359375,-0.8068321943283081,-1.659193992614746,-0.9152979850769043
1773163110745715000,7.83171484375,0.5382667779922485,-2.0961341857910156,-1.266251802444458
1773163110754048000,7.840048095703125,1.8961950540542603,-2.4394521713256836,-1.3217203617095947
1773163110762381000,7.848381103515625,3.19541597366333,-2.8498573303222656,-1.3213355541229248
1773163110770714000,7.856714111328125,4.497314453125,-3.318042755126953,-1.2757446765899658
1773163110779047200,7.865047119140625,5.048017501831055,-3.671144485473633,-1.153224229812622
1773163110787380200,7.873380126953125,5.144582748413086,-3.6939315795898438,-1.3651089668273926
1773163110795713000,7.881713134765625,4.58169412612915,-3.2940969467163086,-2.023578405380249
1773163110804046000,7.890046142578125,3.7111077308654785,-2.069822311401367,-2.8229944705963135
1773163110812379100,7.898379150390625,2.5379438400268555,-0.35945701599121094,-3.6057920455932617
1773163110820712200,7.906712158203125,1.1339185237884521,1.041823387145996,-4.41480016708374
1773163110829045200,7.915045166015625,-0.6115309000015259,1.6915922164916992,-5.060647010803223
1773163110837378300,7.92337841796875,-2.550511360168457,1.6409902572631836,-5.568617343902588
1773163110845711400,7.93171142578125,-4.176002502441406,0.8818178176879883,-5.983376502990723
1773163110854044200,7.940044189453125,-4.527759552001953,-0.25116443634033203,-6.151149749755859
1773163110862377200,7.948377197265625,-3.403984546661377,-1.0410051345825195,-5.588470458984375
1773163110870710300,7.956710205078125,-1.3774669170379639,-1.1611032485961914,-4.456591606140137
1773163110879043300,7.965043212890625,0.799140453338623,-1.0832185745239258,-3.627979278564453
1773163110887376400,7.97337646484375,2.3275842666625977,-1.011672019958496,-2.905036687850952
1773163110895709400,7.98170947265625,2.7975411415100098,-1.087045669555664,-2.1628170013427734
1773163110904042500,7.99004248046875,2.695436954498291,-1.1578006744384766,-1.4545464515686035
1773163110912375300,7.998375244140625,2.3993639945983887,-1.19317626953125,-0.8403632640838623
1773163110920708400,8.006708251953125,2.099903106689453,-1.1642999649047852,-0.1730654239654541
1773163110929041400,8.01504150390625,1.9884836673736572,-1.0533008575439453,0.5872113704681396
1773163110937374500,8.02337451171875,2.105484962463379,-0.8550491333007812,1.3396968841552734
1773163110945707500,8.03170751953125,2.6034114360809326,-0.5460109710693359,1.9083430767059326
1773163110954040600,8.04004052734375,3.002011775970459,-0.1328878402709961,2.1129956245422363
1773163110962373600,8.04837353515625,3.0619773864746094,0.5295963287353516,2.0185470581054688
1773163110970706700,8.056706787109375,2.480161428451538,0.9799585342407227,1.609673261642456
1773163110979039500,8.06503955078125,1.5976011753082275,1.183274745941162,1.155914306640625
1773163110987372500,8.07337255859375,0.7098287343978882,1.248286247253418,1.0145478248596191
1773163110995705600,8.08170556640625,0.07935726642608643,1.0365867614746094,0.8947868347167969
1773163111004038700,8.09003857421875,-0.20641419291496277,0.5070095062255859,0.5909819602966309
1773163111012371700,8.098371826171874,-0.18733642995357513,-0.029436111450195312,0.3009521961212158
1773163111020704800,8.106704833984375,0.11550165712833405,-0.38402652740478516,0.10959553718566895
1773163111029037800,8.115037841796875,0.46110799908638,-0.6653356552124023,-0.10308361053466797
1773163111037370600,8.12337060546875,0.733966052532196,-0.8169660568237305,-0.3586430549621582
1773163111045703700,8.13170361328125,0.8624680042266846,-0.7224016189575195,-0.5304045677185059
1773163111054036700,8.14003662109375,0.7532191276550293,-0.5158481597900391,-0.8017652034759521
1773163111062369800,8.148369873046875,0.8324698209762573,-0.2774171829223633,-1.196446180343628
1773163111070702800,8.156702880859376,0.49879956245422363,0.07858657836914062,-1.4725053310394287
1773163111079036000,8.165035888671875,0.2884511947631836,0.2801856994628906,-1.5426996946334839
1773163111087369000,8.173368896484375,0.1763131022453308,0.3079843521118164,-1.5241740942001343
1773163111095701800,8.18170166015625,0.24371248483657837,0.2055816650390625,-1.6334590911865234
1773163111104034800,8.190034912109375,0.32266587018966675,0.1144704818725586,-1.4899760484695435
1773163111112367900,8.198367919921875,0.4146443009376526,0.09491443634033203,-1.1820409297943115
1773163111120701000,8.206700927734374,0.37898021936416626,-0.060638427734375,-0.7770683765411377
1773163111129034000,8.215033935546876,0.3073500394821167,-0.09978103637695312,-0.3721122741699219
1773163111137367000,8.223366943359375,0.3513032793998718,-0.03812599182128906,-0.016201019287109375
1773163111145700000,8.2317001953125,0.42521095275878906,0.009599685668945312,0.1735391616821289
1773163111154033000,8.240032958984376,0.24310529232025146,0.058449745178222656,0.3090801239013672
1773163111162366000,8.248365966796875,-0.06072831153869629,-0.013881683349609375,0.3525247573852539
1773163111170699000,8.256698974609375,-0.269920289516449,0.036164283752441406,0.4764404296875
1773163111179032000,8.265031982421876,-0.5518189668655396,0.0418548583984375,0.7753808498382568
1773163111187365000,8.273365234375,-0.608788251876831,0.1503925323486328,0.7497580051422119
1773163111195698200,8.2816982421875,-0.7439879775047302,0.15352916717529297,0.8415508270263672
1773163111204031200,8.29003125,-0.9264198541641235,0.20501232147216797,0.7391843795776367
1773163111212364300,8.2983642578125,-1.1485830545425415,0.24760723114013672,0.6430802345275879
1773163111220697000,8.306697021484375,-1.37051522731781,0.3052492141723633,0.5736372470855713
1773163111229030100,8.315030029296874,-1.4753621816635132,0.3690328598022461,0.5577011108398438
1773163111237363200,8.32336328125,-1.5446020364761353,0.3724393844604492,0.8478803634643555
1773163111245696300,8.3316962890625,-1.51885986328125,0.4252347946166992,1.4039866924285889
1773163111254029300,8.340029296875,-1.4521006345748901,0.4618244171142578,2.0216031074523926
1773163111262362400,8.3483623046875,-1.3186556100845337,0.563267707824707,2.7254183292388916
1773163111270695400,8.3566953125,-1.166777491569519,0.5563182830810547,3.336590528488159
1773163111279028200,8.3650283203125,-0.9335571527481079,0.5463085174560547,3.8622310161590576
1773163111287361300,8.373361328125,-0.8655400276184082,0.5184841156005859,4.225958824157715
1773163111295694300,8.3816943359375,-1.0537599325180054,0.4596424102783203,4.685056209564209
1773163111304027400,8.39002734375,-1.3842737674713135,0.21079349517822266,5.009121894836426
1773163111312360400,8.3983603515625,-1.7675219774246216,-0.1360330581665039,4.906613349914551
1773163111320693500,8.406693603515626,-2.059844732284546,-0.6745815277099609,4.473050117492676
1773163111329026600,8.415026611328125,-2.015296220779419,-1.2691888809204102,3.884664297103882
1773163111337359400,8.423359375,-1.888522744178772,-1.8017711639404297,3.244657278060913
1773163111345692400,8.4316923828125,-1.8220183849334717,-2.2109975814819336,2.8397204875946045
1773163111354025500,8.440025390625,-1.8128454685211182,-2.5930023193359375,2.6703171730041504
1773163111362358500,8.448358642578125,-1.5413533449172974,-3.088411331176758,2.2820851802825928
1773163111370691600,8.456691650390624,-1.393479824066162,-3.429859161376953,2.1358799934387207
1773163111379024600,8.465024658203125,-1.3880349397659302,-3.3763389587402344,1.9394614696502686
1773163111387357700,8.473357666015625,-1.4913396835327148,-3.0567893981933594,1.5845980644226074
1773163111395690500,8.4816904296875,-1.8297585248947144,-2.5740365982055664,1.355837345123291
1773163111404023600,8.4900234375,-2.4705522060394287,-2.219470977783203,1.3583190441131592
1773163111412356600,8.498356689453125,-2.871220350265503,-1.9469051361083984,1.3669965267181396
1773163111420689700,8.506689697265625,-2.8003406524658203,-1.6506519317626953,1.3053371906280518
1773163111429022700,8.515022705078126,-2.5721945762634277,-1.3035392761230469,1.1074390411376953
1773163111437355800,8.523355712890625,-2.408848762512207,-0.8509035110473633,0.9076387882232666
1773163111445688800,8.531688720703125,-2.425278663635254,-0.4394216537475586,0.44861483573913574
1773163111454022000,8.54002197265625,-2.480497360229492,-0.0790853500366211,-0.03582930564880371
1773163111462354700,8.548354736328125,-2.575150966644287,0.25818634033203125,-0.4653623104095459
1773163111470687700,8.556687744140625,-2.6785919666290283,0.5082178115844727,-0.933849573135376
1773163111479020800,8.565020751953124,-2.646466016769409,0.7064666748046875,-1.1968679428100586
1773163111487353900,8.573353759765626,-2.4258980751037598,0.8104705810546875,-1.7209930419921875
1773163111495687000,8.58168701171875,-1.7804436683654785,0.6446094512939453,-2.4842448234558105
1773163111504020000,8.59002001953125,-0.9916448593139648,0.06320381164550781,-3.0640926361083984
1773163111512353000,8.59835302734375,0.02409297227859497,-1.3974781036376953,-3.4014358520507812
1773163111520685800,8.606685791015625,1.1167153120040894,-3.7640209197998047,-3.75870943069458
1773163111529019000,8.615018798828125,2.1907386779785156,-5.994592666625977,-4.617981910705566
1773163111537352000,8.62335205078125,3.076917886734009,-7.369222640991211,-5.549687385559082
1773163111545685000,8.63168505859375,3.489607334136963,-7.861669540405273,-5.954897880554199
1773163111554018000,8.64001806640625,3.235546588897705,-7.29737663269043,-5.701964378356934
1773163111562351000,8.64835107421875,2.0961101055145264,-5.349775314331055,-4.931152820587158
1773163111570684200,8.65668408203125,0.8638010025024414,-2.8695173263549805,-4.232209205627441
1773163111579017000,8.665016845703125,0.32665300369262695,-0.9376392364501953,-3.966071128845215
1773163111587350000,8.67335009765625,0.5375099182128906,0.20110702514648438,-3.7451133728027344
1773163111595683000,8.68168310546875,1.266357183456421,0.712712287902832,-3.3157029151916504
1773163111604016000,8.69001611328125,1.7667732238769531,0.9341297149658203,-2.656123638153076
1773163111612349200,8.69834912109375,2.473573923110962,0.988067626953125,-1.5185985565185547
1773163111620682200,8.70668212890625,3.1377992630004883,0.8240933418273926,-0.22417545318603516
1773163111629015300,8.715015380859375,3.6916141510009766,0.5318593978881836,1.0180325508117676
1773163111637348400,8.723348388671875,3.081211566925049,0.29013919830322266,2.2251195907592773
1773163111645681200,8.73168115234375,1.7941926717758179,0.14875221252441406,2.8492674827575684
1773163111654014200,8.74001416015625,0.2678229808807373,0.04689598083496094,2.7609381675720215
1773163111662347300,8.74834716796875,-0.9102163314819336,-0.13879871368408203,1.763902187347412
1773163111670680300,8.756680419921874,-1.101874589920044,-0.2618732452392578,0.49317026138305664
1773163111679013400,8.765013427734376,-0.6735811233520508,-0.21378421783447266,-0.5550971031188965
1773163111695679500,8.781679443359375,0.5008863210678101,0.51458740234375,-1.4966957569122314
1773163111704012300,8.79001220703125,0.6632370948791504,1.0313339233398438,-1.542158603668213
1773163111712345300,8.798345458984375,0.7831969261169434,1.434722900390625,-1.6815211772918701
1773163111720678400,8.806678466796875,1.0220087766647339,1.759333610534668,-1.9221293926239014
1773163111729011500,8.815011474609374,1.2375380992889404,2.0058512687683105,-2.1261231899261475
1773163111737344500,8.823344482421875,1.4607419967651367,2.1557064056396484,-2.3062915802001953
1773163111745677600,8.831677490234375,1.6927461624145508,2.1789231300354004,-2.4420294761657715
1773163111754010600,8.8400107421875,1.9458297491073608,2.1094751358032227,-2.7207140922546387
1773163111762343400,8.848343505859376,1.995914340019226,2.0554256439208984,-2.9219682216644287
1773163111770676500,8.856676513671875,2.028660535812378,2.012073516845703,-3.0546982288360596
1773163111779009500,8.865009521484374,2.0075318813323975,2.00130558013916,-3.1013805866241455
1773163111787342600,8.873342529296876,1.9227194786071777,1.9301872253417969,-3.025491714477539
1773163111795675600,8.881675537109375,1.8636384010314941,1.8088469505310059,-2.802969455718994
1773163111804008700,8.8900087890625,1.7070744037628174,1.5737571716308594,-2.5569350719451904
1773163111812341800,8.898341796875,1.5724072456359863,1.347428798675537,-2.188987970352173
1773163111820674600,8.906674560546875,1.3882920742034912,1.062450885772705,-1.7023353576660156
1773163111829007600,8.915007568359375,1.072180151939392,0.8556628227233887,-1.112978219985962
1773163111837340700,8.923340576171874,0.6592295169830322,0.6022939682006836,-0.6827421188354492
1773163111845673700,8.931673828125,0.25302040576934814,0.28638553619384766,-0.41988682746887207
1773163111854006800,8.9400068359375,-0.09339499473571777,-0.11372184753417969,-0.16522789001464844
1773163111862339800,8.94833984375,-0.5837506055831909,-0.5294809341430664,0.23425769805908203
1773163111870673000,8.9566728515625,-1.2553006410598755,-0.9040756225585938,0.8172178268432617
1773163111879006000,8.965005859375,-2.0907559394836426,-1.085174560546875,1.5385499000549316
1773163111887338800,8.9733388671875,-2.985332727432251,-1.2020692825317383,2.1798648834228516
1773163111895671800,8.981671875,-4.227241516113281,-1.1951847076416016,3.102881908416748
1773163111904004900,8.9900048828125,-5.465514183044434,-1.1001501083374023,3.6857070922851562
1773163111912338000,8.998337890625,-6.276042461395264,-0.8394041061401367,4.540652751922607
1773163111920671000,9.0066708984375,-6.456503868103027,-0.3420677185058594,5.487513065338135
1773163111929004000,9.015004150390626,-6.222509860992432,0.3160123825073242,6.393321514129639
1773163111937337000,9.023337158203125,-6.014728546142578,0.722783088684082,6.796982765197754
1773163111945670000,9.031669921875,-5.892529487609863,0.6206035614013672,6.21602201461792
1773163111954003000,9.0400029296875,-5.445772171020508,0.6058578491210938,5.442014217376709
1773163111962336000,9.0483359375,-3.85870623588562,0.34700584411621094,4.101181983947754
1773163111970669000,9.0566689453125,-2.00199818611145,-0.455718994140625,2.3014731407165527
1773163111979002000,9.065002197265626,-0.19465279579162598,-1.1040382385253906,1.0129904747009277
1773163111987335200,9.073335205078125,1.1466981172561646,-1.344522476196289,0.44839954376220703
1773163111995668200,9.081668212890625,1.8234304189682007,-1.6542854309082031,0.10288476943969727
1773163112004001000,9.0900009765625,2.068906784057617,-1.975717544555664,-0.3185873031616211
1773163112012334000,9.098333984375,2.3751134872436523,-2.080455780029297,-0.7379517555236816
1773163112020667100,9.106667236328125,2.7182626724243164,-2.311084747314453,-1.427109718322754
1773163112029000200,9.115000244140624,3.3297457695007324,-2.5812549591064453,-2.3296382427215576
1773163112037333200,9.123333251953126,4.156742095947266,-2.7636337280273438,-3.2461671829223633
1773163112045666300,9.131666259765625,4.594074249267578,-2.744460105895996,-3.733067750930786
1773163112053999400,9.139999267578125,4.898046493530273,-2.5896615982055664,-3.708026170730591
1773163112062332400,9.14833251953125,4.75779390335083,-2.252791404724121,-3.797362804412842
1773163112070665200,9.156665283203125,3.924239158630371,-1.7024726867675781,-4.410486698150635
1773163112078998300,9.164998291015625,2.0894577503204346,-0.9759311676025391,-5.2847981452941895
1773163112087331300,9.173331298828124,-0.6556693315505981,-0.5389213562011719,-5.853062152862549
1773163112095664400,9.181664306640625,-3.553652048110962,-0.1813640594482422,-5.176937103271484
1773163112103997400,9.18999755859375,-5.390440464019775,0.3263216018676758,-3.67840838432312
1773163112112330500,9.19833056640625,-5.163976669311523,0.6345462799072266,-2.2078683376312256
1773163112120663600,9.20666357421875,-3.314424991607666,0.4552907943725586,-1.178541660308838
1773163112128996400,9.214996337890625,-1.160407304763794,-0.19530582427978516,-0.5176794528961182
1773163112137329400,9.223329345703124,0.4339078664779663,-0.8423805236816406,-0.27376365661621094
1773163112145662500,9.231662353515626,1.362565517425537,-1.1383333206176758,-0.6342887878417969
1773163112153995500,9.23999560546875,2.0502469539642334,-0.8832893371582031,-1.1416640281677246
1773163112162328600,9.24832861328125,2.4468603134155273,-0.3084077835083008,-1.1866660118103027
1773163112170661600,9.25666162109375,2.899143934249878,0.27468109130859375,-1.2504353523254395
1773163112178994700,9.26499462890625,3.6464672088623047,0.6471109390258789,-1.3330934047698975
1773163112187327500,9.273327392578125,4.374154090881348,0.85845947265625,-1.2529926300048828
1773163112195660500,9.28166064453125,4.418583869934082,0.7162580490112305,-1.0496447086334229
1773163112203993600,9.28999365234375,4.103545188903809,0.4740161895751953,-0.6691138744354248
1773163112212326700,9.29832666015625,3.8489558696746826,0.2193470001220703,-0.21198582649230957
1773163112220659700,9.30665966796875,3.5723202228546143,-0.030324935913085938,0.17428803443908691
1773163112228992800,9.31499267578125,3.0464186668395996,-0.24231815338134766,0.5232462882995605
1773163112237325800,9.323325927734375,2.212265729904175,-0.2045583724975586,0.7616922855377197
1773163112245658600,9.33165869140625,1.3192579746246338,0.07518577575683594,0.977684736251831
1773163112253991700,9.33999169921875,0.36377280950546265,0.3373708724975586,1.4028675556182861
1773163112262324700,9.34832470703125,-0.5554760694503784,0.5319385528564453,2.0518486499786377
1773163112270657800,9.35665771484375,-1.1894474029541016,0.5685625076293945,2.5083823204040527
1773163112278990800,9.364990966796874,-1.276200532913208,0.5052986145019531,2.527364492416382
1773163112287324000,9.373323974609375,-0.7909528613090515,0.22169876098632812,2.125669240951538
1773163112295657000,9.381656982421875,0.08445712924003601,-0.036490440368652344,1.2362744808197021
1773163112303990000,9.389989990234374,1.1221867799758911,-0.07042598724365234,0.15134263038635254
1773163112312322800,9.39832275390625,1.6635913848876953,-0.04289436340332031,-0.5804123878479004
1773163112320656000,9.40665576171875,1.8843505382537842,0.053778648376464844,-1.2803170680999756
1773163112328989000,9.414989013671875,1.879766583442688,0.11492252349853516,-2.1298599243164062
1773163112337322000,9.423322021484376,1.9564186334609985,0.09825992584228516,-3.1248254776000977
1773163112345655000,9.431655029296875,2.037994861602783,0.079254150390625,-3.750102996826172
1773163112353988000,9.439988037109375,1.7477822303771973,-0.037731170654296875,-4.100358009338379
1773163112362321200,9.448321044921874,1.074114203453064,-0.15917205810546875,-4.085257530212402
1773163112370654000,9.456654052734375,0.08161407709121704,-0.2656745910644531,-3.2926201820373535
1773163112378987000,9.464987060546875,-0.6584458351135254,-0.3115262985229492,-1.747837781906128
1773163112387320000,9.473320068359374,-0.661261260509491,-0.2866353988647461,-0.4140932559967041
1773163112395653000,9.481653076171876,-0.27460235357284546,-0.22032928466796875,0.6306426525115967
1773163112403986200,9.489986083984375,0.16387850046157837,-0.035022735595703125,1.3989579677581787
1773163112412319200,9.4983193359375,0.4815499186515808,0.27286338806152344,1.6915290355682373
1773163112420652300,9.50665234375,0.4894289970397949,0.5903291702270508,1.909163236618042
1773163112428985000,9.514985107421875,0.5474844574928284,0.7074337005615234,1.864065170288086
1773163112437318100,9.523318115234375,0.49121761322021484,0.7579565048217773,1.617201328277588
1773163112445651200,9.531651123046874,0.2261562943458557,0.63128662109375,0.9410932064056396
1773163112453984300,9.539984375,-0.05186682939529419,0.2799949645996094,0.010163307189941406
1773163112462317300,9.5483173828125,-0.31282734870910645,-0.07787895202636719,-0.9234035015106201
1773163112470650400,9.556650390625,-0.4789845645427704,-0.2921562194824219,-1.6174534559249878
1773163112478983400,9.5649833984375,-0.6094532012939453,-0.42323970794677734,-2.0237202644348145
1773163112487316500,9.57331640625,-0.7427617907524109,-0.5194902420043945,-2.2385802268981934
1773163112495649300,9.581649169921874,-1.0064070224761963,-0.5905008316040039,-2.1668953895568848
1773163112503982300,9.589982421875,-1.332520842552185,-0.7034320831298828,-1.8544336557388306
1773163112512315400,9.5983154296875,-1.7270417213439941,-0.7113504409790039,-1.4089983701705933
1773163112520648400,9.6066484375,-2.2475781440734863,-0.8699092864990234,-0.8924896717071533
1773163112528981500,9.6149814453125,-2.3478403091430664,-0.9441699981689453,-0.21883416175842285
1773163112537314600,9.623314453125,-1.962143898010254,-1.0168342590332031,0.40410304069519043
1773163112545647600,9.631647705078125,-1.3097124099731445,-0.8107948303222656,0.90767502784729
1773163112553980400,9.63998046875,-0.6595686674118042,-0.29253673553466797,1.443049669265747
1773163112562313500,9.6483134765625,-0.19205880165100098,0.32486820220947266,2.0365755558013916
1773163112570646500,9.656646484375,0.12370586395263672,0.7948875427246094,2.620741367340088
1773163112578979600,9.6649794921875,0.19858813285827637,1.0867071151733398,3.016111373901367
1773163112587312600,9.673312744140626,0.059285640716552734,1.1946496963500977,3.25080943107605
1773163112595645700,9.681645751953125,-0.22503662109375,1.2279129028320312,3.266542434692383
1773163112603978800,9.689978759765625,-0.5273324251174927,1.271031379699707,3.0251967906951904
1773163112612311600,9.6983115234375,-0.741708517074585,1.3050708770751953,2.732959747314453
1773163112620644600,9.70664453125,-0.9214823842048645,1.171133041381836,2.1935386657714844
1773163112628977700,9.714977783203125,-0.9876123666763306,0.8320760726928711,1.5692076683044434
1773163112637310700,9.723310791015624,-0.7365830540657043,0.40202903747558594,1.0870373249053955
1773163112645643800,9.731643798828125,-0.21850824356079102,0.03752326965332031,0.774655818939209
1773163112653976800,9.739976806640625,0.2937037944793701,-0.29056644439697266,0.5649702548980713
1773163112662310000,9.748309814453124,0.6193755865097046,-0.49741554260253906,0.5287952423095703
1773163112670642700,9.756642578125,0.6875451803207397,-0.5435304641723633,0.7492737770080566
1773163112678975700,9.764975830078125,0.5720268487930298,-0.45431041717529297,1.1017177104949951
1773163112687308800,9.773308837890625,0.3521946668624878,-0.3498849868774414,1.6075034141540527
1773163112695641900,9.781641845703126,0.08111190795898438,-0.2892036437988281,2.018393039703369
1773163112703975000,9.789974853515625,-0.1768779754638672,-0.26186466217041016,2.486873149871826
1773163112712308000,9.798307861328125,-0.5453184843063354,-0.39696598052978516,3.0119903087615967
1773163112720641000,9.80664111328125,-0.8236372470855713,-0.6212520599365234,3.3711354732513428
1773163112728974000,9.81497412109375,-1.0748438835144043,-0.9583873748779297,3.6303763389587402
1773163112737307000,9.823306884765625,-1.2716786861419678,-1.4351558685302734,3.86125111579895
1773163112745640000,9.831639892578124,-1.2300704717636108,-1.7667655944824219,3.9986796379089355
1773163112753973000,9.839972900390626,-0.8728837966918945,-1.7382926940917969,3.7668981552124023
1773163112762306000,9.84830615234375,-0.6745589971542358,-1.407353401184082,3.5571422576904297
1773163112770639000,9.85663916015625,-0.6312291026115417,-1.075057029724121,3.2009315490722656
1773163112778972200,9.86497216796875,-0.8462808728218079,-0.8312711715698242,2.940796375274658
1773163112787305200,9.87330517578125,-1.2554385662078857,-0.7150411605834961,2.680067300796509
1773163112795638000,9.881637939453125,-1.7240077257156372,-0.7740182876586914,2.2917776107788086
1773163112803971000,9.88997119140625,-2.3497109413146973,-0.832432746887207,1.7733955383300781
1773163112812304100,9.89830419921875,-3.2555747032165527,-0.8487300872802734,1.2252833843231201
1773163112820637200,9.90663720703125,-4.203886985778809,-0.9657983779907227,0.7777242660522461
1773163112828970200,9.91497021484375,-4.618993759155273,-1.159682273864746,0.45981454849243164
1773163112837303300,9.92330322265625,-4.095343112945557,-1.2290287017822266,0.06505846977233887
1773163112845636400,9.93163623046875,-2.986006021499634,-1.0970535278320312,-0.25446224212646484
1773163112853969200,9.93996923828125,-1.835331916809082,-0.7800922393798828,-0.5744292736053467
1773163112862302200,9.94830224609375,-0.9977693557739258,-0.34418582916259766,-0.8378374576568604
1773163112870635300,9.95663525390625,-0.23085105419158936,0.08473777770996094,-1.1097996234893799
1773163112878968300,9.96496826171875,0.28226467967033386,0.4384479522705078,-1.351717472076416
1773163112887301400,9.97330126953125,0.5721218585968018,0.5386581420898438,-1.5289636850357056
1773163112895634400,9.981634521484375,0.7330297231674194,0.051871299743652344,-1.8478319644927979
1773163112903967500,9.989967529296875,0.9329419136047363,-1.0125856399536133,-2.116217613220215
1773163112912300500,9.998300537109374,1.450170874595642,-2.5831117630004883,-2.5780954360961914
1773163112920633300,10.00663330078125,2.1795244216918945,-4.303205490112305,-3.2508063316345215
1773163112928966400,10.01496630859375,2.796501874923706,-5.612886428833008,-3.600182056427002
1773163112937299500,10.023299560546874,3.204314947128296,-6.288542747497559,-3.7991068363189697
1773163112945632500,10.031632568359376,3.184185743331909,-6.523375511169434,-3.729902744293213
1773163112953965600,10.039965576171875,2.8271005153656006,-6.356013298034668,-3.58589243888855
1773163112962298600,10.048298583984375,2.166640520095825,-5.491569519042969,-3.3982560634613037
1773163112970631700,10.056631591796876,1.3900426626205444,-4.092133522033691,-3.254897117614746
1773163112978964500,10.064964599609375,0.7885805368423462,-2.625094413757324,-3.066715717315674
1773163112987297500,10.073297607421875,0.7201398611068726,-1.4505224227905273,-2.834620714187622
1773163112995630600,10.081630615234374,1.178562045097351,-0.6786842346191406,-2.711124897003174
1773163113003963600,10.089963623046875,1.9034302234649658,-0.2092142105102539,-2.5364224910736084
1773163113012296700,10.098296630859375,2.4087812900543213,0.07921981811523438,-2.215503454208374
1773163113020629800,10.106629638671874,2.473867893218994,0.19832134246826172,-1.7795968055725098
1773163113028962800,10.114962890625,2.2181475162506104,0.3466987609863281,-1.3335678577423096
1773163113037295600,10.123295654296875,1.714940071105957,0.4062166213989258,-1.0565133094787598
1773163113045628700,10.131628662109375,1.1976341009140015,0.4132809638977051,-0.9087166786193848
1773163113053961700,10.139961669921876,0.8485352993011475,0.3065967559814453,-1.0818393230438232
1773163113062294800,10.148294677734375,0.6505533456802368,0.30223560333251953,-1.6978764533996582
1773163113070627800,10.1566279296875,0.4830489158630371,0.42581701278686523,-2.2459464073181152
1773163113078961000,10.1649609375,0.42420506477355957,0.6057877540588379,-2.59012508392334
1773163113087294000,10.1732939453125,0.4352353811264038,0.9664626121520996,-2.641362190246582
1773163113095626800,10.181626708984375,0.5778940916061401,1.3702216148376465,-2.588104248046875
1773163113103959800,10.189959716796874,0.7445422410964966,1.7694554328918457,-2.4579386711120605
1773163113112292900,10.19829296875,0.9363247156143188,2.0884737968444824,-2.2663705348968506
1773163113120626000,10.2066259765625,1.1090317964553833,2.408815860748291,-2.1361653804779053
1773163113128959000,10.214958984375,1.3197184801101685,2.5933237075805664,-2.1226651668548584
1773163113137292000,10.2232919921875,1.5375027656555176,2.557656764984131,-2.195554494857788
1773163113145625000,10.231625,1.7969461679458618,2.3684144020080566,-2.235352039337158
1773163113153958100,10.239958251953125,1.9989852905273438,2.226935386657715,-2.309614419937134
1773163113162291000,10.248291015625,2.0279629230499268,2.1280736923217773,-2.235200881958008
1773163113170624000,10.2566240234375,1.983449935913086,2.129563331604004,-1.9824120998382568
1773163113178957000,10.26495703125,2.0435855388641357,2.0327134132385254,-1.8821852207183838
1773163113187290000,10.2732900390625,1.9321043491363525,1.778210163116455,-1.7915711402893066
1773163113195623200,10.281623046875,1.6354954242706299,1.3542985916137695,-1.4885315895080566
1773163113203956200,10.289956298828125,1.3391942977905273,0.9144878387451172,-1.1072094440460205
1773163113212289300,10.298289306640624,0.9441397190093994,0.5995421409606934,-0.6695384979248047
1773163113220622000,10.3066220703125,0.5266814231872559,0.36163330078125,-0.3282022476196289
1773163113228955100,10.314955078125,0.18815040588378906,0.14211463928222656,0.14834356307983398
1773163113237288200,10.3232880859375,0.1719226837158203,-0.06906414031982422,0.5652589797973633
1773163113245621200,10.331621337890626,0.31876111030578613,-0.41923999786376953,0.7786626815795898
1773163113253954300,10.339954345703125,0.3669736385345459,-0.6213665008544922,1.1520414352416992
1773163113262287400,10.348287353515625,0.1957719326019287,-0.5139055252075195,1.7141613960266113
1773163113270620400,10.356620361328124,-0.3435394763946533,-0.40411853790283203,1.8898000717163086
1773163113278953200,10.364953125,-1.1257178783416748,-0.18862342834472656,2.315908432006836
1773163113287286300,10.373286376953125,-1.8020884990692139,0.04826927185058594,2.562836170196533
1773163113295619300,10.381619384765624,-2.36238431930542,0.1991100311279297,3.058351993560791
1773163113303952400,10.389952392578126,-2.8645784854888916,0.3361215591430664,3.312305450439453
1773163113312285400,10.398285400390625,-3.3367176055908203,0.42271995544433594,3.4934678077697754
1773163113320618500,10.406618408203125,-3.798004627227783,0.48389720916748047,3.5625529289245605
1773163113328951600,10.41495166015625,-4.278193950653076,0.6135869026184082,3.4886937141418457
1773163113337284400,10.423284423828125,-4.67143440246582,0.8509116172790527,3.423417568206787
1773163113345617400,10.431617431640625,-4.2846856117248535,0.8326940536499023,2.704464912414551
1773163113353950500,10.439950439453124,-3.7014007568359375,0.6705927848815918,1.8593535423278809
1773163113362283500,10.448283447265625,-3.111269950866699,0.5409283638000488,1.0428481101989746
1773163113370616600,10.456616455078125,-2.520263433456421,0.45193052291870117,0.41831159591674805
1773163113378949600,10.46494970703125,-1.7086961269378662,0.41921138763427734,-0.06191825866699219
1773163113387282700,10.47328271484375,-0.8191878795623779,0.34326171875,-0.45821428298950195
1773163113395615700,10.48161572265625,-0.08936405181884766,0.15299129486083984,-0.8036601543426514
1773163113403948500,10.489948486328124,0.4223968982696533,-0.10395240783691406,-1.022407054901123
1773163113412281600,10.498281494140626,0.82576584815979,-0.35201168060302734,-1.095139980316162
1773163113420614700,10.50661474609375,1.2907335758209229,-0.5362529754638672,-1.0121004581451416
1773163113428947700,10.51494775390625,1.8063952922821045,-0.6734466552734375,-0.9271206855773926
1773163113437280800,10.52328076171875,2.0314671993255615,-0.9325923919677734,-0.8448381423950195
1773163113445613800,10.53161376953125,1.9146287441253662,-1.5261516571044922,-0.7552616596221924
1773163113453947000,10.53994677734375,1.511491060256958,-2.6931753158569336,-0.4740920066833496
1773163113462279700,10.54827978515625,0.9052402973175049,-4.513689041137695,0.24301385879516602
1773163113470612700,10.55661279296875,0.13744652271270752,-6.3050642013549805,1.1077861785888672
1773163113478945800,10.56494580078125,-0.9990164041519165,-7.673578262329102,1.8731350898742676
1773163113487278800,10.57327880859375,-2.419015884399414,-8.627881050109863,2.38010835647583
1773163113495612000,10.58161181640625,-3.626887798309326,-7.535959243774414,1.9326848983764648
1773163113503945000,10.589945068359375,-3.9099602699279785,-3.5936355590820312,0.3052659034729004
1773163113512278000,10.598278076171875,-2.340240955352783,-0.6331977844238281,-0.9987330436706543
1773163113520610800,10.60661083984375,0.12409543991088867,0.8110122680664062,-2.405517578125
1773163113528943900,10.61494384765625,1.807189702987671,1.6026182174682617,-3.887321710586548
1773163113537277000,10.62327685546875,2.147916793823242,2.396770477294922,-4.698158264160156
1773163113545610000,10.63160986328125,1.2483205795288086,2.98030948638916,-5.105346202850342
1773163113553943000,10.639943115234376,-0.3429309129714966,3.5080766677856445,-5.054661273956299
1773163113562276000,10.648276123046875,-1.4400964975357056,3.4671688079833984,-5.221195697784424
1773163113570609200,10.656609130859374,-1.1020805835723877,2.6239609718322754,-5.921470642089844
