time,seconds_elapsed,z,y,x
1773163103021004800,0.1070048828125,9.487268447875977,2.3750503063201904,0.7219846844673157
1773163103029337600,0.115337646484375,9.471774101257324,2.412825107574463,0.7963360548019409
1773163103037670700,0.123670654296875,9.462468147277832,2.444088935852051,0.8114870190620422
1773163103054336800,0.140336669921875,9.468161582946777,2.438929557800293,0.7588939070701599
1773163103062669800,0.148669921875,9.480755805969238,2.3990726470947266,0.7280767560005188
1773163103071003000,0.1570029296875,9.491293907165527,2.3653807640075684,0.7005029916763306
1773163103079336000,0.1653359375,9.491997718811035,2.3693149089813232,0.6772833466529846
1773163103087668700,0.173668701171875,9.477167129516602,2.430567979812622,0.6678475737571716
1773163103096001800,0.182001708984375,9.448229789733887,2.5393083095550537,0.6732393503189087
1773163103104334800,0.1903349609375,9.410046577453613,2.6684677600860596,0.7075915932655334
1773163103112668000,0.19866796875,9.367782592773438,2.7972095012664795,0.7685445547103882
1773163103121001000,0.2070009765625,9.326737403869629,2.899874210357666,0.8792518377304077
1773163103129334000,0.215333984375,9.28619384765625,3.0088515281677246,0.9401131868362427
1773163103137667000,0.2236669921875,9.24841594696045,3.117196798324585,0.9593067765235901
1773163103146000000,0.231999755859375,9.213604927062988,3.214104175567627,0.9743756055831909
1773163103154333000,0.2403330078125,9.179643630981445,3.297105550765991,1.0166728496551514
1773163103162666000,0.248666015625,9.144499778747559,3.3772060871124268,1.0691094398498535
1773163103170999000,0.2569990234375,9.105095863342285,3.4675307273864746,1.1152820587158203
1773163103179332000,0.26533203125,9.060686111450195,3.5676794052124023,1.1601874828338623
1773163103187665200,0.2736650390625,9.014179229736328,3.6705970764160156,1.2006956338882446
1773163103195998200,0.281998291015625,8.969499588012695,3.7675716876983643,1.234455943107605
1773163103204331300,0.290331298828125,8.926383972167969,3.859909772872925,1.2614110708236694
1773163103212664000,0.2986640625,8.882238388061523,3.953841209411621,1.281946063041687
1773163103220997000,0.3069970703125,8.835302352905273,4.04775333404541,1.3128256797790527
1773163103229330200,0.315330078125,8.78846263885498,4.133187770843506,1.3601714372634888
1773163103237663200,0.323663330078125,8.744115829467773,4.206381797790527,1.4202779531478882
1773163103245996300,0.331996337890625,8.706069946289062,4.264852523803711,1.4784256219863892
1773163103254329300,0.340329345703125,8.675195693969727,4.310092926025391,1.5278984308242798
1773163103262662400,0.348662353515625,8.650145530700684,4.346426963806152,1.5665061473846436
1773163103270995200,0.3569951171875,8.63150405883789,4.375845909118652,1.5872951745986938
1773163103279328300,0.365328369140625,8.615467071533203,4.406904697418213,1.5884944200515747
1773163103287661300,0.373661376953125,8.601921081542969,4.4404802322387695,1.5682722330093384
1773163103295994400,0.381994384765625,8.597485542297363,4.465250015258789,1.5215709209442139
1773163103304327400,0.390327392578125,8.599939346313477,4.482118129730225,1.4567259550094604
1773163103312660500,0.398660400390625,8.602396965026855,4.499581336975098,1.3866947889328003
1773163103320993500,0.40699365234375,8.598636627197266,4.527571678161621,1.317166805267334
1773163103329326300,0.415326416015625,8.586746215820312,4.565123081207275,1.2640477418899536
1773163103337659400,0.423659423828125,8.569894790649414,4.603321552276611,1.2396405935287476
1773163103345992400,0.431992431640625,8.550353050231934,4.633293628692627,1.262718677520752
1773163103354325500,0.440325439453125,8.531664848327637,4.653225421905518,1.3147560358047485
1773163103362658600,0.448658447265625,8.518354415893555,4.660966396331787,1.3723759651184082
1773163103370991600,0.45699169921875,8.512139320373535,4.6584672927856445,1.4186499118804932
1773163103379324700,0.46532470703125,8.507988929748535,4.655212879180908,1.453790307044983
1773163103387657700,0.47365771484375,8.500758171081543,4.658870220184326,1.4840549230575562
1773163103395990500,0.481990478515625,8.484800338745117,4.675823211669922,1.521591305732727
1773163103404323600,0.490323486328125,8.46324348449707,4.698922634124756,1.5697197914123535
1773163103412656600,0.49865673828125,8.440170288085938,4.721318244934082,1.6257448196411133
1773163103420989700,0.50698974609375,8.418140411376953,4.739570140838623,1.6857590675354004
1773163103429322800,0.51532275390625,8.39976978302002,4.749299049377441,1.7488325834274292
1773163103437655800,0.52365576171875,8.383645057678223,4.752853870391846,1.81528639793396
1773163103445988900,0.53198876953125,8.366456985473633,4.757136821746826,1.882135033607483
1773163103454321700,0.54032177734375,8.346933364868164,4.765645503997803,1.9462027549743652
1773163103462654700,0.54865478515625,8.32384967803955,4.782605171203613,2.002645969390869
1773163103470987800,0.55698779296875,8.298527717590332,4.807657241821289,2.047255754470825
1773163103479320800,0.56532080078125,8.2742338180542,4.835468292236328,2.0798280239105225
1773163103487654000,0.57365380859375,8.257233619689941,4.856935977935791,2.097294569015503
1773163103495987000,0.581987060546875,8.247136116027832,4.870150089263916,2.1063647270202637
1773163103504320000,0.590320068359375,8.2359037399292,4.879608631134033,2.128312349319458
1773163103512652800,0.59865283203125,8.230849266052246,4.8813796043396,2.143742561340332
1773163103520985900,0.60698583984375,8.194026947021484,4.913200378417969,2.2110536098480225
1773163103529319000,0.61531884765625,8.15503215789795,4.9366254806518555,2.301206588745117
1773163103537652000,0.62365185546875,8.115234375,4.959234237670898,2.391514778137207
1773163103545985000,0.631985107421875,8.077766418457031,4.981772422790527,2.470229387283325
1773163103562651100,0.648651123046875,8.028539657592773,5.001156806945801,2.5886998176574707
1773163103570984000,0.65698388671875,8.012624740600586,5.001206874847412,2.6374528408050537
1773163103579317000,0.66531689453125,7.997100830078125,4.999638080596924,2.687081813812256
1773163103587650000,0.673650146484375,7.984094619750977,4.994288444519043,2.735271692276001
1773163103595983000,0.681983154296875,7.970422267913818,4.988185882568359,2.785813331604004
1773163103604316200,0.690316162109375,7.95271635055542,4.983796119689941,2.843674659729004
1773163103612649200,0.698649169921875,7.927468299865723,4.98316764831543,2.914388418197632
1773163103620982300,0.706982177734375,7.890356063842773,4.988729953765869,3.0042033195495605
1773163103629315300,0.7153154296875,7.840091705322266,4.999290943145752,3.1161582469940186
1773163103637648100,0.723648193359375,7.778720378875732,5.011170387268066,3.248086452484131
1773163103645981200,0.731981201171875,7.702336311340332,5.023654460906982,3.4069464206695557
1773163103654314200,0.740314208984375,7.601842880249023,5.043280124664307,3.5982892513275146
1773163103662647300,0.748647216796875,7.482135772705078,5.062851428985596,3.8151743412017822
1773163103670980400,0.75698046875,7.3536906242370605,5.072136878967285,4.045621395111084
1773163103679313400,0.7653134765625,7.2262444496154785,5.067685604095459,4.274383544921875
1773163103687646500,0.773646484375,7.106011867523193,5.04628324508667,4.495553493499756
1773163103695979300,0.781979248046875,6.9957122802734375,5.008092403411865,4.706315994262695
1773163103712645400,0.798645263671875,6.800072193145752,4.892838478088379,5.097993850708008
1773163103720978400,0.806978515625,6.703963756561279,4.827470779418945,5.284201622009277
1773163103729311500,0.8153115234375,6.600674152374268,4.7600274085998535,5.472077369689941
1773163103737644500,0.82364453125,6.486692428588867,4.692939281463623,5.662997245788574
1773163103745977600,0.8319775390625,6.356806755065918,4.6270976066589355,5.861003398895264
1773163103754310400,0.840310302734375,6.2090325355529785,4.555374622344971,6.071808815002441
1773163103762643500,0.8486435546875,6.043298244476318,4.474851131439209,6.294810771942139
1773163103770976500,0.8569765625,5.862329483032227,4.384438514709473,6.525348663330078
1773163103779309600,0.8653095703125,5.674465179443359,4.280540943145752,6.7563157081604
1773163103787642600,0.873642578125,5.4871296882629395,4.162111282348633,6.981305122375488
1773163103795975700,0.8819755859375,5.304276943206787,4.029285907745361,7.197213172912598
1773163103804308700,0.890308837890625,5.13232421875,3.8832767009735107,7.399310111999512
1773163103812641800,0.898641845703125,4.979595184326172,3.7261507511138916,7.582204341888428
1773163103820974600,0.906974609375,4.842221260070801,3.564521312713623,7.747094631195068
1773163103829307600,0.9153076171875,4.706921100616455,3.404433250427246,7.900956630706787
1773163103837640700,0.923640625,4.570361614227295,3.2436025142669678,8.047435760498047
1773163103845973800,0.931973876953125,4.433167934417725,3.084096670150757,8.185704231262207
1773163103854306800,0.940306884765625,4.296731472015381,2.920537233352661,8.317388534545898
1773163103862639900,0.948639892578125,4.160512924194336,2.755415678024292,8.442049980163574
1773163103870973000,0.956972900390625,4.036649703979492,2.5871505737304688,8.55467700958252
1773163103879305700,0.9653056640625,3.932007312774658,2.413630247116089,8.653559684753418
1773163103887638800,0.973638671875,3.8478517532348633,2.237171173095703,8.738391876220703
1773163103895971800,0.981971923828125,3.781675338745117,2.067558765411377,8.808774948120117
1773163103904305000,0.990304931640625,3.7271296977996826,1.9098992347717285,8.867422103881836
1773163103912638000,0.998637939453125,3.679579496383667,1.756730079650879,8.918798446655273
1773163103920971000,1.006970947265625,3.6522905826568604,1.6014472246170044,8.959158897399902
1773163103929304000,1.015303955078125,3.6634576320648193,1.4471628665924072,8.980823516845703
1773163103937636900,1.023636962890625,3.718679189682007,1.2935856580734253,8.981561660766602
1773163103945970000,1.031969970703125,3.818734645843506,1.1395418643951416,8.960418701171875
1773163103954303000,1.040302978515625,3.9532363414764404,0.9869193434715271,8.920106887817383
1773163103962636000,1.048635986328125,4.100211143493652,0.8409489989280701,8.868565559387207
1773163103970969000,1.056968994140625,4.240670204162598,0.7080565690994263,8.813952445983887
1773163103979302100,1.06530224609375,4.361025810241699,0.5946941375732422,8.763457298278809
1773163103987635200,1.07363525390625,4.452582836151123,0.4989759922027588,8.723296165466309
1773163103995968000,1.081968017578125,4.508238315582275,0.4186747372150421,8.698901176452637
1773163104004301000,1.090301025390625,4.532623291015625,0.35434576869010925,8.689082145690918
1773163104012634000,1.098634033203125,4.538403034210205,0.29919716715812683,8.688138961791992
1773163104020967200,1.10696728515625,4.539130210876465,0.2452961504459381,8.689449310302734
1773163104029300200,1.11530029296875,4.550802230834961,0.186939999461174,8.684792518615723
1773163104037633300,1.12363330078125,4.583141803741455,0.12356434017419815,8.668906211853027
1773163104045966300,1.13196630859375,4.631103515625,0.058223579078912735,8.64406681060791
1773163104054299400,1.14029931640625,4.685688018798828,-0.00636867294088006,8.61479377746582
1773163104062632200,1.148632080078125,4.736842155456543,-0.06552532315254211,8.586525917053223
1773163104070965200,1.15696533203125,4.769129276275635,-0.11471451073884964,8.568117141723633
1773163104079298300,1.16529833984375,4.771851539611816,-0.15569478273391724,8.565954208374023
1773163104087631400,1.17363134765625,4.746209621429443,-0.1906200498342514,8.579484939575195
1773163104095964400,1.18196435546875,4.700139045715332,-0.22468158602714539,8.603985786437988
1773163104104297500,1.19029736328125,4.64255428314209,-0.26131314039230347,8.634164810180664
1773163104112630500,1.198630615234375,4.568114280700684,-0.3036095201969147,8.67240047454834
1773163104120963300,1.20696337890625,4.4741716384887695,-0.3437395393848419,8.719748497009277
1773163104129296400,1.21529638671875,4.384359359741211,-0.37932389974594116,8.76378345489502
1773163104137629400,1.22362939453125,4.319159984588623,-0.41479113698005676,8.794498443603516
1773163104145962500,1.23196240234375,4.283017158508301,-0.45534247159957886,8.810153007507324
1773163104154295600,1.240295654296875,4.261025905609131,-0.5026708841323853,8.81824016571045
1773163104162628600,1.248628662109375,4.233654499053955,-0.5527166724205017,8.828422546386719
1773163104170961700,1.256961669921875,4.1894917488098145,-0.6034756302833557,8.846150398254395
1773163104179294500,1.26529443359375,4.124613285064697,-0.6578312516212463,8.872722625732422
1773163104187627500,1.27362744140625,4.033945560455322,-0.7161667943000793,8.909814834594727
1773163104195960600,1.281960693359375,3.924678087234497,-0.7684335708618164,8.95414924621582
1773163104204293600,1.290293701171875,3.8113911151885986,-0.8134638667106628,8.998998641967773
1773163104212626700,1.298626708984375,3.702666997909546,-0.8577402234077454,9.040184020996094
1773163104220959700,1.306959716796875,3.603985071182251,-0.9061695337295532,9.075270652770996
1773163104229292800,1.315292724609375,3.515314817428589,-0.9572327136993408,9.104759216308594
1773163104237625900,1.3236259765625,3.431983709335327,-1.0088599920272827,9.130941390991211
1773163104245958700,1.331958740234375,3.350492000579834,-1.0631763935089111,9.155012130737305
1773163104254291700,1.340291748046875,3.265303134918213,-1.1198850870132446,9.178999900817871
1773163104262624800,1.348624755859375,3.167614221572876,-1.1784789562225342,9.205856323242188
1773163104270957800,1.356957763671875,3.046034812927246,-1.2381157875061035,9.23900032043457
1773163104279291000,1.365290771484375,2.8951351642608643,-1.2949117422103882,9.279643058776855
1773163104287624000,1.3736240234375,2.715473175048828,-1.3473392724990845,9.326374053955078
1773163104295957000,1.38195703125,2.5181007385253906,-1.3965083360671997,9.374396324157715
1773163104304289800,1.390289794921875,2.3196325302124023,-1.4495240449905396,9.417461395263672
1773163104312622800,1.398622802734375,2.1382105350494385,-1.506650447845459,9.451373100280762
1773163104320956000,1.406955810546875,1.9925925731658936,-1.5567668676376343,9.475043296813965
1773163104329289000,1.4152890625,1.8878519535064697,-1.593331217765808,9.490400314331055
1773163104337622000,1.4236220703125,1.811053991317749,-1.6182887554168701,9.501137733459473
1773163104345955000,1.431955078125,1.7434852123260498,-1.6440412998199463,9.50935173034668
1773163104354288000,1.4402880859375,1.6732925176620483,-1.677077054977417,9.516190528869629
1773163104362621000,1.448620849609375,1.591959834098816,-1.7198419570922852,9.522509574890137
1773163104370954000,1.4569541015625,1.493432641029358,-1.7760034799575806,9.52816104888916
1773163104379287000,1.465287109375,1.3753451108932495,-1.844541072845459,9.532916069030762
1773163104387620000,1.4736201171875,1.2357622385025024,-1.9219640493392944,9.536736488342285
1773163104395953200,1.481953125,1.071929693222046,-2.0067708492279053,9.53908920288086
1773163104404286200,1.4902861328125,0.8786492943763733,-2.103205919265747,9.538076400756836
1773163104412619300,1.498619384765625,0.6506948471069336,-2.2152552604675293,9.53098201751709
1773163104420952000,1.5069521484375,0.3922736644744873,-2.3439271450042725,9.514331817626953
1773163104429285000,1.51528515625,0.10999973118305206,-2.485564947128296,9.48579216003418
1773163104437618200,1.5236181640625,-0.18244236707687378,-2.6398940086364746,9.44288444519043
1773163104445951200,1.531951171875,-0.4748086929321289,-2.806974411010742,9.384339332580566
1773163104454284300,1.5402841796875,-0.7634027600288391,-2.986475944519043,9.309596061706543
1773163104462617300,1.548617431640625,-1.0386989116668701,-3.1568198204040527,9.226373672485352
1773163104470950400,1.556950439453125,-1.234140396118164,-3.306812047958374,9.14944076538086
1773163104479283500,1.565283447265625,-1.380728006362915,-3.4300923347473145,9.082865715026855
1773163104495949300,1.58194921875,-1.5869215726852417,-3.6008968353271484,8.982516288757324
1773163104504282400,1.590282470703125,-1.6278855800628662,-3.679732084274292,8.943150520324707
1773163104512615400,1.598615478515625,-1.6289745569229126,-3.758690595626831,8.910055160522461
1773163104529281500,1.615281494140625,-1.552137851715088,-3.910391330718994,8.8583345413208
1773163104537614600,1.623614501953125,-1.495096206665039,-3.992482900619507,8.831485748291016
1773163104545947400,1.631947509765625,-1.4404487609863281,-4.079389572143555,8.800799369812012
1773163104554280400,1.640280517578125,-1.3990705013275146,-4.162440299987793,8.768527030944824
1773163104562613500,1.648613525390625,-1.3823668956756592,-4.23642110824585,8.735684394836426
1773163104570946600,1.656946533203125,-1.4029589891433716,-4.304927349090576,8.698833465576172
1773163104579279600,1.665279541015625,-1.4756628274917603,-4.389162540435791,8.644539833068848
1773163104587612700,1.67361279296875,-1.6020803451538086,-4.499459743499756,8.564963340759277
1773163104595945700,1.68194580078125,-1.7465672492980957,-4.6433234214782715,8.459281921386719
1773163104604278500,1.690278564453125,-1.8786544799804688,-4.823873996734619,8.328943252563477
1773163104612611600,1.698611572265625,-1.9800604581832886,-5.038924217224121,8.176734924316406
1773163104620944600,1.706944580078125,-2.0422122478485107,-5.284938812255859,8.00432300567627
1773163104629277700,1.715277587890625,-2.0743207931518555,-5.554190158843994,7.811437129974365
1773163104637610800,1.72361083984375,-2.0928080081939697,-5.840683460235596,7.594534873962402
1773163104645943800,1.73194384765625,-2.1234614849090576,-6.140239715576172,7.345663070678711
1773163104654276900,1.74027685546875,-2.193876028060913,-6.448206424713135,7.055346488952637
1773163104662609700,1.748609619140625,-2.3134727478027344,-6.7635416984558105,6.713623523712158
1773163104670942700,1.756942626953125,-2.463303804397583,-7.081141948699951,6.321389198303223
1773163104679275800,1.76527587890625,-2.633422613143921,-7.390766143798828,5.883200645446777
1773163104687608800,1.77360888671875,-2.74013614654541,-7.682825088500977,5.443917274475098
1773163104695942000,1.78194189453125,-2.728736639022827,-7.933405876159668,5.077937602996826
1773163104704275000,1.79027490234375,-2.6278419494628906,-8.133721351623535,4.8070173263549805
1773163104712608000,1.79860791015625,-2.503967523574829,-8.28463363647461,4.611440181732178
1773163104720941000,1.806941162109375,-2.4086976051330566,-8.3936185836792,4.462704658508301
1773163104729273900,1.81527392578125,-2.3598995208740234,-8.474335670471191,4.334384441375732
1773163104737607000,1.82360693359375,-2.3506085872650146,-8.550660133361816,4.187032699584961
1773163104745940000,1.83193994140625,-2.357830047607422,-8.640580177307129,3.993922472000122
1773163104754273000,1.84027294921875,-2.3621134757995605,-8.746539115905762,3.753511905670166
1773163104762606000,1.848606201171875,-2.3502726554870605,-8.866327285766602,3.469128131866455
1773163104770939100,1.856939208984375,-2.3235771656036377,-8.994149208068848,3.142714738845825
1773163104779272200,1.865272216796875,-2.2836458683013916,-9.121819496154785,2.783477783203125
1773163104787605000,1.87360498046875,-2.2299561500549316,-9.244978904724121,2.393333673477173
1773163104795938000,1.88193798828125,-2.156616449356079,-9.359476089477539,1.979797124862671
1773163104804271000,1.89027099609375,-2.053212881088257,-9.461677551269531,1.5592838525772095
1773163104812604200,1.898604248046875,-1.912087321281433,-9.548422813415527,1.1584187746047974
1773163104820937200,1.906937255859375,-1.741491436958313,-9.617240905761719,0.8039097785949707
1773163104829270300,1.915270263671875,-1.5596556663513184,-9.667572975158691,0.5252374410629272
1773163104837603300,1.923603271484375,-1.394140362739563,-9.700589179992676,0.3540436625480652
1773163104845936000,1.93193603515625,-1.274822473526001,-9.7181396484375,0.3208918273448944
1773163104854269200,1.940269287109375,-1.219116449356079,-9.721109390258789,0.42918068170547485
1773163104862602200,1.948602294921875,-1.2198566198349,-9.709646224975586,0.6364738941192627
1773163104870935300,1.956935302734375,-1.247178316116333,-9.686487197875977,0.8870611786842346
1773163104879268400,1.965268310546875,-1.2733759880065918,-9.656167984008789,1.1433813571929932
1773163104887601400,1.973601318359375,-1.2805330753326416,-9.623403549194336,1.3859069347381592
1773163104895934500,1.9819345703125,-1.2633373737335205,-9.591349601745605,1.6063605546951294
1773163104904267500,1.990267578125,-1.226596474647522,-9.561470031738281,1.8011456727981567
1773163104912600300,1.998600341796875,-1.1782100200653076,-9.534689903259277,1.9677104949951172
1773163104920933400,2.006933349609375,-1.127037525177002,-9.511797904968262,2.1037755012512207
1773163104929266400,2.015266357421875,-1.0801241397857666,-9.493705749511719,2.2075493335723877
1773163104937599500,2.023599609375,-1.0425775051116943,-9.48051643371582,2.281059980392456
1773163104945932500,2.0319326171875,-1.015559434890747,-9.472005844116211,2.328117847442627
1773163104954265600,2.040265625,-0.9983923435211182,-9.466923713684082,2.356044054031372
1773163104962598700,2.0485986328125,-0.9884148836135864,-9.464767456054688,2.3688838481903076
1773163104970931500,2.056931396484375,-0.9804791212081909,-9.46523380279541,2.370313882827759
1773163104979264500,2.065264404296875,-0.9677712321281433,-9.467714309692383,2.365631341934204
1773163104987597600,2.07359765625,-0.9452469944953918,-9.470283508300781,2.3644487857818604
1773163104995930600,2.0819306640625,-0.914271354675293,-9.471112251281738,2.373293876647949
1773163105004263700,2.090263671875,-0.8797292113304138,-9.469559669494629,2.3924663066864014
1773163105012596700,2.0985966796875,-0.8451400399208069,-9.466943740844727,2.415184259414673
1773163105020929800,2.1069296875,-0.8123300671577454,-9.464502334594727,2.4359188079833984
1773163105029262600,2.1152626953125,-0.7811596393585205,-9.462416648864746,2.454148530960083
1773163105037595600,2.123595703125,-0.7499649524688721,-9.460641860961914,2.470668315887451
1773163105045928700,2.1319287109375,-0.7166813015937805,-9.459320068359375,2.4855592250823975
1773163105054261800,2.14026171875,-0.6806396245956421,-9.458603858947754,2.498387336730957
1773163105062594800,2.1485947265625,-0.6420421004295349,-9.458257675170898,2.5098860263824463
1773163105070928000,2.156927978515625,-0.6008315682411194,-9.458186149597168,2.5203404426574707
1773163105079261000,2.165260986328125,-0.5566084980964661,-9.458426475524902,2.5295701026916504
1773163105087593700,2.17359375,-0.5091297030448914,-9.459054946899414,2.5372140407562256
1773163105095926800,2.1819267578125,-0.459452748298645,-9.459815979003906,2.543848991394043
1773163105104259800,2.190259765625,-0.4092589318752289,-9.460497856140137,2.5498785972595215
1773163105112593000,2.198593017578125,-0.3614342510700226,-9.460872650146484,2.555708646774292
1773163105120926000,2.206926025390625,-0.31823626160621643,-9.46111011505127,2.5605690479278564
1773163105129259000,2.215259033203125,-0.27973034977912903,-9.461413383483887,2.563941478729248
1773163105137592000,2.223592041015625,-0.24451948702335358,-9.462043762207031,2.5652108192443848
1773163105145925000,2.231925048828125,-0.21150022745132446,-9.463059425354004,2.564406394958496
1773163105154258000,2.2402578125,-0.1797647923231125,-9.46450424194336,2.5614922046661377
1773163105162591000,2.248591064453125,-0.14898400008678436,-9.46638011932373,2.556530475616455
1773163105170924000,2.256924072265625,-0.11915303021669388,-9.468719482421875,2.5494186878204346
1773163105179257000,2.265257080078125,-0.09085281938314438,-9.471529960632324,2.540128469467163
1773163105187590100,2.273590087890625,-0.06401712447404861,-9.474627494812012,2.529369592666626
1773163105195923200,2.281923095703125,-0.038602132350206375,-9.477914810180664,2.517542839050293
1773163105204256300,2.29025634765625,-0.0149573078379035,-9.481350898742676,2.504823923110962
1773163105212589000,2.298589111328125,0.007834968157112598,-9.484691619873047,2.492177963256836
1773163105220922000,2.306922119140625,0.03045600838959217,-9.48763370513916,2.480778217315674
1773163105229255200,2.315255126953125,0.05440841242671013,-9.48985767364502,2.4718472957611084
1773163105237588200,2.323588134765625,0.08054811507463455,-9.491063117980957,2.4664957523345947
1773163105245921300,2.33192138671875,0.10897509008646011,-9.491150856018066,2.465066909790039
1773163105254254300,2.34025439453125,0.1395474523305893,-9.490156173706055,2.4673564434051514
1773163105262587400,2.34858740234375,0.1724746972322464,-9.488296508789062,2.4724206924438477
1773163105270920200,2.356920166015625,0.20764338970184326,-9.485462188720703,2.4805819988250732
1773163105279253200,2.365253173828125,0.24507081508636475,-9.481654167175293,2.49169921875
1773163105287586300,2.37358642578125,0.2842244505882263,-9.476577758789062,2.5068061351776123
1773163105295919400,2.38191943359375,0.3246314823627472,-9.470135688781738,2.5261707305908203
1773163105304252400,2.39025244140625,0.36543765664100647,-9.462496757507324,2.5491154193878174
1773163105312585500,2.39858544921875,0.40519046783447266,-9.454036712646484,2.574373722076416
1773163105320918500,2.40691845703125,0.4436691999435425,-9.444952964782715,2.6012332439422607
1773163105329251600,2.41525146484375,0.48293906450271606,-9.435637474060059,2.62791109085083
1773163105337584400,2.42358447265625,0.5246108174324036,-9.42559814453125,2.655799627304077
1773163105354250500,2.44025048828125,0.6054723858833313,-9.402643203735352,2.7192070484161377
1773163105362583600,2.44858349609375,0.6416600346565247,-9.39061450958252,2.7522754669189453
1773163105370916600,2.45691650390625,0.6776554584503174,-9.37899398803711,2.783099412918091
1773163105379249700,2.465249755859375,0.7160164713859558,-9.367958068847656,2.8105294704437256
1773163105387582700,2.473582763671875,0.7578582763671875,-9.357593536376953,2.833989143371582
1773163105395915500,2.48191552734375,0.8022730350494385,-9.348000526428223,2.8533546924591064
1773163105404248600,2.49024853515625,0.8472786545753479,-9.338783264160156,2.870476722717285
1773163105412581600,2.49858154296875,0.8899686336517334,-9.33023738861084,2.8853094577789307
1773163105420914700,2.506914794921875,0.9273409247398376,-9.323486328125,2.8953468799591064
1773163105429247700,2.515247802734375,0.9581915736198425,-9.319389343261719,2.8984899520874023
1773163105437580800,2.523580810546875,0.9832424521446228,-9.317935943603516,2.8947694301605225
1773163105445913900,2.531913818359375,1.0033549070358276,-9.318567276000977,2.885824680328369
1773163105454246700,2.54024658203125,1.0182759761810303,-9.320647239685059,2.87385630607605
1773163105462579700,2.548579833984375,1.0279340744018555,-9.323870658874512,2.859926700592041
1773163105470912800,2.556912841796875,1.0333960056304932,-9.327615737915039,2.845707416534424
1773163105479245800,2.565245849609375,1.0372912883758545,-9.331355094909668,2.8320047855377197
1773163105487579000,2.573578857421875,1.0415149927139282,-9.334941864013672,2.818596601486206
1773163105495912000,2.581911865234375,1.0472983121871948,-9.338353157043457,2.8051228523254395
1773163105504245000,2.590244873046875,1.0551351308822632,-9.341513633728027,2.791630268096924
1773163105512577800,2.598577880859375,1.0648274421691895,-9.344464302062988,2.778043508529663
1773163105520910800,2.606910888671875,1.0759623050689697,-9.34728717803955,2.764216661453247
1773163105529244000,2.615243896484375,1.089356541633606,-9.349889755249023,2.750136613845825
1773163105537577000,2.623576904296875,1.1056140661239624,-9.352066040039062,2.7362146377563477
1773163105545910000,2.631909912109375,1.1244487762451172,-9.353713035583496,2.722877025604248
1773163105554243000,2.6402431640625,1.1453429460525513,-9.354756355285645,2.7105541229248047
1773163105562576100,2.648576171875,1.1678457260131836,-9.355213165283203,2.6993532180786133
1773163105570909200,2.6569091796875,1.1919846534729004,-9.355224609375,2.6887402534484863
1773163105579242000,2.665241943359375,1.2169097661972046,-9.355353355407715,2.67710542678833
1773163105587575000,2.673574951171875,1.2419970035552979,-9.355659484863281,2.664483070373535
1773163105595908000,2.681908203125,1.2673513889312744,-9.355647087097168,2.652562379837036
1773163105604241200,2.6902412109375,1.2923164367675781,-9.355351448059082,2.6415345668792725
1773163105612574200,2.69857421875,1.316551923751831,-9.355267524719238,2.629837989807129
1773163105620907300,2.7069072265625,1.3397854566574097,-9.355684280395508,2.6165876388549805
1773163105629240300,2.715240234375,1.361712098121643,-9.356575012207031,2.6020467281341553
1773163105637573000,2.723572998046875,1.383039116859436,-9.357648849487305,2.586888074874878
1773163105645906200,2.73190625,1.4038232564926147,-9.358753204345703,2.5716569423675537
1773163105654239200,2.7402392578125,1.423256516456604,-9.36003303527832,2.5562689304351807
1773163105662572300,2.748572265625,1.440319538116455,-9.361576080322266,2.541016101837158
1773163105670905300,2.7569052734375,1.4555954933166504,-9.363104820251465,2.526632785797119
1773163105679238400,2.76523828125,1.4713956117630005,-9.364253997802734,2.5131912231445312
1773163105687571500,2.773571533203125,1.4921587705612183,-9.364272117614746,2.500847101211548
1773163105695904300,2.781904296875,1.5154622793197632,-9.363595962524414,2.4893434047698975
1773163105704237300,2.7902373046875,1.5377341508865356,-9.363049507141113,2.4777121543884277
1773163105712570400,2.7985703125,1.5593312978744507,-9.362091064453125,2.4678196907043457
1773163105720903400,2.8069033203125,1.5828251838684082,-9.360406875610352,2.459235668182373
1773163105729236500,2.815236572265625,1.6088155508041382,-9.358044624328613,2.451347589492798
1773163105737569500,2.823569580078125,1.6337330341339111,-9.356322288513184,2.441423177719116
1773163105745902600,2.831902587890625,1.6573269367218018,-9.355301856994629,2.4293951988220215
1773163105754235400,2.8402353515625,1.6797449588775635,-9.35449504852295,2.417078733444214
1773163105762568400,2.848568359375,1.701526403427124,-9.353719711303711,2.4048125743865967
1773163105770901500,2.856901611328125,1.7228672504425049,-9.353096008300781,2.3920109272003174
1773163105779234600,2.865234619140625,1.743466854095459,-9.352699279785156,2.3785955905914307
1773163105787567600,2.873567626953125,1.7625528573989868,-9.352269172668457,2.366191864013672
1773163105795900700,2.881900634765625,1.779763102531433,-9.351842880249023,2.3549675941467285
1773163105804233700,2.890233642578125,1.7955881357192993,-9.351633071899414,2.3437600135803223
1773163105812566800,2.89856689453125,1.8100967407226562,-9.351752281188965,2.3320953845977783
1773163105820899600,2.906899658203125,1.822542667388916,-9.35236930847168,2.319897413253784
1773163105829232600,2.915232666015625,1.8326399326324463,-9.353898048400879,2.305734157562256
1773163105837565700,2.923565673828125,1.8412286043167114,-9.356221199035645,2.289405345916748
1773163105845898800,2.931898681640625,1.848976969718933,-9.359170913696289,2.2710330486297607
1773163105854231800,2.940231689453125,1.8557965755462646,-9.362702369689941,2.250821113586426
1773163105862564900,2.94856494140625,1.8611946105957031,-9.366891860961914,2.228829860687256
1773163105870898000,2.95689794921875,1.8652069568634033,-9.371634483337402,2.205414056777954
1773163105879230700,2.965230712890625,1.868132472038269,-9.376683235168457,2.1813461780548096
1773163105887563800,2.973563720703125,1.8698621988296509,-9.381843566894531,2.1575493812561035
1773163105895896800,2.981896728515625,1.8711395263671875,-9.386960983276367,2.1340503692626953
1773163105904230000,2.99022998046875,1.8722496032714844,-9.391962051391602,2.1109540462493896
1773163105912563000,2.99856298828125,1.8729407787322998,-9.396944046020508,2.088040590286255
1773163105920896000,3.00689599609375,1.8727972507476807,-9.401752471923828,2.0664117336273193
1773163105929229000,3.01522900390625,1.8702760934829712,-9.406174659729004,2.048492908477783
1773163105937561900,3.023561767578125,1.8627398014068604,-9.410550117492676,2.0352249145507812
1773163105945895000,3.03189501953125,1.850075125694275,-9.41441535949707,2.0288918018341064
1773163105954228000,3.04022802734375,1.8333098888397217,-9.417210578918457,2.0311365127563477
1773163105962561000,3.04856103515625,1.8144323825836182,-9.418475151062012,2.042187213897705
1773163105970894000,3.05689404296875,1.796629548072815,-9.41766357421875,2.061581611633301
1773163105979227100,3.06522705078125,1.7813130617141724,-9.4144287109375,2.0894625186920166
1773163105987560200,3.073560302734375,1.7677973508834839,-9.409213066101074,2.1241402626037598
1773163105995893200,3.081893310546875,1.7543649673461914,-9.402800559997559,2.1633107662200928
1773163106004226000,3.09022607421875,1.7376391887664795,-9.396110534667969,2.2054686546325684
1773163106012559000,3.09855908203125,1.714263677597046,-9.390205383300781,2.2484922409057617
1773163106020892200,3.10689208984375,1.6814382076263428,-9.385802268981934,2.2912607192993164
1773163106029225200,3.11522509765625,1.6376700401306152,-9.382967948913574,2.334167957305908
1773163106037558300,3.123558349609375,1.5821415185928345,-9.381524085998535,2.3778584003448486
1773163106045891300,3.131891357421875,1.5155102014541626,-9.380836486816406,2.4235334396362305
1773163106054224400,3.140224365234375,1.438202977180481,-9.38018798828125,2.47265625
1773163106062557200,3.14855712890625,1.3508702516555786,-9.379024505615234,2.5257513523101807
1773163106070890200,3.15689013671875,1.2530534267425537,-9.37672233581543,2.5840513706207275
1773163106079223300,3.165223388671875,1.1436700820922852,-9.372598648071289,2.648922920227051
1773163106087556400,3.173556396484375,1.020997166633606,-9.366011619567871,2.7213542461395264
1773163106095889400,3.181889404296875,0.8837156891822815,-9.356067657470703,2.8023953437805176
1773163106104222500,3.190222412109375,0.7303687334060669,-9.341955184936523,2.8921992778778076
1773163106112555500,3.198555419921875,0.562004804611206,-9.322771072387695,2.990062952041626
1773163106120888300,3.206888427734375,0.3823060393333435,-9.297526359558105,3.0951929092407227
1773163106129221400,3.215221435546875,0.19730418920516968,-9.265795707702637,3.205695867538452
1773163106137554400,3.223554443359375,0.012153923511505127,-9.227640151977539,3.319774866104126
1773163106145887500,3.231887451171875,-0.1676611304283142,-9.183363914489746,3.4362921714782715
1773163106154220500,3.240220458984375,-0.3375268280506134,-9.133585929870605,3.5544426441192627
1773163106162553600,3.2485537109375,-0.4930962324142456,-9.080046653747559,3.6715121269226074
1773163106170886700,3.25688671875,-0.6323629021644592,-9.025369644165039,3.7832815647125244
1773163106179219500,3.265219482421875,-0.7551097273826599,-8.972095489501953,3.886092185974121
1773163106187552500,3.273552490234375,-0.8618853092193604,-8.922293663024902,3.977464437484741
1773163106195885600,3.281885498046875,-0.9537484049797058,-8.877130508422852,4.056760787963867
1773163106204218600,3.290218505859375,-1.033177137374878,-8.835577964782715,4.127406120300293
1773163106212551700,3.2985517578125,-1.1064417362213135,-8.79576301574707,4.192938327789307
1773163106220884700,3.306884765625,-1.181086540222168,-8.756010055541992,4.255313873291016
1773163106229217800,3.3152177734375,-1.2624047994613647,-8.71623706817627,4.313228607177734
1773163106237550800,3.32355078125,-1.351233720779419,-8.677458763122559,4.364202976226807
1773163106245883600,3.331883544921875,-1.4446048736572266,-8.641155242919922,4.406126499176025
1773163106254216700,3.340216796875,-1.540436029434204,-8.607397079467773,4.439613342285156
1773163106262549800,3.3485498046875,-1.6366283893585205,-8.57380485534668,4.470089435577393
1773163106270882800,3.3568828125,-1.7300056219100952,-8.538856506347656,4.501710414886475
1773163106279215900,3.3652158203125,-1.8170052766799927,-8.501832008361816,4.537370681762695
1773163106287549000,3.373548828125,-1.8959301710128784,-8.461670875549316,4.579952239990234
1773163106295882000,3.381882080078125,-1.9677155017852783,-8.417608261108398,4.630589962005615
1773163106304214800,3.39021484375,-2.0356454849243164,-8.369050025939941,4.688873767852783
1773163106312547800,3.3985478515625,-2.104296922683716,-8.31840705871582,4.7483062744140625
1773163106320881000,3.406880859375,-2.1762285232543945,-8.268797874450684,4.802229404449463
1773163106329214000,3.4152138671875,-2.25108003616333,-8.22303295135498,4.846107482910156
1773163106337547000,3.423547119140625,-2.3271446228027344,-8.182442665100098,4.8787713050842285
1773163106345880000,3.431880126953125,-2.4037654399871826,-8.146623611450195,4.9015116691589355
1773163106354213000,3.440213134765625,-2.4807162284851074,-8.114130020141602,4.917044639587402
1773163106362546000,3.4485458984375,-2.557832717895508,-8.083440780639648,4.928069591522217
1773163106370879000,3.45687890625,-2.6356804370880127,-8.053521156311035,4.936027526855469
1773163106379212000,3.4652119140625,-2.7145836353302,-8.023591995239258,4.94200325012207
1773163106387545000,3.473545166015625,-2.793297052383423,-7.994501113891602,4.945283889770508
1773163106395878100,3.481878173828125,-2.8680503368377686,-7.9676618576049805,4.945810794830322
1773163106404211200,3.490211181640625,-2.9366393089294434,-7.944561958312988,4.942719459533691
1773163106412544300,3.498544189453125,-2.9982504844665527,-7.9264020919799805,4.934878826141357
1773163106420877300,3.506877197265625,-3.0527520179748535,-7.913498878479004,4.922155857086182
1773163106429210000,3.515210205078125,-3.1011343002319336,-7.905213832855225,4.905196189880371
1773163106437543200,3.523543212890625,-3.14479398727417,-7.900731563568115,4.884577751159668
1773163106445876200,3.531876220703125,-3.1848840713500977,-7.900017261505127,4.85969352722168
1773163106454209300,3.540209228515625,-3.2221903800964355,-7.903810024261475,4.828836441040039
1773163106462542300,3.548542236328125,-3.257282018661499,-7.913060665130615,4.789986610412598
1773163106470875400,3.55687548828125,-3.291045904159546,-7.92875337600708,4.7407050132751465
1773163106479208400,3.56520849609375,-3.3251006603240967,-7.950833797454834,4.679564952850342
1773163106487541200,3.573541259765625,-3.359405279159546,-7.978097438812256,4.60811710357666
1773163106495874300,3.581874267578125,-3.3930811882019043,-8.00901985168457,4.5291266441345215
1773163106504207400,3.590207275390625,-3.4256515502929688,-8.042291641235352,4.444867134094238
1773163106512540400,3.59854052734375,-3.456115245819092,-8.077153205871582,4.357207775115967
1773163106520873500,3.60687353515625,-3.485045909881592,-8.111930847167969,4.268655300140381
1773163106529206500,3.61520654296875,-3.513823986053467,-8.145668029785156,4.1798930168151855
1773163106537539600,3.62353955078125,-3.544755458831787,-8.176098823547363,4.093472003936768
1773163106545872400,3.631872314453125,-3.580237865447998,-8.201834678649902,4.010258674621582
1773163106554205400,3.640205322265625,-3.622580051422119,-8.221285820007324,3.9316391944885254
1773163106562538500,3.64853857421875,-3.6738457679748535,-8.233987808227539,3.8567726612091064
1773163106570871600,3.65687158203125,-3.732942581176758,-8.24077320098877,3.784862756729126
1773163106579204600,3.66520458984375,-3.796344041824341,-8.244339942932129,3.7133584022521973
1773163106587537700,3.67353759765625,-3.858717918395996,-8.246321678161621,3.6440165042877197
1773163106595870700,3.68187060546875,-3.915393829345703,-8.24858283996582,3.57784366607666
1773163106604203500,3.69020361328125,-3.962357997894287,-8.252872467041016,3.5157077312469482
1773163106612536600,3.69853662109375,-3.9971022605895996,-8.25941276550293,3.460585117340088
1773163106620869600,3.70686962890625,-4.0220232009887695,-8.267765998840332,3.4114186763763428
1773163106629202700,3.71520263671875,-4.037876605987549,-8.278194427490234,3.3671112060546875
1773163106637535700,3.72353564453125,-4.045594215393066,-8.291279792785645,3.3253936767578125
1773163106645868800,3.731868896484375,-4.045717239379883,-8.307095527648926,3.2855305671691895
1773163106654201900,3.740201904296875,-4.038840293884277,-8.325244903564453,3.2478392124176025
1773163106662535000,3.748534912109375,-4.025187969207764,-8.345466613769531,3.212700366973877
1773163106670867700,3.75686767578125,-4.0049896240234375,-8.367171287536621,3.181333541870117
1773163106679200800,3.76520068359375,-3.978081226348877,-8.389925003051758,3.1550581455230713
1773163106687533800,3.773533935546875,-3.9442431926727295,-8.413126945495605,3.135702133178711
1773163106695867000,3.781866943359375,-3.9043173789978027,-8.436365127563477,3.123209238052368
1773163106704200000,3.790199951171875,-3.8592891693115234,-8.4585542678833,3.119157314300537
1773163106712533000,3.798532958984375,-3.811131000518799,-8.478264808654785,3.1248505115509033
1773163106720866000,3.806865966796875,-3.764885902404785,-8.494064331054688,3.1379754543304443
1773163106729198800,3.81519873046875,-3.726444721221924,-8.50553035736084,3.152769088745117
1773163106737532000,3.823531982421875,-3.701550245285034,-8.511709213256836,3.1653923988342285
1773163106745865000,3.831864990234375,-3.6930997371673584,-8.511743545532227,3.1751580238342285
1773163106754198000,3.840197998046875,-3.699052333831787,-8.506275177001953,3.182873010635376
1773163106762531000,3.848531005859375,-3.710232734680176,-8.496000289916992,3.197268486022949
1773163106770864000,3.856864013671875,-3.7164559364318848,-8.4810152053833,3.229663848876953
1773163106779197200,3.865197265625,-3.699652671813965,-8.464475631713867,3.2917494773864746
1773163106787530000,3.873530029296875,-3.6447296142578125,-8.45079517364502,3.386796474456787
1773163106795863000,3.881863037109375,-3.555406332015991,-8.447725296020508,3.487894296646118
1773163106804196000,3.890196044921875,-3.4526407718658447,-8.456676483154297,3.568511724472046
1773163106812529200,3.898529052734375,-3.354680061340332,-8.474023818969727,3.6204185485839844
1773163106820862200,3.9068623046875,-3.2682361602783203,-8.4968843460083,3.6458163261413574
1773163106829195300,3.9151953125,-3.190523147583008,-8.526261329650879,3.6460671424865723
1773163106837528300,3.9235283203125,-3.116007089614868,-8.563599586486816,3.6229333877563477
1773163106845861400,3.931861328125,-3.0397725105285645,-8.608925819396973,3.5800232887268066
1773163106854194200,3.940194091796875,-2.958329677581787,-8.660438537597656,3.5235588550567627
1773163106862527200,3.94852734375,-2.8700709342956543,-8.715250015258789,3.460850954055786
1773163106870860300,3.9568603515625,-2.775247097015381,-8.770090103149414,3.3991048336029053
1773163106879193300,3.965193359375,-2.6745011806488037,-8.822187423706055,3.3446145057678223
1773163106887526400,3.9735263671875,-2.5685651302337646,-8.870199203491211,3.300365447998047
1773163106895859500,3.981859375,-2.4580578804016113,-8.91325855255127,3.268357038497925
1773163106904192500,3.990192626953125,-2.3439042568206787,-8.951156616210938,3.2485837936401367
1773163106912525300,3.998525390625,-2.225614070892334,-8.984121322631836,3.240769386291504
1773163106920858400,4.0068583984375,-2.103437900543213,-9.013354301452637,3.241198778152466
1773163106929191400,4.01519140625,-1.979000210762024,-9.039946556091309,3.2455055713653564
1773163106937524500,4.0235244140625,-1.8552600145339966,-9.064718246459961,3.2495038509368896
1773163106945857500,4.031857421875,-1.7353769540786743,-9.088434219360352,3.2494957447052
1773163106954190600,4.040190673828125,-1.6220316886901855,-9.111509323120117,3.2434258460998535
1773163106962523600,4.048523681640625,-1.516944408416748,-9.133856773376465,3.2313971519470215
1773163106970856400,4.0568564453125,-1.420322060585022,-9.15455436706543,3.2167084217071533
1773163106979189500,4.065189453125,-1.3312151432037354,-9.172563552856445,3.203490734100342
1773163106987522600,4.0735224609375,-1.2481801509857178,-9.188270568847656,3.191880464553833
1773163106995855600,4.081855712890625,-1.1701440811157227,-9.202268600463867,3.1811013221740723
1773163107004188700,4.090188720703125,-1.09524667263031,-9.214773178100586,3.1715569496154785
1773163107012521700,4.098521728515625,-1.0216244459152222,-9.225911140441895,3.1637375354766846
1773163107020854800,4.106854736328125,-0.947874128818512,-9.2356538772583,3.158262014389038
1773163107029187600,4.1151875,-0.8729572892189026,-9.244209289550781,3.154827117919922
1773163107037520600,4.123520751953125,-0.7968343496322632,-9.251359939575195,3.1540098190307617
1773163107045853700,4.131853759765625,-0.7196058630943298,-9.257096290588379,3.155744791030884
1773163107054186800,4.140186767578125,-0.6409175395965576,-9.261622428894043,3.159426689147949
1773163107062519800,4.148519775390625,-0.5610893964767456,-9.2655029296875,3.1632261276245117
1773163107070852900,4.156852783203125,-0.480698823928833,-9.269686698913574,3.16420841217041
1773163107079186000,4.16518603515625,-0.39925575256347656,-9.27568531036377,3.157947063446045
1773163107087519000,4.17351904296875,-0.31543225049972534,-9.284499168395996,3.141491651535034
1773163107095851800,4.181851806640625,-0.2304559201002121,-9.295818328857422,3.115292549133301
1773163107104184800,4.190184814453125,-0.14815853536128998,-9.308443069458008,3.082423448562622
1773163107112518000,4.198517822265625,-0.07143929600715637,-9.321438789367676,3.045664072036743
1773163107120851000,4.206850830078125,-0.0012716458877548575,-9.334464073181152,3.006354331970215
1773163107129184000,4.21518408203125,0.0615878589451313,-9.347421646118164,2.965178966522217
1773163107137517000,4.22351708984375,0.116580069065094,-9.360315322875977,2.9225478172302246
1773163107145850000,4.23185009765625,0.16601386666297913,-9.372801780700684,2.8798279762268066
1773163107154183000,4.240182861328125,0.2152254283428192,-9.384191513061523,2.83919358253479
1773163107162516000,4.248515869140625,0.2684359550476074,-9.393739700317383,2.802854537963867
1773163107170849000,4.25684912109375,0.3266460597515106,-9.401275634765625,2.7712297439575195
1773163107179182000,4.26518212890625,0.38786205649375916,-9.407410621643066,2.7423672676086426
1773163107187515100,4.27351513671875,0.4503839910030365,-9.412628173828125,2.7147700786590576
1773163107195848200,4.28184814453125,0.5116554498672485,-9.416905403137207,2.688957452774048
1773163107204181200,4.29018115234375,0.5692470073699951,-9.420397758483887,2.6650397777557373
1773163107212514000,4.29851416015625,0.6219959259033203,-9.423681259155273,2.641544818878174
1773163107220847000,4.30684716796875,0.6713656783103943,-9.427106857299805,2.6171176433563232
1773163107229180200,4.31518017578125,0.7195578813552856,-9.430702209472656,2.591229200363159
1773163107237513200,4.32351318359375,0.7694375514984131,-9.434337615966797,2.563516855239868
1773163107245846300,4.33184619140625,0.8224735260009766,-9.437857627868652,2.5339221954345703
1773163107254179300,4.340179443359375,0.8792991638183594,-9.441156387329102,2.50235652923584
1773163107262512400,4.348512451171875,0.9386748671531677,-9.444279670715332,2.468777894973755
1773163107270845400,4.356845458984375,0.9989922642707825,-9.447244644165039,2.433509349822998
1773163107279178200,4.36517822265625,1.0584514141082764,-9.450142860412598,2.3968441486358643
1773163107287511300,4.37351123046875,1.114354133605957,-9.453149795532227,2.35935640335083
1773163107295844400,4.38184423828125,1.1650699377059937,-9.456353187561035,2.3217172622680664
1773163107304177400,4.390177490234375,1.2099311351776123,-9.459716796875,2.284775495529175
1773163107312510500,4.398510498046875,1.2485606670379639,-9.463406562805176,2.248426675796509
1773163107320843500,4.406843505859375,1.2788066864013672,-9.467902183532715,2.2122066020965576
1773163107329176600,4.415176513671875,1.3001192808151245,-9.47299575805664,2.1777069568634033
1773163107337509400,4.42350927734375,1.313704013824463,-9.478352546691895,2.146024227142334
1773163107345842400,4.431842529296875,1.320346474647522,-9.483948707580566,2.11702561378479
1773163107354175500,4.440175537109375,1.3215426206588745,-9.489636421203613,2.090630531311035
1773163107362508500,4.448508544921875,1.3188923597335815,-9.495210647583008,2.066856861114502
1773163107370841600,4.456841552734375,1.3131649494171143,-9.500645637512207,2.04541277885437
1773163107379174700,4.465174560546875,1.305823564529419,-9.505751609802246,2.026298999786377
1773163107387507700,4.4735078125,1.2979588508605957,-9.510271072387695,2.0100796222686768
1773163107395840500,4.481840576171875,1.2911601066589355,-9.513981819152832,1.9968563318252563
1773163107404173600,4.490173583984375,1.2864140272140503,-9.51677131652832,1.9865996837615967
1773163107412506600,4.498506591796875,1.2842422723770142,-9.51843547821045,1.980021357536316
1773163107420839700,4.506839599609375,1.283524751663208,-9.519135475158691,1.9771169424057007
1773163107429172700,4.5151728515625,1.2846750020980835,-9.518583297729492,1.9790294170379639
1773163107437505800,4.523505859375,1.2875217199325562,-9.51665210723877,1.9864550828933716
1773163107445838800,4.5318388671875,1.2914413213729858,-9.51352596282959,1.9988453388214111
1773163107454171600,4.540171630859375,1.2970632314682007,-9.508974075317383,2.01678204536438
1773163107462504700,4.548504638671875,1.3043081760406494,-9.502821922302246,2.0409653186798096
1773163107470837800,4.556837646484375,1.3093931674957275,-9.495744705200195,2.070436954498291
1773163107479170800,4.5651708984375,1.3069021701812744,-9.489134788513184,2.10207462310791
1773163107487504000,4.57350390625,1.2917912006378174,-9.483955383300781,2.13454008102417
1773163107495837000,4.5818369140625,1.2611945867538452,-9.48005199432373,2.169877290725708
1773163107512503000,4.5985029296875,1.148064136505127,-9.476078987121582,2.2486119270324707
1773163107520835800,4.6068359375,1.0663074254989624,-9.474749565124512,2.294013261795044
1773163107529169000,4.6151689453125,0.9674170017242432,-9.472638130187988,2.3459815979003906
1773163107537502000,4.623501953125,0.8511737585067749,-9.468878746032715,2.4054579734802246
1773163107545835000,4.6318349609375,0.7191778421401978,-9.46242904663086,2.472975730895996
1773163107554168000,4.64016796875,0.5735631585121155,-9.452186584472656,2.549034357070923
1773163107562501000,4.648501220703125,0.41554173827171326,-9.437359809875488,2.6332404613494873
1773163107570834200,4.656834228515625,0.24558822810649872,-9.417415618896484,2.724400520324707
1773163107579167000,4.6651669921875,0.065611332654953,-9.392040252685547,2.8205783367156982
1773163107587500000,4.6735,-0.12046585232019424,-9.361140251159668,2.919746160507202
1773163107595833000,4.6818330078125,-0.3075321912765503,-9.324922561645508,3.020206928253174
1773163107604166100,4.690166259765625,-0.49153009057044983,-9.28387451171875,3.120650053024292
1773163107612499200,4.698499267578125,-0.6687026023864746,-9.238799095153809,3.2199113368988037
1773163107620832300,4.706832275390625,-0.8347727656364441,-9.191396713256836,3.3153834342956543
1773163107629165300,4.715165283203125,-0.9859107136726379,-9.143845558166504,3.404182195663452
1773163107637498000,4.723498046875,-1.1201118230819702,-9.098186492919922,3.484067678451538
1773163107645831200,4.7318310546875,-1.2379376888275146,-9.05562973022461,3.554359197616577
1773163107654164200,4.740164306640625,-1.344407558441162,-9.015478134155273,3.617197036743164
1773163107662497300,4.748497314453125,-1.4455716609954834,-8.976139068603516,3.6755483150482178
1773163107670830300,4.756830322265625,-1.5452219247817993,-8.935798645019531,3.7328522205352783
1773163107679163400,4.765163330078125,-1.6457858085632324,-8.893260955810547,3.790999412536621
1773163107687496400,4.773496337890625,-1.7476325035095215,-8.848616600036621,3.849438190460205
1773163107695829200,4.781829345703125,-1.849866509437561,-8.802986145019531,3.9058690071105957
1773163107704162300,4.790162353515625,-1.9498895406723022,-8.758258819580078,3.957425355911255
1773163107712495400,4.798495361328125,-2.040681838989258,-8.716075897216797,4.004500865936279
1773163107720828400,4.806828369140625,-2.114230155944824,-8.6777925491333,4.0492377281188965
1773163107729161500,4.815161376953125,-2.1641855239868164,-8.644051551818848,4.094760417938232
1773163107737494500,4.82349462890625,-2.18924617767334,-8.613973617553711,4.1445183753967285
1773163107745827600,4.83182763671875,-2.1944992542266846,-8.585261344909668,4.200933456420898
1773163107754160600,4.84016064453125,-2.187281608581543,-8.555766105651855,4.2643938064575195
1773163107762493400,4.848493408203125,-2.1762797832489014,-8.524079322814941,4.332928657531738
1773163107770826500,4.856826416015625,-2.166574001312256,-8.490044593811035,4.4040303230285645
1773163107779159600,4.86515966796875,-2.1601264476776123,-8.45442008972168,4.475157260894775
1773163107787492600,4.87349267578125,-2.156860113143921,-8.418517112731934,4.543887615203857
1773163107795825700,4.88182568359375,-2.1550726890563965,-8.383538246154785,4.608940601348877
1773163107804158700,4.89015869140625,-2.1520464420318604,-8.35072135925293,4.669531345367432
1773163107812491800,4.89849169921875,-2.1465694904327393,-8.320660591125488,4.725381374359131
1773163107820824600,4.906824462890625,-2.1386771202087402,-8.292888641357422,4.777493953704834
1773163107829157600,4.91515771484375,-2.129107713699341,-8.266892433166504,4.8265700340271
1773163107837490700,4.92349072265625,-2.118999481201172,-8.243080139160156,4.871535301208496
1773163107845823700,4.93182373046875,-2.1093809604644775,-8.223119735717773,4.909297943115234
1773163107854156800,4.94015673828125,-2.100879192352295,-8.208015441894531,4.9381327629089355
1773163107862489900,4.94848974609375,-2.0946621894836426,-8.197936058044434,4.957481384277344
1773163107870823000,4.956822998046875,-2.0905277729034424,-8.193300247192383,4.966880798339844
1773163107879155700,4.96515576171875,-2.085096597671509,-8.19466495513916,4.966914176940918
1773163107887488800,4.97348876953125,-2.0745458602905273,-8.201930046081543,4.959332466125488
1773163107895821800,4.98182177734375,-2.055636167526245,-8.21447467803955,4.94642972946167
1773163107904155000,4.99015478515625,-2.0261130332946777,-8.231009483337402,4.931098461151123
1773163107912488000,4.998488037109375,-1.9860739707946777,-8.249667167663574,4.91618537902832
1773163107920821000,5.006821044921875,-1.9381587505340576,-8.26974105834961,4.901562213897705
1773163107929154000,5.015154052734375,-1.8866682052612305,-8.291034698486328,4.885652542114258
1773163107937487000,5.023487060546875,-1.835979700088501,-8.313502311706543,4.866748809814453
1773163107945820000,5.03181982421875,-1.789981722831726,-8.336605072021484,4.84431266784668
1773163107954153000,5.040153076171875,-1.7513080835342407,-8.35926342010498,4.819337368011475
1773163107962486000,5.048486083984375,-1.7219517230987549,-8.3801908493042,4.793502330780029
1773163107970819000,5.056819091796875,-1.7042723894119263,-8.398361206054688,4.7679524421691895
1773163107979152100,5.065152099609375,-1.7009097337722778,-8.412739753723145,4.743741989135742
1773163107987485200,5.073485107421875,-1.712677240371704,-8.423006057739258,4.72123908996582
1773163107995818200,5.081818359375,-1.7375422716140747,-8.42882251739502,4.7017316818237305
1773163108004151000,5.090151123046875,-1.7726494073867798,-8.42877197265625,4.688700199127197
1773163108012484000,5.098484130859375,-1.814767599105835,-8.422775268554688,4.683358669281006
1773163108020817200,5.106817138671875,-1.861757516860962,-8.411097526550293,4.685902118682861
1773163108029150200,5.115150146484375,-1.9133297204971313,-8.395322799682617,4.693409442901611
1773163108037483300,5.123483154296875,-1.968265175819397,-8.377110481262207,4.703226566314697
1773163108045816300,5.13181640625,-2.0258705615997314,-8.358173370361328,4.712448596954346
1773163108054149400,5.1401494140625,-2.0858659744262695,-8.339119911193848,4.720025062561035
1773163108062482200,5.148482177734375,-2.14695143699646,-8.320640563964844,4.725242614746094
1773163108070815200,5.156815185546875,-2.206526279449463,-8.303380012512207,4.7281622886657715
1773163108079148300,5.165148193359375,-2.2623348236083984,-8.287161827087402,4.7302422523498535
1773163108087481300,5.1734814453125,-2.3139219284057617,-8.272027015686035,4.731777667999268
1773163108095814400,5.181814453125,-2.3608179092407227,-8.25815200805664,4.732849597930908
1773163108112480500,5.19848046875,-2.432152032852173,-8.235589027404785,4.7360429763793945
1773163108120813300,5.206813232421875,-2.451124429702759,-8.228548049926758,4.738497734069824
1773163108129146400,5.215146484375,-2.4542362689971924,-8.226008415222168,4.741297245025635
1773163108137479400,5.2234794921875,-2.438185214996338,-8.228767395019531,4.744790077209473
1773163108145812500,5.2318125,-2.402808904647827,-8.23547649383545,4.751192092895508
1773163108154145500,5.2401455078125,-2.35231614112854,-8.244983673095703,4.759963512420654
1773163108162478600,5.248478515625,-2.2898058891296387,-8.258337020874023,4.7672905921936035
1773163108170811600,5.256811767578125,-2.215714931488037,-8.273627281188965,4.775780200958252
1773163108179144700,5.265144775390625,-2.1339197158813477,-8.286093711853027,4.7913899421691895
1773163108187477500,5.2734775390625,-2.0507402420043945,-8.295215606689453,4.811885356903076
1773163108195810600,5.281810546875,-1.9720134735107422,-8.302813529968262,4.831650733947754
1773163108204143600,5.2901435546875,-1.9021010398864746,-8.310409545898438,4.84659481048584
1773163108212476700,5.2984765625,-1.842858076095581,-8.318840980529785,4.855011463165283
1773163108220809700,5.306809814453125,-1.7908122539520264,-8.329618453979492,4.856009006500244
1773163108229142800,5.315142822265625,-1.739938497543335,-8.345271110534668,4.847623348236084
1773163108237475800,5.323475830078125,-1.685463309288025,-8.368322372436523,4.827088356018066
1773163108245808600,5.33180859375,-1.6263710260391235,-8.399425506591797,4.793217658996582
1773163108254141700,5.3401416015625,-1.564198613166809,-8.437124252319336,4.74748420715332
1773163108262474800,5.348474853515625,-1.500017523765564,-8.479926109313965,4.69160795211792
1773163108270807800,5.356807861328125,-1.4328664541244507,-8.527044296264648,4.626748561859131
1773163108279140900,5.365140869140625,-1.3610702753067017,-8.57748031616211,4.554636478424072
1773163108287474000,5.373473876953125,-1.2873871326446533,-8.629044532775879,4.478013038635254
1773163108295807000,5.381806884765625,-1.217250943183899,-8.67920970916748,4.400001049041748
1773163108304139800,5.390139892578125,-1.1550087928771973,-8.726359367370605,4.322844982147217
1773163108312472800,5.398472900390625,-1.1016894578933716,-8.769970893859863,4.247856140136719
1773163108320806000,5.406805908203125,-1.053827166557312,-8.809910774230957,4.176759719848633
1773163108329139000,5.415138916015625,-1.0045379400253296,-8.845582008361816,4.11302375793457
1773163108337472000,5.423471923828125,-0.9490908980369568,-8.877671241760254,4.056670188903809
1773163108345805000,5.43180517578125,-0.8843234777450562,-8.906855583190918,4.007030010223389
1773163108354138000,5.44013818359375,-0.8085656762123108,-8.933213233947754,3.964129686355591
1773163108362471200,5.44847119140625,-0.7237484455108643,-8.955936431884766,3.9290919303894043
1773163108370804000,5.456803955078125,-0.6351447701454163,-8.97424602508545,3.9025495052337646
1773163108379137000,5.465136962890625,-0.5476222038269043,-8.987627029418945,3.8849780559539795
1773163108387470000,5.473469970703125,-0.46393707394599915,-8.99570369720459,3.877171039581299
1773163108395803100,5.48180322265625,-0.3837277591228485,-8.999279975891113,3.8776402473449707
1773163108404136200,5.49013623046875,-0.304061621427536,-9.000167846679688,3.8826425075531006
1773163108412469200,5.49846923828125,-0.22301915287971497,-8.99992847442627,3.888692617416382
1773163108420802300,5.50680224609375,-0.13900408148765564,-8.999759674072266,3.892993927001953
1773163108429135000,5.515135009765625,-0.051639340817928314,-9.000432968139648,3.8935773372650146
1773163108437468200,5.52346826171875,0.03783440217375755,-9.002253532409668,3.889521360397339
1773163108445801200,5.53180126953125,0.12780869007110596,-9.004965782165527,3.881321430206299
1773163108454134300,5.54013427734375,0.2166425585746765,-9.008824348449707,3.8684029579162598
1773163108462467300,5.54846728515625,0.3027058243751526,-9.014988899230957,3.848212718963623
1773163108470800400,5.55680029296875,0.3837384283542633,-9.024027824401855,3.819690465927124
1773163108479133400,5.565133544921875,0.45731234550476074,-9.036437034606934,3.7820708751678467
1773163108487466200,5.57346630859375,0.5218797326087952,-9.052029609680176,3.7361466884613037
1773163108495799300,5.58179931640625,0.5778970122337341,-9.069541931152344,3.68508243560791
1773163108504132400,5.59013232421875,0.6276808977127075,-9.087597846984863,3.6320738792419434
1773163108512465400,5.59846533203125,0.674793541431427,-9.105316162109375,3.5788631439208984
1773163108520798500,5.606798583984375,0.7226430773735046,-9.122237205505371,3.5260403156280518
1773163108529131500,5.615131591796875,0.7733439207077026,-9.138291358947754,3.473320960998535
1773163108537464600,5.623464599609375,0.8282483220100403,-9.153387069702148,3.42051362991333
1773163108545797400,5.63179736328125,0.8878641724586487,-9.167012214660645,3.3686728477478027
1773163108554130400,5.64013037109375,0.9509451389312744,-9.178743362426758,3.3191511631011963
1773163108562463500,5.64846337890625,1.0151400566101074,-9.188989639282227,3.2714450359344482
1773163108570796500,5.656796630859375,1.0785691738128662,-9.197689056396484,3.2263903617858887
1773163108579129600,5.665129638671875,1.1398699283599854,-9.205001831054688,3.1841824054718018
1773163108587462700,5.673462646484375,1.1985862255096436,-9.211566925048828,3.143376588821411
1773163108595795700,5.681795654296875,1.2544951438903809,-9.218047142028809,3.1022958755493164
1773163108604128800,5.690128662109375,1.306947946548462,-9.225156784057617,3.0592074394226074
1773163108612461600,5.698461669921875,1.355009913444519,-9.233220100402832,3.013632297515869
1773163108620794600,5.706794677734375,1.3983036279678345,-9.242321014404297,2.9655749797821045
1773163108629127700,5.715127685546875,1.4369378089904785,-9.252237319946289,2.9157674312591553
1773163108637460700,5.723460693359375,1.4709030389785767,-9.262957572937012,2.86434268951416
1773163108645793800,5.731793701171875,1.5015813112258911,-9.274177551269531,2.811630964279175
1773163108654126800,5.740126953125,1.5290876626968384,-9.285934448242188,2.757481098175049
1773163108662460000,5.7484599609375,1.5530539751052856,-9.298184394836426,2.7022507190704346
1773163108670792700,5.756792724609375,1.573974370956421,-9.310284614562988,2.647942543029785
1773163108679125800,5.765125732421875,1.591615915298462,-9.321855545043945,2.5961830615997314
1773163108687458800,5.773458740234375,1.6069090366363525,-9.332406044006348,2.548419237136841
1773163108695791900,5.7817919921875,1.6205596923828125,-9.341682434082031,2.5054235458374023
1773163108704125000,5.790125,1.6340336799621582,-9.349319458007812,2.4679038524627686
1773163108712458000,5.7984580078125,1.6493806838989258,-9.355051040649414,2.4357612133026123
1773163108720791000,5.806791015625,1.6672847270965576,-9.358979225158691,2.4083285331726074
1773163108729123800,5.815123779296875,1.6871933937072754,-9.361602783203125,2.384152412414551
1773163108737457000,5.823456787109375,1.707541823387146,-9.3635835647583,2.3617770671844482
1773163108745790000,5.8317900390625,1.7261008024215698,-9.365638732910156,2.340038776397705
1773163108754123000,5.840123046875,1.741012692451477,-9.368331909179688,2.3181028366088867
1773163108762456000,5.8484560546875,1.7516448497772217,-9.37194538116455,2.295384645462036
1773163108770789000,5.8567890625,1.7586768865585327,-9.376623153686523,2.2707698345184326
1773163108779122200,5.8651220703125,1.7626162767410278,-9.382339477539062,2.243943691253662
1773163108787455000,5.873455078125,1.7637660503387451,-9.388982772827148,2.2150652408599854
1773163108795788000,5.8817880859375,1.762905240058899,-9.396105766296387,2.185351610183716
1773163108804121000,5.89012109375,1.760213851928711,-9.403271675109863,2.1565041542053223
1773163108812454100,5.8984541015625,1.7556089162826538,-9.410146713256836,2.130110025405884
1773163108820787200,5.906787109375,1.7483700513839722,-9.416590690612793,2.107463836669922
1773163108829120300,5.915120361328125,1.737940788269043,-9.42241382598877,2.0899922847747803
1773163108837453300,5.923453369140625,1.7252618074417114,-9.427037239074707,2.079622983932495
1773163108845786400,5.931786376953125,1.7085528373718262,-9.430547714233398,2.077500104904175
1773163108854119200,5.940119140625,1.6846331357955933,-9.433723449707031,2.0826070308685303
1773163108862452200,5.9484521484375,1.6538417339324951,-9.436188697814941,2.0960748195648193
1773163108870785300,5.956785400390625,1.6166383028030396,-9.437676429748535,2.118285655975342
1773163108879118300,5.965118408203125,1.5719044208526611,-9.43844223022461,2.1483311653137207
1773163108887451400,5.973451416015625,1.51768159866333,-9.438929557800293,2.1848649978637695
1773163108895784400,5.981784423828125,1.4515376091003418,-9.43947982788086,2.227027654647827
1773163108904117500,5.990117431640625,1.3721238374710083,-9.439942359924316,2.274897575378418
1773163108912450300,5.9984501953125,1.278602123260498,-9.439992904663086,2.328540325164795
1773163108920783400,6.006783447265625,1.1705067157745361,-9.439337730407715,2.387300968170166
1773163108929116400,6.015116455078125,1.0466890335083008,-9.437647819519043,2.4506399631500244
1773163108937449500,6.023449462890625,0.9062150120735168,-9.434394836425781,2.5182034969329834
1773163108945782500,6.031782470703125,0.7484757900238037,-9.428848266601562,2.589787483215332
1773163108954115600,6.040115478515625,0.5741602778434753,-9.419975280761719,2.6654841899871826
1773163108962448600,6.04844873046875,0.3866073489189148,-9.406625747680664,2.7452328205108643
1773163108970781400,6.056781494140625,0.19048912823200226,-9.387712478637695,2.829303503036499
1773163108979114500,6.065114501953125,-0.009450105018913746,-9.362560272216797,2.917665481567383
1773163108987447600,6.073447509765625,-0.20696359872817993,-9.331062316894531,3.00978946685791
1773163108995780600,6.081780517578125,-0.3958168923854828,-9.293530464172363,3.105480432510376
1773163109004113700,6.09011376953125,-0.5722363591194153,-9.25190258026123,3.2008187770843506
1773163109012446700,6.09844677734375,-0.7349399328231812,-9.208806991577148,3.2906124591827393
1773163109020779800,6.10677978515625,-0.883844792842865,-9.165431022644043,3.374030828475952
1773163109029112800,6.11511279296875,-1.019233226776123,-9.121864318847656,3.4529874324798584
1773163109037445600,6.123445556640625,-1.140298843383789,-9.077247619628906,3.531810998916626
1773163109045778700,6.13177880859375,-1.246870517730713,-9.030051231384277,3.6157824993133545
1773163109054111700,6.14011181640625,-1.3403241634368896,-8.979515075683594,3.7070517539978027
1773163109062444800,6.14844482421875,-1.4243743419647217,-8.925789833068848,3.804185390472412
1773163109070777900,6.15677783203125,-1.503394365310669,-8.869614601135254,3.903860092163086
1773163109079111000,6.16511083984375,-1.5817855596542358,-8.811803817749023,4.002554416656494
1773163109087444000,6.17344384765625,-1.661480188369751,-8.753144264221191,4.097845077514648
1773163109095776800,6.18177685546875,-1.7416311502456665,-8.694811820983887,4.187761306762695
1773163109104109800,6.19010986328125,-1.8181861639022827,-8.638163566589355,4.271618366241455
1773163109112443000,6.19844287109375,-1.8880677223205566,-8.584653854370117,4.348484516143799
1773163109120776000,6.20677587890625,-1.949108600616455,-8.535860061645508,4.417064666748047
1773163109129109000,6.21510888671875,-1.9992542266845703,-8.49237060546875,4.478057861328125
1773163109137442000,6.223442138671875,-2.0386905670166016,-8.453466415405273,4.53354549407959
1773163109145775000,6.231775146484375,-2.069359302520752,-8.417935371398926,4.585467338562012
1773163109154108000,6.24010791015625,-2.0949862003326416,-8.384383201599121,4.63503360748291
1773163109162441000,6.24844091796875,-2.1186654567718506,-8.351431846618652,4.683506488800049
1773163109170774000,6.25677392578125,-2.1411831378936768,-8.318672180175781,4.731323719024658
1773163109179107000,6.265107177734375,-2.1624298095703125,-8.287332534790039,4.776443004608154
1773163109187440000,6.273440185546875,-2.1825902462005615,-8.259255409240723,4.8157453536987305
1773163109195773200,6.281773193359375,-2.201746702194214,-8.235748291015625,4.84718132019043
1773163109204106200,6.290106201171875,-2.2200562953948975,-8.216985702514648,4.870614051818848
1773163109212439000,6.29843896484375,-2.2381784915924072,-8.202672958374023,4.886419773101807
1773163109220772000,6.306772216796875,-2.257373809814453,-8.192584037780762,4.894509315490723
1773163109229105200,6.315105224609375,-2.2770001888275146,-8.186538696289062,4.895532131195068
1773163109237438200,6.323438232421875,-2.2951173782348633,-8.184722900390625,4.890106678009033
1773163109245771300,6.331771240234375,-2.3096721172332764,-8.18765640258789,4.878328800201416
1773163109254104300,6.340104248046875,-2.3191375732421875,-8.196212768554688,4.859431743621826
1773163109262437400,6.348437255859375,-2.3226475715637207,-8.210732460021973,4.8331732749938965
1773163109270770400,6.3567705078125,-2.320449113845825,-8.230900764465332,4.799811363220215
1773163109279103200,6.365103271484375,-2.312288522720337,-8.256274223327637,4.760005474090576
1773163109287436300,6.373436279296875,-2.297868490219116,-8.286467552185059,4.714301586151123
1773163109295769300,6.381769287109375,-2.2767539024353027,-8.320844650268555,4.663724422454834
1773163109304102400,6.390102294921875,-2.250788927078247,-8.3583984375,4.608851909637451
1773163109312435500,6.398435546875,-2.223628282546997,-8.397780418395996,4.550072193145752
1773163109320768500,6.4067685546875,-2.1985063552856445,-8.437620162963867,4.48815393447876
1773163109329101600,6.4151015625,-2.176333427429199,-8.476941108703613,4.424414157867432
1773163109337434400,6.423434326171875,-2.1563456058502197,-8.514792442321777,4.361063003540039
1773163109345767400,6.431767333984375,-2.1367077827453613,-8.550065040588379,4.301308631896973
1773163109354100500,6.4401005859375,-2.114781141281128,-8.582622528076172,4.246960163116455
1773163109362433500,6.44843359375,-2.0889220237731934,-8.612394332885742,4.199220657348633
1773163109370766600,6.4567666015625,-2.061042308807373,-8.637324333190918,4.161622047424316
1773163109379099600,6.465099609375,-2.0361440181732178,-8.655203819274902,4.13665771484375
1773163109387432700,6.4734326171875,-2.0180442333221436,-8.663429260253906,4.1283040046691895
1773163109395765500,6.481765625,-2.007352113723755,-8.660196304321289,4.140280723571777
1773163109404098600,6.4900986328125,-2.000340700149536,-8.644767761230469,4.175767421722412
1773163109412431600,6.498431640625,-1.993260383605957,-8.618326187133789,4.2334089279174805
1773163109420764700,6.5067646484375,-1.9856218099594116,-8.585596084594727,4.302934169769287
1773163109429097700,6.51509765625,-1.981704831123352,-8.553045272827148,4.36905574798584
1773163109437430800,6.5234306640625,-1.98909330368042,-8.523322105407715,4.423445224761963
1773163109445763800,6.531763916015625,-2.0073776245117188,-8.495616912841797,4.468256950378418
1773163109454097000,6.540096923828125,-2.0308475494384766,-8.47083854675293,4.504545211791992
1773163109462429700,6.5484296875,-2.0551838874816895,-8.450182914733887,4.532221794128418
1773163109470762800,6.5567626953125,-2.0765063762664795,-8.4341459274292,4.5523295402526855
1773163109479095800,6.565095703125,-2.089229106903076,-8.42350959777832,4.566180229187012
1773163109487428900,6.573428955078125,-2.0870296955108643,-8.418965339660645,4.575557708740234
1773163109495762000,6.581761962890625,-2.0662896633148193,-8.421610832214355,4.58009672164917
1773163109504095000,6.590094970703125,-2.025848388671875,-8.43217945098877,4.578720569610596
1773163109512428000,6.598427978515625,-1.965469241142273,-8.449363708496094,4.573355197906494
1773163109520760800,6.6067607421875,-1.885984182357788,-8.469447135925293,4.569672584533691
1773163109529094000,6.615093994140625,-1.791972041130066,-8.489547729492188,4.570208549499512
1773163109537427000,6.623427001953125,-1.6927244663238525,-8.508190155029297,4.573375225067139
1773163109545760000,6.631760009765625,-1.6023963689804077,-8.524394035339355,4.575741767883301
1773163109554093000,6.640093017578125,-1.5346972942352295,-8.538470268249512,4.572705268859863
1773163109562426000,6.648426025390625,-1.4882432222366333,-8.553410530090332,4.560119152069092
1773163109570759200,6.65675927734375,-1.4478974342346191,-8.574769020080566,4.532915115356445
1773163109579092000,6.665092041015625,-1.3985224962234497,-8.607320785522461,4.486487865447998
1773163109587425000,6.673425048828125,-1.3344647884368896,-8.650794982910156,4.42191743850708
1773163109595758000,6.681758056640625,-1.2592194080352783,-8.700576782226562,4.345654487609863
1773163109604091100,6.690091064453125,-1.1798841953277588,-8.752426147460938,4.263015270233154
1773163109612424200,6.698424072265625,-1.1055887937545776,-8.803629875183105,4.176621913909912
1773163109620757200,6.70675732421875,-1.0447081327438354,-8.851591110229492,4.090023517608643
1773163109629090300,6.71509033203125,-0.9993227124214172,-8.89428424835205,4.007922649383545
1773163109637423000,6.723423095703125,-0.9654155969619751,-8.93099594116211,3.933913469314575
1773163109645756200,6.731756103515625,-0.9352877736091614,-8.962141036987305,3.869837999343872
1773163109654089200,6.740089111328125,-0.901067852973938,-8.988486289978027,3.81648850440979
1773163109662422300,6.74842236328125,-0.8559134602546692,-9.010793685913086,3.774040937423706
1773163109670755300,6.75675537109375,-0.7966760396957397,-9.02928352355957,3.7426910400390625
1773163109679088400,6.76508837890625,-0.7233714461326599,-9.044212341308594,3.721468925476074
1773163109687421400,6.77342138671875,-0.6388769745826721,-9.0559720993042,3.70831298828125
1773163109695754500,6.78175439453125,-0.5475782155990601,-9.063694953918457,3.704049587249756
1773163109712420400,6.79842041015625,-0.36327216029167175,-9.065483093261719,3.7222888469696045
1773163109720753400,6.80675341796875,-0.2749271094799042,-9.061524391174316,3.73946475982666
1773163109729086500,6.81508642578125,-0.18931381404399872,-9.05615520477295,3.7577381134033203
1773163109737419500,6.82341943359375,-0.10531014949083328,-9.050517082214355,3.774580240249634
1773163109745752600,6.831752685546875,-0.02248574234545231,-9.045463562011719,3.788071393966675
1773163109754085600,6.840085693359375,0.059267040342092514,-9.041189193725586,3.7978622913360596
1773163109762418400,6.84841845703125,0.13980506360530853,-9.03779411315918,3.803828477859497
1773163109770751500,6.85675146484375,0.21860720217227936,-9.035524368286133,3.8055062294006348
1773163109779084500,6.86508447265625,0.29441037774086,-9.034656524658203,3.8024590015411377
1773163109787417600,6.87341748046875,0.36468690633773804,-9.035326957702637,3.7947638034820557
1773163109795750700,6.881750732421875,0.42812812328338623,-9.03762435913086,3.7826526165008545
1773163109804083700,6.890083740234375,0.48594167828559875,-9.04177188873291,3.7657153606414795
1773163109812416800,6.898416748046875,0.540859580039978,-9.047941207885742,3.7433438301086426
1773163109820749600,6.90674951171875,0.5945957899093628,-9.055723190307617,3.716278553009033
1773163109829082600,6.91508251953125,0.6471531987190247,-9.064156532287598,3.686817169189453
1773163109837415700,6.923415771484375,0.6977865695953369,-9.072600364685059,3.6566927433013916
1773163109845748700,6.931748779296875,0.7468402981758118,-9.081413269042969,3.624990940093994
1773163109862414800,6.948414794921875,0.8436476588249207,-9.099312782287598,3.5582499504089355
1773163109870748000,6.956747802734375,0.8934367895126343,-9.108087539672852,3.523479700088501
1773163109879081000,6.9650810546875,0.9440529942512512,-9.116601943969727,3.4880826473236084
1773163109887413800,6.973413818359375,0.995404064655304,-9.12494945526123,3.451789379119873
1773163109895746800,6.981746826171875,1.047608733177185,-9.133056640625,3.414700508117676
1773163109904080000,6.990079833984375,1.101242184638977,-9.141070365905762,3.3761653900146484
1773163109912413000,6.998412841796875,1.1559829711914062,-9.149177551269531,3.335663080215454
1773163109920746000,7.00674609375,1.2109194993972778,-9.15762996673584,3.292698860168457
1773163109929079000,7.0150791015625,1.265414834022522,-9.166376113891602,3.247561454772949
1773163109937412000,7.023412109375,1.3185914754867554,-9.175949096679688,3.1990087032318115
1773163109945745000,7.031744873046875,1.3691678047180176,-9.187058448791504,3.145430326461792
1773163109954078000,7.040077880859375,1.4164729118347168,-9.19979190826416,3.0867137908935547
1773163109962411000,7.048410888671875,1.460427165031433,-9.214043617248535,3.02306866645813
1773163109970744000,7.056744140625,1.5016103982925415,-9.22933578491211,2.9554877281188965
1773163109979077000,7.0650771484375,1.5403048992156982,-9.245147705078125,2.885324716567993
1773163109987410200,7.07341015625,1.5767396688461304,-9.260774612426758,2.8146612644195557
1773163109995743200,7.0817431640625,1.6121196746826172,-9.275727272033691,2.7445125579833984
1773163110004076000,7.090075927734375,1.6473972797393799,-9.289543151855469,2.675978660583496
1773163110012409000,7.0984091796875,1.682649850845337,-9.301887512207031,2.61035418510437
1773163110020742100,7.1067421875,1.7173079252243042,-9.312646865844727,2.548694372177124
1773163110029075200,7.1150751953125,1.7505661249160767,-9.322005271911621,2.4912075996398926
1773163110037408300,7.123408203125,1.7817914485931396,-9.330089569091797,2.438244104385376
1773163110045741300,7.1317412109375,1.8106632232666016,-9.337244033813477,2.3890891075134277
1773163110054074400,7.140074462890625,1.8381308317184448,-9.343576431274414,2.3429107666015625
1773163110062407200,7.1484072265625,1.8647949695587158,-9.348658561706543,2.3011975288391113
1773163110070740200,7.156740234375,1.889615535736084,-9.35260009765625,2.2646405696868896
1773163110079073300,7.1650732421875,1.9100310802459717,-9.356352806091309,2.2317748069763184
1773163110087406300,7.17340625,1.923889398574829,-9.36064624786377,2.2016632556915283
1773163110095739400,7.181739501953125,1.93106210231781,-9.365692138671875,2.1737496852874756
1773163110104072400,7.190072509765625,1.9318171739578247,-9.371275901794434,2.1488733291625977
1773163110112405500,7.198405517578125,1.9268879890441895,-9.376949310302734,2.128450632095337
1773163110120738600,7.206738525390625,1.9169590473175049,-9.382454872131348,2.113103151321411
1773163110129071400,7.2150712890625,1.9029648303985596,-9.387640953063965,2.1026904582977295
1773163110137404400,7.223404296875,1.88494873046875,-9.392244338989258,2.098357677459717
1773163110145737500,7.231737548828125,1.8615795373916626,-9.396129608154297,2.10182523727417
1773163110154070500,7.240070556640625,1.8313449621200562,-9.399177551269531,2.114715576171875
1773163110162403600,7.248403564453125,1.792673110961914,-9.40141487121582,2.1377837657928467
1773163110170736600,7.256736572265625,1.7445213794708252,-9.402901649475098,2.170823574066162
1773163110179069700,7.265069580078125,1.6851794719696045,-9.403630256652832,2.21411395072937
1773163110187402500,7.273402587890625,1.6125516891479492,-9.403718948364258,2.267188787460327
1773163110195735600,7.281735595703125,1.5245190858840942,-9.403300285339355,2.3289880752563477
1773163110204068600,7.290068603515625,1.4198461771011353,-9.402308464050293,2.3981308937072754
1773163110212401700,7.298401611328125,1.298459529876709,-9.400137901306152,2.474229335784912
1773163110220734700,7.306734619140625,1.1606196165084839,-9.396124839782715,2.556597948074341
1773163110229067800,7.31506787109375,1.0064958333969116,-9.389551162719727,2.64455509185791
1773163110237400800,7.32340087890625,0.8359000086784363,-9.379773139953613,2.73706316947937
1773163110245733600,7.331733642578125,0.6487504839897156,-9.365571022033691,2.834709882736206
1773163110254066700,7.340066650390625,0.447830468416214,-9.345836639404297,2.936866521835327
1773163110262399700,7.348399658203125,0.2384234517812729,-9.3201265335083,3.04118275642395
1773163110270732800,7.35673291015625,0.027253109961748123,-9.288114547729492,3.146517276763916
1773163110279065900,7.36506591796875,-0.17832787334918976,-9.249672889709473,3.253019094467163
1773163110287399000,7.37339892578125,-0.36991605162620544,-9.205568313598633,3.3602170944213867
1773163110295732000,7.38173193359375,-0.5396514534950256,-9.158211708068848,3.4650120735168457
1773163110304064800,7.390064697265625,-0.6834414601325989,-9.111238479614258,3.5621113777160645
1773163110312397800,7.398397705078125,-0.8025377988815308,-9.067350387573242,3.648214101791382
1773163110320731000,7.40673095703125,-0.9004718661308289,-9.027536392211914,3.723322629928589
1773163110329064000,7.41506396484375,-0.9820255637168884,-8.990181922912598,3.792445659637451
1773163110337397000,7.42339697265625,-1.053864598274231,-8.95252513885498,3.8616106510162354
1773163110345730000,7.43172998046875,-1.124534010887146,-8.912626266479492,3.9333062171936035
1773163110354063000,7.44006298828125,-1.2002040147781372,-8.870079040527344,4.006443977355957
1773163110362396200,7.448396240234375,-1.2836147546768188,-8.825213432312012,4.079010486602783
1773163110370729000,7.45672900390625,-1.3737118244171143,-8.780028343200684,4.146614074707031
1773163110379062000,7.46506201171875,-1.4657918214797974,-8.737060546875,4.205427646636963
1773163110387395000,7.47339501953125,-1.5550134181976318,-8.698001861572266,4.254066467285156
1773163110395728100,7.48172802734375,-1.63632333278656,-8.663797378540039,4.293182849884033
1773163110404061200,7.490061279296875,-1.7051501274108887,-8.633800506591797,4.3267011642456055
1773163110412394200,7.498394287109375,-1.7603594064712524,-8.604787826538086,4.362241744995117
1773163110420727300,7.506727294921875,-1.8046691417694092,-8.574085235595703,4.4043869972229
1773163110429060000,7.51506005859375,-1.844184398651123,-8.541184425354004,4.451691627502441
1773163110437393200,7.52339306640625,-1.8848698139190674,-8.506893157958984,4.500046253204346
1773163110445726200,7.531726318359375,-1.9263755083084106,-8.473700523376465,4.544872760772705
1773163110454059300,7.540059326171875,-1.9643585681915283,-8.445019721984863,4.581847667694092
1773163110462392300,7.548392333984375,-1.997640609741211,-8.421917915344238,4.609892845153809
1773163110470725400,7.556725341796875,-2.0258915424346924,-8.404367446899414,4.629553318023682
1773163110479058400,7.565058349609375,-2.049855947494507,-8.392023086547852,4.641381740570068
1773163110487391200,7.57339111328125,-2.070789337158203,-8.384157180786133,4.646301746368408
1773163110495724300,7.581724365234375,-2.090196371078491,-8.379658699035645,4.645727157592773
1773163110504057300,7.590057373046875,-2.1072518825531006,-8.377931594848633,4.641137599945068
1773163110512390400,7.598390380859375,-2.1194005012512207,-8.379581451416016,4.63261604309082
1773163110520723500,7.606723388671875,-2.124847650527954,-8.385258674621582,4.61983060836792
1773163110529056500,7.615056396484375,-2.122727870941162,-8.395644187927246,4.6019086837768555
1773163110537389600,7.6233896484375,-2.113659381866455,-8.410780906677246,4.578384876251221
1773163110545722600,7.63172265625,-2.098381519317627,-8.430564880371094,4.548929691314697
1773163110554055400,7.640055419921875,-2.0785000324249268,-8.45474624633789,4.513036727905273
1773163110570721500,7.656721435546875,-2.0341501235961914,-8.511216163635254,4.426265716552734
1773163110579054600,7.6650546875,-2.012291669845581,-8.541759490966797,4.377148151397705
1773163110587387600,7.6733876953125,-1.9905997514724731,-8.573785781860352,4.324129581451416
1773163110595720700,7.681720703125,-1.9694701433181763,-8.60693073272705,4.267589569091797
1773163110604053800,7.6900537109375,-1.948617935180664,-8.640815734863281,4.208277225494385
1773163110612386600,7.698386474609375,-1.926710605621338,-8.674853324890137,4.147902488708496
1773163110620719600,7.7067197265625,-1.8997052907943726,-8.70881175994873,4.088779449462891
1773163110629052700,7.715052734375,-1.8640679121017456,-8.741814613342285,4.0343918800354
1773163110637385700,7.7233857421875,-1.8181312084197998,-8.773233413696289,3.9868738651275635
1773163110645718800,7.73171875,-1.7628315687179565,-8.80142879486084,3.9493892192840576
1773163110654051800,7.7400517578125,-1.7026615142822266,-8.824089050292969,3.9251456260681152
1773163110662385000,7.748385009765625,-1.6446106433868408,-8.839439392089844,3.915349006652832
1773163110670717700,7.7567177734375,-1.5957015752792358,-8.845857620239258,3.9210877418518066
1773163110679050800,7.76505078125,-1.5606014728546143,-8.841742515563965,3.944423198699951
1773163110687383800,7.7733837890625,-1.5430707931518555,-8.82728099822998,3.9835190773010254
1773163110695716900,7.781716796875,-1.5480600595474243,-8.804776191711426,4.031105041503906
1773163110704050000,7.7900498046875,-1.5783822536468506,-8.778072357177734,4.077322483062744
1773163110712383000,7.798383056640625,-1.6269912719726562,-8.749524116516113,4.119357109069824
1773163110720716000,7.806716064453125,-1.6828334331512451,-8.721084594726562,4.157059669494629
1773163110729048800,7.815048828125,-1.739452600479126,-8.694689750671387,4.188920974731445
1773163110737382000,7.8233818359375,-1.7930270433425903,-8.671558380126953,4.214203834533691
1773163110745715000,7.83171484375,-1.8393915891647339,-8.652016639709473,4.234339714050293
1773163110754048000,7.840048095703125,-1.8732798099517822,-8.635859489440918,4.2524261474609375
1773163110762381000,7.848381103515625,-1.888800024986267,-8.623212814331055,4.271185398101807
1773163110770714000,7.856714111328125,-1.879159688949585,-8.615164756774902,4.291627883911133
1773163110779047200,7.865047119140625,-1.8418978452682495,-8.612725257873535,4.312628269195557
1773163110787380200,7.873380126953125,-1.780126690864563,-8.616830825805664,4.330329418182373
1773163110795713000,7.881713134765625,-1.701053261756897,-8.62692642211914,4.341996192932129
1773163110804046000,7.890046142578125,-1.6122018098831177,-8.640266418457031,4.349365711212158
1773163110812379100,7.898379150390625,-1.519034743309021,-8.653244972229004,4.357093811035156
1773163110820712200,7.906712158203125,-1.4254218339920044,-8.664865493774414,4.365623474121094
1773163110829045200,7.915045166015625,-1.3351608514785767,-8.675888061523438,4.372262954711914
1773163110837378300,7.92337841796875,-1.253448724746704,-8.687154769897461,4.374082565307617
1773163110845711400,7.93171142578125,-1.1850923299789429,-8.699536323547363,4.368523597717285
1773163110854044200,7.940044189453125,-1.130699872970581,-8.7149658203125,4.352158069610596
1773163110862377200,7.948377197265625,-1.0826938152313232,-8.735913276672363,4.322263717651367
1773163110870710300,7.956710205078125,-1.0326639413833618,-8.762372016906738,4.280750274658203
1773163110879043300,7.965043212890625,-0.9766722917556763,-8.793646812438965,4.229453086853027
1773163110887376400,7.97337646484375,-0.9145615696907043,-8.828866958618164,4.1695404052734375
1773163110895709400,7.98170947265625,-0.8494263887405396,-8.866164207458496,4.1036577224731445
1773163110904042500,7.99004248046875,-0.7850571870803833,-8.904050827026367,4.03385066986084
1773163110912375300,7.998375244140625,-0.7250930666923523,-8.941418647766113,3.9617772102355957
1773163110920708400,8.006708251953125,-0.6718882918357849,-8.977553367614746,3.8887650966644287
1773163110929041400,8.01504150390625,-0.6264210939407349,-9.0115327835083,3.817101001739502
1773163110937374500,8.02337451171875,-0.5872824192047119,-9.042343139648438,3.749868631362915
1773163110945707500,8.03170751953125,-0.548919677734375,-9.069579124450684,3.6894164085388184
1773163110954040600,8.04004052734375,-0.5044494271278381,-9.093698501586914,3.636007070541382
1773163110962373600,8.04837353515625,-0.44873207807540894,-9.11473560333252,3.5903520584106445
1773163110970706700,8.056706787109375,-0.3815765976905823,-9.132169723510742,3.5536255836486816
1773163110979039500,8.06503955078125,-0.30784833431243896,-9.146159172058105,3.5246827602386475
1773163110987372500,8.07337255859375,-0.2328183352947235,-9.156173706054688,3.5043790340423584
1773163110995705600,8.08170556640625,-0.15996664762496948,-9.161918640136719,3.493429660797119
1773163111004038700,8.09003857421875,-0.08958224207162857,-9.164267539978027,3.489781618118286
1773163111012371700,8.098371826171874,-0.02048763819038868,-9.16456127166748,3.4900968074798584
1773163111020704800,8.106704833984375,0.049128010869026184,-9.163280487060547,3.493175983428955
1773163111029037800,8.115037841796875,0.12020611763000488,-9.160801887512207,3.4979488849639893
1773163111037370600,8.12337060546875,0.19266480207443237,-9.157804489135742,3.502553939819336
1773163111045703700,8.13170361328125,0.2671896517276764,-9.154520034790039,3.5062460899353027
1773163111054036700,8.14003662109375,0.3427865207195282,-9.151384353637695,3.507856845855713
1773163111062369800,8.148369873046875,0.41944679617881775,-9.149247169494629,3.505099058151245
1773163111070702800,8.156702880859376,0.49530842900276184,-9.14903736114502,3.495734691619873
1773163111079036000,8.165035888671875,0.5681123733520508,-9.15052318572998,3.4807395935058594
1773163111087369000,8.173368896484375,0.6365062594413757,-9.15347957611084,3.4610767364501953
1773163111095701800,8.18170166015625,0.7003424763679504,-9.158447265625,3.4355154037475586
1773163111104034800,8.190034912109375,0.7604567408561707,-9.165627479553223,3.4034347534179688
1773163111112367900,8.198367919921875,0.8172309994697571,-9.174575805664062,3.3659586906433105
1773163111120701000,8.206700927734374,0.8715601563453674,-9.184516906738281,3.324967861175537
1773163111129034000,8.215033935546876,0.9235219359397888,-9.194863319396973,3.282071828842163
1773163111137367000,8.223366943359375,0.9745460748672485,-9.20510482788086,3.238316774368286
1773163111145700000,8.2317001953125,1.0272709131240845,-9.214871406555176,3.1939375400543213
1773163111154033000,8.240032958984376,1.083194613456726,-9.223788261413574,3.1494176387786865
1773163111162366000,8.248365966796875,1.1411802768707275,-9.232288360595703,3.1037001609802246
1773163111170699000,8.256698974609375,1.20119309425354,-9.240983009338379,3.0547919273376465
1773163111179032000,8.265031982421876,1.2627887725830078,-9.249700546264648,3.0031328201293945
1773163111187365000,8.273365234375,1.3267936706542969,-9.258111000061035,2.9491324424743652
1773163111195698200,8.2816982421875,1.3936095237731934,-9.266146659851074,2.8925352096557617
1773163111204031200,8.29003125,1.4622302055358887,-9.273650169372559,2.834023952484131
1773163111212364300,8.2983642578125,1.5304127931594849,-9.280885696411133,2.7736973762512207
1773163111220697000,8.306697021484375,1.595561146736145,-9.288305282592773,2.7114460468292236
1773163111229030100,8.315030029296874,1.6560077667236328,-9.296258926391602,2.6471877098083496
1773163111237363200,8.32336328125,1.7108852863311768,-9.304685592651367,2.5818769931793213
1773163111245696300,8.3316962890625,1.7599923610687256,-9.313011169433594,2.5180633068084717
1773163111254029300,8.340029296875,1.8029333353042603,-9.320816993713379,2.458085298538208
1773163111262362400,8.3483623046875,1.8393056392669678,-9.32787036895752,2.4037837982177734
1773163111270695400,8.3566953125,1.8690943717956543,-9.334141731262207,2.355987071990967
1773163111279028200,8.3650283203125,1.8937817811965942,-9.339577674865723,2.3143622875213623
1773163111287361300,8.373361328125,1.915145754814148,-9.344167709350586,2.277965545654297
1773163111295694300,8.3816943359375,1.9340412616729736,-9.347799301147461,2.246889352798462
1773163111304027400,8.39002734375,1.9501488208770752,-9.350489616394043,2.2216310501098633
1773163111312360400,8.3983603515625,1.961972951889038,-9.352383613586426,2.2031760215759277
1773163111320693500,8.406693603515626,1.96770179271698,-9.353630065917969,2.192748546600342
1773163111329026600,8.415026611328125,1.9665253162384033,-9.354543685913086,2.1899023056030273
1773163111337359400,8.423359375,1.9584388732910156,-9.355571746826172,2.192758560180664
1773163111345692400,8.4316923828125,1.9431030750274658,-9.357069969177246,2.199998378753662
1773163111354025500,8.440025390625,1.9191821813583374,-9.358924865722656,2.213061809539795
1773163111362358500,8.448358642578125,1.8865242004394531,-9.361238479614258,2.2312800884246826
1773163111370691600,8.456691650390624,1.8453997373580933,-9.36385726928711,2.2545619010925293
1773163111379024600,8.465024658203125,1.7963809967041016,-9.366233825683594,2.2840874195098877
1773163111387357700,8.473357666015625,1.73961341381073,-9.368032455444336,2.320366144180298
1773163111395690500,8.4816904296875,1.6740678548812866,-9.369497299194336,2.3622920513153076
1773163111404023600,8.4900234375,1.5968743562698364,-9.370635986328125,2.4107179641723633
1773163111412356600,8.498356689453125,1.505629301071167,-9.37100887298584,2.467320680618286
1773163111420689700,8.506689697265625,1.40059494972229,-9.36994743347168,2.532352924346924
1773163111429022700,8.515022705078126,1.2829667329788208,-9.366837501525879,2.605133533477783
1773163111437355800,8.523355712890625,1.1527824401855469,-9.36096477508545,2.685851812362671
1773163111445688800,8.531688720703125,1.0091556310653687,-9.351653099060059,2.774632692337036
1773163111454022000,8.54002197265625,0.8503122329711914,-9.338403701782227,2.8708128929138184
1773163111462354700,8.548354736328125,0.6755337715148926,-9.320457458496094,2.9737367630004883
1773163111470687700,8.556687744140625,0.48491787910461426,-9.29696273803711,3.082489013671875
1773163111479020800,8.565020751953124,0.27993592619895935,-9.266607284545898,3.197187900543213
1773163111487353900,8.573353759765626,0.0631369948387146,-9.22808837890625,3.3179495334625244
1773163111495687000,8.58168701171875,-0.15939916670322418,-9.181478500366211,3.441718101501465
1773163111504020000,8.59002001953125,-0.3791106939315796,-9.127495765686035,3.565878391265869
1773163111512353000,8.59835302734375,-0.5854852199554443,-9.06769847869873,3.6884188652038574
1773163111520685800,8.606685791015625,-0.769132673740387,-9.004682540893555,3.8071658611297607
1773163111529019000,8.615018798828125,-0.9246922731399536,-8.942215919494629,3.9181764125823975
1773163111537352000,8.62335205078125,-1.0509259700775146,-8.88429069519043,4.016880512237549
1773163111545685000,8.63168505859375,-1.1496365070343018,-8.83266830444336,4.102768421173096
1773163111554018000,8.64001806640625,-1.2261985540390015,-8.785816192626953,4.180462837219238
1773163111562351000,8.64835107421875,-1.2909637689590454,-8.739530563354492,4.2572760581970215
1773163111570684200,8.65668408203125,-1.3571184873580933,-8.689778327941895,4.3377838134765625
1773163111579017000,8.665016845703125,-1.4322997331619263,-8.636414527893066,4.419416904449463
1773163111587350000,8.67335009765625,-1.5188467502593994,-8.582274436950684,4.495336055755615
1773163111595683000,8.68168310546875,-1.6145610809326172,-8.530744552612305,4.559602737426758
1773163111604016000,8.69001611328125,-1.7142621278762817,-8.483023643493652,4.611940383911133
1773163111612349200,8.69834912109375,-1.8115971088409424,-8.438566207885742,4.656080722808838
1773163111620682200,8.70668212890625,-1.896696925163269,-8.397014617919922,4.697133541107178
1773163111629015300,8.715015380859375,-1.9574098587036133,-8.357696533203125,4.7421345710754395
1773163111637348400,8.723348388671875,-1.9884024858474731,-8.318589210510254,4.7976789474487305
1773163111645681200,8.73168115234375,-1.9971107244491577,-8.27791976928711,4.863947868347168
1773163111654014200,8.74001416015625,-1.997619390487671,-8.234671592712402,4.9366068840026855
1773163111662347300,8.74834716796875,-2.0026257038116455,-8.1902437210083,5.007971286773682
1773163111670680300,8.756680419921874,-2.017878293991089,-8.148249626159668,5.069969177246094
1773163111679013400,8.765013427734376,-2.040848731994629,-8.112297058105469,5.118197441101074
1773163111695679500,8.781679443359375,-2.0871927738189697,-8.061644554138184,5.179180145263672
1773163111704012300,8.79001220703125,-2.1060943603515625,-8.044477462768555,5.198185443878174
1773163111712345300,8.798345458984375,-2.124105215072632,-8.031991958618164,5.210150241851807
1773163111720678400,8.806678466796875,-2.141463279724121,-8.024755477905273,5.214194297790527
1773163111729011500,8.815011474609374,-2.1575698852539062,-8.023134231567383,5.210048675537109
1773163111737344500,8.823344482421875,-2.171804189682007,-8.027088165283203,5.198029518127441
1773163111745677600,8.831677490234375,-2.1827259063720703,-8.03670883178711,5.178552150726318
1773163111754010600,8.8400107421875,-2.1891181468963623,-8.052447319030762,5.151335716247559
1773163111762343400,8.848343505859376,-2.189960479736328,-8.074512481689453,5.116318225860596
1773163111770676500,8.856676513671875,-2.1853859424591064,-8.1028470993042,5.07329797744751
1773163111779009500,8.865009521484374,-2.1761884689331055,-8.136943817138672,5.022424221038818
1773163111787342600,8.873342529296876,-2.162623882293701,-8.175856590270996,4.964758396148682
1773163111795675600,8.881675537109375,-2.1453347206115723,-8.21864128112793,4.901209831237793
1773163111804008700,8.8900087890625,-2.124652147293091,-8.264944076538086,4.831867218017578
1773163111812341800,8.898341796875,-2.100172281265259,-8.314430236816406,4.757091999053955
1773163111820674600,8.906674560546875,-2.0706372261047363,-8.365966796875,4.679042339324951
1773163111829007600,8.915007568359375,-2.0359203815460205,-8.417591094970703,4.601039886474609
1773163111837340700,8.923340576171874,-1.9962067604064941,-8.46756362915039,4.526136875152588
1773163111845673700,8.931673828125,-1.951873540878296,-8.51555347442627,4.45487642288208
1773163111854006800,8.9400068359375,-1.9023315906524658,-8.56206226348877,4.386640548706055
1773163111862339800,8.94833984375,-1.8469113111495972,-8.607207298278809,4.321493148803711
1773163111870673000,8.9566728515625,-1.786110520362854,-8.650529861450195,4.260110378265381
1773163111879006000,8.965005859375,-1.7220144271850586,-8.690166473388672,4.205479621887207
1773163111887338800,8.9733388671875,-1.6575558185577393,-8.724567413330078,4.159906387329102
1773163111895671800,8.981671875,-1.598020315170288,-8.751545906066895,4.126398086547852
1773163111904004900,8.9900048828125,-1.5508414506912231,-8.769078254699707,4.107133388519287
1773163111912338000,8.998337890625,-1.520423173904419,-8.775394439697266,4.10501766204834
1773163111920671000,9.0066708984375,-1.5081160068511963,-8.768951416015625,4.123283386230469
1773163111929004000,9.015004150390626,-1.5129225254058838,-8.7490816116333,4.163534164428711
1773163111937337000,9.023337158203125,-1.532954216003418,-8.71721363067627,4.222632884979248
1773163111945670000,9.031669921875,-1.5704482793807983,-8.679165840148926,4.286742687225342
1773163111954003000,9.0400029296875,-1.6292428970336914,-8.64106559753418,4.341422080993652
1773163111962336000,9.0483359375,-1.7027101516723633,-8.604342460632324,4.385936260223389
1773163111970669000,9.0566689453125,-1.777720332145691,-8.570757865905762,4.421787738800049
1773163111979002000,9.065002197265626,-1.8434486389160156,-8.543009757995605,4.448490142822266
1773163111987335200,9.073335205078125,-1.8946044445037842,-8.521461486816406,4.4682817459106445
1773163111995668200,9.081668212890625,-1.9308836460113525,-8.50501823425293,4.484055042266846
1773163112004001000,9.0900009765625,-1.9548473358154297,-8.492705345153809,4.496987819671631
1773163112012334000,9.098333984375,-1.967463731765747,-8.48384952545166,4.508189678192139
1773163112020667100,9.106667236328125,-1.9681066274642944,-8.478692054748535,4.517601490020752
1773163112029000200,9.115000244140624,-1.955145001411438,-8.479323387145996,4.5220417976379395
1773163112037333200,9.123333251953126,-1.926946759223938,-8.487839698791504,4.518167495727539
1773163112045666300,9.131666259765625,-1.8847888708114624,-8.503934860229492,4.5056681632995605
1773163112053999400,9.139999267578125,-1.8309847116470337,-8.523703575134277,4.49047327041626
1773163112062332400,9.14833251953125,-1.7667388916015625,-8.543227195739746,4.479094505310059
1773163112070665200,9.156665283203125,-1.6934126615524292,-8.560892105102539,4.473686218261719
1773163112078998300,9.164998291015625,-1.614709496498108,-8.578278541564941,4.46947717666626
1773163112087331300,9.173331298828124,-1.538849949836731,-8.597686767578125,4.458935737609863
1773163112095664400,9.181664306640625,-1.4774264097213745,-8.617568969726562,4.441295146942139
1773163112103997400,9.18999755859375,-1.4377955198287964,-8.634785652160645,4.420815944671631
1773163112112330500,9.19833056640625,-1.4168293476104736,-8.649178504943848,4.399397373199463
1773163112120663600,9.20666357421875,-1.40334153175354,-8.664054870605469,4.374377727508545
1773163112128996400,9.214996337890625,-1.3856481313705444,-8.683064460754395,4.342206954956055
1773163112137329400,9.223329345703124,-1.3606135845184326,-8.706398963928223,4.303223133087158
1773163112145662500,9.231662353515626,-1.3316514492034912,-8.733171463012695,4.257793426513672
1773163112153995500,9.23999560546875,-1.303418517112732,-8.76235580444336,4.206258773803711
1773163112162328600,9.24832861328125,-1.2795451879501343,-8.792106628417969,4.151145935058594
1773163112170661600,9.25666162109375,-1.2611149549484253,-8.820878028869629,4.095373630523682
1773163112178994700,9.26499462890625,-1.2442951202392578,-8.848536491394043,4.04048490524292
1773163112187327500,9.273327392578125,-1.2218477725982666,-8.875720024108887,3.98736572265625
1773163112195660500,9.28166064453125,-1.189551830291748,-8.902396202087402,3.9373459815979004
1773163112203993600,9.28999365234375,-1.1485737562179565,-8.927786827087402,3.8917598724365234
1773163112212326700,9.29832666015625,-1.1006550788879395,-8.951045989990234,3.851977825164795
1773163112220659700,9.30665966796875,-1.0459507703781128,-8.972148895263672,3.8179736137390137
1773163112228992800,9.31499267578125,-0.9839356541633606,-8.99114990234375,3.7896552085876465
1773163112237325800,9.323325927734375,-0.9147332310676575,-9.007669448852539,3.767697334289551
1773163112245658600,9.33165869140625,-0.8393258452415466,-9.021674156188965,3.751708984375
1773163112253991700,9.33999169921875,-0.7594776749610901,-9.033086776733398,3.7412450313568115
1773163112262324700,9.34832470703125,-0.6794204711914062,-9.041563987731934,3.736161231994629
1773163112270657800,9.35665771484375,-0.6040011644363403,-9.046854019165039,3.736307382583618
1773163112278990800,9.364990966796874,-0.5361441373825073,-9.049088478088379,3.74124813079834
1773163112287324000,9.373323974609375,-0.4754601716995239,-9.048869132995605,3.7499749660491943
1773163112295657000,9.381656982421875,-0.41835954785346985,-9.047611236572266,3.759800434112549
1773163112303990000,9.389989990234374,-0.3587072491645813,-9.04676342010498,3.767995834350586
1773163112312322800,9.39832275390625,-0.2928583323955536,-9.04654598236084,3.774207592010498
1773163112320656000,9.40665576171875,-0.22176067531108856,-9.046588897705078,3.7789459228515625
1773163112328989000,9.414989013671875,-0.14834275841712952,-9.04726791381836,3.7809152603149414
1773163112337322000,9.423322021484376,-0.0747138187289238,-9.050440788269043,3.7754905223846436
1773163112345655000,9.431655029296875,0.00008561303548049182,-9.056783676147461,3.760991334915161
1773163112353988000,9.439988037109375,0.07652591168880463,-9.066688537597656,3.7362678050994873
1773163112362321200,9.448321044921874,0.1520795077085495,-9.080280303955078,3.700778007507324
1773163112370654000,9.456654052734375,0.22215476632118225,-9.096624374389648,3.656836986541748
1773163112378987000,9.464987060546875,0.283025860786438,-9.113554000854492,3.610182523727417
1773163112387320000,9.473320068359374,0.3369144797325134,-9.129786491394043,3.564248561859131
1773163112395653000,9.481653076171876,0.3896072804927826,-9.145054817199707,3.5194568634033203
1773163112403986200,9.489986083984375,0.44550952315330505,-9.159140586853027,3.475926399230957
1773163112412319200,9.4983193359375,0.5060369968414307,-9.171923637390137,3.4336771965026855
1773163112420652300,9.50665234375,0.5690369606018066,-9.182893753051758,3.394270658493042
1773163112428985000,9.514985107421875,0.6334065198898315,-9.192342758178711,3.3570847511291504
1773163112437318100,9.523318115234375,0.6994269490242004,-9.200782775878906,3.3206608295440674
1773163112445651200,9.531651123046874,0.7662071585655212,-9.20842456817627,3.284543752670288
1773163112453984300,9.539984375,0.8320775032043457,-9.215578079223633,3.2482542991638184
1773163112462317300,9.5483173828125,0.8943724632263184,-9.22314453125,3.209998369216919
1773163112470650400,9.556650390625,0.9516369700431824,-9.23167610168457,3.168743848800659
1773163112478983400,9.5649833984375,1.0042890310287476,-9.241369247436523,3.1239211559295654
1773163112487316500,9.57331640625,1.0528922080993652,-9.252130508422852,3.075690984725952
1773163112495649300,9.581649169921874,1.0979197025299072,-9.264322280883789,3.0227925777435303
1773163112503982300,9.589982421875,1.1404317617416382,-9.277708053588867,2.96545672416687
1773163112512315400,9.5983154296875,1.1811445951461792,-9.291879653930664,2.904522180557251
1773163112520648400,9.6066484375,1.2187917232513428,-9.306549072265625,2.8413169384002686
1773163112528981500,9.6149814453125,1.251502513885498,-9.32111930847168,2.77864146232605
1773163112537314600,9.623314453125,1.2788764238357544,-9.334683418273926,2.7200281620025635
1773163112545647600,9.631647705078125,1.3008379936218262,-9.34703254699707,2.6666815280914307
1773163112553980400,9.63998046875,1.3179585933685303,-9.358062744140625,2.6191670894622803
1773163112562313500,9.6483134765625,1.3312679529190063,-9.367756843566895,2.577451467514038
1773163112570646500,9.656646484375,1.3422791957855225,-9.375839233398438,2.5421066284179688
1773163112578979600,9.6649794921875,1.351599931716919,-9.3823881149292,2.512840509414673
1773163112587312600,9.673312744140626,1.3596433401107788,-9.38753604888916,2.489163875579834
1773163112595645700,9.681645751953125,1.3664543628692627,-9.391397476196289,2.4707984924316406
1773163112603978800,9.689978759765625,1.372331976890564,-9.394024848937988,2.4575178623199463
1773163112612311600,9.6983115234375,1.3773576021194458,-9.395342826843262,2.449652910232544
1773163112620644600,9.70664453125,1.3814802169799805,-9.395467758178711,2.446851968765259
1773163112628977700,9.714977783203125,1.3842281103134155,-9.3950834274292,2.446774959564209
1773163112637310700,9.723310791015624,1.3861372470855713,-9.394668579101562,2.4472885131835938
1773163112645643800,9.731643798828125,1.3886035680770874,-9.394349098205566,2.4471163749694824
1773163112653976800,9.739976806640625,1.3927650451660156,-9.394245147705078,2.4451515674591064
1773163112662310000,9.748309814453124,1.399401307106018,-9.394762992858887,2.4393627643585205
1773163112670642700,9.756642578125,1.4081292152404785,-9.39621353149414,2.4287290573120117
1773163112678975700,9.764975830078125,1.4176476001739502,-9.398847579956055,2.412949562072754
1773163112687308800,9.773308837890625,1.4264562129974365,-9.402488708496094,2.393494129180908
1773163112695641900,9.781641845703126,1.4333475828170776,-9.406920433044434,2.3718626499176025
1773163112703975000,9.789974853515625,1.438261866569519,-9.411998748779297,2.348633289337158
1773163112712308000,9.798307861328125,1.4411827325820923,-9.417144775390625,2.3261077404022217
1773163112720641000,9.80664111328125,1.441754698753357,-9.421810150146484,2.30678129196167
1773163112728974000,9.81497412109375,1.4395674467086792,-9.425662994384766,2.2923576831817627
1773163112737307000,9.823306884765625,1.4331684112548828,-9.42846965789795,2.2848124504089355
1773163112745640000,9.831639892578124,1.4211081266403198,-9.429915428161621,2.286376714706421
1773163112753973000,9.839972900390626,1.4035028219223022,-9.42969799041748,2.298121929168701
1773163112762306000,9.84830615234375,1.3811395168304443,-9.427626609802246,2.320063352584839
1773163112770639000,9.85663916015625,1.3532036542892456,-9.423881530761719,2.351529121398926
1773163112778972200,9.86497216796875,1.318402647972107,-9.418676376342773,2.391805410385132
1773163112787305200,9.87330517578125,1.2744730710983276,-9.412176132202148,2.440707206726074
1773163112795638000,9.881637939453125,1.2194771766662598,-9.404580116271973,2.4974253177642822
1773163112803971000,9.88997119140625,1.1518806219100952,-9.396388053894043,2.559581995010376
1773163112812304100,9.89830419921875,1.069487452507019,-9.388134002685547,2.624790906906128
1773163112820637200,9.90663720703125,0.9693393111228943,-9.380114555358887,2.691511869430542
1773163112828970200,9.91497021484375,0.8489908576011658,-9.37189769744873,2.7599170207977295
1773163112837303300,9.92330322265625,0.7103205323219299,-9.362635612487793,2.8296453952789307
1773163112845636400,9.93163623046875,0.5583222508430481,-9.35111141204834,2.90092396736145
1773163112853969200,9.93996923828125,0.3982933759689331,-9.336385726928711,2.973827362060547
1773163112862302200,9.94830224609375,0.2332983911037445,-9.317740440368652,3.0488810539245605
1773163112870635300,9.95663525390625,0.06513825803995132,-9.29443359375,3.127243757247925
1773163112878968300,9.96496826171875,-0.10518909990787506,-9.265872955322266,3.209818124771118
1773163112887301400,9.97330126953125,-0.27670612931251526,-9.231561660766602,3.297285795211792
1773163112895634400,9.981634521484375,-0.44807204604148865,-9.191593170166016,3.388840913772583
1773163112903967500,9.989967529296875,-0.617005467414856,-9.146435737609863,3.4831595420837402
1773163112912300500,9.998300537109374,-0.7800132036209106,-9.09713077545166,3.5782904624938965
1773163112920633300,10.00663330078125,-0.932854950428009,-9.045882225036621,3.670447826385498
1773163112928966400,10.01496630859375,-1.072738528251648,-8.994916915893555,3.7564730644226074
1773163112937299500,10.023299560546874,-1.1990612745285034,-8.945595741271973,3.835226058959961
1773163112945632500,10.031632568359376,-1.3128905296325684,-8.897992134094238,3.907996654510498
1773163112953965600,10.039965576171875,-1.4162758588790894,-8.850910186767578,3.978182315826416
1773163112962298600,10.048298583984375,-1.5117337703704834,-8.802962303161621,4.048814296722412
1773163112970631700,10.056631591796876,-1.6021994352340698,-8.753461837768555,4.120709419250488
1773163112978964500,10.064964599609375,-1.6904699802398682,-8.702766418457031,4.192202568054199
1773163112987297500,10.073297607421875,-1.7777961492538452,-8.652007102966309,4.260587692260742
1773163112995630600,10.081630615234374,-1.8623714447021484,-8.602361679077148,4.3245038986206055
1773163113003963600,10.089963623046875,-1.939795732498169,-8.55517292022705,4.383674144744873
1773163113012296700,10.098296630859375,-2.0055696964263916,-8.511353492736816,4.439023971557617
1773163113020629800,10.106629638671874,-2.0570883750915527,-8.471183776855469,4.491971969604492
1773163113028962800,10.114962890625,-2.094674825668335,-8.434054374694824,4.544166564941406
1773163113037295600,10.123295654296875,-2.121281862258911,-8.399649620056152,4.595264434814453
1773163113045628700,10.131628662109375,-2.14143967628479,-8.367362976074219,4.6445512771606445
1773163113053961700,10.139961669921876,-2.1576170921325684,-8.3372802734375,4.690932273864746
1773163113062294800,10.148294677734375,-2.1714694499969482,-8.310663223266602,4.731593608856201
1773163113070627800,10.1566279296875,-2.18536376953125,-8.288488388061523,4.763983726501465
1773163113078961000,10.1649609375,-2.201254367828369,-8.270984649658203,4.787032127380371
1773163113087294000,10.1732939453125,-2.2208189964294434,-8.257765769958496,4.800797939300537
1773163113095626800,10.181626708984375,-2.244162082672119,-8.248177528381348,4.806422710418701
1773163113103959800,10.189959716796874,-2.271758556365967,-8.241890907287598,4.8042402267456055
1773163113112292900,10.19829296875,-2.3030238151550293,-8.23863410949707,4.794930934906006
1773163113120626000,10.2066259765625,-2.336913585662842,-8.238370895385742,4.778960704803467
1773163113128959000,10.214958984375,-2.371965169906616,-8.24096965789795,4.757161617279053
1773163113137292000,10.2232919921875,-2.4060137271881104,-8.247045516967773,4.729452133178711
1773163113145625000,10.231625,-2.437208652496338,-8.256794929504395,4.696354866027832
1773163113153958100,10.239958251953125,-2.4636600017547607,-8.269684791564941,4.659727573394775
1773163113162291000,10.248291015625,-2.483752489089966,-8.285162925720215,4.621410369873047
1773163113170624000,10.2566240234375,-2.499188184738159,-8.30205249786377,4.582614898681641
1773163113178957000,10.26495703125,-2.5102782249450684,-8.320489883422852,4.542944431304932
1773163113187290000,10.2732900390625,-2.5164597034454346,-8.340864181518555,4.50197696685791
1773163113195623200,10.281623046875,-2.5185348987579346,-8.362798690795898,4.459929943084717
1773163113203956200,10.289956298828125,-2.5172977447509766,-8.38549518585205,4.417813301086426
1773163113212289300,10.298289306640624,-2.5128121376037598,-8.408062934875488,4.3772873878479
1773163113220622000,10.3066220703125,-2.505049467086792,-8.430015563964844,4.339349269866943
1773163113228955100,10.314955078125,-2.493311882019043,-8.450728416442871,4.305689811706543
1773163113237288200,10.3232880859375,-2.475684404373169,-8.469657897949219,4.278580665588379
1773163113245621200,10.331621337890626,-2.4489405155181885,-8.488164901733398,4.257246017456055
1773163113253954300,10.339954345703125,-2.4113810062408447,-8.507266998291016,4.240523338317871
1773163113262287400,10.348287353515625,-2.363539218902588,-8.526165962219238,4.229485988616943
1773163113270620400,10.356620361328124,-2.3080875873565674,-8.54330062866211,4.2255330085754395
1773163113278953200,10.364953125,-2.2491400241851807,-8.557591438293457,4.228402614593506
1773163113287286300,10.373286376953125,-2.1907155513763428,-8.567876815795898,4.238236904144287
1773163113295619300,10.381619384765624,-2.1349122524261475,-8.573213577270508,4.25588321685791
1773163113303952400,10.389952392578126,-2.083618402481079,-8.573201179504395,4.281256198883057
1773163113312285400,10.398285400390625,-2.0384907722473145,-8.567985534667969,4.313299179077148
1773163113320618500,10.406618408203125,-2.000866413116455,-8.558350563049316,4.34989070892334
1773163113328951600,10.41495166015625,-1.972798466682434,-8.545076370239258,4.388635158538818
1773163113337284400,10.423284423828125,-1.9580192565917969,-8.528311729431152,4.427690029144287
1773163113345617400,10.431617431640625,-1.9572139978408813,-8.509182929992676,4.464694499969482
1773163113353950500,10.439950439453124,-1.9679945707321167,-8.489747047424316,4.4968414306640625
1773163113362283500,10.448283447265625,-1.9879051446914673,-8.471780776977539,4.521895408630371
1773163113370616600,10.456616455078125,-2.015702247619629,-8.456034660339355,4.539031028747559
1773163113378949600,10.46494970703125,-2.04915452003479,-8.442869186401367,4.548551559448242
1773163113387282700,10.47328271484375,-2.0842278003692627,-8.432753562927246,4.551377773284912
1773163113395615700,10.48161572265625,-2.1163032054901123,-8.42617130279541,4.548766613006592
1773163113403948500,10.489948486328124,-2.142605781555176,-8.423173904418945,4.541999340057373
1773163113412281600,10.498281494140626,-2.161231279373169,-8.423691749572754,4.532204627990723
1773163113420614700,10.50661474609375,-2.1700234413146973,-8.427436828613281,4.521026611328125
1773163113428947700,10.51494775390625,-2.166408061981201,-8.434581756591797,4.509424209594727
1773163113437280800,10.52328076171875,-2.1477479934692383,-8.44528579711914,4.498299598693848
1773163113445613800,10.53161376953125,-2.113098382949829,-8.45986557006836,4.487301826477051
1773163113453947000,10.53994677734375,-2.062185525894165,-8.478150367736816,4.476465702056885
1773163113462279700,10.54827978515625,-1.9951815605163574,-8.499173164367676,4.466957092285156
1773163113470612700,10.55661279296875,-1.9166955947875977,-8.520779609680176,4.460155963897705
1773163113478945800,10.56494580078125,-1.836911916732788,-8.540310859680176,4.456370830535889
1773163113487278800,10.57327880859375,-1.7681608200073242,-8.553960800170898,4.457998275756836
1773163113495612000,10.58161181640625,-1.7204234600067139,-8.55708122253418,4.470669269561768
1773163113503945000,10.589945068359375,-1.7002886533737183,-8.546453475952148,4.498615741729736
1773163113512278000,10.598278076171875,-1.7001235485076904,-8.525514602661133,4.538233757019043
1773163113520610800,10.60661083984375,-1.7009979486465454,-8.501188278198242,4.583316802978516
1773163113528943900,10.61494384765625,-1.6856839656829834,-8.481422424316406,4.625400543212891
1773163113537277000,10.62327685546875,-1.6470011472702026,-8.47149658203125,4.657417297363281
1773163113545610000,10.63160986328125,-1.5886176824569702,-8.47219467163086,4.676389217376709
1773163113553943000,10.639943115234376,-1.5199857950210571,-8.479782104492188,4.6854376792907715
1773163113562276000,10.648276123046875,-1.449447751045227,-8.490894317626953,4.687664985656738
1773163113570609200,10.656609130859374,-1.3821735382080078,-8.507245063781738,4.678329944610596
1773163113578942200,10.664942138671876,-1.3181114196777344,-8.532366752624512,4.6509881019592285
1773163113587275000,10.67327490234375,-1.2552947998046875,-8.565340995788574,4.607553005218506
1773163113595608000,10.681608154296875,-1.1934353113174438,-8.603350639343262,4.552850246429443
1773163113603941000,10.689941162109376,-1.1334744691848755,-8.644161224365234,4.4904465675354
1773163113612274200,10.698274169921875,-1.0754317045211792,-8.685564994812012,4.424339771270752
1773163113620607200,10.706607177734375,-1.0217914581298828,-8.725479125976562,4.358022689819336
1773163113628940300,10.714940185546874,-0.9764415621757507,-8.762187957763672,4.294301509857178
1773163113637273300,10.7232734375,-0.9405966401100159,-8.794246673583984,4.236374855041504
1773163113645606100,10.731606201171875,-0.9092822670936584,-8.821576118469238,4.186093330383301
1773163113653939200,10.739939208984374,-0.8724627494812012,-8.84594440460205,4.142277240753174
1773163113662272300,10.748272216796876,-0.8234626054763794,-8.868389129638672,4.104140758514404
1773163113670605300,10.756605224609375,-0.7644971013069153,-8.88839340209961,4.072147846221924
1773163113678938400,10.7649384765625,-0.7014979124069214,-8.90456485748291,4.048088550567627
1773163113687271400,10.773271484375,-0.6405810713768005,-8.916555404663086,4.031757354736328
1773163113695604500,10.7816044921875,-0.5847269892692566,-8.924367904663086,4.022951126098633
1773163113703937300,10.789937255859375,-0.5327151417732239,-8.92805004119873,4.0220046043396
1773163113712270300,10.798270263671874,-0.48114675283432007,-8.928297996520996,4.02794885635376
1773163113720603400,10.806603271484375,-0.42612090706825256,-8.925787925720215,4.039694786071777
1773163113728936400,10.8149365234375,-0.3643611669540405,-8.921310424804688,4.0555949211120605
1773163113737269500,10.82326953125,-0.29577815532684326,-8.915862083435059,4.0731201171875
1773163113745602600,10.8316025390625,-0.22300690412521362,-8.910757064819336,4.08889627456665
1773163113753935600,10.839935546875,-0.14922752976417542,-8.906288146972656,4.10197114944458
1773163113762268400,10.848268310546874,-0.07886028289794922,-8.902241706848145,4.112692832946777
1773163113770601500,10.8566015625,-0.0143847381696105,-8.898770332336426,4.120930194854736
1773163113778934500,10.8649345703125,0.04377542808651924,-8.8964204788208,4.125796318054199
1773163113787267600,10.873267578125,0.09654510021209717,-8.89545726776123,4.126973628997803
1773163113795600600,10.8816005859375,0.14606471359729767,-8.896000862121582,4.124345302581787
1773163113803933700,10.88993359375,0.192971870303154,-8.898345947265625,4.117351531982422
1773163113812266800,10.898266845703125,0.23824168741703033,-8.902556419372559,4.105865001678467
1773163113820599800,10.906599853515624,0.2819875478744507,-8.908432006835938,4.090318202972412
