time,seconds_elapsed,z,y,x
1773163103057497600,0.14349755859375,-0.36285367608070374,-0.33231043815612793,0.5119046568870544
1773163103066880300,0.15288037109375,-0.34574946761131287,-0.2932150959968567,0.7293725609779358
1773163103076262400,0.162262451171875,-0.29443681240081787,-0.21502439677715302,0.962722897529602
1773163103090336000,0.1763359375,-0.21135921776294708,-0.2419024556875229,1.2095122337341309
1773163103099718400,0.185718505859375,-0.19181154668331146,-0.370184063911438,1.265711784362793
1773163103109100500,0.1951005859375,-0.21258094906806946,-0.5009090900421143,1.2534945011138916
1773163103118483000,0.20448291015625,-0.26878049969673157,-0.5192350745201111,1.1887428760528564
1773163103127865300,0.213865234375,-0.4276053309440613,-0.6108647584915161,1.0348049402236938
1773163103137247500,0.22324755859375,-0.49968740344047546,-0.6462949514389038,0.9272927641868591
1773163103146630000,0.2326298828125,-0.46425724029541016,-0.6560688018798828,0.9224058389663696
1773163103156012300,0.24201220703125,-0.4276053309440613,-0.6194168925285339,1.0115920305252075
1773163103165394400,0.25139453125,-0.4471530318260193,-0.4667007029056549,1.1435388326644897
1773163103174776800,0.26077685546875,-0.44837474822998047,-0.42882707715034485,1.255937933921814
1773163103184159200,0.2701591796875,-0.4471530318260193,-0.5155698657035828,1.3072506189346313
1773163103193541600,0.279541748046875,-0.4557051360607147,-0.5962040424346924,1.2999202013015747
1773163103202923800,0.288923828125,-0.45937031507492065,-0.5497782826423645,1.2034035921096802
1773163103212306200,0.29830615234375,-0.4667007029056549,-0.43371400237083435,1.0311397314071655
1773163103221688600,0.3076884765625,-0.4935787320137024,-0.3946186602115631,0.8295543789863586
1773163103231070700,0.31707080078125,-0.546113133430481,-0.4410443603992462,0.6218603253364563
1773163103240453000,0.326453125,-0.627968966960907,-0.5045742988586426,0.41905322670936584
1773163103249835500,0.33583544921875,-0.7342594861984253,-0.5424479246139526,0.2467893660068512
1773163103259217700,0.3452177734375,-0.8527672290802002,-0.5986474752426147,0.11972949653863907
1773163103268600000,0.35460009765625,-0.9761618971824646,-0.6682860851287842,0.06230820715427399
1773163103277982500,0.363982421875,-1.091004490852356,-0.6450732350349426,0.0720820426940918
1773163103287364600,0.373364501953125,-1.176525592803955,-0.5827649831771851,0.1233946830034256
1773163103296747000,0.3827470703125,-1.128878116607666,-0.46059203147888184,0.18325942754745483
1773163103306129400,0.39212939453125,-0.8527672290802002,-0.2981020212173462,0.20891575515270233
1773163103315511600,0.401511474609375,-0.46059203147888184,-0.22846342623233795,0.1954767256975174
1773163103324894000,0.41089404296875,-0.09529490768909454,-0.235793799161911,0.20280711352825165
1773163103334276400,0.4202763671875,0.1698204129934311,-0.1954767256975174,0.2565632164478302
1773163103343658500,0.429658447265625,0.3042106628417969,-0.09896009415388107,0.2932150959968567
1773163103353041000,0.439041015625,0.3078758418560028,-0.1905898153781891,0.25534147024154663
1773163103362423300,0.44842333984375,0.2883281707763672,-0.2528980076313019,0.21746785938739777
1773163103371805700,0.4578056640625,0.3530798554420471,-0.15515965223312378,0.20280711352825165
1773163103381187800,0.467187744140625,0.46059203147888184,-0.026878049597144127,0.19425499439239502
1773163103390570200,0.4765703125,0.5204567909240723,-0.001221729558892548,0.19425499439239502
1773163103399952400,0.485952392578125,0.49968740344047546,-0.16859868168830872,0.17348559200763702
1773163103409334800,0.495334716796875,0.40927940607070923,-0.3799578845500946,0.11728604137897491
1773163103418717200,0.50471728515625,0.29565855860710144,-0.526565432548523,0.04886918142437935
1773163103428099300,0.514099365234375,0.19181154668331146,-0.6133082509040833,-0.01588248461484909
1773163103437481700,0.523481689453125,0.1026252806186676,-0.6389645338058472,-0.03298669680953026
1773163103446864100,0.532864013671875,-0.020769402384757996,-0.6255255341529846,0.008552107028663158
1773163103456246500,0.54224658203125,-0.18203771114349365,-0.6047561168670654,0.09529490768909454
1773163103465628700,0.551628662109375,-0.3396408259868622,-0.5839866995811462,0.1954767256975174
1773163103475011000,0.561010986328125,-0.4740310609340668,-0.5852084755897522,0.2528980076313019
1773163103484393200,0.570393310546875,-0.5253437161445618,-0.5790998339653015,0.2419024556875229
1773163103493775600,0.579775634765625,-0.42882707715034485,-0.4838049113750458,0.16859868168830872
1773163103503158000,0.589157958984375,-0.28588470816612244,-0.36651885509490967,0.04764745384454727
1773163103512540200,0.5985400390625,-0.2052505612373352,-0.37629270553588867,-0.03909534588456154
1773163103521922600,0.607922607421875,-0.059864748269319534,-0.9370665550231934,0.04764745384454727
1773163103531305000,0.617304931640625,-0.09040798991918564,-1.2913681268692017,0.07452550530433655
1773163103540687400,0.626687255859375,-0.32620179653167725,-1.314581036567688,0.007330377586185932
1773163103550069500,0.636069580078125,-0.6181951761245728,-1.2400555610656738,-0.07819069176912308
1773163103559452000,0.645451904296875,-0.6633991599082947,-1.1606431007385254,-0.09651663154363632
1773163103568834000,0.654833984375,-0.5827649831771851,-1.0238093137741089,-0.1649334877729416
1773163103578216400,0.664216552734375,-0.5229002237319946,-0.9065233469009399,-0.24556763470172882
1773163103587598800,0.673598876953125,-0.5143481492996216,-0.8649845123291016,-0.2919933497905731
1773163103596981000,0.68298095703125,-0.5253437161445618,-0.9199623465538025,-0.287106454372406
1773163103606363400,0.69236328125,-0.48991355299949646,-1.0592395067214966,-0.21502439677715302
1773163103615745800,0.701745849609375,-0.4153880476951599,-1.2925899028778076,-0.0977383628487587
1773163103625128000,0.7111279296875,-0.34208428859710693,-1.6053526401519775,0.03176496922969818
1773163103634510300,0.72051025390625,-0.27488914132118225,-1.9608759880065918,0.15515965223312378
1773163103643892700,0.729892822265625,-0.08552107214927673,-2.3127341270446777,0.2834412455558777
1773163103653275000,0.73927490234375,0.12095122784376144,-2.640157461166382,0.3811796307563782
1773163103662657300,0.7486572265625,0.19914191961288452,-2.956585645675659,0.360410213470459
1773163103672039400,0.758039306640625,0.27000224590301514,-3.2290313243865967,0.26022839546203613
1773163103681421800,0.767421875,0.3799578845500946,-3.2730135917663574,0.12217295914888382
1773163103690804200,0.77680419921875,0.4838049113750458,-3.1557273864746094,-0.040317077189683914
1773163103700186600,0.7861865234375,0.5681042671203613,-2.9724678993225098,-0.19303326308727264
1773163103709568800,0.79556884765625,0.6462949514389038,-2.81119966506958,-0.3066541254520416
1773163103718951200,0.804951171875,0.7244856357574463,-2.718348264694214,-0.3811796307563782
1773163103728333600,0.81433349609375,0.7770199775695801,-2.7696609497070312,-0.3811796307563782
1773163103737715700,0.8237158203125,0.8258891701698303,-2.9602506160736084,-0.2822195291519165
1773163103747098000,0.83309814453125,0.9334014058113098,-3.236361503601074,-0.12217295914888382
1773163103756480500,0.84248046875,1.1264346837997437,-3.5051422119140625,0.04520399495959282
1773163103770553900,0.856553955078125,1.5137228965759277,-3.560119867324829,0.15760311484336853
1773163103779936300,0.865936279296875,1.6810998916625977,-3.414734125137329,0.03787361457943916
1773163103789318400,0.875318359375,1.7702860832214355,-3.2681264877319336,-0.1893680840730667
1773163103798700800,0.88470068359375,1.8081597089767456,-3.1752750873565674,-0.43004879355430603
1773163103808083000,0.8940830078125,1.8264856338500977,-3.1007497310638428,-0.6450732350349426
1773163103817465300,0.90346533203125,1.85092031955719,-3.009119987487793,-0.7525854110717773
1773163103826847700,0.91284765625,1.886350393295288,-2.9932374954223633,-0.6524035930633545
1773163103836230000,0.92222998046875,1.9669846296310425,-3.0494370460510254,-0.43860089778900146
1773163103850303500,0.936303466796875,2.2284348011016846,-2.922377109527588,-0.11239911615848541
1773163103859686000,0.945685791015625,2.4373505115509033,-2.5754058361053467,-0.03176496922969818
1773163103869068000,0.955068115234375,2.49843692779541,-2.20155668258667,-0.20158538222312927
1773163103878450400,0.964450439453125,2.503323793411255,-1.858250617980957,-0.4459312856197357
1773163103887832800,0.973832763671875,2.4581198692321777,-1.6029092073440552,-0.6096430420875549
1773163103897215000,0.983215087890625,2.3799290657043457,-1.3744457960128784,-0.6731730103492737
1773163103906597400,0.992597412109375,2.305403709411621,-1.0971131324768066,-0.730594277381897
1773163103915979500,1.0019794921875,2.2284348011016846,-0.7806851863861084,-0.9908226728439331
1773163103925362000,1.01136181640625,2.095266103744507,-0.4166097939014435,-1.4343105554580688
1773163103934744300,1.020744384765625,1.9315544366836548,0.024434590712189674,-1.8374812602996826
1773163103944126500,1.03012646484375,1.7702860832214355,0.4984656572341919,-2.092822790145874
1773163103953508900,1.0395087890625,1.6615521907806396,0.9089667797088623,-2.1355831623077393
1773163103962891300,1.048891357421875,1.5858049392700195,1.120326042175293,-1.9498803615570068
1773163103972273400,1.0582734375,1.5234967470169067,1.0983349084854126,-1.5796962976455688
1773163103981655800,1.06765576171875,1.4636319875717163,0.8710931539535522,-1.0983349084854126
1773163103991038000,1.077037841796875,1.4269801378250122,0.5045742988586426,-0.5668824911117554
1773163104000420400,1.08642041015625,1.4159845113754272,0.12095122784376144,-0.08552107214927673
1773163104009802800,1.095802734375,1.3927717208862305,-0.08063415437936783,0.21746785938739777
1773163104019185000,1.105184814453125,1.3597849607467651,-0.12095122784376144,0.29077163338661194
1773163104028567300,1.1145673828125,1.334128737449646,0.017104214057326317,0.22235478460788727
1773163104037949700,1.12394970703125,1.313359260559082,0.3176496922969818,0.10384701192378998
1773163104047331800,1.133331787109375,1.2742639780044556,0.5790998339653015,0.01954767294228077
1773163104056714200,1.14271435546875,1.2156208753585815,0.6536253094673157,0.03176496922969818
1773163104066096400,1.152096435546875,1.1655299663543701,0.5057960152626038,0.2003636509180069
1773163104075478800,1.161478759765625,1.1129956245422363,0.09896009415388107,0.48013970255851746
1773163104084861200,1.170861083984375,1.1239912509918213,-0.401949018239975,0.80389803647995
1773163104098934500,1.1849345703125,1.2217295169830322,-0.9236275553703308,1.1875211000442505
1773163104108317000,1.19431689453125,1.3109158277511597,-1.0286962985992432,1.3451242446899414
1773163104117699300,1.20369921875,1.4025455713272095,-1.4001020193099976,1.5772528648376465
1773163104127081500,1.21308154296875,1.4831796884536743,-1.4159845113754272,1.6493349075317383
1773163104136464000,1.2224638671875,1.3646719455718994,-1.1227694749832153,1.508836030960083
1773163104145846000,1.231845947265625,1.2400555610656738,-0.6499601006507874,1.2877029180526733
1773163104155228400,1.241228515625,1.2095122337341309,-0.4874700903892517,1.2620465755462646
1773163104164610800,1.25061083984375,1.284037709236145,-0.6487383842468262,1.4672971963882446
1773163104173993000,1.259992919921875,1.3878847360610962,-1.0115920305252075,1.7739512920379639
1773163104183375400,1.269375244140625,1.5491530895233154,-1.461188554763794,2.1917827129364014
1773163104192757500,1.278757568359375,1.7666209936141968,-1.9022328853607178,2.720791816711426
1773163104202140000,1.288139892578125,1.8460333347320557,-1.9181153774261475,3.1337363719940186
1773163104211522300,1.297522216796875,1.8179335594177246,-1.6762129068374634,3.174053430557251
1773163104220904400,1.306904541015625,1.7825034856796265,-1.4135410785675049,2.9920156002044678
1773163104230286800,1.316286865234375,1.7397428750991821,-1.1801908016204834,2.740339517593384
1773163104239669000,1.3256689453125,1.6493349075317383,-1.110552191734314,2.509432554244995
1773163104249051400,1.335051513671875,1.6029092073440552,-1.1838558912277222,2.4068071842193604
1773163104258433800,1.344433837890625,1.6065744161605835,-1.3866630792617798,2.470337152481079
1773163104267816000,1.35381591796875,1.6481131315231323,-1.7641774415969849,2.6865832805633545
1773163104281889500,1.3678896484375,1.7360776662826538,-2.500880479812622,3.19970965385437
1773163104291271700,1.377271728515625,1.7201951742172241,-2.8185300827026367,3.423286199569702
1773163104300654000,1.386654052734375,1.654221773147583,-2.8564038276672363,3.406182050704956
1773163104310036500,1.396036376953125,1.6334524154663086,-2.6523749828338623,3.1141886711120605
1773163104319418600,1.405418701171875,1.4953969717025757,-2.13191819190979,2.6731443405151367
1773163104328801000,1.414801025390625,1.2095122337341309,-1.4685189723968506,2.2174391746520996
1773163104338183200,1.42418310546875,0.9199623465538025,-0.9786053895950317,1.8277074098587036
1773163104347565600,1.433565673828125,0.8063415288925171,-0.8429933786392212,1.5418226718902588
1773163104356948000,1.442947998046875,0.8210022449493408,-0.9101884961128235,1.3964369297027588
1773163104366330000,1.452330078125,0.9028581380844116,-1.1215476989746094,1.33290696144104
1773163104375712500,1.46171240234375,1.0555742979049683,-1.4391974210739136,1.341459035873413
1773163104385095000,1.471094970703125,1.2058470249176025,-1.841146469116211,1.451414704322815
1773163104394477000,1.48047705078125,1.321911334991455,-2.321286201477051,1.692095398902893
1773163104403859500,1.489859375,1.4306453466415405,-2.863734006881714,2.0598361492156982
1773163104413241600,1.49924169921875,1.5784746408462524,-3.486816167831421,2.4825544357299805
1773163104422624000,1.5086240234375,1.7556253671646118,-4.059807300567627,2.878394842147827
1773163104432006100,1.518006103515625,1.8936808109283447,-4.423882961273193,3.1508405208587646
1773163104441388500,1.527388427734375,2.025627613067627,-4.590037822723389,3.29133939743042
1773163104450771000,1.53677099609375,2.1135921478271484,-4.527729511260986,3.288896083831787
1773163104460153000,1.546153076171875,2.173456907272339,-4.208858489990234,2.9077162742614746
1773163104469535500,1.555535400390625,2.0476186275482178,-2.687804937362671,1.6114612817764282
1773163104478917600,1.564917724609375,1.8558071851730347,-2.400698661804199,1.166751742362976
1773163104497682400,1.583682373046875,1.1911863088607788,-1.255937933921814,0.6499601006507874
1773163104507064600,1.593064697265625,1.2192860841751099,-0.5338957905769348,0.24923282861709595
1773163104516447000,1.602447021484375,1.1496474742889404,0.1795942485332489,-0.06352993845939636
1773163104525829000,1.6118291015625,1.1239912509918213,0.6939423680305481,-0.3897317349910736
1773163104535211500,1.62121142578125,1.148425817489624,1.0030399560928345,-0.5949822664260864
1773163104549284900,1.635284912109375,1.2351685762405396,1.061682939529419,-0.6927206516265869
1773163104558667300,1.644667236328125,1.147204041481018,0.851545512676239,-0.6536253094673157
1773163104568049400,1.65404931640625,0.9822705388069153,0.4214966893196106,-0.6133082509040833
1773163104577431800,1.663431884765625,1.0482439994812012,-0.27000224590301514,-0.6291907429695129
1773163104586814200,1.672814208984375,1.431867003440857,-1.2009601593017578,-0.6707295179367065
1773163104596196400,1.6821962890625,1.8277074098587036,-1.879020094871521,-0.544891357421875
1773163104605578800,1.691578857421875,2.302960157394409,-1.9584324359893799,-0.22235478460788727
1773163104614961200,1.700961181640625,2.8234169483184814,-1.6065744161605835,0.0256563201546669
1773163104624343300,1.71034326171875,3.395186424255371,-1.0030399560928345,0.10873392969369888
1773163104633725700,1.7197255859375,4.012159824371338,-0.46547895669937134,0.05253437161445618
1773163104643107800,1.72910791015625,4.609585762023926,-0.20280711352825165,-0.08429934084415436
1773163104652490200,1.738490234375,5.150811672210693,-0.5106829404830933,-0.18814635276794434
1773163104661872400,1.747872314453125,5.571086883544922,-1.489288330078125,-0.22357651591300964
1773163104671254800,1.7572548828125,5.878962516784668,-2.526536703109741,-0.10384701192378998
1773163104680637200,1.76663720703125,6.009687900543213,-3.4831509590148926,0.15515965223312378
1773163104690019300,1.776019287109375,5.688372611999512,-2.8515167236328125,0.6927206516265869
1773163104699401700,1.785401611328125,4.7012152671813965,-0.8283326625823975,1.3206896781921387
1773163104708783900,1.794783935546875,3.6395323276519775,0.7831286191940308,1.5015056133270264
1773163104718166300,1.804166259765625,2.7476696968078613,1.3109158277511597,1.1557561159133911
1773163104727548400,1.81354833984375,2.145357131958008,1.1655299663543701,0.5057960152626038
1773163104736930800,1.822930908203125,2.1331398487091064,0.8857539296150208,-0.11728604137897491
1773163104746313200,1.832313232421875,2.7415611743927,0.7024945020675659,-0.4105011224746704
1773163104755695400,1.8416953125,3.4269514083862305,0.6133082509040833,-0.3249800503253937
1773163104765077800,1.851077880859375,4.021933555603027,0.49968740344047546,0.008552107028663158
1773163104774460000,1.8604599609375,4.55460786819458,0.4007273018360138,0.2883281707763672
1773163104783842300,1.86984228515625,4.967552185058594,0.37140578031539917,0.5033525824546814
1773163104793224700,1.879224609375,5.297419548034668,0.24312418699264526,0.7623592615127563
1773163104802606800,1.88860693359375,5.3853840827941895,-0.08796452730894089,1.1985167264938354
1773163104811989200,1.8979892578125,5.073843002319336,-0.28954991698265076,1.655443549156189
1773163104821371400,1.907371337890625,4.405556678771973,-0.4838049113750458,2.045175313949585
1773163104830753800,1.91675390625,3.2754569053649902,-1.0543526411056519,2.246760606765747
1773163104840136000,1.926135986328125,1.6090178489685059,-2.0268492698669434,2.0488405227661133
1773163104849518300,1.935518310546875,-0.4630354940891266,-2.839299440383911,1.324354887008667
1773163104858900500,1.944900390625,-2.2846343517303467,-2.626718521118164,0.3433060050010681
1773163104868283000,1.954282958984375,-3.2424702644348145,-1.2009601593017578,-0.3946186602115631
1773163104877665300,1.963665283203125,-3.3072218894958496,0.7904590368270874,-0.6927206516265869
1773163104887047400,1.97304736328125,-2.913825035095215,2.4825544357299805,-0.6169734001159668
1773163104896429800,1.982429931640625,-2.4043638706207275,3.58821964263916,-0.4007273018360138
1773163104905812000,1.99181201171875,-1.935219645500183,4.036594390869141,-0.18814635276794434
1773163104915194400,2.0011943359375,-1.5247185230255127,3.8985390663146973,-0.017104214057326317
1773163104924576500,2.010576416015625,-1.1459823846817017,3.2571310997009277,0.11362084746360779
1773163104933959000,2.019958984375,-0.7929024696350098,2.2699735164642334,0.21991132199764252
1773163104943341300,2.02934130859375,-0.4935787320137024,1.119104266166687,0.31031930446624756
1773163104952723500,2.038723388671875,-0.27000224590301514,0.09040798991918564,0.3738492429256439
1773163104962105900,2.04810595703125,-0.11972949653863907,-0.6206386089324951,0.38728827238082886
1773163104971488000,2.057488037109375,0.012217295356094837,-0.8197805285453796,0.32620179653167725
1773163104980870400,2.066870361328125,0.12461641430854797,-0.564439058303833,0.26878049969673157
1773163104990252500,2.07625244140625,0.11117739230394363,-0.007330377586185932,0.2309068888425827
1773163104999635000,2.085635009765625,-0.001221729558892548,0.5717694163322449,0.20647229254245758
1773163105013708300,2.099708251953125,-0.14172062277793884,0.962722897529602,0.18325942754745483
1773163105023090700,2.109090576171875,-0.13927717506885529,0.9114102721214294,0.19181154668331146
1773163105032472800,2.118472900390625,-0.13683371245861053,0.7574723362922668,0.2162461280822754
1773163105041855200,2.127855224609375,-0.14538581669330597,0.5913171172142029,0.2626718580722809
1773163105051237400,2.1372373046875,-0.14538581669330597,0.46059203147888184,0.3176496922969818
1773163105060619800,2.146619873046875,-0.13683371245861053,0.3860665261745453,0.36163195967674255
1773163105070002000,2.156001953125,-0.13194678723812103,0.3652971386909485,0.3897317349910736
1773163105079384300,2.16538427734375,-0.12461641430854797,0.38728827238082886,0.41416633129119873
1773163105088766700,2.1747666015625,-0.10629047453403473,0.4202749729156494,0.44837474822998047
1773163105098148900,2.18414892578125,-0.09651663154363632,0.4557051360607147,0.4776962697505951
1773163105107531300,2.19353125,-0.09285144507884979,0.4862483739852905,0.4874700903892517
1773163105116913400,2.202913330078125,-0.09040798991918564,0.4789179861545563,0.4630354940891266
1773163105126295800,2.2122958984375,-0.0818558782339096,0.4422661066055298,0.41905322670936584
1773163105135678000,2.221677978515625,-0.06108647957444191,0.4007273018360138,0.3750709891319275
1773163105149751600,2.23575146484375,-0.017104214057326317,0.37262752652168274,0.3274235129356384
1773163105159133700,2.2451337890625,0.013439024798572063,0.3860665261745453,0.2993237376213074
1773163105168516000,2.25451611328125,0.04886918142437935,0.4105011224746704,0.27000224590301514
1773163105177898200,2.263898193359375,0.08918625861406326,0.41416633129119873,0.2419024556875229
1773163105187280600,2.27328076171875,0.1233946830034256,0.38240134716033936,0.21868959069252014
1773163105196662800,2.282662841796875,0.15027274191379547,0.33231043815612793,0.20280711352825165
1773163105210736400,2.296736328125,0.1844811588525772,0.2467893660068512,0.18325942754745483
1773163105220118500,2.306118408203125,0.1905898153781891,0.21868959069252014,0.17837251722812653
1773163105229501000,2.3155009765625,0.17592905461788177,0.2003636509180069,0.19669845700263977
1773163105243574300,2.32957421875,0.11728604137897491,0.14660754799842834,0.2577849328517914
1773163105252956700,2.338956787109375,0.07330377399921417,0.09407317638397217,0.30054548382759094
1773163105267030000,2.353030029296875,0.03787361457943916,-0.001221729558892548,0.3750709891319275
1773163105276412200,2.362412109375,0.01588248461484909,-0.08063415437936783,0.43004879355430603
1773163105285794600,2.371794677734375,-0.01954767294228077,-0.16249002516269684,0.4838049113750458
1773163105295176700,2.3811767578125,-0.06352993845939636,-0.24801109731197357,0.5290089249610901
1773163105309250300,2.395250244140625,-0.11239911615848541,-0.4312705397605896,0.5888736248016357
1773163105318632400,2.404632568359375,-0.1282816082239151,-0.6084213256835938,0.6243038177490234
1773163105328014800,2.414014892578125,-0.12583814561367035,-0.7428115606307983,0.6633991599082947
1773163105337397000,2.42339697265625,-0.1539379209280014,-0.740368127822876,0.7024945020675659
1773163105351470600,2.437470703125,-0.2724456787109375,-0.6157516837120056,0.6805033683776855
1773163105360852700,2.446852783203125,-0.33108872175216675,-0.5668824911117554,0.6243038177490234
1773163105370235100,2.456235107421875,-0.3640754222869873,-0.5143481492996216,0.5913171172142029
1773163105379617300,2.4656171875,-0.3689623177051544,-0.4312705397605896,0.5937605500221252
1773163105388999700,2.474999755859375,-0.3640754222869873,-0.3139844834804535,0.6108647584915161
1773163105398381800,2.4843818359375,-0.3555232882499695,-0.17837251722812653,0.6181951761245728
1773163105407764200,2.49376416015625,-0.3689623177051544,-0.09040798991918564,0.6059778332710266
1773163105417146400,2.503146484375,-0.37140578031539917,-0.01588248461484909,0.5497782826423645
1773163105426528800,2.51252880859375,-0.3274235129356384,0.10018182545900345,0.43493571877479553
1773163105435911200,2.5219111328125,-0.25045454502105713,0.22235478460788727,0.3090975880622864
1773163105449984500,2.535984619140625,-0.13194678723812103,0.3017672002315521,0.17348559200763702
1773163105459366700,2.54536669921875,-0.05253437161445618,0.287106454372406,0.09529490768909454
1773163105468749000,2.5547490234375,0.010995565913617611,0.3249800503253937,-0.004886918235570192
1773163105478131200,2.564131103515625,0.034208428114652634,0.41416633129119873,-0.08552107214927673
1773163105487513600,2.573513671875,0.04886918142437935,0.5302306413650513,-0.13072505593299866
1773163105496895700,2.582895751953125,0.06108647957444191,0.647516667842865,-0.15027274191379547
1773163105506278100,2.592278076171875,0.06841685622930527,0.7599157691001892,-0.15638138353824615
1773163105515660300,2.601660400390625,0.07330377399921417,0.8539889454841614,-0.15515965223312378
1773163105525042700,2.611042724609375,0.0818558782339096,0.9114102721214294,-0.14538581669330597
1773163105534424800,2.6204248046875,0.08552107214927673,0.9834923148155212,-0.12461641430854797
1773163105543807200,2.62980712890625,0.08429934084415436,1.0348049402236938,-0.09040798991918564
1773163105557880600,2.643880615234375,0.07819069176912308,1.0201442241668701,-0.028099779039621353
1773163105567263000,2.653262939453125,0.0720820426940918,0.9663881063461304,0.018325943499803543
1773163105576645000,2.66264501953125,0.0769689604640007,0.9211840629577637,0.05497783049941063
1773163105586027500,2.672027587890625,0.09407317638397217,0.9285144805908203,0.06597339361906052
1773163105595409700,2.68140966796875,0.07941242307424545,0.9395100474357605,0.07330377399921417
1773163105604792000,2.6907919921875,0.04886918142437935,0.9676098227500916,0.06841685622930527
1773163105614174200,2.70017431640625,0.036651886999607086,0.9957095980644226,0.05742128938436508
1773163105623556600,2.709556640625,0.04520399495959282,1.0140355825424194,0.04276053607463837
1773163105632938800,2.718938720703125,0.053756099194288254,0.9993748068809509,0.03787361457943916
1773163105642321200,2.728321044921875,0.05497783049941063,0.9688315391540527,0.04520399495959282
1773163105651703300,2.737703369140625,0.07086031138896942,0.8967494964599609,0.05497783049941063
1773163105661085700,2.747085693359375,0.09529490768909454,0.8075632452964783,0.043982263654470444
1773163105670468000,2.756468017578125,0.10995566099882126,0.7574723362922668,0.017104214057326317
1773163105679850200,2.765850341796875,0.10384701192378998,0.7623592615127563,0.002443459117785096
1773163105689232400,2.775232421875,0.06352993845939636,0.9040798544883728,0.023212861269712448
1773163105698614800,2.78461474609375,0.03909534588456154,0.9932661056518555,0.04153880476951599
1773163105707997000,2.793996826171875,0.0513126403093338,0.9517273306846619,0.036651886999607086
1773163105717379300,2.80337939453125,0.02932151034474373,0.9077450633049011,0.046425722539424896
1773163105726761700,2.81276171875,0.014660755172371864,0.9138537049293518,0.08674279600381851
1773163105736144000,2.822143798828125,0.017104214057326317,0.8723149299621582,0.10873392969369888
1773163105745526300,2.8315263671875,0.059864748269319534,0.8344413042068481,0.09651663154363632
1773163105754908400,2.840908447265625,0.06597339361906052,0.8173370957374573,0.08307760953903198
1773163105768981800,2.854981689453125,0.07819069176912308,0.7721330523490906,0.0818558782339096
1773163105778364200,2.8643642578125,0.09407317638397217,0.7611374855041504,0.07819069176912308
1773163105787746300,2.873746337890625,0.0769689604640007,0.7599157691001892,0.06719512492418289
1773163105797128700,2.883128662109375,0.05253437161445618,0.7367029190063477,0.05497783049941063
1773163105806510800,2.8925107421875,0.04764745384454727,0.6927206516265869,0.05253437161445618
1773163105815893200,2.901893310546875,0.056199558079242706,0.6328558921813965,0.056199558079242706
1773163105825275400,2.911275390625,0.0769689604640007,0.5693259835243225,0.04276053607463837
1773163105834657800,2.92065771484375,0.11117739230394363,0.554665207862854,0.018325943499803543
1773163105844040000,2.9300400390625,0.13927717506885529,0.5937605500221252,-0.007330377586185932
1773163105853422300,2.93942236328125,0.16249002516269684,0.6536253094673157,-0.034208428114652634
1773163105862804500,2.948804443359375,0.18692462146282196,0.7147117853164673,-0.06841685622930527
1773163105872187000,2.958186767578125,0.20891575515270233,0.7599157691001892,-0.09896009415388107
1773163105881569300,2.9675693359375,0.2211330533027649,0.7867938280105591,-0.1185077652335167
1773163105890951400,2.976951416015625,0.21868959069252014,0.8051197528839111,-0.13683371245861053
1773163105900333800,2.986333740234375,0.21380266547203064,0.8283326625823975,-0.14172062277793884
1773163105909716000,2.995716064453125,0.20402882993221283,0.8491020202636719,-0.14049890637397766
1773163105919098400,3.005098388671875,0.19914191961288452,0.8442151546478271,-0.14172062277793884
1773163105928480500,3.01448046875,0.16249002516269684,0.8124501705169678,-0.14660754799842834
1773163105937863000,3.02386279296875,0.13194678723812103,0.6633991599082947,-0.1747073233127594
1773163105947245000,3.0332451171875,0.08429934084415436,0.4520399272441864,-0.20647229254245758
1773163105956627500,3.04262744140625,0.014660755172371864,0.22479823231697083,-0.22846342623233795
1773163105966009600,3.052009521484375,-0.07086031138896942,0.0513126403093338,-0.22968515753746033
1773163105975392000,3.06139208984375,-0.18081597983837128,-0.001221729558892548,-0.20402882993221283
1773163105989465300,3.07546533203125,-0.36285367608070374,0.0513126403093338,-0.17226386070251465
1773163105998847500,3.084847412109375,-0.4569268524646759,0.1282816082239151,-0.18081597983837128
1773163106008230000,3.09422998046875,-0.5351175665855408,0.20769402384757996,-0.2406807243824005
1773163106017612000,3.103612060546875,-0.5681042671203613,0.26022839546203613,-0.3445277214050293
1773163106026994400,3.112994384765625,-0.5754346251487732,0.24434591829776764,-0.47036588191986084
1773163106036376800,3.122376953125,-0.5729911923408508,0.15515965223312378,-0.6023126840591431
1773163106045759000,3.131759033203125,-0.574212908744812,0.017104214057326317,-0.7293725609779358
1773163106055141400,3.141141357421875,-0.5937605500221252,-0.14049890637397766,-0.8466585874557495
1773163106069214700,3.155214599609375,-0.6548470258712769,-0.3433060050010681,-1.0262528657913208
1773163106078596900,3.164596923828125,-0.7391464114189148,-0.4068359434604645,-1.1740821599960327
1773163106087979300,3.173979248046875,-0.8539889454841614,-0.41783151030540466,-1.3597849607467651
1773163106097361400,3.183361328125,-0.9944878816604614,-0.3860665261745453,-1.5772528648376465
1773163106106743800,3.192743896484375,-1.1447606086730957,-0.360410213470459,-1.8179335594177246
1773163106116126000,3.2021259765625,-1.286481261253357,-0.360410213470459,-2.0378448963165283
1773163106125508400,3.21150830078125,-1.4159845113754272,-0.3445277214050293,-2.1942262649536133
1773163106134890500,3.220890380859375,-1.518609881401062,-0.27977606654167175,-2.2809691429138184
1773163106144273000,3.23027294921875,-1.5931353569030762,-0.1747073233127594,-2.2895212173461914
1773163106153655000,3.239655029296875,-1.654221773147583,-0.053756099194288254,-2.2235476970672607
1773163106163037400,3.249037353515625,-1.6774346828460693,0.10995566099882126,-2.123365879058838
1773163106172419600,3.258419677734375,-1.6200133562088013,0.4007273018360138,-2.0525057315826416
1773163106181802000,3.267802001953125,-1.4770710468292236,0.7892373204231262,-2.0195188522338867
1773163106191184400,3.277184326171875,-1.2791508436203003,1.2596031427383423,-2.023184061050415
1773163106200566500,3.28656640625,-1.061682939529419,1.7470732927322388,-2.0463969707489014
1773163106209949000,3.295948974609375,-0.8881973624229431,2.101374864578247,-2.0635011196136475
1773163106219331000,3.3053310546875,-0.7794634699821472,2.0830488204956055,-2.0305144786834717
1773163106228713500,3.31471337890625,-0.7037162184715271,1.6676608324050903,-1.9303326606750488
1773163106238095600,3.324095703125,-0.6426297426223755,1.0286962985992432,-1.7568471431732178
1773163106247478000,3.33347802734375,-0.5607738494873047,0.45448338985443115,-1.5650355815887451
1773163106256860200,3.342860107421875,-0.46059203147888184,0.13561198115348816,-1.450192928314209
1773163106266242600,3.35224267578125,-0.43371400237083435,0.03543015569448471,-1.4049890041351318
1773163106275624700,3.361624755859375,-0.43493571877479553,0.15638138353824615,-1.4074324369430542
1773163106289698300,3.3756982421875,-0.4874700903892517,0.5619956254959106,-1.433088779449463
1773163106299080400,3.38508056640625,-0.5681042671203613,0.813671886920929,-1.4538581371307373
1773163106308462800,3.394462890625,-0.6621774435043335,0.8808670043945312,-1.4550799131393433
1773163106317845000,3.403844970703125,-0.6878337264060974,0.7452550530433655,-1.4257583618164062
1773163106327227400,3.413227294921875,-0.6316341757774353,0.5082395076751709,-1.3646719455718994
1773163106336609500,3.422609619140625,-0.5192350745201111,0.2809978127479553,-1.2803726196289062
1773163106345992000,3.431991943359375,-0.4007273018360138,0.08796452730894089,-1.1887428760528564
1773163106355374000,3.4413740234375,-0.3176496922969818,-0.06719512492418289,-1.109330415725708
1773163106364756500,3.450756591796875,-0.2712239623069763,-0.16126830875873566,-1.0592395067214966
1773163106374138600,3.460138671875,-0.24434591829776764,-0.22479823231697083,-1.033583164215088
1773163106383521000,3.46952099609375,-0.22357651591300964,-0.26511532068252563,-1.0225876569747925
1773163106392903200,3.478903076171875,-0.1588248461484909,-0.20647229254245758,-1.0274745225906372
1773163106402285600,3.48828564453125,-0.08918625861406326,-0.18692462146282196,-0.9541707634925842
1773163106411667700,3.497667724609375,-0.012217295356094837,-0.1893680840730667,-0.8393282294273376
1773163106421050000,3.507050048828125,0.08674279600381851,-0.1441640853881836,-0.748920202255249
1773163106430432500,3.5164326171875,0.19669845700263977,-0.05253437161445618,-0.7037162184715271
1773163106439814700,3.525814697265625,0.3042106628417969,0.04764745384454727,-0.6939423680305481
1773163106449196800,3.53519677734375,0.41783151030540466,0.11117739230394363,-0.6829468011856079
1773163106458579200,3.5445791015625,0.5412262082099915,0.08674279600381851,-0.6340776681900024
1773163106467961600,3.553961669921875,0.665842592716217,-0.030543239787220955,-0.5338957905769348
1773163106477343700,3.56334375,0.8063415288925171,-0.20402882993221283,-0.42394015192985535
1773163106486726100,3.57272607421875,0.9309579133987427,-0.3787361681461334,-0.328645259141922
1773163106496108300,3.5821083984375,1.0140355825424194,-0.4972439408302307,-0.2419024556875229
1773163106505490700,3.59149072265625,1.062904715538025,-0.5778780579566956,-0.1649334877729416
1773163106514872800,3.600872802734375,1.0934479236602783,-0.5913171172142029,-0.10629047453403473
1773163106524255200,3.610255126953125,1.0958913564682007,-0.5852084755897522,-0.07941242307424545
1773163106533637400,3.619637451171875,1.0885610580444336,-0.5204567909240723,-0.11239911615848541
1773163106543019800,3.629019775390625,1.061682939529419,-0.4508182108402252,-0.1954767256975174
1773163106552402000,3.63840185546875,1.0054833889007568,-0.4056142270565033,-0.3090975880622864
1773163106561784300,3.647784423828125,0.924849271774292,-0.44959646463394165,-0.4276053309440613
1773163106571166700,3.657166748046875,0.8210022449493408,-0.5815432667732239,-0.5070177912712097
1773163106580548900,3.666548828125,0.7550288438796997,-0.711046576499939,-0.536339282989502
1773163106589931300,3.67593115234375,0.7037162184715271,-0.7391464114189148,-0.516791582107544
1773163106599313400,3.6853134765625,0.6768381595611572,-0.6866120100021362,-0.44837474822998047
1773163106608695800,3.69469580078125,0.657290518283844,-0.554665207862854,-0.3347539007663727
1773163106618078000,3.704077880859375,0.5986474752426147,-0.46914416551589966,-0.18814635276794434
1773163106627460400,3.71346044921875,0.5119046568870544,-0.4557051360607147,-0.04276053607463837
1773163106636842500,3.722842529296875,0.44470956921577454,-0.45937031507492065,0.08918625861406326
1773163106646225000,3.732224853515625,0.3970620930194855,-0.4410443603992462,0.19669845700263977
1773163106655607000,3.74160693359375,0.35796675086021423,-0.37629270553588867,0.27366742491722107
1773163106664989400,3.750989501953125,0.3347539007663727,-0.25900667905807495,0.328645259141922
1773163106679062800,3.765062744140625,0.29565855860710144,-0.020769402384757996,0.39217519760131836
1773163106688445200,3.774445068359375,0.23823726177215576,0.15515965223312378,0.4373791813850403
1773163106697827300,3.783827392578125,0.18814635276794434,0.35185810923576355,0.4569268524646759
1773163106707209700,3.793209716796875,0.13439024984836578,0.5876519083976746,0.4361574649810791
1773163106716591900,3.802591796875,0.07086031138896942,0.7843503952026367,0.38850998878479004
1773163106725974300,3.811974365234375,0.04276053607463837,0.8930842876434326,0.2919933497905731
1773163106740047600,3.826047607421875,0.1026252806186676,0.8955277800559998,0.03298669680953026
1773163106749430000,3.835429931640625,0.1233946830034256,0.7880155444145203,-0.1637117564678192
1773163106758812400,3.8448125,0.13072505593299866,0.7709113359451294,-0.3384190797805786
1773163106768194600,3.854194580078125,0.09651663154363632,0.962722897529602,-0.45448338985443115
1773163106777576700,3.86357666015625,-0.07941242307424545,1.3573415279388428,-0.43004879355430603
1773163106786959000,3.872958984375,-0.2834412455558777,2.0329580307006836,-0.1905898153781891
1773163106796341500,3.882341552734375,-0.32009315490722656,2.355494499206543,0.2052505612373352
1773163106805723600,3.8917236328125,-0.06597339361906052,2.3787074089050293,0.4043924808502197
1773163106815106000,3.90110595703125,0.23457208275794983,2.1612396240234375,0.4068359434604645
1773163106829179400,3.915179443359375,0.4728093445301056,1.4282019138336182,0.49480047821998596
1773163106838561800,3.924561767578125,0.6157516837120056,0.915075421333313,0.647516667842865
1773163106847944000,3.93394384765625,0.794124186038971,0.6206386089324951,0.7770199775695801
1773163106857326300,3.943326416015625,0.952949047088623,0.5375609993934631,0.8674280047416687
1773163106866708500,3.95270849609375,1.033583164215088,0.564439058303833,0.9419534802436829
1773163106876091000,3.9620908203125,0.998153030872345,0.6255255341529846,1.0054833889007568
1773163106885473000,3.97147314453125,0.8869756460189819,0.7220421433448792,1.0519092082977295
1773163106894855400,3.98085546875,0.7464767694473267,0.8723149299621582,1.072678565979004
1773163106904237800,3.99023779296875,0.6071996092796326,1.0836740732192993,1.0567960739135742
1773163106913620000,3.999619873046875,0.4728093445301056,1.2986985445022583,1.0445787906646729
1773163106923002400,4.00900244140625,0.37629270553588867,1.442862629890442,1.0519092082977295
1773163106932384500,4.018384521484375,0.3225366175174713,1.461188554763794,1.0702351331710815
1773163106941767000,4.027766845703125,0.2968802750110626,1.313359260559082,1.100778341293335
1773163106951149000,4.037149169921875,0.3029889166355133,1.0323615074157715,1.12765634059906
1773163106960531500,4.046531494140625,0.3078758418560028,0.685390293598175,1.1447606086730957
1773163106969913900,4.055913818359375,0.3017672002315521,0.4263836145401001,1.1154390573501587
1773163106979296000,4.0652958984375,0.25900667905807495,0.34086254239082336,1.0372483730316162
1773163106988678400,4.074678466796875,0.2309068888425827,0.39217519760131836,0.9334014058113098
1773163106998060500,4.084060546875,0.21991132199764252,0.4618137776851654,0.8429933786392212
1773163107007443000,4.09344287109375,0.19303326308727264,0.4862483739852905,0.8002328872680664
1773163107016825000,4.1028251953125,0.1490510106086731,0.4618137776851654,0.7965676784515381
1773163107026207500,4.11220751953125,0.09285144507884979,0.41294458508491516,0.8197805285453796
1773163107035590000,4.12158984375,0.03909534588456154,0.3811796307563782,0.84177166223526
1773163107044972000,4.130971923828125,-0.012217295356094837,0.4618137776851654,0.8222240209579468
1773163107054354400,4.1403544921875,-0.04276053607463837,0.6682860851287842,0.7672461867332458
1773163107063736600,4.149736572265625,-0.04520399495959282,0.9395100474357605,0.6927206516265869
1773163107073119000,4.159118896484375,-0.004886918235570192,1.2046253681182861,0.6120865345001221
1773163107082501400,4.16850146484375,0.10751219838857651,1.4294235706329346,0.5583304166793823
1773163107091883500,4.177883544921875,0.2565632164478302,1.5479313135147095,0.564439058303833
1773163107101266000,4.187265869140625,0.37262752652168274,1.5247185230255127,0.5766563415527344
1773163107110648000,4.19664794921875,0.4459312856197357,1.4282019138336182,0.544891357421875
1773163107120030500,4.206030517578125,0.49480047821998596,1.2925899028778076,0.49480047821998596
1773163107129412600,4.21541259765625,0.5338957905769348,1.0861176252365112,0.4520399272441864
1773163107138795000,4.224794921875,0.5717694163322449,0.8344413042068481,0.411722868680954
1773163107148177400,4.234177490234375,0.5888736248016357,0.6108647584915161,0.3995055556297302
1773163107157559600,4.2435595703125,0.5632173418998718,0.5192350745201111,0.43982264399528503
1773163107166942000,4.25294189453125,0.49602219462394714,0.5803215503692627,0.4984656572341919
1773163107176324000,4.262323974609375,0.4324922561645508,0.7232639193534851,0.5290089249610901
1773163107185706500,4.27170654296875,0.39217519760131836,0.8820887207984924,0.5302306413650513
1773163107195088600,4.281088623046875,0.34574946761131287,0.9651663303375244,0.5204567909240723
1773163107204471000,4.290470947265625,0.2932150959968567,0.9419534802436829,0.4935787320137024
1773163107213853400,4.299853515625,0.2712239623069763,0.8442151546478271,0.4581485986709595
1773163107223235600,4.309235595703125,0.277332603931427,0.7244856357574463,0.44470956921577454
1773163107232618000,4.318617919921875,0.2981020212173462,0.6169734001159668,0.4630354940891266
1773163107242000400,4.32800048828125,0.3274235129356384,0.5583304166793823,0.5057960152626038
1773163107251382500,4.337382568359375,0.3543015718460083,0.5607738494873047,0.5571087002754211
1773163107260765000,4.346764892578125,0.37629270553588867,0.6157516837120056,0.5888736248016357
1773163107270147000,4.35614697265625,0.39339691400527954,0.7073814272880554,0.5913171172142029
1773163107279529500,4.365529541015625,0.401949018239975,0.8185588121414185,0.5619956254959106
1773163107288911600,4.37491162109375,0.40317076444625854,0.9211840629577637,0.4984656572341919
1773163107298294000,4.3842939453125,0.3970620930194855,0.9920443892478943,0.4166097939014435
1773163107307676400,4.393676513671875,0.3750709891319275,1.043357014656067,0.3335321843624115
1773163107317058600,4.40305859375,0.360410213470459,1.1056652069091797,0.23457208275794983
1773163107326441000,4.41244091796875,0.3445277214050293,1.1239912509918213,0.11239911615848541
1773163107335823000,4.421822998046875,0.3139844834804535,1.0836740732192993,0.009773836471140385
1773163107345205500,4.43120556640625,0.28954991698265076,0.9908226728439331,-0.0720820426940918
1773163107354588000,4.440587890625,0.27366742491722107,0.8796452879905701,-0.1380554437637329
1773163107363970000,4.449969970703125,0.2565632164478302,0.7806851863861084,-0.18081597983837128
1773163107373352400,4.4593525390625,0.24312418699264526,0.6878337264060974,-0.21380266547203064
1773163107382734600,4.468734619140625,0.22479823231697083,0.6206386089324951,-0.22846342623233795
1773163107392117000,4.478116943359375,0.19425499439239502,0.5681042671203613,-0.22235478460788727
1773163107401499400,4.48749951171875,0.1637117564678192,0.5326740741729736,-0.2003636509180069
1773163107410881500,4.496881591796875,0.11362084746360779,0.5338957905769348,-0.16126830875873566
1773163107420264000,4.506263916015625,0.07330377399921417,0.4764745235443115,-0.12095122784376144
1773163107429646000,4.51564599609375,0.023212861269712448,0.370184063911438,-0.06841685622930527
1773163107439028500,4.525028564453125,-0.036651886999607086,0.24801109731197357,-0.014660755172371864
1773163107448411000,4.534410888671875,-0.09407317638397217,0.1539379209280014,0.020769402384757996
1773163107457793000,4.54379296875,-0.18570289015769958,0.1588248461484909,0.05253437161445618
1773163107467175400,4.553175537109375,-0.3029889166355133,0.2309068888425827,0.06352993845939636
1773163107476557800,4.562557861328125,-0.39339691400527954,0.287106454372406,0.004886918235570192
1773163107490631200,4.576631103515625,-0.44348782300949097,0.2309068888425827,-0.21135921776294708
1773163107500013300,4.586013427734375,-0.4874700903892517,0.14172062277793884,-0.4105011224746704
1773163107509395700,4.595395751953125,-0.5057960152626038,0.059864748269319534,-0.6450732350349426
1773163107518778000,4.604778076171875,-0.5473348498344421,0.03176496922969818,-0.8808670043945312
1773163107528160300,4.61416015625,-0.6304124593734741,0.010995565913617611,-1.1264346837997437
1773163107537542700,4.623542724609375,-0.7342594861984253,-0.017104214057326317,-1.3829978704452515
1773163107546925000,4.632925048828125,-0.8527672290802002,-0.03298669680953026,-1.6224569082260132
1773163107556307200,4.64230712890625,-0.9822705388069153,-0.0513126403093338,-1.8252639770507812
1773163107565689600,4.651689697265625,-1.1032217741012573,-0.09407317638397217,-1.9999712705612183
1773163107575072000,4.661072021484375,-1.2046253681182861,-0.1588248461484909,-2.1551308631896973
1773163107584454100,4.6704541015625,-1.2791508436203003,-0.2003636509180069,-2.274860382080078
1773163107593836500,4.67983642578125,-1.3292417526245117,-0.1954767256975174,-2.3286166191101074
1773163107603218700,4.68921875,-1.3500111103057861,-0.12583814561367035,-2.3261730670928955
1773163107612601000,4.69860107421875,-1.3487894535064697,-0.013439024798572063,-2.2821907997131348
1773163107621983200,4.707983154296875,-1.303585410118103,0.18814635276794434,-2.221104383468628
1773163107631365600,4.71736572265625,-1.1911863088607788,0.5253437161445618,-2.1612396240234375
1773163107640748000,4.726748046875,-1.0152572393417358,0.9456186890602112,-2.112370491027832
1773163107650130200,4.736130126953125,-0.813671886920929,1.3573415279388428,-2.084270715713501
1773163107659512600,4.7455126953125,-0.6499601006507874,1.616348147392273,-2.084270715713501
1773163107668895000,4.75489501953125,-0.574212908744812,1.535714030265808,-2.0182971954345703
1773163107678277000,4.764277099609375,-0.5962040424346924,1.2217295169830322,-1.905898094177246
1773163107687659500,4.773659423828125,-0.6438514590263367,0.8478803038597107,-1.7861685752868652
1773163107697042000,4.7830419921875,-0.6707295179367065,0.46914416551589966,-1.64566969871521
1773163107706424000,4.792424072265625,-0.6548470258712769,0.1490510106086731,-1.4782928228378296
1773163107715806500,4.801806396484375,-0.6218603253364563,0.01954767294228077,-1.255937933921814
1773163107725188900,4.81118896484375,-0.5717694163322449,0.15271618962287903,-1.0103703737258911
1773163107734571000,4.820571044921875,-0.5314523577690125,0.43982264399528503,-0.7550288438796997
1773163107743953400,4.829953369140625,-0.5534434914588928,0.7122683525085449,-0.5241219997406006
1773163107753335600,4.83933544921875,-0.6316341757774353,0.8381064534187317,-0.35185810923576355
1773163107762718000,4.848718017578125,-0.7232639193534851,0.794124186038971,-0.24923282861709595
1773163107772100400,4.858100341796875,-0.8063415288925171,0.6389645338058472,-0.19303326308727264
1773163107781482500,4.867482421875,-0.8527672290802002,0.44470956921577454,-0.15515965223312378
1773163107790865000,4.876864990234375,-0.8674280047416687,0.20280711352825165,-0.0818558782339096
1773163107800247300,4.886247314453125,-0.8698714375495911,-0.04886918142437935,0.04153880476951599
1773163107809629400,4.89562939453125,-0.8552106618881226,-0.27855435013771057,0.19669845700263977
1773163107819011800,4.90501171875,-0.8381064534187317,-0.47525280714035034,0.3494146466255188
1773163107828394200,4.914394287109375,-0.8393282294273376,-0.6597339510917664,0.4886918365955353
1773163107837776400,4.9237763671875,-0.8393282294273376,-0.8576541543006897,0.6194168925285339
1773163107847158800,4.93315869140625,-0.7892373204231262,-1.0592395067214966,0.7367029190063477
1773163107856541000,4.942541015625,-0.7037162184715271,-1.2681553363800049,0.8454368710517883
1773163107865923300,4.95192333984375,-0.6096430420875549,-1.489288330078125,0.9370665550231934
1773163107875305700,4.9613056640625,-0.49968740344047546,-1.6407828330993652,1.0115920305252075
1773163107884688000,4.97068798828125,-0.370184063911438,-1.6481131315231323,1.0690133571624756
1773163107894070300,4.9800703125,-0.24434591829776764,-1.5234967470169067,1.1142174005508423
1773163107903452700,4.98945263671875,-0.14538581669330597,-1.313359260559082,1.1618647575378418
1773163107912834800,4.998834716796875,-0.09040798991918564,-1.0592395067214966,1.1924080848693848
1773163107922217200,5.00821728515625,-0.04764745384454727,-0.8454368710517883,1.2070688009262085
1773163107931599600,5.017599609375,0.013439024798572063,-0.7024945020675659,1.1875211000442505
1773163107940981800,5.026981689453125,0.09285144507884979,-0.6194168925285339,1.1227694749832153
1773163107950364200,5.0363642578125,0.1747073233127594,-0.5424479246139526,0.9993748068809509
1773163107959746600,5.04574658203125,0.22968515753746033,-0.471587598323822,0.8393282294273376
1773163107969128700,5.055128662109375,0.24923282861709595,-0.4508182108402252,0.665842592716217
1773163107978511000,5.064510986328125,0.24312418699264526,-0.49113526940345764,0.471587598323822
1773163107987893500,5.0738935546875,0.2211330533027649,-0.5290089249610901,0.2467893660068512
1773163107997275600,5.083275634765625,0.20280711352825165,-0.4825831651687622,0
1773163108006658000,5.092657958984375,0.12705987691879272,-0.39828383922576904,-0.2162461280822754
1773163108016040200,5.102040283203125,0.026878049597144127,-0.2968802750110626,-0.3811796307563782
1773163108025422600,5.111422607421875,-0.07330377399921417,-0.23335035145282745,-0.49968740344047546
1773163108034805000,5.120804931640625,-0.14172062277793884,-0.22357651591300964,-0.5827649831771851
1773163108044187100,5.130187255859375,-0.16615521907806396,-0.2419024556875229,-0.6230821013450623
1773163108053569500,5.139569580078125,-0.1795942485332489,-0.3347539007663727,-0.6169734001159668
1773163108062952000,5.148951904296875,-0.19303326308727264,-0.4630354940891266,-0.5766563415527344
1773163108072334300,5.158334228515625,-0.19669845700263977,-0.5485565662384033,-0.516791582107544
1773163108081716500,5.167716552734375,-0.20402882993221283,-0.5595521330833435,-0.4581485986709595
1773163108091099000,5.177098876953125,-0.19181154668331146,-0.5131264328956604,-0.41905322670936584
1773163108100481000,5.18648095703125,-0.16249002516269684,-0.4166097939014435,-0.39339691400527954
1773163108109863400,5.195863525390625,-0.13683371245861053,-0.29443681240081787,-0.34697118401527405
1773163108119245800,5.205245849609375,-0.0977383628487587,-0.15515965223312378,-0.25534147024154663
1773163108128628000,5.2146279296875,-0.06108647957444191,-0.023212861269712448,-0.09407317638397217
1773163108138010400,5.22401025390625,-0.036651886999607086,0.053756099194288254,0.15149445831775665
1773163108147392800,5.233392822265625,-0.06352993845939636,0.08552107214927673,0.4166097939014435
1773163108156775200,5.242775146484375,-0.09896009415388107,0.03787361457943916,0.6438514590263367
1773163108166157300,5.2521572265625,-0.0818558782339096,0.012217295356094837,0.8356630206108093
1773163108180231000,5.26623095703125,-0.1844811588525772,0.17226386070251465,1.0115920305252075
1773163108189613000,5.275613037109375,-0.2516762912273407,0.29077163338661194,1.0103703737258911
1773163108198995500,5.284995361328125,-0.20769402384757996,0.4373791813850403,0.8906408548355103
1773163108208377900,5.2943779296875,-0.10384701192378998,0.5668824911117554,0.6902772188186646
1773163108217760000,5.303760009765625,0,0.6365211009979248,0.5033525824546814
1773163108227142400,5.313142333984375,0.12217295914888382,0.6780598759651184,0.41416633129119873
1773163108236524800,5.32252490234375,0.28588470816612244,0.6401863098144531,0.46059203147888184
1773163108245907000,5.331906982421875,0.45326167345046997,0.43860089778900146,0.6071996092796326
1773163108255289300,5.341289306640625,0.5815432667732239,0.1490510106086731,0.7635809779167175
1773163108264671700,5.350671630859375,0.6902772188186646,-0.0818558782339096,0.8845322132110596
1773163108274054000,5.360053955078125,0.8100066781044006,-0.15149445831775665,0.9602794051170349
1773163108283436300,5.369436279296875,0.9285144805908203,-0.03298669680953026,0.9615011811256409
1773163108292818700,5.378818603515625,1.0115920305252075,0.1698204129934311,0.8539889454841614
1773163108302200800,5.388200927734375,1.0470222234725952,0.36774060130119324,0.6536253094673157
1773163108311583200,5.397583251953125,1.0458004474639893,0.4825831651687622,0.45326167345046997
1773163108320965600,5.406965576171875,1.0067051649093628,0.471587598323822,0.36285367608070374
1773163108330348000,5.41634814453125,0.9065233469009399,0.42394015192985535,0.40927940607070923
1773163108339730200,5.425730224609375,0.8002328872680664,0.4043924808502197,0.5302306413650513
1773163108349112600,5.435112548828125,0.7134900689125061,0.4581485986709595,0.6682860851287842
1773163108358494700,5.44449462890625,0.6218603253364563,0.5510000586509705,0.8051197528839111
1773163108367877000,5.453877197265625,0.5033525824546814,0.6047561168670654,0.8979712128639221
1773163108377259500,5.463259521484375,0.36774060130119324,0.6194168925285339,0.9101884961128235
1773163108386642000,5.472641845703125,0.21135921776294708,0.6267472505569458,0.8552106618881226
1773163108396024000,5.482024169921875,0.06352993845939636,0.6145299673080444,0.7965676784515381
1773163108405406500,5.491406494140625,-0.030543239787220955,0.6035344004631042,0.7831286191940308
1773163108414788900,5.500788818359375,-0.06475166976451874,0.5925388336181641,0.8063415288925171
1773163108424171000,5.5101708984375,-0.05497783049941063,0.6084213256835938,0.8429933786392212
1773163108433553400,5.519553466796875,-0.012217295356094837,0.6450732350349426,0.8759800791740417
1773163108442935800,5.528935791015625,0.034208428114652634,0.6646208763122559,0.8820887207984924
1773163108452318000,5.53831787109375,0.07574722915887833,0.6866120100021362,0.8649845123291016
1773163108461700400,5.547700439453125,0.15760311484336853,0.7379246354103088,0.8100066781044006
1773163108471082800,5.557082763671875,0.2675587832927704,0.7757982611656189,0.7342594861984253
1773163108480465200,5.566465087890625,0.3970620930194855,0.7892373204231262,0.6328558921813965
1773163108489847300,5.575847412109375,0.5229002237319946,0.7611374855041504,0.5241219997406006
1773163108499229700,5.585229736328125,0.6010909676551819,0.7061597108840942,0.43371400237083435
1773163108508612000,5.594612060546875,0.6352993845939636,0.6780598759651184,0.36774060130119324
1773163108517994200,5.603994140625,0.6389645338058472,0.7159335017204285,0.33108872175216675
1773163108527376600,5.613376708984375,0.6352993845939636,0.8026763200759888,0.32131487131118774
1773163108536759000,5.622759033203125,0.6304124593734741,0.9126319885253906,0.3396408259868622
1773163108546141200,5.63214111328125,0.6035344004631042,1.0445787906646729,0.3652971386909485
1773163108555523600,5.641523681640625,0.5510000586509705,1.1814124584197998,0.3787361681461334
1773163108564906000,5.650906005859375,0.5082395076751709,1.2620465755462646,0.37751442193984985
1773163108578979300,5.664979248046875,0.4276053309440613,1.2596031427383423,0.3689623177051544
1773163108588361700,5.67436181640625,0.3970620930194855,1.2058470249176025,0.3640754222869873
1773163108597744000,5.683744140625,0.3897317349910736,1.1850776672363281,0.3433060050010681
1773163108607126500,5.69312646484375,0.40805765986442566,1.2070688009262085,0.2968802750110626
1773163108616508700,5.7025087890625,0.4312705397605896,1.2351685762405396,0.23335035145282745
1773163108625891000,5.71189111328125,0.4569268524646759,1.237612009048462,0.17837251722812653
1773163108635273500,5.7212734375,0.4776962697505951,1.2119556665420532,0.12461641430854797
1773163108649346800,5.735346923828125,0.5082395076751709,1.1789690256118774,0.06597339361906052
1773163108658729200,5.744729248046875,0.5338957905769348,1.1789690256118774,0.01954767294228077
1773163108668111600,5.754111572265625,0.5424479246139526,1.1850776672363281,-0.028099779039621353
1773163108677494000,5.763493896484375,0.5241219997406006,1.1728603839874268,-0.06841685622930527
1773163108686876200,5.772876220703125,0.48991355299949646,1.1154390573501587,-0.09285144507884979
1773163108696258600,5.782258544921875,0.4508182108402252,1.0213658809661865,-0.09040798991918564
1773163108705641000,5.791640869140625,0.4007273018360138,0.9004147052764893,-0.06108647957444191
1773163108715023000,5.801023193359375,0.34086254239082336,0.8185588121414185,-0.007330377586185932
1773163108724405500,5.810405517578125,0.28466299176216125,0.7757982611656189,0.046425722539424896
1773163108733788000,5.819787841796875,0.24312418699264526,0.7538071274757385,0.08429934084415436
1773163108743170000,5.829170166015625,0.21868959069252014,0.7342594861984253,0.09162971377372742
1773163108752552400,5.838552490234375,0.21502439677715302,0.6829468011856079,0.0720820426940918
1773163108761934800,5.847934814453125,0.22846342623233795,0.6010909676551819,0.03909534588456154
1773163108771317200,5.857317138671875,0.26022839546203613,0.526565432548523,0.004886918235570192
1773163108780699400,5.866699462890625,0.29443681240081787,0.49113526940345764,-0.03298669680953026
1773163108790081800,5.876081787109375,0.328645259141922,0.4740310609340668,-0.06841685622930527
1773163108799464200,5.885464111328125,0.3445277214050293,0.44470956921577454,-0.08674279600381851
1773163108808846300,5.894846435546875,0.33597561717033386,0.40805765986442566,-0.10018182545900345
1773163108818228700,5.904228759765625,0.3066541254520416,0.35796675086021423,-0.1185077652335167
1773163108827611100,5.913611083984375,0.2577849328517914,0.2919933497905731,-0.14660754799842834
1773163108836993500,5.92299365234375,0.17592905461788177,0.25411975383758545,-0.1795942485332489
1773163108846375700,5.932375732421875,0.06597339361906052,0.22846342623233795,-0.2162461280822754
1773163108855758000,5.941758056640625,-0.008552107028663158,0.0769689604640007,-0.2809978127479553
1773163108865140500,5.951140380859375,-0.11117739230394363,-0.046425722539424896,-0.3494146466255188
1773163108874523000,5.96052294921875,-0.23335035145282745,-0.0977383628487587,-0.42882707715034485
1773163108883905000,5.969905029296875,-0.34697118401527405,-0.11728604137897491,-0.5314523577690125
1773163108893287400,5.979287353515625,-0.43982264399528503,-0.1539379209280014,-0.6707295179367065
1773163108902669800,5.988669921875,-0.5204567909240723,-0.23335035145282745,-0.8307760953903198
1773163108912052200,5.99805224609375,-0.5986474752426147,-0.3384190797805786,-1.0030399560928345
1773163108921434400,6.007434326171875,-0.6719512343406677,-0.4459312856197357,-1.1838558912277222
1773163108930816800,6.016816650390625,-0.7391464114189148,-0.5534434914588928,-1.3817760944366455
1773163108940199200,6.02619921875,-0.8075632452964783,-0.6511818766593933,-1.5992439985275269
1773163108949581600,6.03558154296875,-0.8772017955780029,-0.7415898442268372,-1.8252639770507812
1773163108958963700,6.044963623046875,-0.952949047088623,-0.8283326625823975,-2.031736373901367
1773163108968346000,6.05434619140625,-1.033583164215088,-0.9004147052764893,-2.1746785640716553
1773163108977728500,6.063728515625,-1.1239912509918213,-0.9859357476234436,-2.229656457901001
1773163108987110700,6.073110595703125,-1.2156208753585815,-1.0396918058395386,-2.196669816970825
1773163108996493000,6.0824931640625,-1.313359260559082,-0.998153030872345,-2.095266103744507
1773163109005875500,6.09187548828125,-1.3475676774978638,-0.8576541543006897,-1.9767584800720215
1773163109015257900,6.1012578125,-1.276707410812378,-0.5485565662384033,-1.9181153774261475
1773163109024640000,6.110639892578125,-1.166751742362976,-0.03787361457943916,-1.9401065111160278
1773163109034022400,6.1200224609375,-1.0665699243545532,0.6401863098144531,-2.025627613067627
1773163109043404800,6.12940478515625,-1.0067051649093628,1.4746276140213013,-2.160017967224121
1773163109052787200,6.138787109375,-0.9896009564399719,2.1954479217529297,-2.2540910243988037
1773163109062169300,6.14816943359375,-0.9969313144683838,2.4972152709960938,-2.2308781147003174
1773163109071551700,6.1575517578125,-1.0201442241668701,2.400698661804199,-2.1245877742767334
1773163109080934100,6.16693408203125,-1.033583164215088,2.067166328430176,-1.9987496137619019
1773163109090316500,6.176316650390625,-1.0274745225906372,1.693317174911499,-1.8851287364959717
1773163109099698700,6.18569873046875,-0.9859357476234436,1.4098758697509766,-1.7861685752868652
1773163109109081000,6.1950810546875,-0.9040798544883728,1.2620465755462646,-1.6688826084136963
1773163109118463500,6.20446337890625,-0.7929024696350098,1.1447606086730957,-1.5149446725845337
1773163109127846000,6.213845947265625,-0.675616443157196,1.0213658809661865,-1.303585410118103
1773163109137228000,6.22322802734375,-0.5888736248016357,0.9382883310317993,-1.0958913564682007
1773163109146610400,6.2326103515625,-0.5338957905769348,0.8772017955780029,-0.9236275553703308
1773163109155992800,6.241992919921875,-0.5070177912712097,0.8002328872680664,-0.8075632452964783
1773163109165375000,6.251375,-0.5082395076751709,0.7195987105369568,-0.7452550530433655
1773163109174757400,6.26075732421875,-0.5106829404830933,0.6438514590263367,-0.6890554428100586
1773163109184139800,6.270139892578125,-0.4764745235443115,0.516791582107544,-0.6047561168670654
1773163109193522200,6.279522216796875,-0.4056142270565033,0.34574946761131287,-0.4935787320137024
1773163109202904300,6.288904296875,-0.32131487131118774,0.15760311484336853,-0.3738492429256439
1773163109212286700,6.29828662109375,-0.24923282861709595,-0.021991131827235222,-0.2626718580722809
1773163109221669000,6.307669189453125,-0.17226386070251465,-0.19425499439239502,-0.1747073233127594
1773163109231051500,6.317051513671875,-0.0977383628487587,-0.318871408700943,-0.10751219838857651
1773163109240434000,6.326433837890625,-0.01954767294228077,-0.39217519760131836,-0.03543015569448471
1773163109249816000,6.335816162109375,0.07086031138896942,-0.4410443603992462,0.059864748269319534
1773163109259198500,6.345198486328125,0.17715078592300415,-0.4764745235443115,0.1698204129934311
1773163109268580900,6.354580810546875,0.2834412455558777,-0.5094612240791321,0.2822195291519165
1773163109277963300,6.36396337890625,0.3860665261745453,-0.5302306413650513,0.38850998878479004
1773163109287345400,6.373345458984375,0.4838049113750458,-0.5277871489524841,0.4838049113750458
1773163109296727800,6.382727783203125,0.5717694163322449,-0.5082395076751709,0.5754346251487732
1773163109306110200,6.392110107421875,0.6438514590263367,-0.5094612240791321,0.6524035930633545
1773163109315492600,6.40149267578125,0.6902772188186646,-0.5913171172142029,0.7061597108840942
1773163109329566000,6.41556591796875,0.6939423680305481,-0.80389803647995,0.7611374855041504
1773163109338948400,6.4249482421875,0.6780598759651184,-0.84177166223526,0.7550288438796997
1773163109348330800,6.434330810546875,0.6414080262184143,-0.7281508445739746,0.7024945020675659
1773163109357713000,6.443712890625,0.6096430420875549,-0.5314523577690125,0.6524035930633545
1773163109367095300,6.45309521484375,0.5558869242668152,-0.3274235129356384,0.6108647584915161
1773163109376477700,6.462477783203125,0.43860089778900146,-0.12095122784376144,0.5070177912712097
1773163109385860000,6.471860107421875,0.29077163338661194,0.1649334877729416,0.2932150959968567
1773163109399933400,6.485933349609375,-0.03787361457943916,0.7073814272880554,-0.1185077652335167
1773163109414007000,6.500007080078125,-0.40805765986442566,1.3463460206985474,-0.44470956921577454
1773163109423389400,6.509389404296875,-0.536339282989502,1.5039490461349487,-0.5229002237319946
1773163109432771800,6.518771728515625,-0.49602219462394714,1.2400555610656738,-0.4935787320137024
1773163109442154000,6.528154052734375,-0.48013970255851746,0.7086031436920166,-0.44959646463394165
1773163109451536400,6.537536376953125,-0.471587598323822,0.318871408700943,-0.4153880476951599
1773163109460918800,6.546918701171875,-0.42394015192985535,0.07819069176912308,-0.3738492429256439
1773163109470301200,6.55630126953125,-0.360410213470459,-0.07574722915887833,-0.3127627670764923
1773163109479683300,6.565683349609375,-0.29565855860710144,-0.17104214429855347,-0.19425499439239502
1773163109489065700,6.575065673828125,-0.235793799161911,-0.19303326308727264,0.007330377586185932
1773163109498448100,6.5844482421875,-0.1649334877729416,-0.2052505612373352,0.2981020212173462
1773163109507830500,6.59383056640625,-0.07941242307424545,-0.19669845700263977,0.6194168925285339
1773163109517212700,6.603212646484375,-0.020769402384757996,-0.021991131827235222,0.8735366463661194
1773163109526595000,6.612594970703125,-0.010995565913617611,0.3652971386909485,0.9883792400360107
1773163109535977500,6.6219775390625,0.017104214057326317,0.8393282294273376,0.9395100474357605
1773163109550051000,6.636051025390625,0.10751219838857651,1.3170244693756104,0.5595521330833435
1773163109559433200,6.64543310546875,0.19914191961288452,1.3096940517425537,0.21868959069252014
1773163109568815600,6.654815673828125,0.3530798554420471,1.166751742362976,0.06108647957444191
1773163109578198000,6.664197998046875,0.6035344004631042,0.9737184643745422,0.20280711352825165
1773163109587580400,6.673580322265625,0.8674280047416687,0.778241753578186,0.471587598323822
1773163109596962600,6.682962646484375,1.0470222234725952,0.6927206516265869,0.6450732350349426
1773163109606345000,6.692344970703125,1.147204041481018,0.695164144039154,0.6731730103492737
1773163109615727400,6.701727294921875,1.2009601593017578,0.6878337264060974,0.5693259835243225
1773163109625109800,6.71110986328125,1.1801908016204834,0.6414080262184143,0.370184063911438
1773163109639183000,6.72518310546875,1.0311397314071655,0.6035344004631042,0.09896009415388107
1773163109648565500,6.7345654296875,0.9028581380844116,0.6878337264060974,0.023212861269712448
1773163109657948000,6.743947998046875,0.7733548283576965,0.8698714375495911,0.04153880476951599
1773163109667330300,6.753330322265625,0.6414080262184143,1.1325433254241943,0.13072505593299866
1773163109676712400,6.76271240234375,0.49602219462394714,1.3487894535064697,0.27366742491722107
1773163109686094800,6.7720947265625,0.3689623177051544,1.4685189723968506,0.4312705397605896
1773163109695477200,6.781477294921875,0.22479823231697083,1.4917317628860474,0.5558869242668152
1773163109704859600,6.790859619140625,0.05864302068948746,1.4782928228378296,0.6059778332710266
1773163109714242000,6.800241943359375,-0.07819069176912308,1.479514479637146,0.5864301919937134
1773163109723624200,6.809624267578125,-0.15638138353824615,1.4587451219558716,0.546113133430481
1773163109733006600,6.819006591796875,-0.1905898153781891,1.4098758697509766,0.5253437161445618
1773163109742389000,6.828388916015625,-0.18081597983837128,1.3170244693756104,0.5375609993934631
1773163109751771400,6.837771484375,-0.1490510106086731,1.227838158607483,0.5558869242668152
1773163109761153500,6.847153564453125,-0.11362084746360779,1.176525592803955,0.5583304166793823
1773163109770536000,6.856535888671875,-0.07086031138896942,1.1435388326644897,0.5485565662384033
1773163109779918300,6.86591845703125,-0.01588248461484909,1.1264346837997437,0.5155698657035828
1773163109789300700,6.87530078125,0.03909534588456154,1.1081087589263916,0.4410443603992462
1773163109798683000,6.884682861328125,0.09407317638397217,1.0934479236602783,0.34574946761131287
1773163109808065300,6.894065185546875,0.15638138353824615,1.1117738485336304,0.2675587832927704
1773163109817447700,6.90344775390625,0.22479823231697083,1.1313215494155884,0.235793799161911
1773163109826830000,6.912830078125,0.2761108875274658,1.1166608333587646,0.235793799161911
1773163109836212200,6.922212158203125,0.2883281707763672,1.0848958492279053,0.2309068888425827
1773163109845594600,6.9315947265625,0.3078758418560028,1.0665699243545532,0.21868959069252014
1773163109859668200,6.945668212890625,0.3347539007663727,1.0409135818481445,0.22479823231697083
1773163109869050600,6.955050537109375,0.34697118401527405,1.0543526411056519,0.24312418699264526
1773163109878432800,6.964432861328125,0.35063639283180237,1.130099892616272,0.23335035145282745
1773163109887815200,6.973815185546875,0.34574946761131287,1.2192860841751099,0.2162461280822754
1773163109897197600,6.983197509765625,0.3433060050010681,1.2901464700698853,0.2101374864578247
1773163109906580000,6.992580078125,0.3543015718460083,1.324354887008667,0.2260199636220932
1773163109915962000,7.001962158203125,0.37629270553588867,1.3255765438079834,0.24556763470172882
1773163109925344500,7.011344482421875,0.4043924808502197,1.2999202013015747,0.2614501118659973
1773163109934727000,7.020726806640625,0.4312705397605896,1.3023637533187866,0.26022839546203613
1773163109944109300,7.030109375,0.48502662777900696,1.3597849607467651,0.2211330533027649
1773163109953491700,7.03949169921875,0.5400044918060303,1.4404191970825195,0.16004657745361328
1773163109962873900,7.048873779296875,0.5986474752426147,1.499062180519104,0.10873392969369888
1773163109972256300,7.05825634765625,0.6499601006507874,1.5039490461349487,0.07941242307424545
1773163109981638700,7.067638671875,0.6902772188186646,1.441640853881836,0.07330377399921417
1773163109991021000,7.07702099609375,0.7098248600959778,1.33290696144104,0.08307760953903198
1773163110000403500,7.086403564453125,0.7134900689125061,1.2351685762405396,0.10506874322891235
1773163110009785600,7.09578564453125,0.6927206516265869,1.1972949504852295,0.12095122784376144
1773163110019168000,7.10516796875,0.6487383842468262,1.1948515176773071,0.12461641430854797
1773163110028550400,7.11455029296875,0.5913171172142029,1.1911863088607788,0.1185077652335167
1773163110037932800,7.123932861328125,0.5400044918060303,1.1643083095550537,0.11239911615848541
1773163110047315000,7.13331494140625,0.4935787320137024,1.1753038167953491,0.09162971377372742
1773163110056697300,7.142697265625,0.44348782300949097,1.227838158607483,0.0769689604640007
1773163110066079700,7.152079833984375,0.3640754222869873,1.2400555610656738,0.07574722915887833
1773163110075462100,7.161462158203125,0.28954991698265076,1.1997383832931519,0.05864302068948746
1773163110084844300,7.17084423828125,0.24556763470172882,1.137430191040039,-0.001221729558892548
1773163110094226700,7.180226806640625,0.21991132199764252,1.0690133571624756,-0.08307760953903198
1773163110103609000,7.189609130859375,0.18570289015769958,1.0152572393417358,-0.1649334877729416
1773163110112991500,7.198991455078125,0.12705987691879272,0.9834923148155212,-0.2370155304670334
1773163110122373600,7.20837353515625,0.053756099194288254,0.9541707634925842,-0.30054548382759094
1773163110131756000,7.217756103515625,-0.023212861269712448,0.9468404054641724,-0.3530798554420471
1773163110141138400,7.227138427734375,-0.12583814561367035,0.9492838382720947,-0.41294458508491516
1773163110150520800,7.236520751953125,-0.2467893660068512,0.9187406301498413,-0.48502662777900696
1773163110159903200,7.2459033203125,-0.37751442193984985,0.8307760953903198,-0.5668824911117554
1773163110169285400,7.255285400390625,-0.5009090900421143,0.7195987105369568,-0.6621774435043335
1773163110178667800,7.264667724609375,-0.6267472505569458,0.6194168925285339,-0.7904590368270874
1773163110188050200,7.27405029296875,-0.7513636946678162,0.554665207862854,-0.9651663303375244
1773163110197432600,7.2834326171875,-0.8588758707046509,0.4972439408302307,-1.1801908016204834
1773163110206814700,7.292814697265625,-0.9468404054641724,0.43493571877479553,-1.4159845113754272
1773163110216197000,7.302197021484375,-1.033583164215088,0.37140578031539917,-1.6505566835403442
1773163110230270700,7.316270751953125,-1.158199667930603,0.3237583339214325,-2.006079912185669
1773163110239653000,7.325653076171875,-1.2253947257995605,0.3017672002315521,-2.2443172931671143
1773163110249035300,7.33503515625,-1.303585410118103,0.25900667905807495,-2.4764459133148193
1773163110258417700,7.344417724609375,-1.3634501695632935,0.21502439677715302,-2.6560399532318115
1773163110267800000,7.353800048828125,-1.3939933776855469,0.18814635276794434,-2.748891592025757
1773163110277182500,7.363182373046875,-1.4196497201919556,0.23823726177215576,-2.7537784576416016
1773163110286564900,7.37256494140625,-1.4453060626983643,0.3836230933666229,-2.663370370864868
1773163110295947000,7.381947021484375,-1.431867003440857,0.6389645338058472,-2.4972152709960938
1773163110305329400,7.391329345703125,-1.324354887008667,0.9896009564399719,-2.310290575027466
1773163110314711800,7.4007119140625,-1.1349867582321167,1.4110976457595825,-2.168570041656494
1773163110324094200,7.41009423828125,-0.9358448386192322,1.916893720626831,-2.1160356998443604
1773163110333476400,7.419476318359375,-0.8002328872680664,2.450789451599121,-2.149022340774536
1773163110342858800,7.428858642578125,-0.7513636946678162,2.7415611743927,-2.184452533721924
1773163110352241200,7.4382412109375,-0.7513636946678162,2.5839579105377197,-2.1636829376220703
1773163110361623600,7.44762353515625,-0.758694052696228,2.2003350257873535,-2.1135921478271484
1773163110371005700,7.457005615234375,-0.7159335017204285,1.7690644264221191,-2.0500621795654297
1773163110380388000,7.46638818359375,-0.5986474752426147,1.4440842866897583,-1.9633194208145142
1773163110389770500,7.4757705078125,-0.44959646463394165,1.1850776672363281,-1.8154901266098022
1773163110399153000,7.48515283203125,-0.31031930446624756,1.0054833889007568,-1.6004657745361328
1773163110408535000,7.49453515625,-0.24312418699264526,0.962722897529602,-1.3756674528121948
1773163110417917400,7.50391748046875,-0.28954991698265076,1.043357014656067,-1.2168426513671875
1773163110427299800,7.5132998046875,-0.360410213470459,1.1447606086730957,-1.1496474742889404
1773163110436682200,7.52268212890625,-0.40927940607070923,1.1362085342407227,-1.1533126831054688
1773163110450755600,7.536755615234375,-0.37140578031539917,0.9749401807785034,-1.08978271484375
1773163110460138000,7.546137939453125,-0.27000224590301514,0.84177166223526,-0.9590576887130737
1773163110469520400,7.555520263671875,-0.1698204129934311,0.6841685771942139,-0.8014546036720276
1773163110478902800,7.56490283203125,-0.07574722915887833,0.5192350745201111,-0.6438514590263367
1773163110488285000,7.574284912109375,0.007330377586185932,0.37140578031539917,-0.5119046568870544
1773163110497667300,7.583667236328125,0.06719512492418289,0.22846342623233795,-0.40927940607070923
1773163110507049700,7.5930498046875,0.10506874322891235,0.12705987691879272,-0.31154105067253113
1773163110516432100,7.60243212890625,0.15638138353824615,0.06597339361906052,-0.1893680840730667
1773163110525814500,7.611814453125,0.21868959069252014,0.023212861269712448,-0.05497783049941063
1773163110535196700,7.62119677734375,0.2919933497905731,-0.028099779039621353,0.08552107214927673
1773163110549270300,7.635270263671875,0.411722868680954,-0.10018182545900345,0.2724456787109375
1773163110563344000,7.64934375,0.5424479246139526,-0.11972949653863907,0.3652971386909485
1773163110577417200,7.663417236328125,0.6230821013450623,-0.1637117564678192,0.3970620930194855
1773163110586799600,7.672799560546875,0.667064368724823,-0.24801109731197357,0.4471530318260193
1773163110596182000,7.68218212890625,0.6988292932510376,-0.36651885509490967,0.5033525824546814
1773163110605564200,7.691564208984375,0.7183769941329956,-0.4728093445301056,0.5510000586509705
1773163110614946600,7.700946533203125,0.7232639193534851,-0.5253437161445618,0.5876519083976746
1773163110624329000,7.710328857421875,0.7171552777290344,-0.43004879355430603,0.6194168925285339
1773163110633711400,7.71971142578125,0.6902772188186646,-0.22724169492721558,0.657290518283844
1773163110643093800,7.72909375,0.637742817401886,0.006108647678047419,0.7049379348754883
1773163110652476000,7.738475830078125,0.5180133581161499,0.25045454502105713,0.7122683525085449
1773163110661858300,7.7478583984375,0.3640754222869873,0.5302306413650513,0.6157516837120056
1773163110671240700,7.75724072265625,0.19181154668331146,0.84177166223526,0.3897317349910736
1773163110680623000,7.766623046875,-0.01954767294228077,1.156977891921997,0.0769689604640007
1773163110690005200,7.776005126953125,-0.23457208275794983,1.3084723949432373,-0.24312418699264526
1773163110699387600,7.7853876953125,-0.3750709891319275,1.0885610580444336,-0.5045742988586426
1773163110708770000,7.79477001953125,-0.44348782300949097,0.5485565662384033,-0.657290518283844
1773163110718152400,7.80415234375,-0.48991355299949646,0.1441640853881836,-0.7024945020675659
1773163110727534600,7.81353466796875,-0.4862483739852905,-0.09040798991918564,-0.6743947267532349
1773163110736917000,7.8229169921875,-0.43860089778900146,-0.235793799161911,-0.6084213256835938
1773163110746299400,7.83229931640625,-0.3811796307563782,-0.277332603931427,-0.5204567909240723
1773163110755681800,7.841681884765625,-0.33719736337661743,-0.1747073233127594,-0.411722868680954
1773163110765064000,7.85106396484375,-0.3017672002315521,0.07330377399921417,-0.26389357447624207
1773163110774446300,7.8604462890625,-0.26022839546203613,0.39828383922576904,-0.036651886999607086
1773163110783828700,7.869828857421875,-0.20158538222312927,0.5876519083976746,0.2724456787109375
1773163110793211100,7.879211181640625,-0.12705987691879272,0.6255255341529846,0.5864301919937134
1773163110802593300,7.88859326171875,-0.043982263654470444,0.7122683525085449,0.7513636946678162
1773163110811975700,7.8979755859375,-0.008552107028663158,0.9712749719619751,0.7379246354103088
1773163110821358000,7.907358154296875,0.007330377586185932,1.247385859489441,0.6548470258712769
1773163110830740500,7.916740478515625,0.04520399495959282,1.4367539882659912,0.5558869242668152
1773163110840122600,7.92612255859375,0.1026252806186676,1.4868448972702026,0.43493571877479553
1773163110849505000,7.935505126953125,0.1844811588525772,1.3878847360610962,0.29565855860710144
1773163110858887400,7.944887451171875,0.3396408259868622,1.2119556665420532,0.19792018830776215
1773163110868269800,7.954269775390625,0.5375609993934631,1.0775654315948486,0.19914191961288452
1773163110877652000,7.96365185546875,0.695164144039154,0.9456186890602112,0.2822195291519165
1773163110887034400,7.973034423828125,0.8283326625823975,0.8258891701698303,0.38850998878479004
1773163110896416800,7.982416748046875,0.915075421333313,0.7061597108840942,0.4789179861545563
1773163110905799200,7.991799072265625,0.9688315391540527,0.5949822664260864,0.5180133581161499
1773163110915181300,8.001181396484375,0.9932661056518555,0.4972439408302307,0.49480047821998596
1773163110924563700,8.010563720703125,1.0042617321014404,0.4312705397605896,0.4202749729156494
1773163110933946000,8.019946044921875,0.9712749719619751,0.3530798554420471,0.34574946761131287
1773163110943328500,8.02932861328125,0.8869756460189819,0.2528980076313019,0.3274235129356384
1773163110952710700,8.038710693359375,0.7880155444145203,0.2211330533027649,0.3970620930194855
1773163110962093000,8.048093017578125,0.6817250847816467,0.328645259141922,0.516791582107544
1773163110971475500,8.057475341796875,0.5497782826423645,0.5815432667732239,0.6059778332710266
1773163110980857900,8.06685791015625,0.4312705397605896,0.8833104968070984,0.6047561168670654
1773163110990240000,8.076239990234376,0.2919933497905731,1.1447606086730957,0.5314523577690125
1773163110999622400,8.085622314453126,0.14538581669330597,1.2803726196289062,0.4557051360607147
1773163111009004800,8.0950048828125,0.03787361457943916,1.304807186126709,0.4214966893196106
1773163111018387200,8.10438720703125,-0.0256563201546669,1.2705987691879272,0.4263836145401001
1773163111027769300,8.113769287109376,-0.07574722915887833,1.2547162771224976,0.4422661066055298
1773163111037151700,8.12315185546875,-0.09407317638397217,1.247385859489441,0.4557051360607147
1773163111046534100,8.1325341796875,-0.09529490768909454,1.2424989938735962,0.4838049113750458
1773163111055916500,8.14191650390625,-0.0769689604640007,1.2143992185592651,0.5106829404830933
1773163111065298700,8.151298583984374,-0.01954767294228077,1.1899645328521729,0.5351175665855408
1773163111074681000,8.16068115234375,0.06841685622930527,1.1520910263061523,0.5302306413650513
1773163111084063500,8.1700634765625,0.13194678723812103,1.1435388326644897,0.4838049113750458
1773163111093446000,8.17944580078125,0.19669845700263977,1.1520910263061523,0.411722868680954
1773163111102828000,8.188828125,0.2822195291519165,1.1899645328521729,0.3433060050010681
1773163111112210400,8.19821044921875,0.36163195967674255,1.1985167264938354,0.2919933497905731
1773163111121592800,8.2075927734375,0.4202749729156494,1.1264346837997437,0.28954991698265076
1773163111130975000,8.21697509765625,0.45937031507492065,1.0115920305252075,0.30543237924575806
1773163111140357400,8.226357421875,0.4789179861545563,0.9468404054641724,0.32620179653167725
1773163111149739800,8.23573974609375,0.4776962697505951,0.9993748068809509,0.3543015718460083
1773163111159122200,8.2451220703125,0.4630354940891266,1.1264346837997437,0.3640754222869873
1773163111168504600,8.254504638671875,0.4789179861545563,1.2693769931793213,0.35796675086021423
1773163111177886700,8.26388671875,0.5057960152626038,1.3939933776855469,0.35674503445625305
1773163111187269000,8.27326904296875,0.5180133581161499,1.4685189723968506,0.37751442193984985
1773163111196651500,8.282651611328125,0.5387827157974243,1.517388105392456,0.4166097939014435
1773163111206034000,8.292033935546876,0.5510000586509705,1.517388105392456,0.45448338985443115
1773163111220107300,8.306107177734376,0.5913171172142029,1.3866630792617798,0.47525280714035034
1773163111229489700,8.31548974609375,0.6389645338058472,1.2192860841751099,0.4679224193096161
1773163111238871800,8.324871826171876,0.6902772188186646,1.0103703737258911,0.4557051360607147
1773163111248254200,8.334254150390626,0.7073814272880554,0.8014546036720276,0.43493571877479553
1773163111257636600,8.34363671875,0.6890554428100586,0.6255255341529846,0.39217519760131836
1773163111267019000,8.35301904296875,0.6401863098144531,0.49968740344047546,0.328645259141922
1773163111281092400,8.36709228515625,0.5277871489524841,0.4825831651687622,0.21258094906806946
1773163111290474800,8.376474853515624,0.44348782300949097,0.5778780579566956,0.15149445831775665
1773163111299857200,8.385857177734374,0.3494146466255188,0.7061597108840942,0.09529490768909454
1773163111309239600,8.395239501953125,0.23212862014770508,0.8368847370147705,0.02932151034474373
1773163111318621700,8.40462158203125,0.09529490768909454,0.8796452879905701,-0.046425722539424896
1773163111328004000,8.414004150390625,-0.030543239787220955,0.8442151546478271,-0.13439024984836578
1773163111337386500,8.423386474609375,-0.12217295914888382,0.7770199775695801,-0.21991132199764252
1773163111346768600,8.4327685546875,-0.18081597983837128,0.6902772188186646,-0.30543237924575806
1773163111356151000,8.442151123046875,-0.2565632164478302,0.6047561168670654,-0.41294458508491516
1773163111365533400,8.451533447265625,-0.32620179653167725,0.554665207862854,-0.5326740741729736
1773163111374915800,8.460915771484375,-0.4056142270565033,0.536339282989502,-0.6511818766593933
1773163111384298000,8.470298095703125,-0.5082395076751709,0.5290089249610901,-0.7611374855041504
1773163111393680400,8.479680419921875,-0.5986474752426147,0.5534434914588928,-0.8845322132110596
1773163111403062800,8.489062744140625,-0.6817250847816467,0.5607738494873047,-1.033583164215088
1773163111412445000,8.49844482421875,-0.7806851863861084,0.4972439408302307,-1.2119556665420532
1773163111421827300,8.507827392578125,-0.8857539296150208,0.4263836145401001,-1.3988803625106812
1773163111431209700,8.517209716796875,-0.9908226728439331,0.40317076444625854,-1.5845832824707031
1773163111440592100,8.526592041015626,-1.1068869829177856,0.3946186602115631,-1.7763947248458862
1773163111449974300,8.535974365234376,-1.2180644273757935,0.3445277214050293,-1.9743149280548096
1773163111459356700,8.545356689453126,-1.3158026933670044,0.24923282861709595,-2.1783437728881836
1773163111468739000,8.554739013671876,-1.4074324369430542,0.1490510106086731,-2.383594274520874
1773163111478121500,8.56412158203125,-1.4941751956939697,0.059864748269319534,-2.576627731323242
1773163111487503600,8.573503662109376,-1.5992439985275269,-0.01588248461484909,-2.7415611743927
1773163111496886000,8.582885986328124,-1.6713260412216187,-0.012217295356094837,-2.855181932449341
1773163111506268400,8.592268310546874,-1.6982040405273438,0.11239911615848541,-2.8759512901306152
1773163111515650600,8.601650634765624,-1.68354332447052,0.36774060130119324,-2.785543441772461
1773163111525033000,8.611032958984374,-1.6126830577850342,0.7867938280105591,-2.6413793563842773
1773163111534415400,8.620415283203124,-1.4367539882659912,1.3377938270568848,-2.511875867843628
1773163111543797800,8.6297978515625,-1.1716386079788208,1.944993495941162,-2.4104723930358887
1773163111553180000,8.639179931640625,-0.9309579133987427,2.4996585845947266,-2.344499111175537
1773163111562562300,8.648562255859375,-0.813671886920929,2.7953171730041504,-2.2980732917785645
1773163111571944700,8.65794482421875,-0.8356630206108093,2.615722894668579,-2.2369868755340576
1773163111581327000,8.6673271484375,-0.8808670043945312,2.051283836364746,-2.129474639892578
1773163111590709200,8.676709228515625,-0.8307760953903198,1.3866630792617798,-2.006079912185669
1773163111600091600,8.686091552734375,-0.6976075768470764,0.8747583627700806,-1.886350393295288
1773163111609474000,8.69547412109375,-0.5510000586509705,0.6157516837120056,-1.7947207689285278
1773163111618856200,8.704856201171875,-0.44837474822998047,0.5693259835243225,-1.663995623588562
1773163111628238600,8.714238525390625,-0.411722868680954,0.7709113359451294,-1.4465278387069702
1773163111637621000,8.72362109375,-0.45448338985443115,1.186299443244934,-1.2009601593017578
1773163111647003100,8.733003173828125,-0.5400044918060303,1.5112794637680054,-1.0164790153503418
1773163111656385500,8.742385498046875,-0.6267472505569458,1.5760310888290405,-0.94439697265625
1773163111665768000,8.751767822265625,-0.6462949514389038,1.3548980951309204,-0.9272927641868591
1773163111675150300,8.761150390625,-0.5815432667732239,0.9395100474357605,-0.851545512676239
1773163111698606000,8.784606201171876,-0.3029889166355133,0.23335035145282745,-0.45937031507492065
1773163111707988500,8.793988525390626,-0.22479823231697083,0.08918625861406326,-0.33719736337661743
1773163111717370600,8.80337060546875,-0.14049890637397766,-0.07452550530433655,-0.22479823231697083
1773163111726753000,8.8127529296875,-0.04276053607463837,-0.22357651591300964,-0.11484257876873016
1773163111736135400,8.822135498046874,0.053756099194288254,-0.3591884970664978,-0.004886918235570192
1773163111750208800,8.836208740234374,0.19181154668331146,-0.5253437161445618,0.17837251722812653
1773163111759591200,8.845591064453124,0.29565855860710144,-0.5974257588386536,0.3066541254520416
1773163111768973300,8.854973388671874,0.4068359434604645,-0.6524035930633545,0.43004879355430603
1773163111778355700,8.864355712890625,0.5216785073280334,-0.7037162184715271,0.5351175665855408
1773163111787738000,8.873738037109375,0.6255255341529846,-0.7293725609779358,0.6169734001159668
1773163111797120500,8.88312060546875,0.711046576499939,-0.7709113359451294,0.6927206516265869
1773163111806502700,8.892502685546875,0.7916807532310486,-0.8307760953903198,0.7733548283576965
1773163111815885000,8.901885009765625,0.8625410795211792,-0.8698714375495911,0.8539889454841614
1773163111825267500,8.911267333984375,0.8991929292678833,-0.8710931539535522,0.9285144805908203
1773163111834649900,8.92064990234375,0.8796452879905701,-0.8344413042068481,0.9847140312194824
1773163111844032000,8.930031982421875,0.84177166223526,-0.7428115606307983,1.0054833889007568
1773163111853414400,8.939414306640625,0.8246674537658691,-0.6023126840591431,1.0079269409179688
1773163111862796500,8.948796630859375,0.8210022449493408,-0.4105011224746704,1.0042617321014404
1773163111872179000,8.958178955078125,0.8100066781044006,-0.2101374864578247,0.9969313144683838
1773163111881561300,8.967561279296875,0.7415898442268372,-0.030543239787220955,0.9700532555580139
1773163111890943700,8.97694384765625,0.6352993845939636,0.15027274191379547,0.8894191384315491
1773163111900326000,8.986325927734375,0.4789179861545563,0.3298669755458832,0.7086031436920166
1773163111909708300,8.995708251953126,0.29443681240081787,0.5766563415527344,0.3860665261745453
1773163111919090700,9.005090576171876,0.07086031138896942,0.8881973624229431,-0.028099779039621353
1773163111928472800,9.014472900390626,-0.19181154668331146,1.1423171758651733,-0.42394015192985535
1773163111937855200,9.023855224609376,-0.4679224193096161,1.1398736238479614,-0.6731730103492737
1773163111947237600,9.033237548828126,-0.6108647584915161,0.7232639193534851,-0.7623592615127563
1773163111956619800,9.042619873046876,-0.5974257588386536,-0.059864748269319534,-0.7367029190063477
1773163111966002200,9.052002197265624,-0.6316341757774353,-0.7012727856636047,-0.6181951761245728
1773163111975384600,9.061384521484374,-0.6071996092796326,-0.9871574640274048,-0.46059203147888184
1773163111984767000,9.07076708984375,-0.5119046568870544,-0.9871574640274048,-0.2993237376213074
1773163111994149000,9.080149169921874,-0.4202749729156494,-0.823445737361908,-0.16859868168830872
1773163112003531500,9.089531494140624,-0.34208428859710693,-0.6010909676551819,-0.09407317638397217
1773163112012914000,9.098913818359375,-0.2809978127479553,-0.39828383922576904,-0.02932151034474373
1773163112022296000,9.108296142578125,-0.23457208275794983,-0.23945899307727814,0.06963858753442764
1773163112031678500,9.117678466796875,-0.13927717506885529,-0.13194678723812103,0.21502439677715302
1773163112041060900,9.127060791015625,0.012217295356094837,-0.009773836471140385,0.3738492429256439
1773163112050443000,9.136443115234375,0.14049890637397766,0.1282816082239151,0.4874700903892517
1773163112059825400,9.145825439453125,0.15760311484336853,0.3225366175174713,0.554665207862854
1773163112069207800,9.155207763671875,0.09285144507884979,0.5571087002754211,0.6059778332710266
1773163112078590000,9.16458984375,0.08307760953903198,0.7819069027900696,0.6414080262184143
1773163112087972400,9.173972412109375,0.1954767256975174,0.9810488224029541,0.5815432667732239
1773163112097354800,9.183354736328125,0.33719736337661743,1.1215476989746094,0.35185810923576355
1773163112106737000,9.19273681640625,0.3958403766155243,1.091004490852356,0.06108647957444191
1773163112116119300,9.202119384765625,0.42394015192985535,0.9089667797088623,-0.10873392969369888
1773163112125501700,9.211501708984375,0.49968740344047546,0.7024945020675659,-0.08552107214927673
1773163112139575000,9.225574951171875,0.6120865345001221,0.40317076444625854,0.14782927930355072
1773163112148957400,9.23495751953125,0.6621774435043335,0.19669845700263977,0.2614501118659973
1773163112158339800,9.24433984375,0.7049379348754883,-0.034208428114652634,0.3176496922969818
1773163112167722000,9.253721923828126,0.7049379348754883,-0.2675587832927704,0.3298669755458832
1773163112177104400,9.2631044921875,0.6768381595611572,-0.3995055556297302,0.31642794609069824
1773163112186486800,9.27248681640625,0.6609556674957275,-0.370184063911438,0.34574946761131287
1773163112195869000,9.281868896484376,0.6365211009979248,-0.22235478460788727,0.42271843552589417
1773163112205251300,9.291251220703124,0.5925388336181641,-0.0769689604640007,0.4935787320137024
1773163112214633500,9.300633544921874,0.5241219997406006,0.04276053607463837,0.5473348498344421
1773163112224016000,9.310015869140624,0.45937031507492065,0.1795942485332489,0.6035344004631042
1773163112233398300,9.319398193359374,0.3836230933666229,0.2761108875274658,0.6914989352226257
1773163112242780700,9.32878076171875,0.2981020212173462,0.32620179653167725,0.7990111112594604
1773163112252162800,9.338162841796875,0.22479823231697083,0.36163195967674255,0.8918625712394714
1773163112261545200,9.347545166015625,0.15760311484336853,0.34208428859710693,0.9419534802436829
1773163112270927600,9.356927734375,0.08063415437936783,0.23212862014770508,0.9382883310317993
1773163112280309800,9.366309814453125,-0.004886918235570192,0.0513126403093338,0.8991929292678833
1773163112289692200,9.375692138671875,-0.08429934084415436,-0.16126830875873566,0.8686497211456299
1773163112299074300,9.38507421875,-0.1185077652335167,-0.2981020212173462,0.8710931539535522
1773163112308456700,9.394456787109375,-0.10506874322891235,-0.25045454502105713,0.9016364216804504
1773163112317839000,9.403839111328125,-0.09162971377372742,-0.07086031138896942,0.9065233469009399
1773163112327221500,9.413221435546875,-0.07819069176912308,0.1331685185432434,0.8686497211456299
1773163112336603600,9.422603759765625,-0.002443459117785096,0.27366742491722107,0.8112284541130066
1773163112345986000,9.431986083984375,0.11362084746360779,0.3836230933666229,0.7794634699821472
1773163112355368400,9.441368408203125,0.2528980076313019,0.4166097939014435,0.7990111112594604
1773163112369441800,9.45544189453125,0.48502662777900696,0.21502439677715302,0.851545512676239
1773163112378824200,9.46482421875,0.5754346251487732,-0.06475166976451874,0.851545512676239
1773163112388206300,9.474206298828125,0.6084213256835938,-0.3225366175174713,0.8491020202636719
1773163112397588700,9.483588623046876,0.6230821013450623,-0.411722868680954,0.8637627959251404
1773163112406971100,9.49297119140625,0.6230821013450623,-0.3481929302215576,0.8820887207984924
1773163112416353300,9.502353271484376,0.5998691916465759,-0.2101374864578247,0.8833104968070984
1773163112425735700,9.511735595703126,0.5534434914588928,-0.07330377399921417,0.8491020202636719
1773163112435118000,9.5211181640625,0.5204567909240723,0.11362084746360779,0.8026763200759888
1773163112444500200,9.530500244140624,0.4838049113750458,0.28588470816612244,0.7648026943206787
1773163112453882600,9.539882568359374,0.4459312856197357,0.3799578845500946,0.7281508445739746
1773163112463264800,9.5492646484375,0.44348782300949097,0.38240134716033936,0.6829468011856079
1773163112472647200,9.558647216796874,0.46914416551589966,0.3555232882499695,0.6230821013450623
1773163112482029600,9.568029541015624,0.5070177912712097,0.3530798554420471,0.5656607747077942
1773163112491411700,9.57741162109375,0.5558869242668152,0.3787361681461334,0.5057960152626038
1773163112500794000,9.586794189453125,0.6206386089324951,0.42882707715034485,0.4569268524646759
1773163112510176500,9.596176513671875,0.675616443157196,0.5180133581161499,0.4153880476951599
1773163112519558700,9.60555859375,0.7073814272880554,0.637742817401886,0.360410213470459
1773163112528941000,9.614941162109375,0.7037162184715271,0.7318159937858582,0.27000224590301514
1773163112538323500,9.624323486328125,0.6511818766593933,0.7721330523490906,0.1747073233127594
1773163112547705600,9.63370556640625,0.5888736248016357,0.7476984858512878,0.08796452730894089
1773163112557088000,9.643087890625,0.526565432548523,0.7159335017204285,0.01588248461484909
1773163112566470400,9.652470458984375,0.4569268524646759,0.7330377101898193,-0.043982263654470444
1773163112575852500,9.6618525390625,0.37140578031539917,0.7880155444145203,-0.08918625861406326
1773163112585235000,9.67123486328125,0.29077163338661194,0.8344413042068481,-0.11606431007385254
1773163112594617300,9.680617431640625,0.21746785938739777,0.8222240209579468,-0.12095122784376144
1773163112603999500,9.68999951171875,0.14538581669330597,0.7672461867332458,-0.10995566099882126
1773163112613382000,9.6993818359375,0.06841685622930527,0.7000510096549988,-0.0977383628487587
1773163112622764000,9.708763916015625,-0.007330377586185932,0.6194168925285339,-0.08429934084415436
1773163112632146400,9.718146484375,-0.04276053607463837,0.5400044918060303,-0.08429934084415436
1773163112641528800,9.72752880859375,-0.043982263654470444,0.4581485986709595,-0.0769689604640007
1773163112650911000,9.736910888671876,-0.023212861269712448,0.3689623177051544,-0.0513126403093338
1773163112660293400,9.74629345703125,0.028099779039621353,0.2968802750110626,-0.009773836471140385
1773163112669675800,9.75567578125,0.10506874322891235,0.26878049969673157,0.028099779039621353
1773163112679058000,9.765057861328126,0.1893680840730667,0.26878049969673157,0.043982263654470444
1773163112688440300,9.7744404296875,0.25534147024154663,0.2724456787109375,0.03909534588456154
1773163112697822700,9.78382275390625,0.2981020212173462,0.2565632164478302,0.021991131827235222
1773163112707204900,9.793204833984374,0.33231043815612793,0.23945899307727814,0.008552107028663158
1773163112716587300,9.802587158203124,0.32009315490722656,0.20769402384757996,-0.002443459117785096
1773163112725969400,9.811969482421874,0.2712239623069763,0.1747073233127594,-0.01954767294228077
1773163112735351800,9.821351806640624,0.19181154668331146,0.13439024984836578,-0.053756099194288254
1773163112744734200,9.830734130859375,0.0818558782339096,0.04886918142437935,-0.10995566099882126
1773163112754116400,9.840116455078125,-0.056199558079242706,-0.04886918142437935,-0.17715078592300415
1773163112763498800,9.849498779296875,-0.19669845700263977,-0.1185077652335167,-0.235793799161911
1773163112772881200,9.858881103515625,-0.328645259141922,-0.18325942754745483,-0.3042106628417969
1773163112782263300,9.86826318359375,-0.4508182108402252,-0.2577849328517914,-0.3848448097705841
1773163112791645700,9.877645751953125,-0.5717694163322449,-0.33719736337661743,-0.49480047821998596
1773163112801027800,9.88702783203125,-0.6731730103492737,-0.40805765986442566,-0.6304124593734741
1773163112810410200,9.89641015625,-0.7391464114189148,-0.45326167345046997,-0.794124186038971
1773163112819792600,9.905792724609375,-0.7757982611656189,-0.5033525824546814,-0.9969313144683838
1773163112829174800,9.9151748046875,-0.8087849617004395,-0.5986474752426147,-1.2437206506729126
1773163112838557200,9.92455712890625,-0.84177166223526,-0.7049379348754883,-1.4868448972702026
1773163112847939300,9.933939208984375,-0.8820887207984924,-0.778241753578186,-1.6713260412216187
1773163112857321700,9.94332177734375,-0.9272927641868591,-0.8222240209579468,-1.7812817096710205
1773163112866704100,9.9527041015625,-0.9859357476234436,-0.8747583627700806,-1.8448116779327393
1773163112876086300,9.962086181640625,-1.0665699243545532,-0.9199623465538025,-1.8814635276794434
1773163112885468700,9.97146875,-1.1630865335464478,-0.9578359723091125,-1.897346019744873
1773163112894850800,9.980850830078126,-1.2632683515548706,-0.9700532555580139,-1.897346019744873
1773163112904233200,9.990233154296876,-1.3451242446899414,-0.9126319885253906,-1.8900156021118164
1773163112913615600,9.99961572265625,-1.3952151536941528,-0.7293725609779358,-1.8900156021118164
1773163112922997800,10.008997802734376,-1.3634501695632935,-0.4105011224746704,-1.8851287364959717
1773163112932380200,10.018380126953126,-1.2498292922973633,-0.014660755172371864,-1.877798318862915
1773163112941762600,10.027762451171874,-1.0958913564682007,0.4312705397605896,-1.8887939453125
1773163112951144700,10.037144775390624,-0.9578359723091125,0.9138537049293518,-1.9388848543167114
1773163112960527000,10.046527099609374,-0.8649845123291016,1.3548980951309204,-2.006079912185669
1773163112969909200,10.0559091796875,-0.8087849617004395,1.626121997833252,-2.0439536571502686
1773163112979291600,10.065291748046874,-0.7696896195411682,1.6187916994094849,-2.008523464202881
1773163112988674000,10.074674072265625,-0.7318159937858582,1.3866630792617798,-1.9022328853607178
1773163112998056200,10.08405615234375,-0.6866120100021362,1.1410953998565674,-1.7629557847976685
1773163113007438600,10.0934384765625,-0.6133082509040833,1.0604612827301025,-1.6187916994094849
1773163113016820700,10.10282080078125,-0.5351175665855408,1.08978271484375,-1.4489712715148926
1773163113026203100,10.112203125,-0.4728093445301056,1.1838558912277222,-1.2791508436203003
1773163113035585500,10.12158544921875,-0.43371400237083435,1.2412772178649902,-1.119104266166687
1773163113044967700,10.1309677734375,-0.411722868680954,1.196073293685913,-0.9786053895950317
1773163113054350000,10.14035009765625,-0.40317076444625854,1.0702351331710815,-0.8442151546478271
1773163113063732200,10.149732177734375,-0.3591884970664978,0.9260709881782532,-0.7281508445739746
1773163113073114600,10.159114501953125,-0.27488914132118225,0.7525854110717773,-0.637742817401886
1773163113082496800,10.168496826171875,-0.17226386070251465,0.5595521330833435,-0.5705476999282837
1773163113091879200,10.177879150390625,-0.07574722915887833,0.360410213470459,-0.5192350745201111
1773163113101261600,10.187261474609375,0.009773836471140385,0.16126830875873566,-0.47525280714035034
1773163113110643700,10.196643798828125,0.08429934084415436,-0.04153880476951599,-0.4251618981361389
1773163113120026000,10.206026123046875,0.15027274191379547,-0.22846342623233795,-0.3652971386909485
1773163113129408500,10.215408447265625,0.20891575515270233,-0.36651885509490967,-0.31031930446624756
1773163113138790700,10.224790771484376,0.27977606654167175,-0.44348782300949097,-0.25411975383758545
1773163113148173000,10.234173095703126,0.34697118401527405,-0.481361448764801,-0.1893680840730667
1773163113157555200,10.24355517578125,0.3946186602115631,-0.4557051360607147,-0.12095122784376144
1773163113166937600,10.2529375,0.4251618981361389,-0.40317076444625854,-0.056199558079242706
1773163113176319700,10.26231982421875,0.4276053309440613,-0.4422661066055298,0.028099779039621353
1773163113185702100,10.2717021484375,0.43371400237083435,-0.4728093445301056,0.12095122784376144
1773163113199775500,10.285775390625,0.45448338985443115,-0.4789179861545563,0.2211330533027649
1773163113209158000,10.295157958984374,0.4520399272441864,-0.4520399272441864,0.26511532068252563
1773163113218540300,10.304540283203124,0.4324922561645508,-0.40317076444625854,0.2968802750110626
1773163113227922400,10.31392236328125,0.4068359434604645,-0.3078758418560028,0.3139844834804535
1773163113237304800,10.323304931640624,0.35796675086021423,-0.15027274191379547,0.3225366175174713
1773163113246687000,10.33268701171875,0.3347539007663727,0.07819069176912308,0.34574946761131287
1773163113256069400,10.3420693359375,0.34208428859710693,0.32620179653167725,0.39217519760131836
1773163113265451800,10.35145166015625,0.318871408700943,0.564439058303833,0.43371400237083435
1773163113274834000,10.360833984375,0.2663370370864868,0.7806851863861084,0.44348782300949097
1773163113288907500,10.374907470703125,0.15638138353824615,0.9749401807785034,0.38240134716033936
1773163113298289700,10.38428955078125,0.06108647957444191,1.0787872076034546,0.29565855860710144
1773163113307672000,10.393672119140625,-0.03543015569448471,1.1630865335464478,0.1844811588525772
1773163113317054200,10.40305419921875,-0.11484257876873016,1.2302817106246948,0.05253437161445618
1773163113326436600,10.4124365234375,-0.17104214429855347,1.2315033674240112,-0.07330377399921417
1773163113335818800,10.42181884765625,-0.2211330533027649,1.0751219987869263,-0.17837251722812653
1773163113345201200,10.431201171875,-0.2809978127479553,0.7696896195411682,-0.25900667905807495
1773163113354583600,10.44058349609375,-0.29443681240081787,0.47525280714035034,-0.3090975880622864
1773163113363965700,10.449965576171875,-0.2663370370864868,0.18692462146282196,-0.3176496922969818
1773163113373348000,10.45934814453125,-0.22968515753746033,-0.1380554437637329,-0.2822195291519165
1773163113382730200,10.468730224609375,-0.20280711352825165,-0.4630354940891266,-0.20280711352825165
1773163113392112600,10.478112548828125,-0.17104214429855347,-0.6829468011856079,-0.09651663154363632
1773163113401494800,10.487494873046876,-0.1282816082239151,-0.7611374855041504,0.004886918235570192
1773163113410877200,10.496877197265626,-0.07086031138896942,-0.7147117853164673,0.0818558782339096
1773163113420259300,10.50625927734375,-0.014660755172371864,-0.5888736248016357,0.15149445831775665
1773163113429641700,10.515641845703126,0.03787361457943916,-0.41783151030540466,0.2406807243824005
1773163113439024000,10.525024169921876,0.08552107214927673,-0.19669845700263977,0.3591884970664978
1773163113448406300,10.53440625,0.1380554437637329,0.04276053607463837,0.48991355299949646
1773163113457788700,10.54378857421875,0.18203771114349365,0.2968802750110626,0.6206386089324951
1773163113467170800,10.5531708984375,0.1905898153781891,0.5119046568870544,0.7476984858512878
1773163113476553200,10.56255322265625,0.16004657745361328,0.6120865345001221,0.80389803647995
1773163113485935400,10.571935302734374,0.08307760953903198,0.6255255341529846,0.7000510096549988
1773163113500009000,10.586009033203124,-0.21502439677715302,0.6084213256835938,0.23945899307727814
1773163113509391000,10.59539111328125,-0.43004879355430603,0.5619956254959106,-0.1441640853881836
1773163113518773500,10.6047734375,-0.5314523577690125,0.6902772188186646,-0.39217519760131836
1773163113528155600,10.61415576171875,-0.4520399272441864,1.0702351331710815,-0.4251618981361389
1773163113537538000,10.6235380859375,-0.22968515753746033,1.461188554763794,-0.27977606654167175
1773163113546920200,10.632920166015625,0.008552107028663158,1.6884303092956543,-0.06963858753442764
1773163113556302600,10.642302490234375,0.14660754799842834,1.7324124574661255,0.08674279600381851
1773163113565685000,10.65168505859375,0.2003636509180069,1.5479313135147095,0.2003636509180069
1773163113575067100,10.661067138671875,0.328645259141922,1.0983349084854126,0.3445277214050293
1773163113584449500,10.670449462890625,0.5277871489524841,0.6194168925285339,0.5180133581161499
1773163113593831700,10.679831787109375,0.6792816519737244,0.2467893660068512,0.6646208763122559
1773163113603214000,10.689214111328125,0.7843503952026367,0.008552107028663158,0.7538071274757385
1773163113612596200,10.69859619140625,0.8405499458312988,-0.06230820715427399,0.7611374855041504
1773163113626669800,10.712669921875,0.8442151546478271,0.04153880476951599,0.5949822664260864
1773163113636052000,10.722052001953125,0.794124186038971,0.13194678723812103,0.3995055556297302
1773163113645434400,10.731434326171875,0.7098248600959778,0.27366742491722107,0.23945899307727814
1773163113654816500,10.74081640625,0.6499601006507874,0.554665207862854,0.18203771114349365
1773163113664199000,10.750198974609376,0.6071996092796326,0.9407317638397217,0.20891575515270233
1773163113673581000,10.7595810546875,0.5229002237319946,1.1704169511795044,0.2626718580722809
1773163113682963500,10.76896337890625,0.39339691400527954,1.1533126831054688,0.31520622968673706
1773163113692345900,10.778345947265626,0.24923282861709595,0.9395100474357605,0.3543015718460083
1773163113701728000,10.78772802734375,0.10384701192378998,0.7367029190063477,0.3689623177051544
1773163113711110400,10.7971103515625,-0.024434590712189674,0.6524035930633545,0.3738492429256439
1773163113720492500,10.806492431640624,-0.12583814561367035,0.6524035930633545,0.4056142270565033
1773163113729875000,10.815875,-0.20402882993221283,0.7293725609779358,0.46059203147888184
1773163113739257000,10.825257080078124,-0.24312418699264526,0.8283326625823975,0.5143481492996216
1773163113748639500,10.834639404296874,-0.22968515753746033,0.9297361969947815,0.5253437161445618
1773163113758021600,10.844021728515624,-0.21258094906806946,1.053130865097046,0.4679224193096161
1773163113767404000,10.853404052734374,-0.19914191961288452,1.1618647575378418,0.3530798554420471
1773163113776786200,10.8627861328125,-0.16859868168830872,1.2412772178649902,0.22968515753746033
1773163113786168600,10.87216845703125,-0.12217295914888382,1.2742639780044556,0.12950333952903748
1773163113795550700,10.88155078125,-0.06597339361906052,1.342680811882019,0.04276053607463837
1773163113809624300,10.895624267578125,0.03176496922969818,1.5039490461349487,-0.08918625861406326
1773163113819006500,10.90500634765625,0.09285144507884979,1.5735876560211182,-0.1441640853881836
1773163113828388900,10.914388916015625,0.14294235408306122,1.637117624282837,-0.19303326308727264
1773163113837771000,10.92377099609375,0.17592905461788177,1.6957606077194214,-0.24434591829776764
1773163113847153400,10.9331533203125,0.20402882993221283,1.7849469184875488,-0.32009315490722656
1773163113856535600,10.94253564453125,0.2162461280822754,1.8423681259155273,-0.370184063911438
1773163113865918000,10.95191796875,0.21258094906806946,1.8643592596054077,-0.38728827238082886
1773163113879991300,10.9659912109375,0.20280711352825165,1.8851287364959717,-0.36774060130119324
1773163113889373700,10.975373779296875,0.19181154668331146,1.8924590349197388,-0.3237583339214325
1773163113898755800,10.984755859375,0.15760311484336853,1.8997894525527954,-0.2724456787109375
1773163113908138200,10.99413818359375,0.0977383628487587,1.886350393295288,-0.2309068888425827
1773163113917520400,11.003520263671875,0.05742128938436508,1.897346019744873,-0.21502439677715302
1773163113926902800,11.01290283203125,0.040317077189683914,1.9413282871246338,-0.2162461280822754
1773163113936285000,11.022284912109376,0.01954767294228077,2.028071165084839,-0.235793799161911
1773163113945667300,11.031667236328126,-0.03176496922969818,2.0854923725128174,-0.26878049969673157
1773163113955049500,11.041049560546876,-0.07330377399921417,2.0390665531158447,-0.3066541254520416
1773163113964432000,11.050431884765626,-0.0720820426940918,1.916893720626831,-0.3384190797805786
1773163113973814000,11.05981396484375,-0.053756099194288254,1.7996076345443726,-0.3591884970664978
1773163113983196400,11.069196533203124,-0.03909534588456154,1.7079778909683228,-0.370184063911438
1773163113992578600,11.07857861328125,-0.020769402384757996,1.6395610570907593,-0.37751442193984985
1773163114001961000,11.0879609375,0.003665188793092966,1.6310089826583862,-0.39339691400527954
1773163114011343000,11.097343017578124,0.023212861269712448,1.6383392810821533,-0.41905322670936584
1773163114020725500,11.1067255859375,0.036651886999607086,1.6126830577850342,-0.4361574649810791
1773163114030107600,11.116107666015624,0.043982263654470444,1.5625921487808228,-0.43371400237083435
1773163114039490000,11.125489990234374,0.0513126403093338,1.525940179824829,-0.4312705397605896
1773163114048872200,11.1348720703125,0.04886918142437935,1.5381574630737305,-0.45448338985443115
1773163114058254600,11.144254638671875,0.03543015569448471,1.5723659992218018,-0.4923570156097412
1773163114067636700,11.15363671875,0.009773836471140385,1.6285655498504639,-0.5387827157974243
1773163114077019100,11.16301904296875,0.006108647678047419,1.6615521907806396,-0.564439058303833
1773163114086401300,11.1724013671875,-0.002443459117785096,1.6872085332870483,-0.5668824911117554
1773163114095783700,11.18178369140625,-0.01588248461484909,1.7201951742172241,-0.5656607747077942
1773163114105165800,11.191165771484375,-0.010995565913617611,1.7372994422912598,-0.5705476999282837
1773163114114548200,11.20054833984375,0,1.7421863079071045,-0.564439058303833
1773163114123930400,11.209930419921875,0.004886918235570192,1.760512351989746,-0.5705476999282837
1773163114133312800,11.219312744140625,0.009773836471140385,1.7873903512954712,-0.5925388336181641
1773163114142695000,11.22869482421875,0.034208428114652634,1.7983858585357666,-0.6120865345001221
1773163114152077300,11.238077392578125,0.06352993845939636,1.7873903512954712,-0.6120865345001221
1773163114161459500,11.24745947265625,0.08307760953903198,1.7727296352386475,-0.6023126840591431
1773163114170841900,11.256841796875,0.08796452730894089,1.7629557847976685,-0.6084213256835938
1773163114180224000,11.26622412109375,0.08796452730894089,1.7629557847976685,-0.627968966960907
1773163114189606400,11.2756064453125,0.07330377399921417,1.7666209936141968,-0.657290518283844
1773163114198988500,11.284988525390625,0.04886918142437935,1.7678426504135132,-0.6902772188186646
1773163114208371000,11.294370849609376,0.01954767294228077,1.7617340087890625,-0.7269290685653687
1773163114217753000,11.303753173828126,-0.024434590712189674,1.7763947248458862,-0.7757982611656189
1773163114227135500,11.313135498046876,-0.06719512492418289,1.7934989929199219,-0.8148936033248901
1773163114236517600,11.322517578125,-0.12705987691879272,1.7727296352386475,-0.8307760953903198
1773163114245900000,11.331900146484376,-0.20402882993221283,1.7299690246582031,-0.8344413042068481
1773163114255282200,11.3412822265625,-0.2883281707763672,1.6982040405273438,-0.831997811794281
1773163114264664600,11.35066455078125,-0.37262752652168274,1.6872085332870483,-0.8454368710517883
1773163114274046700,11.360046630859374,-0.45326167345046997,1.693317174911499,-0.8967494964599609
1773163114283429000,11.36942919921875,-0.5351175665855408,1.7006475925445557,-1.0018181800842285
1773163114292811300,11.378811279296874,-0.6120865345001221,1.7006475925445557,-1.1618647575378418
1773163114302193700,11.388193603515624,-0.6841685771942139,1.6872085332870483,-1.351232886314392
1773163114311575800,11.397575927734374,-0.7525854110717773,1.6713260412216187,-1.5540399551391602
1773163114320958200,11.406958251953125,-0.8173370957374573,1.6701042652130127,-1.760512351989746
1773163114330340400,11.41634033203125,-0.8662062287330627,1.692095398902893,-1.9706497192382812
1773163114339722800,11.42572265625,-0.8869756460189819,1.7446298599243164,-2.1746785640716553
1773163114349105000,11.43510498046875,-0.8772017955780029,1.830150842666626,-2.3823726177215576
1773163114358487300,11.4444873046875,-0.8491020202636719,1.9339978694915771,-2.587623119354248
1773163114367869400,11.453869384765625,-0.8014546036720276,2.042731761932373,-2.7586653232574463
1773163114377251800,11.463251953125,-0.7342594861984253,2.145357131958008,-2.867399215698242
1773163114386634000,11.472634033203125,-0.6401863098144531,2.238208532333374,-2.9297075271606445
1773163114396016400,11.482016357421875,-0.5522217750549316,2.329838275909424,-2.961472511291504
1773163114405398500,11.4913984375,-0.4764745235443115,2.4300200939178467,-2.9578073024749756
1773163114414780700,11.50078076171875,-0.4153880476951599,2.517984628677368,-2.90893816947937
1773163114424163000,11.5101630859375,-0.36285367608070374,2.598618745803833,-2.8209736347198486
1773163114433545200,11.519545166015625,-0.27977606654167175,2.596175193786621,-2.687804937362671
1773163114442927600,11.528927734375,-0.18570289015769958,2.442237377166748,-2.489884853363037
1773163114452309800,11.538309814453125,-0.08918625861406326,2.193004608154297,-2.2443172931671143
1773163114461692200,11.547692138671875,0.03543015569448471,1.977980136871338,-2.0341796875
1773163114471074300,11.55707421875,0.18203771114349365,1.8802417516708374,-1.9217805862426758
1773163114480456700,11.566456787109376,0.27366742491722107,1.7299690246582031,-1.8716896772384644
1773163114489838800,11.5758388671875,0.30543237924575806,1.5528182983398438,-1.8362594842910767
1773163114499221200,11.58522119140625,0.3139844834804535,1.4440842866897583,-1.7898337841033936
1773163114508603400,11.594603271484376,0.34086254239082336,1.4062107801437378,-1.722638726234436
1773163114517985800,11.60398583984375,0.37262752652168274,1.4440842866897583,-1.635895848274231
1773163114527368000,11.613367919921876,0.4068359434604645,1.5344923734664917,-1.546709656715393
1773163114536750000,11.62275,0.411722868680954,1.654221773147583,-1.4489712715148926
1773163114546132500,11.632132568359374,0.401949018239975,1.7201951742172241,-1.3390156030654907
1773163114555514600,11.6415146484375,0.36285367608070374,1.7458515167236328,-1.2363903522491455
1773163114564897000,11.65089697265625,0.3481929302215576,1.7580687999725342,-1.158199667930603
1773163114574279200,11.660279052734374,0.35674503445625305,1.7434080839157104,-1.0848958492279053
1773163114583661600,11.66966162109375,0.3640754222869873,1.694538950920105,-0.9993748068809509
1773163114593043700,11.679043701171874,0.3750709891319275,1.6016874313354492,-0.9053016304969788
1773163114602426000,11.688426025390624,0.4007273018360138,1.4819579124450684,-0.8100066781044006
1773163114611808300,11.697808349609375,0.4214966893196106,1.3353503942489624,-0.7171552777290344
1773163114621190700,11.707190673828125,0.4324922561645508,1.1594213247299194,-0.6267472505569458
1773163114630572800,11.71657275390625,0.43860089778900146,0.9896009564399719,-0.5534434914588928
1773163114639955200,11.725955078125,0.44470956921577454,0.8588758707046509,-0.4923570156097412
1773163114649337300,11.73533740234375,0.44837474822998047,0.7733548283576965,-0.44470956921577454
1773163114658719700,11.7447197265625,0.4557051360607147,0.720820426940918,-0.4105011224746704
1773163114668102000,11.754101806640625,0.4667007029056549,0.6524035930633545,-0.3787361681461334
1773163114677484000,11.763484130859375,0.4862483739852905,0.6023126840591431,-0.3445277214050293
1773163114686866400,11.772866455078125,0.5045742988586426,0.5693259835243225,-0.31154105067253113
1773163114696248600,11.78224853515625,0.5216785073280334,0.5974257588386536,-0.2993237376213074
1773163114705631000,11.791630859375,0.5314523577690125,0.6560688018798828,-0.3042106628417969
1773163114715013000,11.80101318359375,0.5216785073280334,0.6988292932510376,-0.2981020212173462
1773163114724395500,11.8103955078125,0.5057960152626038,0.7281508445739746,-0.2809978127479553
1773163114733777700,11.819777587890625,0.48013970255851746,0.7953459620475769,-0.277332603931427
1773163114743160000,11.82916015625,0.4679224193096161,0.8967494964599609,-0.2834412455558777
1773163114752542200,11.838542236328125,0.4581485986709595,0.9468404054641724,-0.277332603931427
1773163114761924400,11.84792431640625,0.4459312856197357,0.9321796298027039,-0.24923282861709595
1773163114771306800,11.857306640625,0.4422661066055298,0.8979712128639221,-0.2101374864578247
1773163114780689000,11.86668896484375,0.43860089778900146,0.8625410795211792,-0.16737695038318634
1773163114790071300,11.8760712890625,0.4214966893196106,0.823445737361908,-0.13072505593299866
1773163114799453400,11.885453369140626,0.40317076444625854,0.7757982611656189,-0.10506874322891235
1773163114808835800,11.8948359375,0.3738492429256439,0.730594277381897,-0.09040798991918564
1773163114818218000,11.904218017578126,0.3249800503253937,0.6829468011856079,-0.08674279600381851
1773163114827600400,11.913600341796876,0.2809978127479553,0.6560688018798828,-0.10506874322891235
1773163114836982500,11.922982421875,0.24556763470172882,0.6462949514389038,-0.14172062277793884
1773163114846364700,11.93236474609375,0.2003636509180069,0.6304124593734741,-0.18692462146282196
1773163114855747000,11.9417470703125,0.1649334877729416,0.5839866995811462,-0.24801109731197357
1773163114865129200,11.951129150390624,0.13683371245861053,0.5229002237319946,-0.30054548382759094
1773163114874511600,11.96051171875,0.10629047453403473,0.45448338985443115,-0.34086254239082336
1773163114883893800,11.969893798828124,0.08307760953903198,0.3946186602115631,-0.3750709891319275
1773163114893276200,11.979276123046875,0.06230820715427399,0.3078758418560028,-0.3970620930194855
1773163114902658300,11.988658203125,0.040317077189683914,0.21258094906806946,-0.40317076444625854
1773163114912040400,11.99804052734375,0.018325943499803543,0.13927717506885529,-0.3836230933666229
1773163114921422800,12.0074228515625,-0.001221729558892548,0.10384701192378998,-0.3396408259868622
1773163114930805000,12.016804931640625,-0.0256563201546669,0.10873392969369888,-0.28954991698265076
1773163114940187400,12.0261875,-0.053756099194288254,0.15149445831775665,-0.23823726177215576
1773163114949569500,12.035569580078125,-0.08429934084415436,0.2309068888425827,-0.1844811588525772
1773163114958951700,12.04495166015625,-0.10873392969369888,0.3249800503253937,-0.12583814561367035
1773163114968334000,12.054333984375,-0.12095122784376144,0.4373791813850403,-0.04886918142437935
1773163114977716200,12.06371630859375,-0.11972949653863907,0.5497782826423645,0.053756099194288254
1773163114987098400,12.073098388671875,-0.11117739230394363,0.6206386089324951,0.1490510106086731
1773163114996480800,12.082480712890625,-0.11239911615848541,0.6206386089324951,0.21258094906806946
