time,seconds_elapsed,z,y,x
1772729640837187800,0.088187744140625,8.384450912475586,6.293123722076416,-0.1339980661869049
1772729640854533000,0.105533203125,8.72183895111084,6.204588890075684,-0.6460621356964111
1772729640871878100,0.122878173828125,10.085747718811035,5.654240131378174,-2.0793628692626953
1772729640889223400,0.140223388671875,8.520841598510742,5.879165172576904,-2.5052852630615234
1772729640906568400,0.157568359375,7.645068168640137,7.575676441192627,-1.7491533756256104
1772729640923913700,0.174913818359375,4.776073932647705,7.5708909034729,-0.973878800868988
1772729640941258800,0.1922587890625,4.232903480529785,6.331408500671387,-1.5242279767990112
1772729640958604000,0.20960400390625,5.647061347961426,6.372086524963379,-0.9786644577980042
1772729640975949000,0.226948974609375,7.3986077308654785,5.72841739654541,-1.6773686408996582
1772729640993294300,0.24429443359375,7.6666035652160645,5.149354457855225,-2.1583259105682373
1772729641010639400,0.261639404296875,7.51585578918457,5.132604598999023,-2.304288148880005
1772729641027984600,0.278984619140625,6.400800704956055,6.005984783172607,-2.043470621109009
1772729641045329700,0.29632958984375,5.575276851654053,5.125426292419434,-1.4835500717163086
1772729641062675000,0.313675048828125,5.3216376304626465,5.9509501457214355,-2.1272194385528564
1772729641080020000,0.33102001953125,6.649653911590576,7.144968509674072,-2.816352367401123
1772729641097365000,0.348364990234375,5.154139995574951,6.269195556640625,-2.5914268493652344
1772729641114710300,0.365710205078125,3.6370904445648193,5.125426292419434,-2.0195422172546387
1772729641132055300,0.38305517578125,4.208974838256836,4.4410786628723145,-2.2923240661621094
1772729641149400600,0.400400634765625,2.0003998279571533,3.869194269180298,-3.469592809677124
1772729641166745900,0.417745849609375,-3.6634113788604736,2.4909284114837646,-0.7680960893630981
1772729641184091000,0.4350908203125,1.2346965074539185,-0.12442677468061447,0.32542386651039124
1772729641201436200,0.452436279296875,7.0301127433776855,-1.2873386144638062,-0.4833501875400543
1772729641218781200,0.46978125,9.884750366210938,-2.1678972244262695,-2.2468605041503906
1772729641236126200,0.487126220703125,10.99741268157959,-2.744567632675171,-3.3308091163635254
1772729641253471500,0.504471435546875,10.272387504577637,-3.1561331748962402,-2.4119651317596436
1772729641270816500,0.52181640625,8.774480819702148,-3.2853455543518066,-1.8185452222824097
1772729641288161800,0.539161865234375,8.539983749389648,-3.6945180892944336,-0.48095735907554626
1772729641305506800,0.5565068359375,6.711867332458496,-4.192225456237793,-1.2729816436767578
1772729641322852000,0.57385205078125,6.185446739196777,-4.216153621673584,-3.34995174407959
1772729641340197000,0.591197021484375,5.759523868560791,-6.472585201263428,-5.225924491882324
1772729641357542400,0.60854248046875,6.269195556640625,-6.338587284088135,-8.219346046447754
1772729641374887400,0.625887451171875,7.2335028648376465,-6.623332977294922,-9.437292098999023
1772729641392232700,0.643232666015625,7.70249605178833,-7.683353424072266,-10.571490287780762
1772729641409577700,0.66057763671875,8.288737297058105,-9.365508079528809,-12.102896690368652
1772729641426923000,0.677923095703125,6.673582553863525,-10.303494453430176,-15.455241203308105
1772729641444268000,0.69526806640625,6.027520179748535,-9.961320877075195,-17.816957473754883
1772729641461613300,0.71261328125,4.323830604553223,-9.363115310668945,-18.539588928222656
1772729641478958300,0.729958251953125,2.5674986839294434,-9.994820594787598,-18.417556762695312
1772729641496303600,0.7473037109375,1.5840486288070679,-10.961520195007324,-18.795621871948242
1772729641513648600,0.764648681640625,0.09092725813388824,-10.179067611694336,-18.75494384765625
1772729641530994000,0.781993896484375,-0.5623133182525635,-8.583054542541504,-18.278772354125977
1772729641548339000,0.7993388671875,-0.8901300430297852,-8.063812255859375,-16.515262603759766
1772729641565684200,0.816684326171875,-0.9690931439399719,-8.310273170471191,-15.019747734069824
1772729641583029200,0.834029296875,-1.4691931009292603,-9.640682220458984,-14.002798080444336
1772729641600374500,0.85137451171875,-2.854637384414673,-9.4660062789917,-12.859028816223145
1772729641617719600,0.868719482421875,-3.9601213932037354,-8.781659126281738,-11.995220184326172
1772729641635064800,0.88606494140625,-3.5126636028289795,-8.846264839172363,-11.550154685974121
1772729641652409900,0.903409912109375,-3.3236305713653564,-10.265209197998047,-11.327622413635254
1772729641669755000,0.9207548828125,-3.500699520111084,-9.588040351867676,-11.052447319030762
1772729641687100200,0.93810009765625,-3.792623996734619,-9.410971641540527,-10.023533821105957
1772729641704445400,0.955445556640625,-3.6323046684265137,-9.76989459991455,-8.109275817871094
1772729641721790500,0.97279052734375,-3.735196113586426,-9.731609344482422,-6.32662296295166
1772729641739135500,0.990135498046875,-2.998206853866577,-8.652446746826172,-5.472385406494141
1772729641756480800,1.007480712890625,-2.4670002460479736,-6.977470874786377,-5.340780258178711
1772729641773825800,1.02482568359375,-1.9692929983139038,-6.4079790115356445,-4.409972190856934
1772729641791171000,1.042171142578125,-2.155933141708374,-7.408178806304932,-2.950350284576416
1772729641808516000,1.05951611328125,-2.6632115840911865,-7.6474609375,-1.679761528968811
1772729641825861400,1.076861328125,-3.1896326541900635,-6.759724140167236,-1.397408366203308
1772729641843206400,1.094206298828125,-3.3379876613616943,-6.240481376647949,-0.4953143000602722
1772729641860551700,1.1115517578125,-3.706482172012329,-6.166304111480713,0.4307080805301666
1772729641877896700,1.128896728515625,-3.4911282062530518,-6.733402729034424,0.3038884699344635
1772729641895242000,1.146241943359375,-2.0315065383911133,-6.678368091583252,-0.2679961323738098
1772729641912587000,1.1635869140625,-0.6221339106559753,-6.049055576324463,-0.2632105052471161
1772729641929932300,1.180932373046875,-0.04546362906694412,-5.714060306549072,-0.03349951654672623
1772729641947277300,1.19827734375,0.19142581522464752,-4.742574691772461,-0.46420758962631226
1772729641964622600,1.21562255859375,0.4091726839542389,-6.63769006729126,-0.7393822073936462
1772729641981967600,1.232967529296875,-1.155733346939087,-7.542177200317383,-2.256431818008423
1772729641999313000,1.25031298828125,-1.2705888748168945,-8.664410591125488,-3.2709884643554688
1772729642016658000,1.267657958984375,-3.0580272674560547,-10.313065528869629,-0.9212366938591003
1772729642034003200,1.285003173828125,-3.38105845451355,-11.944971084594727,5.38624382019043
1772729642051348200,1.30234814453125,-2.242074728012085,-11.327622413635254,5.826523303985596
1772729642068693500,1.319693603515625,-2.2947168350219727,-10.289137840270996,4.230510234832764
1772729642086038500,1.33703857421875,-3.493520975112915,-10.614561080932617,3.373879909515381
1772729642103383600,1.354383544921875,-4.744967460632324,-11.748759269714355,3.469592809677124
1772729642120728800,1.371728759765625,-4.675575256347656,-11.779866218566895,3.579662561416626
1772729642138073900,1.389073974609375,-1.3710874319076538,-10.631311416625977,5.496313571929932
1772729642155419100,1.406419189453125,1.466800332069397,-6.539584159851074,3.6945180892944336
1772729642172764200,1.42376416015625,0.4091726839542389,-7.077969551086426,0.13160525262355804
1772729642190109400,1.441109375,-0.21774685382843018,-7.566105365753174,-0.22013968229293823
1772729642207454500,1.458454345703125,-2.799602508544922,-7.2430739402771,-1.7539390325546265
1772729642224799700,1.4757998046875,-7.984848976135254,-8.592626571655273,-1.526620864868164
1772729642242144800,1.493144775390625,-14.82832145690918,-8.264809608459473,-0.3206382393836975
1772729642259490000,1.510489990234375,-6.491727828979492,-6.32662296295166,-1.2490534782409668
1772729642276835000,1.5278349609375,-6.0849480628967285,-5.233103275299072,-4.213760852813721
1772729642294180400,1.545180419921875,-5.065605640411377,-4.8502516746521,-5.276174068450928
1772729642311525400,1.562525390625,-0.7082754969596863,-10.808380126953125,-5.158925533294678
1772729642328870400,1.579870361328125,1.7922241687774658,-12.64606761932373,-0.3397808074951172
1772729642346215700,1.597215576171875,-1.7802600860595703,-12.31107234954834,4.632504463195801
1772729642363561000,1.61456103515625,0.5096712112426758,-9.305686950683594,-1.428515076637268
1772729642380906000,1.631906005859375,4.342973232269287,-8.774480819702148,7.992027759552002
1772729642398251000,1.6492509765625,-0.30628129839897156,-11.353943824768066,19.898712158203125
1772729642415596300,1.66659619140625,2.6273193359375,-10.504491806030273,8.956335067749023
1772729642432941300,1.68394140625,-0.03349951654672623,-6.285944938659668,4.118047714233398
1772729642450286600,1.70128662109375,0.8015955686569214,-4.101297855377197,2.0865414142608643
1772729642467631600,1.718631591796875,1.2921242713928223,-5.06082010269165,1.0671988725662231
1772729642484977000,1.735976806640625,-25.442882537841797,-12.957134246826172,-3.7232320308685303
1772729642502322000,1.753322021484375,-4.216153621673584,-10.96630573272705,-4.012763500213623
1772729642519667200,1.770667236328125,-2.148754835128784,-10.736595153808594,-0.5024927258491516
1772729642537012200,1.78801220703125,-2.029113531112671,-9.068798065185547,-0.35892340540885925
1772729642554357500,1.805357421875,0.31824541091918945,-10.712666511535645,-2.840280532836914
1772729642571702500,1.82270263671875,-2.455035924911499,-13.62473201751709,-3.5772697925567627
1772729642589047800,1.8400478515625,-1.5290136337280273,-12.593425750732422,-0.9667003750801086
1772729642606392800,1.857392822265625,1.2705888748168945,-11.294122695922852,1.100698471069336
1772729642623737900,1.87473779296875,3.029313564300537,-9.559326171875,0.8925228714942932
1772729642641083100,1.892083251953125,1.7682958841323853,-9.19561767578125,0.1459621787071228
1772729642658428200,1.90942822265625,-0.36610186100006104,-8.994620323181152,-0.7704889178276062
1772729642675773400,1.9267734375,-9.111868858337402,-13.342378616333008,-1.3950155973434448
1772729642693118500,1.944118408203125,1.098305583000183,-11.143375396728516,1.3184453248977661
1772729642710463700,1.961463623046875,-1.3232308626174927,-10.1216402053833,-0.38285163044929504
1772729642727808800,1.978808837890625,0.7800601720809937,-10.124032974243164,-1.4835500717163086
1772729642745154000,1.996154052734375,0.6652047038078308,-11.298908233642578,-0.885344386100769
1772729642762499000,2.0134990234375,1.031306505203247,-12.52164077758789,0.7369893789291382
1772729642779844000,2.030843994140625,2.5770699977874756,-13.062418937683105,0.4211367964744568
1772729642797189400,2.048189453125,2.1056840419769287,-12.715459823608398,0.2105683982372284
1772729642814534400,2.065534423828125,0.7680960893630981,-12.06939697265625,-0.2967100143432617
1772729642831879700,2.082879638671875,1.0504491329193115,-9.052047729492188,-1.1676974296569824
1772729642849224700,2.100224609375,1.7156537771224976,-10.102497100830078,-0.41874396800994873
1772729642866570000,2.117570068359375,1.2969099283218384,-9.17886734008789,0.29431718587875366
1772729642883915000,2.1349150390625,0.8303094506263733,-8.762516975402832,0.4043870270252228
1772729642901260300,2.15226025390625,0.6604190468788147,-7.008577346801758,-2.6464617252349854
1772729642918605300,2.169605224609375,-2.761317253112793,-11.684152603149414,-0.02392822690308094
1772729642935950600,2.18695068359375,-6.192625045776367,-12.153145790100098,-1.6223337650299072
1772729642953295600,2.204295654296875,3.555734395980835,-10.545169830322266,-0.02153540402650833
1772729642970641000,2.221640869140625,3.050848960876465,-8.61176872253418,-0.27756741642951965
1772729642987986000,2.23898583984375,1.7371892929077148,-9.066405296325684,-0.5718846321105957
1772729643005331000,2.2563310546875,1.306481122970581,-10.856236457824707,-0.7824530005455017
1772729643022676200,2.27367626953125,-0.07417750358581543,-9.810572624206543,-0.44745782017707825
1772729643040021200,2.291021240234375,-1.246660590171814,-8.233702659606934,-0.7369893789291382
1772729643057366500,2.308366455078125,-0.7250252366065979,-8.082955360412598,-0.1052841991186142
1772729643074711600,2.325711669921875,0.5527420043945312,-9.358329772949219,-0.17228323221206665
1772729643092056800,2.343056884765625,0.6508477330207825,-10.344172477722168,0.47617170214653015
1772729643109401900,2.36040185546875,1.1413763761520386,-10.334601402282715,-0.519242525100708
1772729643126747100,2.3777470703125,0.12203395366668701,-9.494720458984375,-0.6125625967979431
1772729643144092200,2.395092041015625,-0.24646073579788208,-10.542776107788086,0.12203395366668701
1772729643161437200,2.412437255859375,-0.8733802437782288,-11.983255386352539,0.0933200865983963
1772729643178782500,2.429782470703125,-0.8709874153137207,-12.346964836120605,0.2392822653055191
1772729643196127500,2.44712744140625,-0.31824541091918945,-6.357729911804199,-1.0552347898483276
1772729643213472800,2.46447265625,0.5264210104942322,-7.692924976348877,-1.0911271572113037
1772729643230817800,2.48181787109375,0.3732803463935852,-12.562318801879883,-1.6007983684539795
1772729643248163000,2.4991630859375,1.1988041400909424,-6.57547664642334,0.016749758273363113
1772729643265508000,2.516508056640625,1.7563318014144897,-10.573883056640625,-0.6556333899497986
1772729643282853400,2.533853271484375,-0.5024927258491516,-10.956734657287598,0.7680960893630981
1772729643300198400,2.551198486328125,-0.8087740540504456,-10.597811698913574,-0.20099709928035736
1772729643317543400,2.56854345703125,-1.1365907192230225,-10.671989440917969,-0.5910272002220154
1772729643334888700,2.585888671875,-0.34695929288864136,-10.664810180664062,-1.1198409795761108
1772729643352233700,2.603233642578125,0.28953152894973755,-10.810772895812988,-1.2059825658798218
1772729643369579000,2.6205791015625,0.22492532432079315,-10.16710376739502,-1.4404792785644531
1772729643386924000,2.637924072265625,0.2727817893028259,-9.67657470703125,-1.2729816436767578
1772729643404269300,2.655269287109375,0.21774685382843018,-9.511469841003418,-0.9020941257476807
1772729643421614300,2.6726142578125,0.11724831163883209,-9.4660062789917,-0.6628118753433228
1772729643438959600,2.689959716796875,0.062213387340307236,-9.645467758178711,-0.4426721930503845
1772729643456304600,2.7073046875,0.1698904037475586,-9.832108497619629,-0.6628118753433228
1772729643473649700,2.724649658203125,-0.08135596662759781,-10.00439167022705,-1.0001999139785767
1772729643490995000,2.741994873046875,-0.363709032535553,-10.006784439086914,-1.1485549211502075
1772729643508340000,2.759340087890625,-0.5862415432929993,-10.138389587402344,-1.1437692642211914
1772729643525685200,2.776685302734375,1.4476577043533325,-7.767102241516113,2.2851455211639404
1772729643543030300,2.7940302734375,-3.0173492431640625,-10.269994735717773,-0.9619147181510925
1772729643560375600,2.81137548828125,0.5958128571510315,-12.54556941986084,-2.7326035499572754
1772729643577720600,2.828720458984375,1.4524433612823486,-9.418149948120117,-0.8877372145652771
1772729643595065900,2.84606591796875,2.644068956375122,-6.522834300994873,0.05503492057323456
1772729643612411000,2.863410888671875,0.2584248483181,-9.432506561279297,-0.019142581149935722
1772729643629756200,2.880756103515625,0.4618147611618042,-9.805787086486816,-0.3397808074951172
1772729643647101200,2.89810107421875,0.6891329288482666,-9.059226989746094,-0.363709032535553
1772729643664446200,2.9154462890625,0.9762716293334961,-9.013762474060059,-0.24406790733337402
1772729643681791500,2.93279150390625,0.6915257573127747,-9.729216575622559,-0.3852444589138031
1772729643699136500,2.950136474609375,0.4378865361213684,-10.097711563110352,-0.550349235534668
1772729643716481800,2.967481689453125,0.7561319470405579,-10.076175689697266,-0.7130611538887024
1772729643733826800,2.984826904296875,1.0121639966964722,-9.745966911315918,-0.6293123364448547
1772729643751172000,3.002172119140625,1.069591760635376,-9.43489933013916,-0.6029912829399109
1772729643768517000,3.01951708984375,1.0121639966964722,-9.329615592956543,-0.8039883971214294
1772729643785862100,3.036862060546875,0.8422735929489136,-9.774680137634277,-0.9930213689804077
1772729643803207400,3.05420751953125,0.6675975322723389,-10.346565246582031,-1.0360921621322632
1772729643820552400,3.071552490234375,0.7226324677467346,-10.535597801208496,-1.1078768968582153
1772729643837897700,3.088897705078125,0.9690931439399719,-10.303494453430176,-1.1437692642211914
1772729643855242800,3.10624267578125,1.0911271572113037,-10.092926025390625,-1.0265209674835205
1772729643872588000,3.123588134765625,1.0815558433532715,-9.822537422180176,-0.8183453679084778
1772729643889933000,3.14093310546875,1.062413215637207,-9.652647018432617,-0.6125625967979431
1772729643907278000,3.158278076171875,1.074377417564392,-9.741181373596191,-0.5168496966362
1772729643924623400,3.175623291015625,0.8757730722427368,-9.717252731323242,-0.5599204897880554
1772729643941968400,3.192968505859375,0.8422735929489136,-9.480362892150879,-0.7752745151519775
1772729643959313700,3.210313720703125,0.9092726111412048,-9.353543281555176,-1.0552347898483276
1772729643976658700,3.22765869140625,0.9451649188995361,-9.367900848388672,-1.4835500717163086
1772729643994004000,3.24500390625,0.9882357716560364,-9.535398483276367,-1.7276179790496826
1772729644011349000,3.262348876953125,1.1222338676452637,-9.774680137634277,-1.5146567821502686
1772729644028694300,3.2796943359375,1.00259268283844,-9.865608215332031,-1.1030912399291992
1772729644046039300,3.297039306640625,0.8901300430297852,-9.736394882202148,-0.6628118753433228
1772729644063384300,3.31438427734375,0.6221339106559753,-9.497113227844238,-0.22013968229293823
1772729644080729600,3.3317294921875,0.24167509377002716,-9.339186668395996,0.004785645287483931
1772729644098074600,3.34907470703125,-0.19381862878799438,-9.461220741271973,0.11724831163883209
1772729644115420000,3.366419921875,-0.12681959569454193,-9.906285285949707,0.2560320198535919
1772729644132765000,3.383764892578125,-0.05503492057323456,-10.561919212341309,0.44027936458587646
1772729644150110200,3.401110107421875,-0.1866401731967926,-10.803594589233398,0.2273181527853012
1772729644167455200,3.418455322265625,-0.38285163044929504,-10.243673324584961,-0.5096712112426758
1772729644184800300,3.43580029296875,0.16031911969184875,-9.671789169311523,-1.2203395366668701
1772729644202145500,3.4531455078125,1.2131611108779907,-10.05703353881836,-1.2394821643829346
1772729644219490600,3.470490478515625,1.3040883541107178,-10.607382774353027,-0.8709874153137207
1772729644236835800,3.4878359375,-0.13639089465141296,-10.001998901367188,-0.973878800868988
1772729644254180900,3.505180908203125,-1.6295121908187866,-9.162117958068848,-1.00259268283844
1772729644271526100,3.522526123046875,-2.5986053943634033,-9.748359680175781,-0.605384111404419
1772729644288871200,3.53987109375,-2.7110681533813477,-10.578668594360352,-0.32303106784820557
1772729644306216400,3.557216552734375,-2.251646041870117,-11.021341323852539,-0.8997012972831726
1772729644323561500,3.5745615234375,-1.852044701576233,-10.810772895812988,-1.8352949619293213
1772729644340906800,3.59190673828125,-1.0121639966964722,-9.418149948120117,-2.770888566970825
1772729644358251800,3.609251708984375,-0.30149564146995544,-8.149953842163086,-3.431307554244995
1772729644375597000,3.62659716796875,0.34695929288864136,-8.212167739868164,-2.493321180343628
1772729644392942000,3.643942138671875,-0.42831525206565857,-8.776873588562012,-0.8709874153137207
1772729644410287000,3.661287109375,-1.0169496536254883,-9.446864128112793,0.04546362906694412
1772729644427632400,3.67863232421875,-1.4620146751403809,-9.430113792419434,-0.5168496966362
1772729644444977400,3.695977294921875,-0.6699903607368469,-8.657232284545898,-1.6103696823120117
1772729644462322700,3.71332275390625,-0.0933200865983963,-8.12123966217041,-1.97407865524292
1772729644479667700,3.730667724609375,-0.33020952343940735,-8.02791976928711,-1.332802176475525
1772729644497013000,3.748012939453125,-0.6652047038078308,-8.090133666992188,-1.9716858863830566
1772729644514358000,3.76535791015625,-1.5409778356552124,-9.020941734313965,-3.689732551574707
1772729644531703300,3.782703369140625,-1.6103696823120117,-10.315458297729492,-4.711467742919922
1772729644549048300,3.80004833984375,-1.7850457429885864,-10.791629791259766,-3.7974095344543457
1772729644566393300,3.817393310546875,0.11246266216039658,-10.15753173828125,-1.9956140518188477
1772729644583738600,3.834738525390625,3.814159393310547,-10.114460945129395,-2.311466693878174
1772729644601083600,3.852083740234375,3.493520975112915,-12.308679580688477,-4.106083869934082
1772729644618429000,3.869428955078125,-0.4450650215148926,-12.323036193847656,-2.5938198566436768
1772729644635774000,3.88677392578125,-2.0985054969787598,-10.090533256530762,-1.153340458869934
1772729644653119000,3.904118896484375,-3.680161237716675,-9.159725189208984,-0.5670989751815796
1772729644670464300,3.92146435546875,-3.122633457183838,-11.255837440490723,0.9020941257476807
1772729644687809300,3.938809326171875,-2.6560330390930176,-13.940585136413574,2.242074728012085
1772729644705154600,3.956154541015625,-2.998206853866577,-13.730016708374023,2.6703901290893555
1772729644722499600,3.97349951171875,-2.3186452388763428,-10.949556350708008,1.7826528549194336
1772729644739844900,3.990844970703125,-1.3399807214736938,-9.58325481414795,-0.5982056856155396
1772729644757190000,4.00818994140625,-1.2610175609588623,-9.07119083404541,-1.7252250909805298
1772729644774535000,4.025534912109375,-0.638883650302887,-8.781659126281738,-0.916451096534729
1772729644791880200,4.042880126953125,0.07657032459974289,-8.678768157958984,-0.7896314859390259
1772729644809225200,4.06022509765625,1.2394821643829346,-8.781659126281738,0.3278166949748993
1772729644826570200,4.0775703125,2.368894338607788,-9.023334503173828,-1.5696916580200195
1772729644843915500,4.09491552734375,3.5126636028289795,-9.832108497619629,-6.589833736419678
1772729644861260500,4.112260498046875,3.5222349166870117,-12.07896900177002,-10.147960662841797
1772729644878605800,4.129605712890625,4.108476638793945,-13.60319709777832,-9.767501831054688
1772729644895950800,4.146950927734375,3.273381471633911,-13.737195014953613,-3.9840497970581055
1772729644913296000,4.1642958984375,1.3710874319076538,-12.739387512207031,-1.5601203441619873
1772729644930641200,4.18164111328125,-0.607776939868927,-10.411170959472656,-0.07417750358581543
1772729644947986200,4.198986083984375,-0.28235307335853577,-7.8556365966796875,-0.004785645287483931
1772729644965331500,4.21633154296875,0.7728816866874695,-5.793023586273193,-1.2681959867477417
1772729644982676500,4.233676513671875,1.490728497505188,-4.814359188079834,-2.63449764251709
1772729645000021500,4.251021484375,1.7180466651916504,-4.223331928253174,-4.235296249389648
1772729645017366800,4.26836669921875,1.4021940231323242,-3.7423746585845947,-7.625925540924072
1772729645034711800,4.2857119140625,-1.2873386144638062,-4.319045066833496,-9.430113792419434
1772729645052057000,4.30305712890625,-4.945964336395264,-5.874379634857178,-11.263015747070312
1772729645069402000,4.320402099609375,-6.929614543914795,-8.561519622802734,-13.540983200073242
1772729645086747100,4.3377470703125,-7.159325122833252,-8.669196128845215,-13.27538013458252
1772729645104092400,4.355092529296875,-5.491528034210205,-8.937192916870117,-8.343772888183594
1772729645121437400,4.3724375,-5.5034918785095215,-8.37966537475586,-6.960721015930176
1772729645138782700,4.38978271484375,-5.359922885894775,-5.867201328277588,-7.501499176025391
1772729645156127700,4.407127685546875,-5.096712112426758,-1.7395820617675781,-8.86062240600586
1772729645173472800,4.42447265625,-3.9936211109161377,-1.8400806188583374,-9.06401252746582
1772729645190818000,4.441818115234375,-4.096512317657471,-0.6005984544754028,-10.521241188049316
1772729645208163000,4.4591630859375,-5.563312530517578,1.1485549211502075,-9.499505996704102
1772729645225508400,4.47650830078125,-5.2043890953063965,-0.5623133182525635,-6.113661766052246
1772729645242853400,4.493853271484375,-5.9437713623046875,-1.6821542978286743,-3.562912940979004
1772729645260198400,4.511198486328125,-6.869793891906738,-2.1750757694244385,-2.737389087677002
1772729645277543700,4.528543701171875,-5.5728840827941895,-1.7276179790496826,-3.610769271850586
1772729645294888700,4.545888671875,-3.806980848312378,-1.275374412536621,-4.292723655700684
1772729645312234000,4.56323388671875,-3.8979079723358154,-0.35892340540885925,-4.333401679992676
1772729645329579000,4.5805791015625,-3.6705899238586426,-1.2610175609588623,-3.8907296657562256
1772729645346924000,4.597924072265625,-3.658625841140747,-2.940778970718384,-3.383451223373413
1772729645364269300,4.615269287109375,-2.1415762901306152,-4.656432628631592,-4.453042984008789
1772729645381614300,4.6326142578125,-3.5222349166870117,-7.286144733428955,-6.3361945152282715
1772729645398959600,4.649959716796875,-2.9718856811523438,-9.504291534423828,-8.169096946716309
1772729645416304600,4.6673046875,-6.185446739196777,-6.199803352355957,-10.171889305114746
1772729645433650000,4.68464990234375,-3.651447296142578,-4.744967460632324,-13.720444679260254
1772729645450995000,4.701994873046875,-2.266003131866455,-2.2157537937164307,-13.619946479797363
1772729645468340200,4.71934033203125,-3.2709884643554688,-0.7202396392822266,-12.859028816223145
1772729645485685200,4.736685302734375,-5.292923450469971,0.07417750358581543,-11.583654403686523
1772729645503030500,4.754030517578125,-4.704289436340332,-1.1174482107162476,-10.076175689697266
1772729645520375600,4.77137548828125,-4.299902439117432,-2.328216314315796,-8.657232284545898
1772729645537720600,4.788720458984375,-3.9433717727661133,-1.9884356260299683,-6.364908218383789
1772729645555065900,4.80606591796875,-3.098705291748047,-3.1752755641937256,-5.209175109863281
1772729645572411000,4.823410888671875,-3.1728827953338623,-4.622933387756348,-5.288137912750244
1772729645589756200,4.840756103515625,-2.7278177738189697,-5.469992637634277,-5.979663848876953
1772729645607101200,4.85810107421875,-2.0817556381225586,-6.7692952156066895,-6.905686378479004
1772729645624446200,4.8754462890625,-0.9332008361816406,-8.810373306274414,-8.24566650390625
1772729645641791500,4.89279150390625,-0.39960137009620667,-10.86580753326416,-9.90149974822998
1772729645659136500,4.910136474609375,0.05503492057323456,-10.451848983764648,-10.078569412231445
1772729645676481800,4.927481689453125,-0.275174617767334,-8.707481384277344,-8.628518104553223
1772729645693826800,4.944826904296875,-0.48813581466674805,-7.628318786621094,-6.781259536743164
1772729645711171800,4.962171875,-1.0719845294952393,-8.439485549926758,-4.9052863121032715
1772729645728517000,4.97951708984375,-0.9020941257476807,-9.839286804199219,-2.6249263286590576
1772729645745862100,4.996862060546875,-0.576670229434967,-10.231709480285645,-2.3234307765960693
1772729645763207200,5.014207275390625,0.038285162299871445,-10.009177207946777,-3.2685956954956055
1772729645780552400,5.031552490234375,0.12442677468061447,-9.1716890335083,-2.3952155113220215
1772729645797897500,5.0488974609375,0.22492532432079315,-8.274380683898926,0.33499518036842346
1772729645815242800,5.06624267578125,0.8781659007072449,-9.396614074707031,2.9958138465881348
1772729645832587800,5.083587890625,2.2468605041503906,-11.385049819946289,3.620340585708618
1772729645849932800,5.100932861328125,1.978864312171936,-12.320643424987793,1.6055840253829956
1772729645867278000,5.118278076171875,0.7034898400306702,-11.770294189453125,-0.7537391185760498
1772729645884623000,5.135623046875,1.1820544004440308,-10.791629791259766,-3.9314076900482178
1772729645901968400,5.152968505859375,1.703689694404602,-10.238887786865234,-6.16391134262085
1772729645919313400,5.1703134765625,-0.8877372145652771,-10.016355514526367,-5.505885124206543
1772729645936658400,5.187658447265625,-5.19960355758667,-8.951549530029297,-4.599005222320557
1772729645954003700,5.205003662109375,-5.26899528503418,-5.1565327644348145,-3.2303106784820557
1772729645971348700,5.2223486328125,-4.778466701507568,-3.610769271850586,-4.027120590209961
1772729645988694000,5.239694091796875,-3.25663161277771,-5.78345251083374,-5.580062389373779
1772729646006039000,5.2570390625,-1.557727575302124,-11.13619613647461,-6.429514408111572
1772729646023384000,5.274384033203125,-2.6847469806671143,-14.871393203735352,-4.488935470581055
1772729646040729300,5.291729248046875,-4.685146808624268,-12.581461906433105,-1.3280165195465088
1772729646058074400,5.309074462890625,-5.891129493713379,-7.534998416900635,-0.5288137793540955
1772729646075419600,5.326419677734375,-6.999006271362305,-5.225924491882324,-0.5288137793540955
1772729646092764700,5.3437646484375,-6.307480335235596,-6.750152587890625,-0.6005984544754028
1772729646110109700,5.361109619140625,-5.383851051330566,-9.633503913879395,-0.23688943684101105
1772729646127455000,5.378455078125,-4.603790760040283,-11.789437294006348,0.41874396800994873
1772729646144800000,5.395800048828125,-3.9768712520599365,-11.782258987426758,0.5814558863639832
1772729646162145000,5.41314501953125,-4.070191383361816,-10.803594589233398,0.4785645306110382
1772729646179490300,5.430490234375,-4.409972190856934,-10.40638542175293,0.5790630578994751
1772729646196835300,5.44783544921875,-4.692325115203857,-10.470992088317871,0.5599204897880554
1772729646214180400,5.465180419921875,-4.479363918304443,-10.85145092010498,0.2727817893028259
1772729646231525600,5.482525634765625,-4.082155227661133,-11.102697372436523,0.1746760457754135
1772729646248870700,5.49987060546875,-4.029513359069824,-10.593026161193848,1.3710874319076538
1772729646266216000,5.5172158203125,-4.216153621673584,-10.403992652893066,3.1920254230499268
1772729646283561000,5.53456103515625,-3.9840497970581055,-10.612168312072754,4.333401679992676
1772729646300906000,5.551906005859375,-2.699103832244873,-11.36351490020752,4.122833251953125
1772729646318251300,5.569251220703125,-1.7850457429885864,-12.148360252380371,3.0077781677246094
1772729646335596300,5.58659619140625,-1.9884356260299683,-12.423535346984863,2.68953275680542
1772729646352941300,5.60394140625,-2.1822543144226074,-12.268001556396484,3.431307554244995
1772729646370286600,5.62128662109375,-2.486142635345459,-11.818151473999023,3.737588882446289
1772729646387631600,5.638631591796875,-2.3234307765960693,-11.296515464782715,3.139383316040039
1772729646404977000,5.655976806640625,-2.368894338607788,-10.2747802734375,2.2468605041503906
1772729646422322000,5.673322021484375,-2.486142635345459,-9.10229778289795,1.5984054803848267
1772729646439667000,5.6906669921875,-3.31884503364563,-8.676374435424805,1.428515076637268
1772729646457012200,5.70801220703125,-4.486542224884033,-8.57348346710205,1.1581261157989502
1772729646474357200,5.725357177734375,-3.7710886001586914,-8.008777618408203,0.3326023519039154
1772729646491702300,5.742702392578125,-1.3639088869094849,-7.575676441192627,-3.500699520111084
1772729646509047600,5.760047607421875,-3.0867412090301514,-9.078369140625,-9.214759826660156
1772729646526392600,5.777392578125,-6.527620315551758,-8.973084449768066,-12.050254821777344
1772729646543737600,5.794737548828125,-10.583454132080078,-7.384250640869141,-12.516855239868164
1772729646561083000,5.812082763671875,-9.461220741271973,-6.161518096923828,-15.256637573242188
1772729646578428000,5.829427978515625,-4.986642360687256,-7.3914289474487305,-12.507284164428711
1772729646595773200,5.846773193359375,-2.7972097396850586,-9.609575271606445,-8.286344528198242
1772729646613118200,5.8641181640625,-4.012763500213623,-16.06780433654785,-4.551148891448975
1772729646630463200,5.881463134765625,-5.142175674438477,-17.65903091430664,-2.737389087677002
1772729646647808500,5.89880859375,-7.41535758972168,-13.71805191040039,0.31824541091918945
1772729646665153500,5.916153564453125,-7.202396392822266,-11.112268447875977,5.498706340789795
1772729646682498800,5.933498779296875,-6.7692952156066895,-10.834700584411621,12.725030899047852
1772729646699843800,5.95084375,-2.730210542678833,-10.60977554321289,15.168102264404297
1772729646717188900,5.96818896484375,-0.5048855543136597,-7.372286796569824,12.863814353942871
1772729646734534000,5.985533935546875,0.8231309652328491,-4.4650068283081055,9.698110580444336
1772729646751879200,6.002879150390625,1.5409778356552124,-4.077369689941406,2.524427890777588
1772729646769224200,6.02022412109375,0.763310432434082,-3.4169507026672363,-5.024927616119385
1772729646786569500,6.037569580078125,-1.2921242713928223,-6.7310099601745605,-9.616754531860352
1772729646803914500,6.05491455078125,-4.094119548797607,-13.481163024902344,-9.714859962463379
1772729646821259500,6.072259521484375,-4.194618225097656,-17.895919799804688,-7.470392227172852
1772729646838604800,6.089604736328125,-1.9645073413848877,-14.7206449508667,-6.999006271362305
1772729646855949800,6.10694970703125,-0.9044869542121887,-9.722038269042969,-4.945964336395264
1772729646873294800,6.124294921875,0.2799602448940277,-2.3641088008880615,-7.247859954833984
1772729646890640100,6.14164013671875,-1.1341979503631592,8.327022552490234,-14.79242992401123
1772729646907985200,6.158985107421875,-5.249852657318115,8.72183895111084,-10.99741268157959
1772729646925330400,6.176330322265625,-7.2430739402771,11.782258987426758,-13.26102352142334
1772729646942675500,6.193675537109375,-9.492327690124512,10.71984577178955,-17.64467430114746
1772729646960020500,6.2110205078125,-13.557733535766602,-0.6293123364448547,-20.092531204223633
1772729646977365800,6.22836572265625,-15.74716567993164,-6.317051887512207,-11.20798110961914
1772729646994710800,6.245710693359375,-15.247065544128418,-10.559526443481445,-2.888136863708496
1772729647012056000,6.26305615234375,-5.431707382202148,-3.2374889850616455,-4.527220249176025
1772729647029401000,6.280401123046875,-0.19381862878799438,2.1200408935546875,-0.7034898400306702
1772729647046746000,6.29774609375,-4.208974838256836,3.2757742404937744,-3.4121651649475098
1772729647064091400,6.31509130859375,-5.927021503448486,2.304288148880005,-3.077169895172119
1772729647081436400,6.3324365234375,-6.374479293823242,0.6939185857772827,-3.594019651412964
1772729647098781400,6.349781494140625,-7.530212879180908,-1.6414763927459717,-4.7473602294921875
1772729647116126700,6.367126708984375,-6.211767673492432,-3.9457645416259766,-7.558926582336426
1772729647133471700,6.3844716796875,-5.670989513397217,-3.326023578643799,-9.68375301361084
1772729647150817000,6.401817138671875,-5.2283172607421875,-1.7874385118484497,-10.037891387939453
1772729647168162000,6.419162109375,-6.9104719161987305,-1.428515076637268,-8.941978454589844
1772729647185507000,6.436507080078125,-7.755138397216797,-1.6055840253829956,-8.260024070739746
1772729647202852400,6.453852294921875,-6.771687984466553,-2.337787628173828,-9.119047164916992
1772729647220197400,6.471197265625,-6.436692714691162,-3.9984066486358643,-10.066604614257812
1772729647237542700,6.488542724609375,-6.089733600616455,-4.589433670043945,-10.961520195007324
1772729647254887700,6.5058876953125,-5.520241737365723,-3.9122650623321533,-9.499505996704102
1772729647272232700,6.523232666015625,-5.233103275299072,-2.201396942138672,-6.238088607788086
1772729647289578000,6.540577880859375,-5.955735683441162,-1.7228323221206665,-2.8761727809906006
1772729647306923000,6.557923095703125,-7.087540626525879,-1.8089739084243774,-0.6819544434547424
1772729647324268300,6.575268310546875,-7.135396957397461,-1.789831280708313,-0.5718846321105957
1772729647341613300,6.59261328125,-5.821737289428711,-0.4378865361213684,-2.2444677352905273
1772729647358958300,6.609958251953125,-3.304488182067871,0.4211367964744568,-2.730210542678833
1772729647376303600,6.6273037109375,0.8207381963729858,-4.386044025421143,0.7537391185760498
1772729647393648600,6.644648681640625,1.7204394340515137,-21.722043991088867,11.925827980041504
1772729647410994000,6.661993896484375,6.714260101318359,-36.143585205078125,12.004791259765625
1772729647428339000,6.6793388671875,11.665010452270508,-37.30410385131836,4.752145767211914
1772729647445684000,6.69668408203125,-7.618747234344482,-26.467010498046875,5.525027275085449
1772729647463029200,6.714029296875,-5.938985824584961,-6.147161483764648,5.929414749145508
1772729647480374300,6.731374267578125,-3.981656789779663,-1.674975872039795,5.3216376304626465
1772729647497719600,6.748719482421875,-3.153740167617798,-8.003992080688477,2.069791555404663
1772729647515064600,6.766064697265625,1.5122638940811157,-16.555940628051758,-3.383451223373413
1772729647532409600,6.78340966796875,0.7489534616470337,-21.23630142211914,-3.799802303314209
1772729647549755000,6.8007548828125,1.1413763761520386,-13.799407958984375,-2.2157537937164307
1772729647567100000,6.818099853515625,-1.6103696823120117,-5.807380676269531,-1.8400806188583374
1772729647584445000,6.83544482421875,-3.9984066486358643,-2.8187451362609863,-1.4428720474243164
1772729647601790200,6.852790283203125,-2.7349963188171387,-2.7493531703948975,-0.09571290761232376
1772729647619135200,6.87013525390625,-1.8496519327163696,-3.589233875274658,0.5718846321105957
1772729647636480300,6.887480224609375,0.26081767678260803,-4.658825874328613,-0.5312066078186035
1772729647653825500,6.904825439453125,0.8327022790908813,-7.106683254241943,-1.6917256116867065
1772729647671170600,6.922170654296875,-0.1579262912273407,-9.604789733886719,-1.0863415002822876
1772729647688515800,6.939515869140625,-1.0839486122131348,-11.303693771362305,1.2442678213119507
1772729647705860900,6.95686083984375,-2.376072883605957,-12.705887794494629,3.012563705444336
1772729647723206000,6.974205810546875,-2.8139593601226807,-11.909078598022461,3.964907169342041
1772729647740551200,6.99155126953125,-0.914058268070221,-10.317851066589355,4.206582069396973
1772729647757896200,7.008896240234375,-0.5144568681716919,-10.387243270874023,5.132604598999023
1772729647775241500,7.026241455078125,-1.2897313833236694,-9.109476089477539,6.065805435180664
1772729647792586500,7.04358642578125,-0.8111668825149536,-9.449256896972656,5.103890895843506
1772729647809931500,7.060931640625,0.4905286431312561,-11.011770248413086,2.7349963188171387
1772729647827276800,7.07827685546875,0.24646073579788208,-10.155138969421387,0.3038884699344635
1772729647844621800,7.095621826171875,-0.5886343717575073,-8.925228118896484,-1.2203395366668701
1772729647861966800,7.112966796875,-1.423729419708252,-8.343772888183594,-1.466800332069397
1772729647879312100,7.13031201171875,-1.093519926071167,-8.398807525634766,-1.3591232299804688
1772729647896657200,7.1476572265625,-0.41874396800994873,-9.245866775512695,-0.6675975322723389
1772729647914002200,7.165002197265625,-0.3517449200153351,-9.379864692687988,-0.2273181527853012
1772729647931347500,7.182347412109375,-0.2991028428077698,-9.119047164916992,-0.040677983313798904
1772729647948692500,7.1996923828125,-0.5168496966362,-9.456435203552246,-0.0933200865983963
1772729647966037500,7.21703759765625,-0.8590233325958252,-10.109675407409668,-0.6675975322723389
1772729647983382800,7.2343828125,-0.6245267391204834,-11.162517547607422,-0.6556333899497986
1772729648000727800,7.251727783203125,-0.349352091550827,-10.84427261352539,-0.7417750358581543
1772729648018073000,7.269072998046875,-0.397208571434021,-9.533005714416504,-0.8087740540504456
1772729648035418000,7.286418212890625,-1.2394821643829346,-9.501898765563965,0.6484549641609192
1772729648052763100,7.30376318359375,-1.4763715267181396,-8.958727836608887,1.9405791759490967
1772729648070108400,7.3211083984375,-1.0600204467773438,-9.834501266479492,2.146361827850342
1772729648087453400,7.338453369140625,-0.32303106784820557,-10.777273178100586,1.7252250909805298
1772729648104798700,7.355798828125,0.23449662327766418,-11.138589859008789,1.526620864868164
1772729648122143700,7.373143798828125,0.26560330390930176,-10.901700019836426,1.825723648071289
1772729648139488800,7.39048876953125,-0.1052841991186142,-10.64806079864502,1.3519448041915894
1772729648156833800,7.407833740234375,-0.6675975322723389,-10.054640769958496,0.6604190468788147
1772729648174179000,7.425178955078125,-0.4259224236011505,-9.7938232421875,0.02153540402650833
1772729648191524000,7.442524169921875,0.1818545162677765,-9.4061861038208,0.06939185410737991
1772729648208869400,7.459869384765625,0.3158525824546814,-9.631111145019531,0.20338992774486542
1772729648226214400,7.47721435546875,0.12681959569454193,-10.03549861907959,0.4163511395454407
1772729648243559400,7.494559326171875,-0.37088751792907715,-10.37767219543457,0.6364908218383789
1772729648260904700,7.51190478515625,-0.4737788736820221,-10.183853149414062,1.2011969089508057
1772729648278249700,7.529249755859375,-0.4139583110809326,-10.109675407409668,1.5314065217971802
1772729648295594800,7.5465947265625,-0.31345975399017334,-10.176674842834473,1.4811571836471558
1772729648312940000,7.56393994140625,-0.36610186100006104,-10.17428207397461,0.9762716293334961
1772729648330285000,7.58128515625,-0.3397808074951172,-10.191031455993652,0.6652047038078308
1772729648347630300,7.59863037109375,-0.33738797903060913,-9.879964828491211,0.4713860750198364
1772729648364975400,7.615975341796875,-0.28953152894973755,-9.31047248840332,1.215553879737854
1772729648382320400,7.6333203125,0.914058268070221,-9.760323524475098,1.0049854516983032
1772729648399665700,7.650665771484375,-0.4426721930503845,-10.39920711517334,0.2991028428077698
1772729648417010700,7.6680107421875,-0.275174617767334,-12.837493896484375,0.1818545162677765
1772729648434355700,7.685355712890625,-0.7369893789291382,-11.72722339630127,-0.04785645380616188
1772729648451701000,7.702700927734375,-0.2871387302875519,-12.356535911560059,-0.4426721930503845
1772729648469046000,7.7200458984375,1.0432707071304321,-12.555140495300293,-0.014356935396790504
1772729648486391000,7.73739111328125,2.108076810836792,-13.832907676696777,0.3732803463935852
1772729648503736300,7.754736328125,1.4261223077774048,-13.512269020080566,-0.5048855543136597
1772729648521081300,7.772081298828125,-0.48574298620224,-13.37587833404541,-0.7369893789291382
1772729648538426600,7.789426513671875,-4.206582069396973,-11.861222267150879,-1.1700903177261353
1772729648555771600,7.806771728515625,-3.445664644241333,-13.844871520996094,-0.4307080805301666
1772729648573116700,7.82411669921875,-4.01037073135376,-13.208380699157715,-2.6297121047973633
1772729648590462000,7.8414619140625,-2.4263222217559814,-9.363115310668945,-2.7876384258270264
1772729648607807000,7.858806884765625,0.43549370765686035,-7.302894592285156,-4.622933387756348
1772729648625152000,7.876152099609375,0.7680960893630981,-6.709474563598633,-3.603590965270996
1772729648642497300,7.893497314453125,-1.9142581224441528,-7.307680130004883,1.1892328262329102
1772729648659842300,7.91084228515625,-3.046063184738159,-6.798008918762207,2.8498518466949463
1772729648677187300,7.928187255859375,17.103897094726562,-9.858428955078125,-5.936593055725098
1772729648694532600,7.94553271484375,7.369893550872803,3.7328033447265625,-14.10568904876709
1772729648711877600,7.962877685546875,0.22971096634864807,-3.1585259437561035,-8.676374435424805
1772729648729222700,7.98022265625,0.3086741268634796,-8.678768157958984,-6.857829570770264
1772729648746568000,7.99756787109375,0.9427721500396729,-7.527820110321045,-7.4847493171691895
1772729648763913000,8.014912841796875,2.579462766647339,-3.366701364517212,-9.611968994140625
1772729648781258000,8.032258056640625,7.18086051940918,-3.304488182067871,-12.0933256149292
1772729648798603300,8.049603271484376,6.946363925933838,-9.186046600341797,-16.85743522644043
1772729648815948300,8.0669482421875,4.701896667480469,-9.829715728759766,-20.717058181762695
1772729648833293300,8.084293212890625,6.965506553649902,-10.045069694519043,-22.4016056060791
1772729648850638600,8.101638671875,6.496513366699219,-11.57408332824707,-20.937198638916016
1772729648867983600,8.118983642578126,5.7547383308410645,-12.942777633666992,-16.87418556213379
1772729648885329000,8.136328857421875,6.5419769287109375,-13.49312686920166,-14.287544250488281
1772729648902674000,8.153673828125,8.346165657043457,-13.564911842346191,-14.933606147766113
1772729648920019000,8.17101904296875,8.142775535583496,-13.12702465057373,-15.349957466125488
1772729648937364200,8.1883642578125,7.523034572601318,-13.366307258605957,-13.205987930297852
1772729648954709200,8.205709228515625,7.188039302825928,-13.564911842346191,-8.886942863464355
1772729648972054300,8.22305419921875,7.252645492553711,-13.11266803741455,-5.84566593170166
1772729648989399600,8.240399658203126,6.321837425231934,-11.966506004333496,-5.225924491882324
1772729649006744600,8.25774462890625,4.900500774383545,-9.908679008483887,-5.355136871337891
1772729649024089900,8.27508984375,4.924428939819336,-8.250452041625977,-3.6777684688568115
1772729649041435000,8.292434814453125,5.314459323883057,-6.206982135772705,-1.3663017749786377
1772729649058780000,8.30977978515625,4.895715236663818,-4.694717884063721,-0.031106693670153618
1772729649076125000,8.327125,4.132404804229736,-4.034298896789551,-0.062213387340307236
1772729649093470200,8.34447021484375,2.5603201389312744,-3.053241729736328,-0.1339980661869049
1772729649110815200,8.361815185546876,1.557727575302124,-1.373480200767517,0.8183453679084778
1772729649128160500,8.379160400390624,1.2681959867477417,-0.2632105052471161,1.9094724655151367
1772729649145505500,8.396505615234375,1.5864413976669312,0.8446664214134216,1.6558332443237305
1772729649162850600,8.4138505859375,20.949161529541016,2.469393014907837,3.4791641235351562
1772729649180195800,8.43119580078125,16.048662185668945,4.328616142272949,10.470992088317871
1772729649197540900,8.448540771484375,8.327022552490234,1.7754744291305542,1.789831280708313
1772729649214886100,8.46588623046875,6.238088607788086,1.9525432586669922,-0.7561319470405579
1772729649232231200,8.483231201171876,7.420143127441406,4.386044025421143,-0.31345975399017334
1772729649249576200,8.500576171875,7.369893550872803,4.960321426391602,0.8255237936973572
1772729649266921500,8.51792138671875,6.623332977294922,4.40757942199707,0.97148597240448
1772729649284266500,8.5352666015625,6.484549522399902,4.433900356292725,2.5148565769195557
1772729649301611500,8.552611572265626,6.905686378479004,4.381258487701416,3.376272678375244
1772729649318956800,8.569956787109374,7.226324558258057,3.9146578311920166,3.431307554244995
1772729649336301800,8.5873017578125,6.805187702178955,3.9984066486358643,3.517449378967285
1772729649353647000,8.604647216796875,6.989434719085693,4.900500774383545,3.1274192333221436
1772729649370992000,8.6219921875,7.465606689453125,5.154139995574951,2.337787628173828
1772729649388337200,8.639337158203125,7.5326056480407715,5.108676433563232,1.9764715433120728
1772729649405682200,8.65668212890625,7.865208148956299,5.391029357910156,1.454836130142212
1772729649423027500,8.67402734375,7.214360237121582,5.9676995277404785,1.2873386144638062
1772729649440372500,8.69137255859375,6.4079790115356445,6.601797580718994,1.2658032178878784
1772729649457717800,8.7087177734375,5.675775527954102,7.066005229949951,1.2801600694656372
1772729649475062800,8.726062744140625,4.555934429168701,7.805387496948242,0.9092726111412048
1772729649492407800,8.74340771484375,5.07517671585083,8.714659690856934,0.36610186100006104
1772729649509753000,8.760753173828125,5.742774486541748,8.24566650390625,0.4570291340351105
1772729649527098000,8.77809814453125,6.16391134262085,7.3052873611450195,1.2323036193847656
1772729649544443400,8.795443359375,6.367300987243652,6.750152587890625,1.7252250909805298
1772729649561788400,8.812788330078124,6.544369697570801,6.424728870391846,1.7826528549194336
1772729649579133400,8.830133544921875,6.783652305603027,6.544369697570801,1.801795482635498
1772729649596478700,8.847478759765625,6.544369697570801,6.656832695007324,1.8352949619293213
1772729649613823700,8.86482373046875,6.329015731811523,6.302694797515869,2.2755744457244873
1772729649631168800,8.882168701171874,6.338587284088135,6.486942291259766,1.9310078620910645
1772729649648514000,8.89951416015625,6.7621169090271,6.9104719161987305,1.5385849475860596
1772729649665859000,8.916859130859375,7.240681171417236,7.046862602233887,1.3567304611206055
1772729649683204000,8.9342041015625,7.345965385437012,7.013363361358643,1.2849457263946533
1772729649700549400,8.95154931640625,6.647261142730713,7.3914289474487305,1.466800332069397
1772729649717894400,8.968894287109375,6.187839508056641,7.025327205657959,0.8255237936973572
1772729649735239400,8.986239501953126,6.072983741760254,7.625925540924072,0.9523434042930603
1772729649752584700,9.003584716796874,6.561119556427002,7.427321434020996,0.7202396392822266
1772729649769929700,9.0209296875,7.3052873611450195,7.513463020324707,0.9595218896865845
