time,seconds_elapsed,z,y,x
1772607567382780000,0.00377978515625,7.2335028648376465,5.848058700561523,0.32542386651039124
1772607567400126000,0.0211259765625,6.685546398162842,5.584847927093506,0.47617170214653015
1772607567417472000,0.038471923828125,6.029912948608398,5.264209747314453,0.7130611538887024
1772607567434818000,0.055818115234375,6.273981094360352,5.498706340789795,0.7106683254241943
1772607567452163800,0.073163818359375,6.7621169090271,5.247459888458252,0.4737788736820221
1772607567469510100,0.09051025390625,7.070790767669678,5.359922885894775,0.2225325107574463
1772607567486856000,0.10785595703125,6.69990348815918,6.082555294036865,-0.5982056856155396
1772607567504202000,0.125201904296875,6.147161483764648,6.269195556640625,-0.8279166221618652
1772607567521548000,0.142548095703125,5.580062389373779,5.788238048553467,-0.7010970115661621
1772607567538894000,0.15989404296875,5.7858452796936035,5.395814895629883,-1.0648061037063599
1772607567556240100,0.177240234375,7.03489875793457,4.211368083953857,-2.062613010406494
1772607567573586200,0.194586181640625,6.618547439575195,2.9838497638702393,-1.794616937637329
1772607567590932200,0.21193212890625,6.400800704956055,4.512863636016846,-1.7180466651916504
1772607567608278300,0.2292783203125,2.9455647468566895,6.211767673492432,-1.7826528549194336
1772607567625624300,0.246624267578125,5.639883041381836,5.78345251083374,-1.8711873292922974
1772607567642970400,0.263970458984375,7.470392227172852,5.209175109863281,-0.33499518036842346
1772607567660316400,0.28131640625,7.987242221832275,4.051048755645752,-0.4139583110809326
1772607567677662500,0.298662353515625,7.692924976348877,4.371686935424805,-1.3854442834854126
1772607567695008500,0.316008544921875,8.659625053405762,5.580062389373779,-0.885344386100769
1772607567712354600,0.3333544921875,9.044869422912598,6.692724704742432,-0.8566305041313171
1772607567729700600,0.35070068359375,7.013363361358643,5.0464630126953125,-2.715853691101074
1772607567747046700,0.368046630859375,7.685746192932129,3.7256247997283936,-2.0793628692626953
1772607567764392700,0.385392822265625,9.477970123291016,4.0797624588012695,-2.455035924911499
1772607567781738800,0.40273876953125,8.654839515686035,4.47697114944458,-1.306481122970581
1772607567799084800,0.420084716796875,9.293723106384277,3.6945180892944336,-1.454836130142212
1772607567816430800,0.437430908203125,9.367900848388672,1.6151553392410278,-0.8781659007072449
1772607567833777000,0.45477685546875,8.872586250305176,0.5072783827781677,2.4406790733337402
1772607567851123000,0.472123046875,8.520841598510742,1.4165509939193726,5.309673309326172
1772607567868469000,0.489468994140625,5.687739372253418,-1.8951154947280884,0.7226324677467346
1772607567885815000,0.50681494140625,5.714060306549072,-3.232703447341919,-0.08614161610603333
1772607567903161000,0.5241611328125,4.675575256347656,-4.084548473358154,-0.363709032535553
1772607567920507100,0.541507080078125,5.072783946990967,-5.07517671585083,-1.3399807214736938
1772607567937853200,0.558853271484375,4.730610370635986,-3.730410575866699,-1.9669002294540405
1772607567955199200,0.57619921875,2.2325034141540527,-2.7038896083831787,-3.139383316040039
1772607567972545300,0.593545166015625,0.8662018179893494,-3.2781670093536377,-4.077369689941406
1772607567989891300,0.610891357421875,-0.0933200865983963,-3.1992039680480957,-5.335994720458984
1772607568007237400,0.6282373046875,0.9427721500396729,-1.6510475873947144,-8.537590980529785
1772607568024583400,0.64558349609375,4.481756687164307,-2.799602508544922,-10.918449401855469
1772607568041929500,0.662929443359375,8.937192916870117,-4.876572608947754,-10.74855899810791
1772607568059275500,0.680275634765625,12.954741477966309,-5.771488189697266,-11.57408332824707
1772607568076621600,0.69762158203125,13.88076400756836,-7.1856465339660645,-10.53799057006836
1772607568093967600,0.714967529296875,15.168102264404297,-7.250252723693848,-10.650453567504883
1772607568111313700,0.732313720703125,16.94357681274414,-8.786444664001465,-10.839486122131348
1772607568128659700,0.74965966796875,16.60858154296875,-7.554141044616699,-12.021540641784668
1772607568146005800,0.767005859375,14.459827423095703,-8.544769287109375,-12.736994743347168
1772607568163351800,0.784351806640625,15.936199188232422,-7.630711555480957,-13.452448844909668
1772607568180697900,0.80169775390625,16.118053436279297,-8.135597229003906,-13.146167755126953
1772607568198044000,0.8190439453125,17.216358184814453,-10.841879844665527,-13.241880416870117
1772607568215390000,0.836389892578125,12.272787094116211,-9.166903495788574,-15.562918663024902
1772607568232736000,0.853736083984375,-0.03349951654672623,-0.97148597240448,-22.281965255737305
1772607568250082000,0.87108203125,0.17228323221206665,-7.11146879196167,-12.847064971923828
1772607568267428000,0.888427978515625,4.015156269073486,-13.74198055267334,-5.398207664489746
1772607568284774100,0.905774169921875,4.0079779624938965,-13.2299165725708,-2.5052852630615234
1772607568302120200,0.9231201171875,3.586841106414795,-12.739387512207031,-1.2035897970199585
1772607568319466200,0.94046630859375,7.9585280418396,-17.07518196105957,1.97407865524292
1772607568336812300,0.957812255859375,6.343372821807861,-12.215359687805176,-0.8662018179893494
1772607568354158300,0.975158447265625,5.996413707733154,-9.645467758178711,-2.7589244842529297
1772607568371504400,0.99250439453125,6.302694797515869,-8.236095428466797,-5.249852657318115
1772607568388850400,1.009850341796875,4.211368083953857,-6.0610198974609375,-7.077969551086426
1772607568406196500,1.027196533203125,8.772088050842285,-8.417949676513672,-6.262016773223877
1772607568423542500,1.04454248046875,5.158925533294678,-8.819944381713867,-4.156332969665527
1772607568440888300,1.061888427734375,5.929414749145508,-8.915657043457031,-2.794816732406616
1772607568458234400,1.079234375,6.534798622131348,-7.0923261642456055,-2.234896421432495
1772607568475580400,1.096580322265625,5.625525951385498,-4.7473602294921875,-3.3164522647857666
1772607568492926500,1.113926513671875,8.10688304901123,-4.620540618896484,-2.888136863708496
1772607568510272800,1.131272705078125,7.216753005981445,-4.244867324829102,-3.328416347503662
1772607568527618600,1.14861865234375,7.262216567993164,-5.747560024261475,-2.3545374870300293
1772607568544964600,1.165964599609375,7.542177200317383,-4.333401679992676,-3.273381471633911
1772607568562310700,1.183310546875,6.692724704742432,0.6197410821914673,-3.737588882446289
1772607568579656700,1.20065673828125,1.4715858697891235,0.6436693072319031,-2.4741785526275635
1772607568597002800,1.218002685546875,-0.20099709928035736,-0.1339980661869049,-2.0003998279571533
1772607568614348800,1.235348876953125,-2.3330020904541016,-1.404586911201477,-0.059820566326379776
1772607568631694800,1.25269482421875,2.794816732406616,-4.42193603515625,0.37088751792907715
1772607568649041000,1.270041015625,5.029713153839111,-5.19960355758667,0.7561319470405579
1772607568666387000,1.287386962890625,5.20678186416626,-3.610769271850586,-0.05024927482008934
1772607568683733000,1.30473291015625,5.438885688781738,-3.8596229553222656,-0.5359922647476196
1772607568701079000,1.3220791015625,5.328815937042236,-4.967499732971191,-0.7250252366065979
1772607568718425000,1.339425048828125,6.439085960388184,-6.422336101531982,-0.24406790733337402
1772607568735771100,1.356771240234375,7.429714202880859,-8.291130065917969,1.4691931009292603
1772607568753117200,1.3741171875,6.434299945831299,-7.130611419677734,-1.00259268283844
1772607568770463200,1.391463134765625,9.489934921264648,-8.616554260253906,0.8255237936973572
1772607568787809300,1.408809326171875,7.606783390045166,-7.152146816253662,-1.246660590171814
1772607568805155300,1.4261552734375,8.882157325744629,-9.884750366210938,0.4043870270252228
1772607568822501400,1.44350146484375,7.45364236831665,-12.145967483520508,0.8374879360198975
1772607568839847700,1.46084765625,5.838487148284912,-9.92542839050293,-0.5312066078186035
1772607568857193500,1.478193359375,6.448657035827637,-7.843672752380371,-0.1339980661869049
1772607568874539500,1.49553955078125,9.013762474060059,-9.702896118164062,-1.9621145725250244
1772607568891885600,1.512885498046875,4.579862594604492,-9.073583602905273,-1.7874385118484497
1772607568909231600,1.530231689453125,1.4452649354934692,-7.642675399780273,-2.321038007736206
1772607568926577700,1.54757763671875,0.2273181527853012,-7.635497093200684,-3.4265220165252686
1772607568943923700,1.564923828125,-0.10767702013254166,-8.805587768554688,-3.3930225372314453
1772607568961269800,1.582269775390625,1.8089739084243774,-10.849058151245117,-0.8350951075553894
1772607568978616000,1.599615966796875,1.399801254272461,-11.076375961303711,-4.12761926651001
1772607568995962000,1.616962158203125,4.094119548797607,-6.379265308380127,-9.001798629760742
1772607569013308000,1.634307861328125,2.2707886695861816,-8.755337715148926,-6.075376510620117
1772607569030654000,1.651654052734375,2.775674343109131,-7.936992645263672,-3.5844483375549316
1772607569048000000,1.669,2.258824586868286,-6.477370738983154,-7.113861560821533
1772607569065346000,1.686345947265625,0.9667003750801086,-8.161917686462402,-5.737988471984863
1772607569082692400,1.7036923828125,-1.2801600694656372,-11.24626636505127,-6.709474563598633
1772607569100038400,1.721038330078125,-0.5670989751815796,-9.214759826660156,-4.6995038986206055
1772607569117384400,1.738384521484375,0.02392822690308094,-11.741580963134766,-3.014956474304199
1772607569134730500,1.75573046875,2.225325107574463,-15.976877212524414,1.9334007501602173
1772607569152076300,1.773076171875,3.744767427444458,-18.312271118164062,4.278367042541504
1772607569169422300,1.79042236328125,1.8185452222824097,-12.081361770629883,1.337587833404541
1772607569186768400,1.807768310546875,-1.4524433612823486,-9.609575271606445,1.8903298377990723
1772607569204114400,1.825114501953125,-0.7322037220001221,-8.575876235961914,1.4428720474243164
1772607569221460500,1.84246044921875,-1.0265209674835205,-9.951749801635742,-1.0648061037063599
1772607569238806800,1.859806884765625,-0.02632104977965355,-9.856036186218262,-1.5170495510101318
1772607569256152600,1.877152587890625,1.8113667964935303,-8.906085968017578,-1.1988041400909424
1772607569273498600,1.89449853515625,1.1724830865859985,-8.334200859069824,-1.947757601737976
1772607569290844700,1.9118447265625,-0.4019941985607147,-8.372486114501953,-1.9645073413848877
1772607569308190700,1.929190673828125,-0.46420758962631226,-9.066405296325684,-0.9044869542121887
1772607569325536800,1.946536865234375,-0.4426721930503845,-9.592825889587402,-0.9667003750801086
1772607569342882800,1.9638828125,-0.7417750358581543,-9.949356079101562,-1.6630117893218994
1772607569360228900,1.981228759765625,-0.5288137793540955,-11.516654968261719,-1.5984054803848267
1772607569377575000,1.998574951171875,-0.43549370765686035,-11.23908805847168,-1.1341979503631592
1772607569394921000,2.0159208984375,-0.7992027401924133,-9.157332420349121,-1.8975083827972412
1772607569412267000,2.03326708984375,-0.035892341285943985,-6.941578388214111,-0.42352959513664246
1772607569429613000,2.050613037109375,0.48813581466674805,-1.3591232299804688,0.7848458290100098
1772607569446959000,2.067958984375,0.6005984544754028,-0.6795616149902344,1.007378339767456
1772607569464305200,2.08530517578125,1.1198409795761108,-5.2043890953063965,-0.7178468108177185
1772607569481651200,2.102651123046875,0.6508477330207825,-7.795815944671631,-0.7968099117279053
1772607569498997200,2.119997314453125,1.2969099283218384,-8.654839515686035,0.3852444589138031
1772607569516343300,2.13734326171875,1.184447169303894,-12.031112670898438,0.9834501147270203
1772607569533689300,2.154689453125,1.0480563640594482,-22.676780700683594,-1.0648061037063599
1772607569551035400,2.172035400390625,-0.7704889178276062,-18.003597259521484,0.7417750358581543
1772607569568381400,2.18938134765625,0.7776673436164856,-15.41934871673584,0.6915257573127747
1772607569585727500,2.2067275390625,0.9786644577980042,-14.299508094787598,0.33020952343940735
1772607569603073500,2.224073486328125,0.41874396800994873,-12.69153118133545,0.8446664214134216
1772607569620419600,2.241419677734375,0.2632105052471161,-10.585846900939941,1.8113667964935303
1772607569637765600,2.258765625,1.404586911201477,-8.169096946716309,2.3234307765960693
1772607569655111700,2.276111572265625,1.545763373374939,-7.9657063484191895,2.400001049041748
1772607569672457700,2.293457763671875,0.02392822690308094,-8.583054542541504,2.610569477081299
1772607569689803800,2.3108037109375,-0.6125625967979431,-6.915257453918457,1.3256237506866455
1772607569707149800,2.32814990234375,1.0528420209884644,-8.070990562438965,0.10767702013254166
1772607569724496000,2.345495849609375,0.6819544434547424,-10.195816993713379,1.1988041400909424
1772607569741842000,2.362842041015625,0.2679961323738098,-10.652846336364746,1.3495519161224365
1772607569759188000,2.38018798828125,0.059820566326379776,-10.604990005493164,1.1940184831619263
1772607569776534000,2.397533935546875,0.059820566326379776,-10.222138404846191,0.914058268070221
1772607569793880000,2.414880126953125,0.19621145725250244,-9.81535816192627,0.6891329288482666
1772607569811226000,2.43222607421875,0.5431707501411438,-9.367900848388672,0.5910272002220154
1772607569828572200,2.449572265625,0.6484549641609192,-9.193224906921387,0.7178468108177185
1772607569845918200,2.466918212890625,0.44745782017707825,-9.891928672790527,1.0815558433532715
1772607569863264300,2.48426416015625,0.48813581466674805,-9.731609344482422,0.7824530005455017
1772607569880610300,2.5016103515625,0.1986042857170105,-9.382257461547852,0.062213387340307236
1772607569897956400,2.518956298828125,-0.17706887423992157,-9.497113227844238,0.040677983313798904
1772607569915302400,2.536302490234375,-0.0526420995593071,-9.970891952514648,0.27756741642951965
1772607569932648400,2.5536484375,0.10767702013254166,-9.908679008483887,0.13878370821475983
1772607569949994500,2.570994384765625,0.22013968229293823,-9.671789169311523,0.13160525262355804
1772607569967340500,2.588340576171875,-0.1818545162677765,-9.822537422180176,0.48095735907554626
1772607569984686600,2.6056865234375,-0.12442677468061447,-9.762716293334961,0.41156548261642456
1772607570002032600,2.62303271484375,0.064606212079525,-9.731609344482422,0.22971096634864807
1772607570019378700,2.640378662109375,0.22492532432079315,-9.8871431350708,0.26560330390930176
1772607570036724700,2.657724853515625,0.26081767678260803,-9.975677490234375,0.30628129839897156
1772607570054070800,2.67507080078125,0.16271193325519562,-10.133604049682617,0.5479564070701599
1772607570071416800,2.692416748046875,-0.064606212079525,-10.418350219726562,0.849452018737793
1772607570088763000,2.709762939453125,0.07178468257188797,-9.982855796813965,0.5264210104942322
1772607570106109000,2.72710888671875,0.1339980661869049,-9.693324089050293,0.29431718587875366
1772607570123455000,2.744455078125,0.4139583110809326,-9.592825889587402,0.3206382393836975
1772607570140801000,2.761801025390625,0.41156548261642456,-9.523433685302734,0.6699903607368469
1772607570158147000,2.77914697265625,0.28953152894973755,-9.54496955871582,0.7537391185760498
1772607570175493000,2.7964931640625,0.10289137065410614,-9.604789733886719,0.6317051649093628
1772607570192839200,2.813839111328125,-0.04785645380616188,-9.829715728759766,0.7010970115661621
1772607570210185200,2.831185302734375,-0.064606212079525,-10.186245918273926,0.6771687865257263
1772607570227531300,2.84853125,-0.062213387340307236,-10.25324535369873,0.6484549641609192
1772607570244877300,2.865877197265625,-0.08853443711996078,-10.107282638549805,0.7920243144035339
1772607570262223400,2.883223388671875,-0.08374879509210587,-9.994820594787598,1.1629117727279663
1772607570279569400,2.9005693359375,-0.02871387079358101,-9.942177772521973,1.4165509939193726
1772607570296915500,2.91791552734375,0.031106693670153618,-9.954142570495605,1.4979069232940674
1772607570314261500,2.935261474609375,0.08614161610603333,-9.865608215332031,1.428515076637268
1772607570331607600,2.952607666015625,0.20099709928035736,-9.755537986755371,1.2873386144638062
1772607570348953600,2.96995361328125,0.27038896083831787,-9.695717811584473,1.2346965074539185
1772607570366299600,2.987299560546875,0.24406790733337402,-9.767501831054688,1.2418749332427979
1772607570383645700,3.004645751953125,0.16271193325519562,-9.870393753051758,1.222732424736023
1772607570400991700,3.02199169921875,0.1746760457754135,-9.882357597351074,1.1748759746551514
1772607570418338000,3.039338134765625,0.15074782073497772,-9.77707290649414,1.0671988725662231
1772607570435683800,3.056683837890625,0.21774685382843018,-9.755537986755371,0.8757730722427368
1772607570453030000,3.07402978515625,0.22013968229293823,-9.729216575622559,0.7561319470405579
1772607570470376000,3.0913759765625,0.1459621787071228,-9.729216575622559,0.7704889178276062
1772607570487722000,3.108721923828125,0.06699903309345245,-9.750752449035645,0.8327022790908813
1772607570505068000,3.126068115234375,0.031106693670153618,-9.743574142456055,0.9044869542121887
1772607570522414300,3.143414306640625,0.08135596662759781,-9.78664493560791,1.093519926071167
1772607570539760400,3.160760498046875,0.18903298676013947,-9.899106979370117,1.2083754539489746
1772607570557106400,3.1781064453125,0.2105683982372284,-9.906285285949707,1.0600204467773438
1772607570574452200,3.1954521484375,0.2632105052471161,-9.899106979370117,0.7106683254241943
1772607570591798300,3.21279833984375,0.21296121180057526,-10.001998901367188,0.4977070987224579
1772607570609144600,3.23014453125,0.1052841991186142,-10.013962745666504,0.41874396800994873
1772607570626490600,3.24749072265625,-0.07417750358581543,-9.982855796813965,0.5120640397071838
1772607570643836700,3.264836669921875,-0.038285162299871445,-9.844072341918945,0.519242525100708
1772607570661182700,3.2821826171875,0.08614161610603333,-9.705288887023926,0.5742774605751038
1772607570678528800,3.29952880859375,0.1818545162677765,-9.731609344482422,0.5742774605751038
1772607570695874800,3.316874755859375,0.1579262912273407,-9.738788604736328,0.5240281820297241
1772607570713220900,3.334220947265625,0.059820566326379776,-9.817750930786133,0.42831525206565857
1772607570730567000,3.35156689453125,-0.02153540402650833,-9.820143699645996,0.5072783827781677
1772607570747913000,3.368912841796875,-0.016749758273363113,-9.848857879638672,0.6699903607368469
1772607570765259000,3.386259033203125,0.019142581149935722,-9.748359680175781,0.7704889178276062
1772607570782605000,3.40360498046875,0.007178467698395252,-9.741181373596191,0.8231309652328491
1772607570799951000,3.420951171875,-0.11006984114646912,-9.712467193603516,0.8446664214134216
1772607570817297200,3.438297119140625,-0.16031911969184875,-9.762716293334961,0.8446664214134216
1772607570834643200,3.455643310546875,-0.16271193325519562,-9.76989459991455,0.8901300430297852
1772607570851989200,3.4729892578125,-0.22492532432079315,-9.803394317626953,1.031306505203247
1772607570869335300,3.490335205078125,-0.1866401731967926,-9.78664493560791,1.1940184831619263
1772607570886681300,3.507681396484375,-0.11006984114646912,-9.834501266479492,1.3184453248977661
1772607570904027400,3.52502734375,-0.031106693670153618,-9.856036186218262,1.3519448041915894
1772607570921373400,3.54237353515625,0.004785645287483931,-9.865608215332031,1.1724830865859985
1772607570938719500,3.559719482421875,0,-9.836894035339355,0.9930213689804077
1772607570956065500,3.5770654296875,-0.038285162299871445,-9.851250648498535,0.851844847202301
1772607570973411600,3.59441162109375,-0.035892341285943985,-9.906285285949707,0.760917603969574
1772607570990757600,3.611757568359375,-0.014356935396790504,-9.93978500366211,0.7058826684951782
1772607571008103700,3.629103759765625,0.02632104977965355,-9.908679008483887,0.6891329288482666
1772607571025449700,3.64644970703125,0.04307080805301666,-9.772287368774414,0.6436693072319031
1772607571042795800,3.663795654296875,-0.031106693670153618,-9.667003631591797,0.5575276613235474
1772607571060141800,3.681141845703125,-0.11485548317432404,-9.693324089050293,0.5934200286865234
1772607571077487900,3.69848779296875,-0.18903298676013947,-9.848857879638672,0.7322037220001221
1772607571094834000,3.715833984375,-0.2225325107574463,-9.958928108215332,0.849452018737793
1772607571112180000,3.733179931640625,-0.30149564146995544,-9.961320877075195,0.8973084688186646
1772607571129526000,3.750526123046875,-0.31824541091918945,-9.930213928222656,0.9571290612220764
1772607571146872000,3.7678720703125,-0.2727817893028259,-9.891928672790527,0.9523434042930603
1772607571164218000,3.785218017578125,-0.22492532432079315,-9.858428955078125,0.8901300430297852
1772607571181564200,3.802564208984375,-0.16510476171970367,-9.822537422180176,0.8662018179893494
1772607571198910200,3.81991015625,-0.16510476171970367,-9.848857879638672,0.9403793215751648
1772607571216256300,3.83725634765625,-0.16749759018421173,-9.903892517089844,1.1389836072921753
1772607571233602300,3.854602294921875,-0.21774685382843018,-9.863214492797852,1.1581261157989502
1772607571250948400,3.8719482421875,-0.1818545162677765,-9.774680137634277,1.0600204467773438
1772607571268294400,3.88929443359375,-0.14356936514377594,-9.839286804199219,0.973878800868988
1772607571285640400,3.906640380859375,-0.12203395366668701,-9.884750366210938,0.9260223507881165
1772607571302986500,3.923986572265625,-0.1052841991186142,-9.77707290649414,0.8183453679084778
1772607571320332500,3.94133251953125,-0.11964113265275955,-9.726823806762695,0.7489534616470337
1772607571337678600,3.9586787109375,-0.08614161610603333,-9.722038269042969,0.8111668825149536
1772607571355024600,3.976024658203125,0.014356935396790504,-9.836894035339355,0.8757730722427368
1772607571372371000,3.993370849609375,0.02392822690308094,-9.899106979370117,0.8183453679084778
1772607571389717000,4.010717041015625,0.007178467698395252,-9.856036186218262,0.7752745151519775
1772607571407063000,4.02806298828125,-0.014356935396790504,-9.731609344482422,0.7393822073936462
1772607571424409000,4.0454091796875,-0.04785645380616188,-9.908679008483887,0.7417750358581543
1772607571441755100,4.062755126953125,-0.07657032459974289,-9.729216575622559,0.7417750358581543
1772607571459101200,4.08010107421875,-0.05024927482008934,-9.860821723937988,0.8685946464538574
1772607571476447200,4.097447265625,-0.009571290574967861,-9.903892517089844,0.7992027401924133
1772607571493793300,4.114793212890625,-0.0023928226437419653,-9.834501266479492,0.5742774605751038
1772607571511139300,4.132139404296875,0.016749758273363113,-9.934999465942383,0.4618147611618042
1772607571528485400,4.1494853515625,0.04307080805301666,-10.05703353881836,0.5455635786056519
1772607571545831400,4.16683154296875,0.06699903309345245,-10.047462463378906,0.5383850932121277
1772607571563177500,4.184177490234375,0.05742774158716202,-9.915857315063477,0.48574298620224
1772607571580523500,4.2015234375,0.05742774158716202,-9.844072341918945,0.45224347710609436
1772607571597869600,4.21886962890625,0.059820566326379776,-9.78664493560791,0.5383850932121277
1772607571615215600,4.236215576171875,0.05742774158716202,-9.824930191040039,0.729810893535614
1772607571632561700,4.253561767578125,0.08374879509210587,-9.920642852783203,0.8781659007072449
1772607571649907700,4.27090771484375,0.06939185410737991,-9.975677490234375,0.8973084688186646
1772607571667253800,4.288253662109375,0.0933200865983963,-10.068997383117676,0.8183453679084778
1772607571684599800,4.305599853515625,0.08374879509210587,-10.13599681854248,0.7824530005455017
1772607571701945900,4.32294580078125,0.009571290574967861,-10.088140487670898,0.8087740540504456
1772607571719292000,4.3402919921875,-0.0933200865983963,-10.04267692565918,0.882951557636261
1772607571736638000,4.357637939453125,-0.16031911969184875,-10.131211280822754,0.882951557636261
1772607571753984000,4.37498388671875,-0.1459621787071228,-10.224531173706055,0.8207381963729858
1772607571771330000,4.392330078125,-0.16510476171970367,-10.296316146850586,0.763310432434082
1772607571788676000,4.409676025390625,-0.07178468257188797,-10.296316146850586,0.6364908218383789
1772607571806022100,4.427022216796875,-0.06699903309345245,-10.217352867126465,0.5551348328590393
1772607571823368200,4.4443681640625,-0.09092725813388824,-10.1216402053833,0.6891329288482666
1772607571840714200,4.46171435546875,-0.12203395366668701,-10.04985523223877,0.8279166221618652
1772607571858060300,4.479060302734375,-0.2153540402650833,-9.980463027954102,1.0049854516983032
1772607571875406300,4.49640625,-0.25363919138908386,-9.963713645935059,1.1461620330810547
1772607571892752400,4.51375244140625,-0.25363919138908386,-9.997213363647461,1.2299108505249023
1772607571910098400,4.531098388671875,-0.21296121180057526,-10.083354949951172,1.275374412536621
1772607571927444500,4.548444580078125,-0.2512463629245758,-10.212567329406738,1.191625714302063
1772607571944790500,4.56579052734375,-0.30149564146995544,-10.26042366027832,1.0863415002822876
1772607571962136800,4.58313671875,-0.31106695532798767,-10.332208633422852,1.0049854516983032
1772607571979483000,4.60048291015625,-0.2847459018230438,-10.3681001663208,0.9020941257476807
1772607571996829000,4.617828857421875,-0.22492532432079315,-10.336994171142578,0.7680960893630981
1772607572014175000,4.635175048828125,-0.25363919138908386,-10.427921295166016,0.8087740540504456
1772607572031521000,4.65252099609375,-0.20338992774486542,-10.444670677185059,0.7968099117279053
1772607572048867000,4.6698671875,-0.2105683982372284,-10.435099601745605,0.7561319470405579
1772607572066213000,4.687213134765625,-0.22492532432079315,-10.449456214904785,0.7034898400306702
1772607572083559200,4.70455908203125,-0.20817556977272034,-10.439885139465332,0.7034898400306702
1772607572100905200,4.7219052734375,-0.1698904037475586,-10.394421577453613,0.7680960893630981
1772607572118251300,4.739251220703125,-0.1052841991186142,-10.286744117736816,0.8327022790908813
1772607572135597300,4.756597412109375,-0.07178468257188797,-10.171889305114746,0.8470591902732849
1772607572152943400,4.773943359375,-0.05742774158716202,-10.14317512512207,0.849452018737793
1772607572170289400,4.791289306640625,-0.0526420995593071,-10.214960098266602,0.8422735929489136
1772607572187635500,4.808635498046875,-0.12203395366668701,-10.286744117736816,0.8685946464538574
1772607572204981500,4.8259814453125,-0.19142581522464752,-10.382457733154297,0.8374879360198975
1772607572222327600,4.84332763671875,-0.2153540402650833,-10.470992088317871,0.7561319470405579
1772607572239673600,4.860673583984375,-0.2273181527853012,-10.49970531463623,0.7417750358581543
1772607572257019600,4.87801953125,-0.22013968229293823,-10.50209903717041,0.7585247755050659
1772607572274365700,4.89536572265625,-0.1339980661869049,-10.39202880859375,0.6699903607368469
1772607572291711700,4.912711669921875,-0.2225325107574463,-10.277173042297363,0.6293123364448547
1772607572309057800,4.930057861328125,-0.2727817893028259,-10.389636039733887,0.6604190468788147
1772607572326403800,4.94740380859375,-0.2919243574142456,-10.583454132080078,0.6460621356964111
1772607572343750000,4.96475,-0.2727817893028259,-10.612168312072754,0.6197410821914673
1772607572361096000,4.982095947265625,-0.2727817893028259,-10.561919212341309,0.6293123364448547
1772607572378442000,4.99944189453125,-0.2153540402650833,-10.53081226348877,0.6699903607368469
1772607572395788000,5.0167880859375,-0.22013968229293823,-10.427921295166016,0.6460621356964111
1772607572413134300,5.03413427734375,-0.2632105052471161,-10.435099601745605,0.6269195079803467
1772607572430480400,5.05148046875,-0.30149564146995544,-10.506884574890137,0.698704183101654
1772607572447826400,5.068826416015625,-0.2991028428077698,-10.521241188049316,0.7776673436164856
1772607572465172500,5.08617236328125,-0.2991028428077698,-10.482955932617188,0.8159525394439697
1772607572482518500,5.1035185546875,-0.275174617767334,-10.420742988586426,0.8470591902732849
1772607572499864600,5.120864501953125,-0.2967100143432617,-10.456634521484375,0.8781659007072449
1772607572517210600,5.138210693359375,-0.30149564146995544,-10.494919776916504,0.8446664214134216
1772607572534556700,5.155556640625,-0.30149564146995544,-10.48534870147705,0.8039883971214294
1772607572551902700,5.17290283203125,-0.2799602448940277,-10.420742988586426,0.7824530005455017
1772607572569248800,5.190248779296875,-0.24885354936122894,-10.394421577453613,0.7968099117279053
1772607572586594800,5.2075947265625,-0.20578274130821228,-10.38485050201416,0.8303094506263733
1772607572603940900,5.22494091796875,-0.22492532432079315,-10.353743553161621,0.8111668825149536
1772607572621287000,5.242286865234375,-0.25363919138908386,-10.382457733154297,0.7872386574745178
1772607572638633000,5.259633056640625,-0.25363919138908386,-10.480563163757324,0.7728816866874695
1772607572655979000,5.27697900390625,-0.1818545162677765,-10.53081226348877,0.763310432434082
1772607572673325000,5.294324951171875,-0.1579262912273407,-10.423135757446289,0.7896314859390259
1772607572690671000,5.311671142578125,-0.16031911969184875,-10.334601402282715,0.8087740540504456
1772607572708017200,5.32901708984375,-0.18903298676013947,-10.339386940002441,0.7728816866874695
1772607572725363200,5.34636328125,-0.1698904037475586,-10.39920711517334,0.7585247755050659
1772607572742709200,5.363709228515625,-0.17228323221206665,-10.504491806030273,0.760917603969574
1772607572760055300,5.38105517578125,-0.15074782073497772,-10.554740905761719,0.7226324677467346
1772607572777401300,5.3984013671875,-0.1579262912273407,-10.425528526306152,0.6436693072319031
1772607572794747400,5.415747314453125,-0.18903298676013947,-10.303494453430176,0.7082754969596863
1772607572812093400,5.433093505859375,-0.1579262912273407,-10.28195858001709,0.7776673436164856
1772607572829439700,5.450439697265625,-0.11964113265275955,-10.348958015441895,0.7728816866874695
1772607572846785800,5.467785888671875,-0.1052841991186142,-10.442277908325195,0.7752745151519775
1772607572864131800,5.4851318359375,-0.11006984114646912,-10.50209903717041,0.7489534616470337
1772607572881478000,5.502477783203125,-0.11485548317432404,-10.549955368041992,0.7130611538887024
1772607572898824000,5.519823974609375,-0.13160525262355804,-10.518848419189453,0.763310432434082
1772607572916170000,5.537169921875,-0.10767702013254166,-10.423135757446289,0.7896314859390259
1772607572933516000,5.55451611328125,-0.09810572862625122,-10.370492935180664,0.8159525394439697
1772607572950862000,5.571862060546875,-0.10767702013254166,-10.344172477722168,0.8183453679084778
1772607572968208100,5.5892080078125,-0.08614161610603333,-10.382457733154297,0.8135597109794617
1772607572985554200,5.60655419921875,-0.064606212079525,-10.487741470336914,0.7920243144035339
1772607573002900200,5.623900146484375,-0.1052841991186142,-10.585846900939941,0.7657032608985901
1772607573020246300,5.641246337890625,-0.09810572862625122,-10.561919212341309,0.7345965504646301
1772607573037592300,5.65859228515625,-0.08135596662759781,-10.463813781738281,0.729810893535614
1772607573054938400,5.6759384765625,-0.07896314561367035,-10.346565246582031,0.7369893789291382
1772607573072284400,5.693284423828125,-0.08853443711996078,-10.346565246582031,0.7920243144035339
1772607573089630500,5.71063037109375,-0.07896314561367035,-10.423135757446289,0.8159525394439697
1772607573106976500,5.7279765625,-0.059820566326379776,-10.459028244018555,0.7657032608985901
1772607573124322600,5.745322509765625,-0.05503492057323456,-10.50209903717041,0.7130611538887024
1772607573141668600,5.762668701171875,-0.07657032459974289,-10.478170394897461,0.7465606927871704
1772607573159014700,5.7800146484375,-0.08614161610603333,-10.425528526306152,0.7657032608985901
1772607573176360700,5.797360595703125,-0.07896314561367035,-10.3681001663208,0.8207381963729858
1772607573193707000,5.81470703125,-0.07178468257188797,-10.380064964294434,0.8111668825149536
1772607573211052800,5.832052734375,-0.04546362906694412,-10.420742988586426,0.7226324677467346
1772607573228399000,5.849399169921875,-0.08374879509210587,-10.49970531463623,0.7250252366065979
1772607573245745200,5.8667451171875,-0.11006984114646912,-10.569097518920898,0.7704889178276062
1772607573263091200,5.88409130859375,-0.05742774158716202,-10.564311981201172,0.7154539823532104
1772607573280437200,5.901437255859375,-0.04307080805301666,-10.451848983764648,0.6221339106559753
1772607573297783300,5.918783203125,-0.04307080805301666,-10.3681001663208,0.6269195079803467
1772607573315129300,5.93612939453125,-0.040677983313798904,-10.415956497192383,0.6795616149902344
1772607573332475400,5.953475341796875,-0.04785645380616188,-10.511670112609863,0.7130611538887024
1772607573349821400,5.970821533203125,-0.05503492057323456,-10.554740905761719,0.7058826684951782
1772607573367167500,5.98816748046875,-0.038285162299871445,-10.50927734375,0.7322037220001221
1772607573384513500,6.005513427734375,-0.01196411345154047,-10.423135757446289,0.7513462901115417
1772607573401859600,6.022859619140625,0.02632104977965355,-10.408778190612793,0.7417750358581543
1772607573419205600,6.04020556640625,0.03349951654672623,-10.542776107788086,0.7992027401924133
1772607573436551700,6.0575517578125,0.019142581149935722,-10.626524925231934,0.8446664214134216
1772607573453897700,6.074897705078125,0.02871387079358101,-10.470992088317871,0.8255237936973572
1772607573471243800,6.092243896484375,-0.0023928226437419653,-10.265209197998047,0.7441678643226624
1772607573488589800,6.10958984375,-0.02632104977965355,-10.217352867126465,0.7872386574745178
1772607573505936000,6.126935791015625,0,-10.372885704040527,0.8997012972831726
1772607573523282000,6.144281982421875,0.02153540402650833,-10.549955368041992,0.8949156403541565
1772607573540628000,6.1616279296875,-0.016749758273363113,-10.583454132080078,0.8183453679084778
1772607573557974300,6.178974365234375,-0.031106693670153618,-10.506884574890137,0.7776673436164856
1772607573575320300,6.1963203125,0.035892341285943985,-10.39920711517334,0.760917603969574
1772607573592666400,6.213666259765625,0.05742774158716202,-10.315458297729492,0.727418065071106
1772607573610012400,6.231012451171875,0.016749758273363113,-10.334601402282715,0.7704889178276062
1772607573627358500,6.2483583984375,-0.02632104977965355,-10.40638542175293,0.8111668825149536
1772607573644704500,6.26570458984375,-0.009571290574967861,-10.50927734375,0.8063812255859375
1772607573662050600,6.283050537109375,-0.05024927482008934,-10.583454132080078,0.8135597109794617
1772607573679396600,6.300396728515625,-0.02871387079358101,-10.51645565032959,0.8422735929489136
1772607573696742700,6.31774267578125,-0.02392822690308094,-10.372885704040527,0.8303094506263733
1772607573714088700,6.335088623046875,0.019142581149935722,-10.317851066589355,0.7776673436164856
1772607573731434800,6.352434814453125,-0.004785645287483931,-10.40638542175293,0.7920243144035339
1772607573748780800,6.36978076171875,-0.04307080805301666,-10.49252700805664,0.8709874153137207
1772607573766126800,6.387126953125,-0.031106693670153618,-10.48534870147705,0.8470591902732849
1772607573783473000,6.404472900390625,0.0023928226437419653,-10.470992088317871,0.7345965504646301
1772607573800819000,6.42181884765625,-0.04785645380616188,-10.511670112609863,0.7465606927871704
1772607573818165000,6.4391650390625,-0.05503492057323456,-10.549955368041992,0.8757730722427368
1772607573835511000,6.456510986328125,0.004785645287483931,-10.468599319458008,0.9284151792526245
1772607573852857300,6.473857421875,0.04307080805301666,-10.387243270874023,0.8949156403541565
1772607573870203400,6.491203369140625,0.04546362906694412,-10.39202880859375,0.8087740540504456
1772607573887549400,6.508549560546875,0.02392822690308094,-10.425528526306152,0.7848458290100098
1772607573904895500,6.5258955078125,-0.019142581149935722,-10.415956497192383,0.7992027401924133
1772607573922241500,6.543241455078125,-0.04546362906694412,-10.432706832885742,0.8733802437782288
1772607573939587600,6.560587646484375,-0.01196411345154047,-10.521241188049316,0.9236295223236084
1772607573956933600,6.57793359375,0.038285162299871445,-10.51645565032959,0.8614161610603333
1772607573974279700,6.59527978515625,0.04785645380616188,-10.449456214904785,0.7728816866874695
1772607573991625700,6.612625732421875,0.035892341285943985,-10.380064964294434,0.7561319470405579
1772607574008971800,6.6299716796875,0.014356935396790504,-10.382457733154297,0.8303094506263733
1772607574026317800,6.64731787109375,-0.01196411345154047,-10.470992088317871,0.8590233325958252
1772607574043664000,6.664663818359375,0.014356935396790504,-10.506884574890137,0.8901300430297852
1772607574061010000,6.682010009765625,0.007178467698395252,-10.454241752624512,0.8255237936973572
1772607574078356000,6.69935595703125,0.0023928226437419653,-10.408778190612793,0.8039883971214294
1772607574095702000,6.716701904296875,-0.016749758273363113,-10.418350219726562,0.7992027401924133
1772607574113048000,6.734048095703125,-0.0023928226437419653,-10.396814346313477,0.7848458290100098
1772607574130394000,6.75139404296875,0.0023928226437419653,-10.372885704040527,0.7872386574745178
1772607574147740200,6.768740234375,0.004785645287483931,-10.403992652893066,0.7920243144035339
1772607574165086200,6.786086181640625,0.014356935396790504,-10.478170394897461,0.7776673436164856
1772607574182432500,6.8034326171875,0.016749758273363113,-10.456634521484375,0.8327022790908813
1772607574199778600,6.820778564453125,-0.004785645287483931,-10.346565246582031,0.8997012972831726
1772607574217124600,6.83812451171875,0.038285162299871445,-10.219745635986328,0.9020941257476807
1772607574234470700,6.855470703125,0.0526420995593071,-10.301101684570312,0.8327022790908813
1772607574251816700,6.872816650390625,0.02392822690308094,-10.344172477722168,0.8015955686569214
1772607574269162800,6.890162841796875,0.031106693670153618,-10.387243270874023,0.7752745151519775
1772607574286508800,6.9075087890625,0.01196411345154047,-10.329814910888672,0.6580262184143066
1772607574303854800,6.924854736328125,-0.019142581149935722,-10.28195858001709,0.7106683254241943
1772607574321201000,6.942200927734375,0.014356935396790504,-10.231709480285645,0.8709874153137207
1772607574338547000,6.959546875,0.04785645380616188,-10.147960662841797,0.8973084688186646
1772607574355893000,6.97689306640625,0.03349951654672623,-10.145567893981934,0.8350951075553894
1772607574373239000,6.994239013671875,0.014356935396790504,-10.262816429138184,0.7752745151519775
1772607574390585000,7.011585205078125,-0.014356935396790504,-10.370492935180664,0.7848458290100098
1772607574407931100,7.02893115234375,0,-10.301101684570312,0.8638089895248413
1772607574425277200,7.046277099609375,0.03349951654672623,-10.224531173706055,0.8566305041313171
1772607574442623200,7.063623291015625,0.03349951654672623,-10.238887786865234,0.8422735929489136
1772607574459969500,7.080969482421875,-0.0023928226437419653,-10.195816993713379,0.8111668825149536
1772607574477315600,7.098315673828125,0.004785645287483931,-10.159924507141113,0.8039883971214294
1772607574494661600,7.11566162109375,-0.019142581149935722,-10.162318229675293,0.8279166221618652
1772607574512007700,7.133007568359375,-0.009571290574967861,-10.155138969421387,0.8590233325958252
1772607574529353700,7.150353759765625,0.02871387079358101,-10.078569412231445,0.8374879360198975
1772607574546699800,7.16769970703125,0.014356935396790504,-10.078569412231445,0.7872386574745178
1772607574564045800,7.1850458984375,0.02871387079358101,-10.200602531433105,0.7752745151519775
1772607574581392000,7.202391845703125,0.035892341285943985,-10.2747802734375,0.8135597109794617
1772607574598738000,7.219738037109375,0.031106693670153618,-10.179067611694336,0.8662018179893494
1772607574616084000,7.237083984375,-0.004785645287483931,-10.02592658996582,0.8327022790908813
1772607574633430000,7.254429931640625,0.009571290574967861,-9.92542839050293,0.7872386574745178
1772607574650776000,7.271776123046875,-0.02392822690308094,-9.824930191040039,0.7800601720809937
1772607574668122000,7.2891220703125,-0.03349951654672623,-9.796216011047363,0.7968099117279053
1772607574685468200,7.30646826171875,0.02632104977965355,-9.882357597351074,0.8231309652328491
1772607574702814200,7.323814208984375,0.04307080805301666,-10.03549861907959,0.8446664214134216
1772607574720160500,7.341160400390625,0.038285162299871445,-10.068997383117676,0.7920243144035339
1772607574737506600,7.358506591796875,-0.016749758273363113,-9.997213363647461,0.7968099117279053
1772607574754852600,7.3758525390625,-0.02632104977965355,-9.913464546203613,0.8207381963729858
1772607574772198700,7.39319873046875,0.019142581149935722,-9.784252166748047,0.8039883971214294
1772607574789544700,7.410544677734375,0.04546362906694412,-9.69093132019043,0.7369893789291382
1772607574806890800,7.427890869140625,0.016749758273363113,-9.726823806762695,0.7776673436164856
1772607574824236800,7.44523681640625,0.004785645287483931,-9.817750930786133,0.8422735929489136
1772607574841582800,7.462582763671875,0.02392822690308094,-9.915857315063477,0.7968099117279053
1772607574858929000,7.479928955078125,0.040677983313798904,-9.994820594787598,0.7585247755050659
1772607574876275000,7.49727490234375,0.04307080805301666,-9.975677490234375,0.7776673436164856
1772607574893621000,7.51462109375,0.05024927482008934,-9.853643417358398,0.8446664214134216
1772607574910967000,7.531967041015625,0.0526420995593071,-9.714859962463379,0.8255237936973572
1772607574928313000,7.54931298828125,0.02871387079358101,-9.681360244750977,0.7848458290100098
1772607574945659400,7.566659423828125,0.007178467698395252,-9.757930755615234,0.8039883971214294
1772607574963005400,7.58400537109375,0.035892341285943985,-9.868000984191895,0.8231309652328491
1772607574980351500,7.6013515625,0.07896314561367035,-9.990034103393555,0.7561319470405579
1772607574997697500,7.618697509765625,0.03349951654672623,-9.975677490234375,0.7345965504646301
1772607575015043600,7.636043701171875,0.05503492057323456,-9.956535339355469,0.7680960893630981
1772607575032389600,7.6533896484375,0.09092725813388824,-9.781859397888184,0.8207381963729858
1772607575049735700,7.670735595703125,0.038285162299871445,-9.719645500183105,0.8183453679084778
1772607575067081700,7.688081787109375,0.038285162299871445,-9.722038269042969,0.8303094506263733
1772607575084427800,7.705427734375,0.016749758273363113,-9.748359680175781,0.8207381963729858
1772607575101773800,7.72277392578125,0.02153540402650833,-9.80817985534668,0.7704889178276062
1772607575119120000,7.740119873046875,0.02632104977965355,-9.832108497619629,0.7585247755050659
1772607575136466000,7.7574658203125,0.062213387340307236,-9.846465110778809,0.7561319470405579
1772607575153812000,7.77481201171875,0.06699903309345245,-9.91107177734375,0.7322037220001221
1772607575171158000,7.792157958984375,0.04785645380616188,-9.798608779907227,0.7417750358581543
1772607575188504300,7.80950439453125,0.0526420995593071,-9.717252731323242,0.7752745151519775
1772607575205850400,7.826850341796875,0.06699903309345245,-9.77707290649414,0.7992027401924133
1772607575223196400,7.844196533203125,0.10289137065410614,-9.951749801635742,0.763310432434082
1772607575240542500,7.86154248046875,0.038285162299871445,-9.997213363647461,0.7369893789291382
1772607575257888500,7.878888427734375,0.004785645287483931,-9.980463027954102,0.763310432434082
1772607575275234600,7.896234619140625,0.019142581149935722,-9.934999465942383,0.7393822073936462
1772607575292580600,7.91358056640625,0.04546362906694412,-9.865608215332031,0.6532405614852905
1772607575309926700,7.9309267578125,0.040677983313798904,-9.772287368774414,0.6939185857772827
1772607575327272700,7.948272705078125,0.04546362906694412,-9.750752449035645,0.7561319470405579
1772607575344618800,7.96561865234375,0.01196411345154047,-9.812965393066406,0.7657032608985901
1772607575361964800,7.98296484375,0.0023928226437419653,-9.882357597351074,0.7728816866874695
1772607575379310800,8.000310791015625,0.038285162299871445,-9.951749801635742,0.7728816866874695
1772607575396657000,8.017656982421874,0.07417750358581543,-10.01156997680664,0.7489534616470337
1772607575414003200,8.035003173828125,0.064606212079525,-9.966106414794922,0.7322037220001221
1772607575431349200,8.052349365234376,0.064606212079525,-9.844072341918945,0.7465606927871704
1772607575448695300,8.0696953125,0.06699903309345245,-9.779465675354004,0.794417142868042
1772607575466041300,8.087041259765625,0.064606212079525,-9.765109062194824,0.8087740540504456
1772607575483387400,8.104387451171876,0.02153540402650833,-9.745966911315918,0.763310432434082
1772607575500733400,8.1217333984375,0.035892341285943985,-9.817750930786133,0.7202396392822266
1772607575518079500,8.13907958984375,0.04785645380616188,-9.896714210510254,0.6652047038078308
1772607575535425500,8.156425537109374,0.04785645380616188,-9.949356079101562,0.6532405614852905
1772607575552771600,8.173771484375,0.04546362906694412,-9.889535903930664,0.6819544434547424
1772607575570117600,8.19111767578125,0.04546362906694412,-9.765109062194824,0.7202396392822266
1772607575587463700,8.208463623046875,0.05024927482008934,-9.67657470703125,0.7345965504646301
1772607575604809700,8.225809814453125,0.07178468257188797,-9.686145782470703,0.7393822073936462
1772607575622155800,8.24315576171875,0.05742774158716202,-9.796216011047363,0.727418065071106
1772607575639502000,8.260502197265625,0.02392822690308094,-9.908679008483887,0.6963114142417908
1772607575656848100,8.27784814453125,0.014356935396790504,-9.961320877075195,0.6460621356964111
1772607575674194200,8.295194091796875,0.031106693670153618,-9.966106414794922,0.6843472719192505
1772607575691540200,8.312540283203125,0.004785645287483931,-9.884750366210938,0.7250252366065979
1772607575708886300,8.32988623046875,0.064606212079525,-9.738788604736328,0.7752745151519775
1772607575726232300,8.347232421875,0.07657032459974289,-9.628718376159668,0.7920243144035339
1772607575743578400,8.364578369140625,0.11246266216039658,-9.7005033493042,0.7322037220001221
1772607575760924400,8.38192431640625,0.07657032459974289,-9.822537422180176,0.6819544434547424
1772607575778270500,8.3992705078125,0.02153540402650833,-9.956535339355469,0.7082754969596863
1772607575795616500,8.416616455078126,0.040677983313798904,-10.071390151977539,0.6795616149902344
1772607575812962600,8.433962646484375,0.12203395366668701,-10.045069694519043,0.6221339106559753
1772607575830308600,8.45130859375,0.09092725813388824,-9.812965393066406,0.638883650302887
1772607575847655000,8.468655029296874,0.10049854964017868,-9.671789169311523,0.7441678643226624
1772607575865001000,8.4860009765625,0.07657032459974289,-9.640682220458984,0.8039883971214294
1772607575882347000,8.503346923828126,0.06939185410737991,-9.726823806762695,0.7920243144035339
1772607575899693000,8.520693115234375,0.07417750358581543,-9.868000984191895,0.7680960893630981
1772607575917039000,8.5380390625,0.062213387340307236,-9.958928108215332,0.7369893789291382
1772607575934385200,8.55538525390625,0.06699903309345245,-9.970891952514648,0.7345965504646301
1772607575951731200,8.572731201171875,0.08614161610603333,-9.899106979370117,0.7369893789291382
1772607575969077200,8.5900771484375,0.08374879509210587,-9.824930191040039,0.7800601720809937
1772607575986423300,8.60742333984375,0.11724831163883209,-9.712467193603516,0.8039883971214294
1772607576003769300,8.624769287109375,0.1052841991186142,-9.695717811584473,0.7561319470405579
1772607576021115600,8.64211572265625,0.08853443711996078,-9.765109062194824,0.6963114142417908
1772607576038461400,8.65946142578125,0.06699903309345245,-9.7938232421875,0.6795616149902344
1772607576055807500,8.676807373046875,0.09810572862625122,-9.836894035339355,0.6484549641609192
1772607576073153800,8.69415380859375,0.10289137065410614,-10.00439167022705,0.6508477330207825
1772607576090499800,8.711499755859375,0.08853443711996078,-10.088140487670898,0.6699903607368469
1772607576107846000,8.728845947265626,0.06699903309345245,-9.949356079101562,0.6675975322723389
1772607576125192000,8.74619189453125,0.03349951654672623,-9.686145782470703,0.6795616149902344
1772607576142538000,8.7635380859375,0.10289137065410614,-9.604789733886719,0.6747759580612183
1772607576159884000,8.780884033203124,0.11246266216039658,-9.729216575622559,0.6436693072319031
1772607576177230000,8.79822998046875,0.08374879509210587,-9.89432144165039,0.6460621356964111
1772607576194576100,8.815576171875,0.035892341285943985,-10.05703353881836,0.6221339106559753
1772607576211922200,8.832922119140624,0.062213387340307236,-10.205389022827148,0.607776939868927
1772607576229268200,8.850268310546875,0.05503492057323456,-10.107282638549805,0.5838487148284912
1772607576246614300,8.8676142578125,0.06939185410737991,-9.846465110778809,0.638883650302887
1772607576263960600,8.884960693359375,0.09092725813388824,-9.671789169311523,0.6963114142417908
1772607576281306600,8.902306640625,0.11485548317432404,-9.722038269042969,0.6675975322723389
1772607576298652700,8.919652587890624,0.06699903309345245,-9.848857879638672,0.576670229434967
1772607576315998700,8.936998779296875,-0.014356935396790504,-10.01874828338623,0.605384111404419
1772607576333344800,8.9543447265625,0.004785645287483931,-10.109675407409668,0.6843472719192505
1772607576350690800,8.97169091796875,0.04307080805301666,-10.028319358825684,0.6580262184143066
1772607576368036900,8.989036865234375,0.10289137065410614,-9.722038269042969,0.5742774605751038
1772607576385383000,9.0063828125,0.12203395366668701,-9.525827407836914,0.6221339106559753
1772607576402729000,9.02372900390625,0.1052841991186142,-9.564111709594727,0.7082754969596863
1772607576420075300,9.0410751953125,0.07417750358581543,-9.748359680175781,0.7369893789291382
1772607576437421300,9.05842138671875,0.05742774158716202,-9.942177772521973,0.7250252366065979
1772607576454767400,9.075767333984375,0.05742774158716202,-10.066604614257812,0.727418065071106
1772607576472113400,9.093113525390624,0.09092725813388824,-10.095318794250488,0.7345965504646301
1772607576489459500,9.11045947265625,0.09571290761232376,-9.920642852783203,0.7585247755050659
1772607576506805500,9.127805419921875,0.02871387079358101,-9.65503978729248,0.7872386574745178
1772607576524151600,9.145151611328124,0.038285162299871445,-9.55214786529541,0.8973084688186646
1772607576541497600,9.16249755859375,0.08853443711996078,-9.647860527038574,0.8877372145652771
1772607576558843600,9.17984375,0.09571290761232376,-9.80817985534668,0.7872386574745178
1772607576576189700,9.197189697265625,0.038285162299871445,-10.04267692565918,0.8039883971214294
1772607576593536000,9.214535888671875,0.038285162299871445,-10.145567893981934,0.7920243144035339
1772607576610882000,9.231882080078124,0.06699903309345245,-10.00439167022705,0.7322037220001221
1772607576628228000,9.24922802734375,0.07178468257188797,-9.798608779907227,0.7082754969596863
1772607576645574100,9.26657421875,0.11246266216039658,-9.695717811584473,0.7680960893630981
1772607576662920200,9.283920166015625,0.09810572862625122,-9.652647018432617,0.8135597109794617
1772607576680266200,9.301266357421875,0.05742774158716202,-9.741181373596191,0.8398807644844055
1772607576697612300,9.3186123046875,0.06699903309345245,-9.91825008392334,0.8350951075553894
1772607576714958300,9.335958251953125,0.07896314561367035,-9.978070259094238,0.7680960893630981
1772607576732304400,9.353304443359375,0.06699903309345245,-9.920642852783203,0.7082754969596863
1772607576749650400,9.370650390625,0.06939185410737991,-9.848857879638672,0.7058826684951782
1772607576766996700,9.387996826171875,0.08614161610603333,-9.805787086486816,0.7513462901115417
1772607576784342800,9.4053427734375,0.08853443711996078,-9.784252166748047,0.8087740540504456
1772607576801688800,9.422688720703125,0.040677983313798904,-9.731609344482422,0.8446664214134216
1772607576819035000,9.440034912109375,0.07178468257188797,-9.741181373596191,0.8015955686569214
1772607576836381000,9.457380859375,0.06699903309345245,-9.803394317626953,0.7226324677467346
1772607576853727000,9.47472705078125,0.040677983313798904,-9.836894035339355,0.729810893535614
1772607576871073000,9.492072998046876,0.04785645380616188,-9.8871431350708,0.7992027401924133
1772607576888419000,9.509419189453125,0.08135596662759781,-9.908679008483887,0.7489534616470337
1772607576905765000,9.52676513671875,0.1052841991186142,-9.877572059631348,0.6532405614852905
1772607576923111200,9.544111083984374,0.11485548317432404,-9.81535816192627,0.6819544434547424
1772607576940457500,9.56145751953125,0.07417750358581543,-9.841679573059082,0.7585247755050659
1772607576957803500,9.578803466796876,0.06939185410737991,-9.848857879638672,0.7968099117279053
1772607576975149600,9.596149658203124,0.059820566326379776,-9.784252166748047,0.8111668825149536
1772607576992495600,9.61349560546875,0.08614161610603333,-9.729216575622559,0.8135597109794617
1772607577009841700,9.630841552734376,0.10767702013254166,-9.765109062194824,0.7728816866874695
1772607577027187700,9.648187744140625,0.09810572862625122,-9.879964828491211,0.7345965504646301
1772607577044533800,9.66553369140625,0.05024927482008934,-9.956535339355469,0.7322037220001221
1772607577061879800,9.6828798828125,0.064606212079525,-9.970891952514648,0.7417750358581543
1772607577079225900,9.700225830078125,0.08135596662759781,-9.927821159362793,0.7178468108177185
1772607577096572200,9.717572265625,0.08614161610603333,-9.789037704467773,0.6843472719192505
1772607577113918000,9.73491796875,0.07896314561367035,-9.724431037902832,0.6747759580612183
1772607577131264300,9.75226416015625,0.064606212079525,-9.77707290649414,0.7010970115661621
1772607577148610300,9.7696103515625,0.0526420995593071,-9.76989459991455,0.6939185857772827
1772607577165956400,9.786956298828125,0.031106693670153618,-9.77707290649414,0.7010970115661621
1772607577183302400,9.804302490234376,0.031106693670153618,-9.836894035339355,0.7202396392822266
1772607577200648400,9.8216484375,0.02153540402650833,-9.856036186218262,0.729810893535614
1772607577217994500,9.838994384765625,0.02392822690308094,-9.868000984191895,0.7322037220001221
1772607577235340500,9.856340576171876,0.02392822690308094,-9.870393753051758,0.6819544434547424
1772607577252686800,9.873686767578125,0.016749758273363113,-9.927821159362793,0.6747759580612183
1772607577270032600,9.89103271484375,0.014356935396790504,-9.896714210510254,0.7393822073936462
1772607577287379000,9.90837890625,0.009571290574967861,-9.889535903930664,0.7345965504646301
1772607577304725000,9.92572509765625,0.0023928226437419653,-9.899106979370117,0.763310432434082
1772607577322071000,9.943071044921876,-0.0023928226437419653,-9.817750930786133,0.7776673436164856
1772607577339417000,9.9604169921875,0.019142581149935722,-9.741181373596191,0.6939185857772827
1772607577356763100,9.97776318359375,0.019142581149935722,-9.724431037902832,0.6125625967979431
1772607577374109200,9.995109130859374,0.007178467698395252,-9.851250648498535,0.6125625967979431
1772607577391455200,10.012455322265625,0.014356935396790504,-9.930213928222656,0.641276478767395
1772607577408801500,10.029801513671876,0.05742774158716202,-9.954142570495605,0.6771687865257263
1772607577426147600,10.047147705078125,0.06939185410737991,-9.896714210510254,0.6747759580612183
1772607577443493600,10.06449365234375,0.04546362906694412,-9.805787086486816,0.6867401003837585
1772607577460839700,10.081839599609374,0.014356935396790504,-9.717252731323242,0.729810893535614
1772607577478185700,10.099185791015625,-0.007178467698395252,-9.68375301361084,0.7154539823532104
1772607577495531800,10.11653173828125,0.035892341285943985,-9.734002113342285,0.6915257573127747
1772607577512877800,10.1338779296875,0.03349951654672623,-9.92542839050293,0.6867401003837585
1772607577530223900,10.151223876953125,-0.004785645287483931,-9.992427825927734,0.6747759580612183
1772607577547570000,10.16856982421875,0.02632104977965355,-10.01874828338623,0.698704183101654
1772607577564916200,10.185916259765625,0.007178467698395252,-9.963713645935059,0.729810893535614
1772607577582262300,10.20326220703125,-0.007178467698395252,-9.796216011047363,0.7728816866874695
1772607577599608300,10.2206083984375,0.038285162299871445,-9.743574142456055,0.7322037220001221
1772607577616954400,10.237954345703125,0.05503492057323456,-9.81535816192627,0.6675975322723389
1772607577634300400,10.255300537109376,0.0023928226437419653,-9.958928108215332,0.6795616149902344
1772607577651646500,10.272646484375,0.007178467698395252,-10.02592658996582,0.6963114142417908
1772607577668992500,10.289992431640625,-0.014356935396790504,-10.021141052246094,0.6819544434547424
1772607577686338600,10.307338623046874,-0.019142581149935722,-9.848857879638672,0.6915257573127747
1772607577703684600,10.3246845703125,0.05503492057323456,-9.734002113342285,0.729810893535614
1772607577721031000,10.342031005859376,0.04785645380616188,-9.698110580444336,0.7441678643226624
1772607577738377000,10.359376953125,0.02153540402650833,-9.705288887023926,0.729810893535614
1772607577755723000,10.376722900390625,0.059820566326379776,-9.784252166748047,0.6939185857772827
1772607577773069000,10.394069091796876,0.05024927482008934,-9.91107177734375,0.6747759580612183
1772607577790415000,10.4114150390625,0.02392822690308094,-9.896714210510254,0.6293123364448547
1772607577807761200,10.42876123046875,0.01196411345154047,-9.846465110778809,0.6604190468788147
1772607577825107200,10.446107177734374,0.004785645287483931,-9.796216011047363,0.7561319470405579
1772607577842453200,10.463453369140625,-0.019142581149935722,-9.722038269042969,0.8638089895248413
1772607577859799600,10.480799560546876,-0.016749758273363113,-9.7005033493042,0.9212366938591003
1772607577877145600,10.4981455078125,0.007178467698395252,-9.698110580444336,0.8303094506263733
1772607577894491600,10.51549169921875,0.02632104977965355,-9.76989459991455,0.7561319470405579
1772607577911837700,10.532837646484374,0.04785645380616188,-9.824930191040039,0.6508477330207825
1772607577929183700,10.550183837890625,0.059820566326379776,-9.9469633102417,0.5407779216766357
1772607577946529800,10.56752978515625,0.031106693670153618,-9.920642852783203,0.5958128571510315
1772607577963875800,10.584875732421875,0.04307080805301666,-9.7938232421875,0.6269195079803467
1772607577981222000,10.602221923828125,0.038285162299871445,-9.714859962463379,0.641276478767395
1772607577998568000,10.61956787109375,0.014356935396790504,-9.678967475891113,0.6891329288482666
1772607578015914200,10.636914306640625,0.007178467698395252,-9.741181373596191,0.7226324677467346
1772607578033260300,10.65426025390625,0.04785645380616188,-9.80817985534668,0.6867401003837585
1772607578050606300,10.6716064453125,0.035892341285943985,-9.903892517089844,0.6508477330207825
1772607578067952400,10.688952392578125,0.04307080805301666,-9.913464546203613,0.6580262184143066
1772607578085298400,10.70629833984375,0.031106693670153618,-9.889535903930664,0.6891329288482666
1772607578102644500,10.72364453125,0.014356935396790504,-9.841679573059082,0.6675975322723389
1772607578119990500,10.740990478515625,0.016749758273363113,-9.829715728759766,0.641276478767395
1772607578137336600,10.758336669921874,0.02392822690308094,-9.851250648498535,0.6580262184143066
1772607578154683000,10.775682861328125,0.019142581149935722,-9.91825008392334,0.6747759580612183
1772607578172029000,10.79302880859375,-0.01196411345154047,-9.944570541381836,0.7250252366065979
1772607578189375000,10.810375,0,-9.944570541381836,0.7680960893630981
1772607578206721000,10.827720947265625,-0.009571290574967861,-9.930213928222656,0.7585247755050659
1772607578224067000,10.845067138671874,0.02153540402650833,-9.844072341918945,0.7369893789291382
1772607578241413000,10.8624130859375,0.02871387079358101,-9.767501831054688,0.7250252366065979
1772607578258759200,10.87975927734375,0.02632104977965355,-9.755537986755371,0.727418065071106
1772607578276105200,10.897105224609374,0.019142581149935722,-9.839286804199219,0.7322037220001221
1772607578293451500,10.914451416015625,0.019142581149935722,-9.934999465942383,0.729810893535614
1772607578310797600,10.931797607421874,-0.02392822690308094,-9.944570541381836,0.7226324677467346
1772607578328143600,10.9491435546875,-0.007178467698395252,-9.949356079101562,0.7680960893630981
1772607578345489700,10.96648974609375,0.0023928226437419653,-9.870393753051758,0.8015955686569214
1772607578362835700,10.983835693359374,0.004785645287483931,-9.712467193603516,0.7441678643226624
1772607578380181800,11.001181640625,-0.01196411345154047,-9.659825325012207,0.6939185857772827
1772607578397527800,11.01852783203125,-0.019142581149935722,-9.750752449035645,0.7537391185760498
1772607578414873900,11.035873779296875,-0.02392822690308094,-9.920642852783203,0.7776673436164856
1772607578432220200,11.05322021484375,-0.035892341285943985,-10.076175689697266,0.7058826684951782
1772607578449566200,11.070566162109374,0,-10.045069694519043,0.6580262184143066
1772607578466912300,11.087912353515625,0.016749758273363113,-9.956535339355469,0.7369893789291382
1772607578484258300,11.10525830078125,0.02871387079358101,-9.803394317626953,0.7657032608985901
1772607578501604400,11.122604248046875,0.0023928226437419653,-9.671789169311523,0.8374879360198975
1772607578518950400,11.139950439453125,-0.02392822690308094,-9.674181938171387,0.882951557636261
1772607578536296400,11.15729638671875,0.004785645287483931,-9.734002113342285,0.8350951075553894
1772607578553642800,11.174642822265625,-0.019142581149935722,-9.908679008483887,0.7848458290100098
1772607578570988800,11.19198876953125,-0.02871387079358101,-10.04985523223877,0.763310432434082
1772607578588334800,11.2093349609375,0.02871387079358101,-10.073782920837402,0.8063812255859375
1772607578605681000,11.226680908203125,0.04785645380616188,-9.875179290771484,0.7896314859390259
1772607578623027000,11.24402685546875,0.07417750358581543,-9.745966911315918,0.7896314859390259
1772607578640373000,11.261373046875,0.064606212079525,-9.714859962463379,0.7393822073936462
1772607578657719000,11.278718994140625,0.03349951654672623,-9.753145217895508,0.7489534616470337
1772607578675065000,11.296065185546874,-0.04307080805301666,-9.80100154876709,0.7680960893630981
1772607578692411400,11.313411376953125,-0.05742774158716202,-9.810572624206543,0.7489534616470337
1772607578709757400,11.33075732421875,-0.02871387079358101,-9.832108497619629,0.7130611538887024
1772607578727103500,11.348103515625,0.02153540402650833,-9.930213928222656,0.7202396392822266
1772607578744449500,11.365449462890625,0.038285162299871445,-9.805787086486816,0.7513462901115417
1772607578761795600,11.382795654296874,0.019142581149935722,-9.738788604736328,0.7800601720809937
1772607578779141600,11.4001416015625,0.02392822690308094,-9.712467193603516,0.8063812255859375
1772607578796487700,11.41748779296875,0.009571290574967861,-9.731609344482422,0.7920243144035339
1772607578813834000,11.434833984375,-0.02392822690308094,-9.774680137634277,0.7728816866874695
1772607578831180000,11.452179931640625,-0.04785645380616188,-9.827322959899902,0.7513462901115417
1772607578848526000,11.469526123046874,-0.05503492057323456,-9.9469633102417,0.729810893535614
1772607578865872100,11.4868720703125,0.0023928226437419653,-9.987641334533691,0.729810893535614
1772607578883218200,11.50421826171875,0.02871387079358101,-9.80817985534668,0.7537391185760498
1772607578900564200,11.521564208984374,0.02392822690308094,-9.860821723937988,0.7561319470405579
1772607578917910300,11.53891015625,0.007178467698395252,-9.822537422180176,0.7465606927871704
1772607578935256600,11.556256591796876,-0.05024927482008934,-9.76989459991455,0.8135597109794617
1772607578952602600,11.5736025390625,-0.06939185410737991,-9.755537986755371,0.8590233325958252
1772607578969948700,11.59094873046875,-0.07896314561367035,-9.884750366210938,0.7657032608985901
1772607578987294700,11.608294677734374,-0.040677983313798904,-9.860821723937988,0.6771687865257263
1772607579004640800,11.625640869140625,-0.016749758273363113,-9.822537422180176,0.7322037220001221
1772607579021986800,11.64298681640625,-0.009571290574967861,-9.824930191040039,0.8350951075553894
1772607579039332900,11.660332763671875,0,-9.78664493560791,0.8877372145652771
1772607579056679200,11.67767919921875,0.02392822690308094,-9.76989459991455,0.8709874153137207
1772607579074025200,11.695025146484374,0.04307080805301666,-9.853643417358398,0.8183453679084778
1772607579091371300,11.712371337890625,0.019142581149935722,-9.944570541381836,0.7896314859390259
1772607579108717300,11.72971728515625,-0.04307080805301666,-9.9469633102417,0.763310432434082
1772607579126063400,11.7470634765625,-0.064606212079525,-9.879964828491211,0.7657032608985901
1772607579143409400,11.764409423828125,-0.064606212079525,-9.812965393066406,0.8063812255859375
1772607579160755500,11.78175537109375,-0.014356935396790504,-9.796216011047363,0.8063812255859375
1772607579178101800,11.799101806640625,0.014356935396790504,-9.791430473327637,0.7824530005455017
1772607579195447800,11.81644775390625,0.014356935396790504,-9.80817985534668,0.7441678643226624
1772607579212793900,11.8337939453125,0.01196411345154047,-9.92542839050293,0.727418065071106
1772607579230140000,11.851139892578125,-0.0023928226437419653,-10.030712127685547,0.698704183101654
1772607579247486000,11.86848583984375,-0.02392822690308094,-10.006784439086914,0.6867401003837585
1772607579264832000,11.88583203125,-0.038285162299871445,-9.90149974822998,0.6939185857772827
1772607579282178300,11.90317822265625,-0.014356935396790504,-9.817750930786133,0.7441678643226624
1772607579299524000,11.920524169921874,0.004785645287483931,-9.789037704467773,0.7657032608985901
1772607579316870400,11.937870361328125,-0.02632104977965355,-9.76989459991455,0.8015955686569214
1772607579334216400,11.955216552734376,-0.04785645380616188,-9.789037704467773,0.7800601720809937
1772607579351562500,11.9725625,-0.05503492057323456,-9.856036186218262,0.7106683254241943
1772607579368908500,11.989908447265625,-0.03349951654672623,-9.903892517089844,0.6532405614852905
1772607579386254600,12.007254638671874,-0.05503492057323456,-9.836894035339355,0.6795616149902344
1772607579403600600,12.0246005859375,-0.038285162299871445,-9.803394317626953,0.7130611538887024
1772607579420947000,12.041947021484376,-0.007178467698395252,-9.858428955078125,0.7657032608985901
1772607579438293000,12.05929296875,-0.014356935396790504,-9.915857315063477,0.8470591902732849
1772607579455639000,12.07663916015625,-0.014356935396790504,-9.906285285949707,0.8470591902732849
1772607579472985000,12.093985107421876,-0.04546362906694412,-9.78664493560791,0.8111668825149536
1772607579490331100,12.1113310546875,-0.064606212079525,-9.664610862731934,0.7824530005455017
1772607579507677200,12.12867724609375,-0.040677983313798904,-9.623932838439941,0.7800601720809937
1772607579525023200,12.146023193359374,0.004785645287483931,-9.547362327575684,0.638883650302887
1772607579542369500,12.16336962890625,-0.02392822690308094,-9.927821159362793,0.5982056856155396
1772607579559715600,12.180715576171876,-0.07178468257188797,-9.990034103393555,0.7465606927871704
1772607579577061600,12.1980615234375,-0.035892341285943985,-9.930213928222656,0.8757730722427368
1772607579594407700,12.21540771484375,-0.02153540402650833,-9.779465675354004,0.8733802437782288
1772607579611753700,12.232753662109374,-0.02153540402650833,-9.688538551330566,0.8279166221618652
1772607579629099800,12.250099853515625,-0.009571290574967861,-9.755537986755371,0.8087740540504456
1772607579646445800,12.26744580078125,-0.01196411345154047,-9.863214492797852,0.8901300430297852
1772607579663792000,12.284792236328125,-0.004785645287483931,-9.92542839050293,0.8470591902732849
1772607579681138200,12.30213818359375,-0.02871387079358101,-9.978070259094238,0.8590233325958252
1772607579698484200,12.319484130859376,-0.02871387079358101,-9.92542839050293,0.8422735929489136
1772607579715830300,12.336830322265625,-0.02632104977965355,-9.824930191040039,0.7896314859390259
1772607579733176300,12.35417626953125,0.019142581149935722,-9.798608779907227,0.763310432434082
1772607579750522600,12.371522705078124,0.035892341285943985,-9.870393753051758,0.7704889178276062
1772607579767868700,12.38886865234375,0,-9.9469633102417,0.7968099117279053
1772607579785214700,12.406214599609376,-0.05503492057323456,-9.942177772521973,0.8087740540504456
1772607579802560800,12.423560791015625,-0.05742774158716202,-9.920642852783203,0.8207381963729858
1772607579819906800,12.44090673828125,0.009571290574967861,-9.836894035339355,0.8039883971214294
1772607579837252900,12.4582529296875,0.035892341285943985,-9.719645500183105,0.8255237936973572
1772607579854599000,12.475598876953125,0.11246266216039658,-9.56650447845459,0.8327022790908813
1772607579871945200,12.4929453125,0.064606212079525,-9.695717811584473,0.7680960893630981
1772607579889291300,12.510291259765625,-0.03349951654672623,-9.856036186218262,0.7465606927871704
1772607579906637300,12.52763720703125,-0.064606212079525,-10.016355514526367,0.7393822073936462
1772607579923983400,12.5449833984375,-0.05742774158716202,-9.951749801635742,0.760917603969574
1772607579941329400,12.562329345703125,-0.01196411345154047,-9.836894035339355,0.7752745151519775
1772607579958675500,12.579675537109376,0.04307080805301666,-9.695717811584473,0.7896314859390259
1772607579976021500,12.597021484375,0.02392822690308094,-9.650253295898438,0.8231309652328491
1772607579993367800,12.614367919921875,-0.009571290574967861,-9.638289451599121,0.7992027401924133
1772607580010713900,12.6317138671875,-0.031106693670153618,-9.717252731323242,0.7680960893630981
1772607580028060000,12.649059814453125,0.004785645287483931,-9.80100154876709,0.794417142868042
1772607580045406000,12.666406005859375,0.03349951654672623,-9.982855796813965,0.6939185857772827
1772607580062752000,12.683751953125,-0.03349951654672623,-9.853643417358398,0.6532405614852905
1772607580080098000,12.70109814453125,-0.01196411345154047,-9.745966911315918,0.6364908218383789
1772607580097444400,12.7184443359375,-0.02632104977965355,-9.681360244750977,0.7752745151519775
1772607580114790400,12.735790283203125,-0.031106693670153618,-9.571290969848633,0.8231309652328491
1772607580132136400,12.753136474609375,0.014356935396790504,-9.487542152404785,0.8087740540504456
1772607580149482500,12.770482421875,-0.009571290574967861,-9.573683738708496,0.7369893789291382
1772607580166828500,12.78782861328125,-0.03349951654672623,-9.7005033493042,0.6795616149902344
1772607580184174800,12.8051748046875,-0.009571290574967861,-9.76989459991455,0.7106683254241943
1772607580201521000,12.82252099609375,0.014356935396790504,-9.748359680175781,0.6891329288482666
1772607580218867000,12.839866943359375,0.004785645287483931,-9.657432556152344,0.729810893535614
1772607580236213000,12.857212890625,-0.0023928226437419653,-9.556933403015137,0.7776673436164856
1772607580253559000,12.87455908203125,-0.009571290574967861,-9.461220741271973,0.7657032608985901
1772607580270905000,12.891905029296876,-0.04546362906694412,-9.4061861038208,0.7202396392822266
1772607580288251100,12.909251220703124,0.009571290574967861,-9.489934921264648,0.7561319470405579
1772607580305597400,12.926597412109375,0.019142581149935722,-9.609575271606445,0.7058826684951782
1772607580322943500,12.943943603515624,-0.007178467698395252,-9.600004196166992,0.7010970115661621
1772607580340289500,12.96128955078125,0.02153540402650833,-9.549755096435547,0.6867401003837585
1772607580357635600,12.978635498046875,0.004785645287483931,-9.463613510131836,0.6604190468788147
1772607580374981600,12.995981689453124,0.031106693670153618,-9.4061861038208,0.6699903607368469
1772607580392327700,13.01332763671875,0.019142581149935722,-9.382257461547852,0.7202396392822266
1772607580409674000,13.030674072265626,0.02153540402650833,-9.375079154968262,0.7345965504646301
1772607580427020000,13.04802001953125,-0.016749758273363113,-9.437292098999023,0.7154539823532104
1772607580444366000,13.065365966796875,-0.01196411345154047,-9.463613510131836,0.7106683254241943
1772607580461712100,13.082712158203124,-0.02153540402650833,-9.439684867858887,0.6915257573127747
1772607580479058200,13.10005810546875,0.03349951654672623,-9.42054271697998,0.6939185857772827
1772607580496404200,13.117404296875,0.02392822690308094,-9.42054271697998,0.7250252366065979
1772607580513750500,13.13475048828125,0.02632104977965355,-9.367900848388672,0.7776673436164856
1772607580531096600,13.1520966796875,0.009571290574967861,-9.262616157531738,0.7369893789291382
1772607580548442600,13.169442626953124,0.01196411345154047,-9.21715259552002,0.698704183101654
1772607580565788700,13.18678857421875,0.01196411345154047,-9.248259544372559,0.6532405614852905
1772607580583134700,13.204134765625,0.02392822690308094,-9.32722282409668,0.6173482537269592
1772607580600480800,13.221480712890624,0.04307080805301666,-9.293723106384277,0.550349235534668
1772607580617827000,13.2388271484375,0.038285162299871445,-9.265008926391602,0.5838487148284912
1772607580635173000,13.256173095703126,0.01196411345154047,-9.272188186645508,0.6747759580612183
1772607580652519200,13.273519287109375,0.031106693670153618,-9.22433090209961,0.6771687865257263
1772607580669865200,13.290865234375,-0.004785645287483931,-9.300901412963867,0.6819544434547424
1772607580687211300,13.308211181640624,0.035892341285943985,-9.111868858337402,0.7106683254241943
1772607580704557600,13.3255576171875,0.035892341285943985,-9.183652877807617,0.6795616149902344
1772607580721903600,13.342903564453126,-0.004785645287483931,-9.186046600341797,0.6508477330207825
1772607580739249700,13.360249755859375,-0.019142581149935722,-9.248259544372559,0.6532405614852905
1772607580756595700,13.377595703125,0.0023928226437419653,-9.32722282409668,0.6675975322723389
1772607580773941800,13.394941650390624,0.059820566326379776,-9.389435768127441,0.6819544434547424
1772607580791287800,13.412287841796875,0.04546362906694412,-9.324830055236816,0.6532405614852905
1772607580808634000,13.429634033203126,0.02632104977965355,-9.162117958068848,0.6101697683334351
1772607580825980200,13.446980224609375,0.04307080805301666,-9.109476089477539,0.6293123364448547
1772607580843326200,13.464326171875,0.02871387079358101,-9.186046600341797,0.6532405614852905
1772607580860672300,13.48167236328125,-0.0023928226437419653,-9.324830055236816,0.6843472719192505
1772607580878018300,13.499018310546875,-0.02871387079358101,-9.375079154968262,0.7441678643226624
1772607580895364400,13.5163642578125,-0.04307080805301666,-9.367900848388672,0.7585247755050659
1772607580912710400,13.53371044921875,-0.014356935396790504,-9.250652313232422,0.7322037220001221
1772607580930056700,13.551056640625,0.02392822690308094,-9.123832702636719,0.6915257573127747
1772607580947402800,13.56840283203125,0.05503492057323456,-9.121439933776855,0.6771687865257263
1772607580964748800,13.585748779296875,0.04546362906694412,-9.226723670959473,0.6915257573127747
1772607580982094800,13.6030947265625,-0.01196411345154047,-9.32722282409668,0.7010970115661621
1772607580999441000,13.62044091796875,-0.064606212079525,-9.336793899536133,0.6891329288482666
1772607581016787200,13.637787109375,-0.02392822690308094,-9.133403778076172,0.7106683254241943
1772607581034133200,13.65513330078125,0.02392822690308094,-9.154939651489258,0.7058826684951782
1772607581051479300,13.672479248046875,0.031106693670153618,-9.181260108947754,0.698704183101654
1772607581068825300,13.689825439453125,0.016749758273363113,-9.286544799804688,0.6963114142417908
1772607581086171400,13.70717138671875,-0.014356935396790504,-9.28893756866455,0.6317051649093628
1772607581103517400,13.724517333984375,0.019142581149935722,-9.33440113067627,0.607776939868927
1772607581120863700,13.74186376953125,0.016749758273363113,-9.355937004089355,0.6149554252624512
1772607581138209800,13.759209716796875,0.035892341285943985,-9.305686950683594,0.5647061467170715
1772607581155555800,13.776555908203125,0.01196411345154047,-9.212367057800293,0.5838487148284912
1772607581172902000,13.79390185546875,-0.007178467698395252,-9.200403213500977,0.6699903607368469
1772607581190248000,13.811248046875,-0.014356935396790504,-9.18843936920166,0.6771687865257263
1772607581207594200,13.82859423828125,-0.009571290574967861,-9.186046600341797,0.7130611538887024
1772607581224940300,13.845940185546874,-0.007178467698395252,-9.20279598236084,0.7106683254241943
1772607581242286300,13.863286376953125,0.019142581149935722,-9.231510162353516,0.7130611538887024
1772607581259632400,13.88063232421875,0.062213387340307236,-9.267401695251465,0.7154539823532104
1772607581276978400,13.897978515625,0.038285162299871445,-9.229117393493652,0.6819544434547424
1772607581294324500,13.915324462890625,-0.014356935396790504,-9.236295700073242,0.6795616149902344
1772607581311670800,13.9326708984375,-0.009571290574967861,-9.28893756866455,0.727418065071106
1772607581329016800,13.950016845703125,-0.04307080805301666,-9.279366493225098,0.7561319470405579
1772607581346363000,13.96736279296875,-0.01196411345154047,-9.17886734008789,0.7202396392822266
1772607581363709000,13.984708984375,-0.009571290574967861,-9.090332984924316,0.7010970115661621
1772607581381055000,14.002054931640625,0.007178467698395252,-9.116654396057129,0.6795616149902344
1772607581398401000,14.019401123046874,-0.0023928226437419653,-9.214759826660156,0.672383189201355
1772607581415747300,14.036747314453125,-0.016749758273363113,-9.31047248840332,0.6604190468788147
1772607581433093400,14.05409326171875,-0.019142581149935722,-9.324830055236816,0.6963114142417908
1772607581450439400,14.071439453125,-0.01196411345154047,-9.32722282409668,0.7058826684951782
1772607581467785500,14.088785400390625,-0.016749758273363113,-9.267401695251465,0.7130611538887024
1772607581485131500,14.106131591796874,0.007178467698395252,-9.274580955505371,0.729810893535614
1772607581502477800,14.123477783203125,-0.004785645287483931,-9.245866775512695,0.7345965504646301
1772607581519824000,14.140823974609376,-0.016749758273363113,-9.174081802368164,0.6675975322723389
1772607581537170000,14.158169921875,-0.01196411345154047,-9.248259544372559,0.6149554252624512
1772607581554516000,14.175515869140625,-0.0023928226437419653,-9.274580955505371,0.6317051649093628
1772607581571862000,14.192862060546876,-0.019142581149935722,-9.32004451751709,0.6197410821914673
1772607581589208300,14.210208251953125,-0.019142581149935722,-9.293723106384277,0.6364908218383789
1772607581606554400,14.227554443359375,-0.02153540402650833,-9.205188751220703,0.672383189201355
1772607581623900400,14.244900390625,-0.019142581149935722,-9.157332420349121,0.6795616149902344
1772607581641246500,14.26224658203125,-0.014356935396790504,-9.233902931213379,0.6699903607368469
1772607581658592500,14.279592529296876,-0.0023928226437419653,-9.293723106384277,0.6628118753433228
1772607581675938800,14.296938720703125,-0.04546362906694412,-9.32004451751709,0.7010970115661621
1772607581693284900,14.314284912109375,-0.05742774158716202,-9.281759262084961,0.7178468108177185
1772607581710631000,14.331630859375,-0.02632104977965355,-9.238688468933105,0.6484549641609192
1772607581727977000,14.34897705078125,0.007178467698395252,-9.221938133239746,0.5838487148284912
1772607581745323000,14.366322998046876,-0.03349951654672623,-9.279366493225098,0.6532405614852905
1772607581762669000,14.3836689453125,-0.05503492057323456,-9.358329772949219,0.7058826684951782
1772607581780015400,14.401015380859375,-0.064606212079525,-9.30329418182373,0.7010970115661621
1772607581797361400,14.418361328125,-0.05503492057323456,-9.142974853515625,0.6963114142417908
1772607581814707500,14.43570751953125,0.019142581149935722,-9.07119083404541,0.6699903607368469
1772607581832053500,14.453053466796876,0.031106693670153618,-9.147761344909668,0.6819544434547424
1772607581849399600,14.470399658203124,0.03349951654672623,-9.272188186645508,0.7034898400306702
1772607581866745900,14.487745849609375,-0.0023928226437419653,-9.399007797241211,0.727418065071106
1772607581884092000,14.505091796875,-0.04307080805301666,-9.363115310668945,0.7393822073936462
1772607581901438000,14.52243798828125,-0.04546362906694412,-9.241081237792969,0.6963114142417908
1772607581918784000,14.539783935546875,-0.040677983313798904,-9.111868858337402,0.6173482537269592
1772607581936130000,14.557130126953124,-0.02153540402650833,-9.109476089477539,0.5886343717575073
1772607581953476400,14.574476318359375,0.019142581149935722,-9.17886734008789,0.6317051649093628
1772607581970822400,14.591822509765626,0.007178467698395252,-9.253045082092285,0.7322037220001221
1772607581988168400,14.60916845703125,-0.04307080805301666,-9.276973724365234,0.7417750358581543
1772607582005514500,14.626514404296875,-0.02871387079358101,-9.274580955505371,0.7034898400306702
1772607582022860500,14.643860595703124,-0.0023928226437419653,-9.250652313232422,0.6556333899497986
1772607582040206800,14.661206787109375,-0.019142581149935722,-9.236295700073242,0.641276478767395
1772607582057553000,14.678552978515626,-0.02632104977965355,-9.260223388671875,0.6915257573127747
1772607582074899000,14.69589892578125,-0.064606212079525,-9.274580955505371,0.7226324677467346
1772607582092245000,14.713244873046875,-0.05503492057323456,-9.260223388671875,0.7202396392822266
1772607582109591000,14.730591064453124,-0.02153540402650833,-9.245866775512695,0.6628118753433228
1772607582126937300,14.747937255859375,-0.014356935396790504,-9.221938133239746,0.6293123364448547
1772607582144283400,14.765283447265626,-0.01196411345154047,-9.20279598236084,0.6101697683334351
1772607582161629400,14.78262939453125,0.009571290574967861,-9.22433090209961,0.607776939868927
1772607582178975500,14.7999755859375,0.004785645287483931,-9.276973724365234,0.605384111404419
1772607582196321500,14.817321533203126,-0.007178467698395252,-9.332008361816406,0.5886343717575073
1772607582213667800,14.834667724609375,-0.016749758273363113,-9.248259544372559,0.5982056856155396
1772607582231014000,14.852013916015625,-0.014356935396790504,-9.19561767578125,0.5838487148284912
1772607582248360000,14.86935986328125,0.02632104977965355,-9.20279598236084,0.6317051649093628
1772607582265706000,14.8867060546875,0,-9.30329418182373,0.6915257573127747
1772607582283052000,14.904052001953126,-0.0023928226437419653,-9.346364974975586,0.7226324677467346
1772607582300398300,14.9213984375,-0.02632104977965355,-9.274580955505371,0.5647061467170715
1772607582317744400,14.938744384765625,-0.02632104977965355,-9.183652877807617,0.5000999569892883
1772607582335090400,14.95609033203125,-0.03349951654672623,-9.255437850952148,0.6101697683334351
1772607582352436500,14.9734365234375,0.01196411345154047,-9.269794464111328,0.7010970115661621
1772607582369782500,14.990782470703126,0.009571290574967861,-9.284152030944824,0.6580262184143066
1772607582387128800,15.00812890625,0.007178467698395252,-9.231510162353516,0.727418065071106
1772607582404475000,15.025474853515625,-0.07178468257188797,-9.183652877807617,0.8063812255859375
1772607582421821000,15.042821044921874,-0.06699903309345245,-9.200403213500977,0.8111668825149536
1772607582439167000,15.0601669921875,-0.064606212079525,-9.219545364379883,0.8973084688186646
1772607582456513000,15.077512939453126,-0.08853443711996078,-9.221938133239746,0.8303094506263733
1772607582473859300,15.094859375,-0.031106693670153618,-9.18843936920166,0.7824530005455017
1772607582491205400,15.112205322265625,-0.11964113265275955,-9.269794464111328,0.7800601720809937
1772607582508551400,15.129551513671874,-0.18424734473228455,-9.30329418182373,0.7920243144035339
1772607582525897500,15.1468974609375,-0.1052841991186142,-9.315258979797363,0.7465606927871704
1772607582543243500,15.164243408203125,-0.13160525262355804,-9.32722282409668,0.7130611538887024
1772607582560589600,15.181589599609374,-0.12442677468061447,-9.308079719543457,0.8350951075553894
1772607582577936000,15.198935791015625,-0.11724831163883209,-9.17886734008789,0.7824530005455017
1772607582595282000,15.216281982421876,-0.15553347766399384,-9.07119083404541,0.7441678643226624
1772607582612628000,15.2336279296875,-0.12921242415905,-9.166903495788574,0.7704889178276062
1772607582629974000,15.25097412109375,-0.07178468257188797,-9.298508644104004,0.7848458290100098
1772607582647320300,15.2683203125,-0.07178468257188797,-9.308079719543457,0.7800601720809937
1772607582664666400,15.285666259765625,-0.10289137065410614,-9.332008361816406,0.794417142868042
1772607582682012400,15.303012451171876,-0.10289137065410614,-9.284152030944824,0.7920243144035339
1772607582699358500,15.3203583984375,-0.09810572862625122,-9.255437850952148,0.7920243144035339
1772607582716704800,15.337704833984375,-0.05742774158716202,-9.274580955505371,0.8470591902732849
1772607582734050800,15.35505078125,-0.04546362906694412,-9.370293617248535,1.0648061037063599
1772607582751396900,15.37239697265625,-0.004785645287483931,-9.339186668395996,0.9068797826766968
1772607582768743000,15.389742919921876,-0.031106693670153618,-9.315258979797363,0.914058268070221
1772607582786089000,15.4070888671875,-0.09571290761232376,-9.272188186645508,0.8446664214134216
1772607582803435000,15.42443505859375,-0.05503492057323456,-9.365508079528809,0.8135597109794617
1772607582820781300,15.44178125,-0.04546362906694412,-9.432506561279297,0.7776673436164856
1772607582838127400,15.45912744140625,-0.06699903309345245,-9.494720458984375,0.7513462901115417
1772607582855473400,15.476473388671875,-0.05024927482008934,-9.533005714416504,0.6843472719192505
1772607582872819500,15.4938193359375,-0.02392822690308094,-9.509077072143555,0.6245267391204834
1772607582890165500,15.51116552734375,0.06699903309345245,-9.485149383544922,0.5479564070701599
1772607582907511800,15.52851171875,0.04307080805301666,-9.554540634155273,0.5312066078186035
1772607582924857900,15.54585791015625,0.009571290574967861,-9.547362327575684,0.5694918036460876
1772607582942204000,15.563203857421875,0.019142581149935722,-9.533005714416504,0.6269195079803467
1772607582959550000,15.580550048828124,0.02392822690308094,-9.533005714416504,0.5982056856155396
1772607582976896300,15.597896240234375,0.038285162299871445,-9.53779125213623,0.5623133182525635
1772607582994242300,15.6152421875,0.02871387079358101,-9.580862045288086,0.5024927258491516
1772607583011588400,15.63258837890625,0.03349951654672623,-9.616754531860352,0.5431707501411438
1772607583028934400,15.649934326171875,0.0526420995593071,-9.604789733886719,0.6101697683334351
1772607583046280700,15.66728076171875,0.2679961323738098,-9.580862045288086,1.4069796800613403
1772607583063626800,15.684626708984375,-0.09092725813388824,-9.731609344482422,0.5599204897880554
1772607583080972800,15.701972900390626,-0.1986042857170105,-9.726823806762695,0.4713860750198364
1772607583098318800,15.71931884765625,-0.19142581522464752,-9.726823806762695,0.5527420043945312
1772607583115665000,15.736664794921875,-0.09571290761232376,-9.872786521911621,0.607776939868927
1772607583133011200,15.75401123046875,0.08374879509210587,-9.80100154876709,0.6508477330207825
1772607583150357200,15.771357177734375,0.09571290761232376,-9.722038269042969,0.5599204897880554
1772607583167703300,15.788703369140626,0.004785645287483931,-9.731609344482422,0.5599204897880554
1772607583185049300,15.80604931640625,-0.13878370821475983,-9.604789733886719,0.698704183101654
1772607583202395600,15.823395751953125,-0.17228323221206665,-9.705288887023926,0.7537391185760498
1772607583219741700,15.84074169921875,1.155733346939087,-9.561718940734863,1.9214365482330322
1772607583237087700,15.858087646484375,-0.11724831163883209,-10.04267692565918,0.8135597109794617
1772607583254433800,15.875433837890625,-0.38285163044929504,-9.80817985534668,0.5288137793540955
1772607583271779800,15.89277978515625,0.46420758962631226,-9.839286804199219,1.466800332069397
1772607583289126100,15.910126220703125,-0.24167509377002716,-9.877572059631348,0.6005984544754028
1772607583306472200,15.92747216796875,0.519242525100708,-9.982855796813965,0.8542376756668091
1772607583323818200,15.944818359375,-0.2919243574142456,-9.942177772521973,0.7968099117279053
1772607583341164300,15.962164306640625,-0.24646073579788208,-9.93260669708252,0.9930213689804077
1772607583358510600,15.979510498046874,0.07178468257188797,-9.889535903930664,0.9068797826766968
1772607583375856600,15.996856689453125,-0.2632105052471161,-9.741181373596191,0.4546363055706024
1772607583393202700,16.01420263671875,-0.19142581522464752,-9.834501266479492,0.6340979933738708
1772607583410548700,16.031548828125,-0.1339980661869049,-9.714859962463379,0.4019941985607147
1772607583427894800,16.048894775390625,-0.02632104977965355,-9.698110580444336,0.349352091550827
1772607583445241000,16.066240966796876,-0.15553347766399384,-9.93260669708252,0.6771687865257263
1772607583462587100,16.083587158203127,-0.4331009089946747,-9.9469633102417,1.1078768968582153
1772607583479933200,16.10093310546875,-0.31345975399017334,-10.186245918273926,1.3399807214736938
1772607583497279200,16.118279296875,0.1698904037475586,-10.750951766967773,0.4091726839542389
1772607583514625500,16.13562548828125,-0.33499518036842346,-10.334601402282715,-0.33020952343940735
1772607583531971600,16.1529716796875,-0.20338992774486542,-10.37767219543457,-0.10289137065410614
1772607583549317600,16.170317626953125,-0.4307080805301666,-10.023533821105957,-0.21774685382843018
1772607583566663700,16.18766357421875,-0.5479564070701599,-9.20997428894043,-0.32303106784820557
1772607583584009700,16.205009765625,-0.5335994362831116,-9.245866775512695,-0.18903298676013947
1772607583601356000,16.22235595703125,-0.3326023519039154,-10.480563163757324,-0.12203395366668701
1772607583618702000,16.2397021484375,-0.8733802437782288,-9.757930755615234,0.27038896083831787
1772607583636048100,16.257048095703126,-0.3565305769443512,-9.968499183654785,0.09092725813388824
1772607583653394200,16.274394287109374,-0.06939185410737991,-10.652846336364746,-0.20338992774486542
1772607583670740500,16.291740478515624,-0.5479564070701599,-12.196216583251953,0.038285162299871445
1772607583688086500,16.30908642578125,-0.07896314561367035,-10.73420238494873,0.6843472719192505
1772607583705432600,16.3264326171875,0.5886343717575073,-10.248459815979004,-0.41874396800994873
1772607583722778600,16.343778564453125,-0.05024927482008934,-9.590433120727539,-0.7776673436164856
1772607583740124700,16.361124755859375,-0.6364908218383789,-12.05504035949707,-0.08614161610603333
1772607583757471000,16.378470947265626,-0.23449662327766418,-12.56710433959961,0.6771687865257263
1772607583774817000,16.395817138671877,-0.2584248483181,-13.72762393951416,-0.5718846321105957
1772607583792163000,16.4131630859375,-1.28255295753479,-19.621145248413086,3.5054850578308105
1772607583809509000,16.430509033203126,1.007378339767456,-14.644074440002441,-1.954936146736145
1772607583826855400,16.44785546875,-0.4426721930503845,-12.205788612365723,-3.0173492431640625
1772607583844201500,16.465201416015624,-1.153340458869934,-12.480962753295898,-1.9046868085861206
1772607583861547500,16.482547607421875,-0.8566305041313171,-13.162917137145996,0.06939185410737991
1772607583878893600,16.4998935546875,1.8975083827972412,-8.786444664001465,-1.4117653369903564
1772607583896239900,16.517239990234376,1.1078768968582153,-12.954741477966309,-1.0241280794143677
1772607583913586000,16.5345859375,3.5772697925567627,-13.196416854858398,1.5242279767990112
1772607583930932000,16.551931884765626,1.1437692642211914,-8.817551612854004,-1.3256237506866455
1772607583948278000,16.569278076171877,-4.675575256347656,-7.118647575378418,-1.3256237506866455
1772607583965624300,16.586624267578124,-4.120440483093262,-1.8448662757873535,-16.074981689453125
1772607583982970400,16.603970458984374,2.455035924911499,2.392822742462158,-14.742179870605469
1772607584000316400,16.62131640625,6.888936519622803,-0.6125625967979431,-14.754144668579102
1772607584017662500,16.638662353515624,11.277373313903809,-3.7806596755981445,-10.944770812988281
1772607584035008800,16.6560087890625,11.018948554992676,-4.335794448852539,-7.953742504119873
1772607584052354800,16.673354736328125,7.582854747772217,-3.3882367610931396,-10.176674842834473
1772607584069700900,16.690700927734376,7.9657063484191895,-3.735196113586426,-11.904293060302734
1772607584087047000,16.708046875,13.76351547241211,-7.83410120010376,-11.248659133911133
1772607584104393200,16.725393310546874,19.211973190307617,-11.373085975646973,-10.827522277832031
1772607584121739300,16.7427392578125,20.803199768066406,-11.83729362487793,-9.817750930786133
1772607584139085300,16.760085205078123,17.80738639831543,-11.861222267150879,-10.425528526306152
1772607584156431400,16.777431396484374,15.847664833068848,-11.37069320678711,-10.023533821105957
1772607584173777700,16.794777587890625,14.780465126037598,-13.76351547241211,-8.834300994873047
1772607584191123700,16.812123779296876,13.670195579528809,-14.57228946685791,-9.489934921264648
1772607584208469800,16.8294697265625,13.074382781982422,-13.99801254272461,-9.166903495788574
1772607584225816000,16.846816162109373,10.021141052246094,-14.778072357177734,-9.166903495788574
1772607584243162000,16.864162109375,9.135796546936035,-14.029119491577148,-6.92482852935791
1772607584260508200,16.881508056640627,6.025127410888672,-11.760723114013672,-6.561119556427002
1772607584277854200,16.898854248046874,4.59421968460083,-8.288737297058105,-6.142375946044922
1772607584295200300,16.9162001953125,2.0171494483947754,-4.878965377807617,-4.797609329223633
1772607584312546600,16.933546630859375,0.6604190468788147,-3.8835511207580566,-3.3954153060913086
1772607584329892600,16.950892578125,3.053241729736328,-2.644068956375122,-1.1413763761520386
1772607584347238700,16.96823876953125,5.283352375030518,-1.5194423198699951,-1.301695466041565
1772607584364585000,16.9855849609375,6.283552169799805,-1.0432707071304321,-2.0865414142608643
1772607584381931000,17.002930908203126,7.334001541137695,0.576670229434967,-2.2229323387145996
1772607584399277000,17.020277099609373,7.590033531188965,1.2586246728897095,-3.0101709365844727
1772607584416623000,17.037623046875,7.805387496948242,2.1367905139923096,-3.122633457183838
1772607584433969200,17.05496923828125,5.924628734588623,2.715853691101074,-2.794816732406616
1772607584451315500,17.0723154296875,4.907679080963135,2.840280532836914,-0.973878800868988
1772607584468661500,17.08966162109375,5.1804609298706055,3.239881753921509,-0.5455635786056519
1772607584486007600,17.107007568359375,7.0061845779418945,3.0652058124542236,-0.4737788736820221
1772607584503353900,17.124353759765626,7.154539585113525,2.3617160320281982,0.1746760457754135
1772607584520700000,17.141699951171876,7.970492362976074,2.806781053543091,0.18903298676013947
1772607584538046000,17.1590458984375,8.066205024719238,5.003392219543457,-3.761517286300659
1772607584555392300,17.176392333984374,5.709274768829346,8.439485549926758,-4.910071849822998
1772607584572738300,17.19373828125,5.948556900024414,7.424928665161133,-2.9623143672943115
1772607584590084400,17.21108447265625,6.1328043937683105,6.1950178146362305,-1.337587833404541
1772607584607430400,17.228430419921875,5.517848968505859,5.793023586273193,0.02632104977965355
1772607584624776400,17.2457763671875,5.66620397567749,6.309873104095459,0.12442677468061447
1772607584642122800,17.263122802734376,5.2043890953063965,7.144968509674072,-0.39960137009620667
1772607584659468800,17.28046875,4.625326156616211,6.290730953216553,0.26081767678260803
1772607584676814800,17.29781494140625,5.577669620513916,6.561119556427002,0.07178468257188797
1772607584694161200,17.3151611328125,6.6831536293029785,6.2189459800720215,-0.3445664644241333
1772607584711507200,17.332507080078123,7.635497093200684,5.828916072845459,0.1459621787071228
1772607584728853200,17.349853271484374,8.128418922424316,5.584847927093506,1.0671988725662231
1772607584746199300,17.36719921875,8.446663856506348,5.781059741973877,1.1078768968582153
1772607584763545600,17.384545654296875,8.532805442810059,5.8097734451293945,0.6436693072319031
1772607584780891600,17.4018916015625,8.38684368133545,5.905486106872559,0.4953143000602722
1772607584798237700,17.41923779296875,7.956135272979736,6.369693756103516,0.35892340540885925
1772607584815583700,17.436583740234376,7.439285755157471,6.537191390991211,0.3613162338733673
1772607584832930000,17.453929931640626,6.975078105926514,6.410371780395508,0.5359922647476196
1772607584850276000,17.471276123046874,7.013363361358643,6.185446739196777,0.7680960893630981
1772607584867622100,17.4886220703125,7.051648139953613,6.20219612121582,0.5383850932121277
1772607584884968400,17.505968505859375,6.774080753326416,6.398407936096191,0.2392822653055191
1772607584902314500,17.523314453125,6.427121639251709,6.486942291259766,0.07178468257188797
1772607584919660500,17.54066064453125,6.546762943267822,6.486942291259766,0.007178467698395252
1772607584937006600,17.558006591796875,7.0755767822265625,6.305087566375732,0.16749759018421173
1772607584954353000,17.575352783203126,7.968099594116211,5.891129493713379,0.5647061467170715
1772607584971699000,17.592698974609377,8.243273735046387,6.297909259796143,0.380458801984787
