time,seconds_elapsed,z,y,x
1772607567380657200,0.0016572265625,7.692957878112793,6.047163009643555,0.6485392451286316
1772607567390657000,0.011656982421875,7.679224014282227,6.064270496368408,0.6515538692474365
1772607567400657200,0.0216572265625,7.667823314666748,6.078568458557129,0.6526007652282715
1772607567410657000,0.031656982421875,7.660894393920898,6.087575912475586,0.6500142812728882
1772607567420657200,0.0416572265625,7.661587715148926,6.08828067779541,0.6350569725036621
1772607567430657000,0.051656982421875,7.663400650024414,6.0885491371154785,0.6101259589195251
1772607567440657200,0.0616572265625,7.663352966308594,6.092116832733154,0.5740284323692322
1772607567450657000,0.071656982421875,7.6613078117370605,6.0986456871032715,0.5303444862365723
1772607567460657200,0.0816572265625,7.656111240386963,6.108890056610107,0.4855940043926239
1772607567470657000,0.091656982421875,7.648273944854736,6.121610164642334,0.44739988446235657
1772607567480657200,0.1016572265625,7.6394734382629395,6.134579658508301,0.4192371070384979
1772607567490657000,0.111656982421875,7.633231163024902,6.143764972686768,0.3979094624519348
1772607567500657200,0.1216572265625,7.6317830085754395,6.146581172943115,0.38185229897499084
1772607567510657000,0.131656982421875,7.636281967163086,6.141693115234375,0.3703840970993042
1772607567520657200,0.1416572265625,7.645956516265869,6.130501747131348,0.3559258282184601
1772607567530657000,0.151656982421875,7.654289722442627,6.121731281280518,0.32654088735580444
1772607567540657200,0.1616572265625,7.65347146987915,6.1252851486206055,0.2750270664691925
1772607567550657000,0.171656982421875,7.6398797035217285,6.145005702972412,0.2038036733865738
1772607567560657200,0.1816572265625,7.607886791229248,6.186749458312988,0.12079082429409027
1772607567570657000,0.191656982421875,7.552683353424072,6.2551116943359375,0.030583608895540237
1772607567580657200,0.2016572265625,7.472823143005371,6.350094318389893,-0.06000833585858345
1772607567590657000,0.211656982421875,7.383213043212891,6.453169822692871,-0.12311404943466187
1772607567600657200,0.2216572265625,7.312341690063477,6.532675266265869,-0.15556809306144714
1772607567610657000,0.231656982421875,7.2778825759887695,6.5700602531433105,-0.19266672432422638
1772607567620657200,0.2416572265625,7.28954553604126,6.555936813354492,-0.22936725616455078
1772607567630657000,0.251656982421875,7.359157562255859,6.478870868682861,-0.19345751404762268
1772607567640657200,0.2616572265625,7.470152378082275,6.3530755043029785,-0.07511939108371735
1772607567650657000,0.271656982421875,7.596961975097656,6.200936317443848,0.07032624632120132
1772607567660657200,0.2816572265625,7.721418380737305,6.04263973236084,0.19128252565860748
1772607567670657000,0.291656982421875,7.8337082862854,5.892752647399902,0.2808442711830139
1772607567680657200,0.3016572265625,7.927130222320557,5.763975143432617,0.32798972725868225
1772607567690657000,0.311656982421875,7.994329929351807,5.671436309814453,0.3096783757209778
1772607567700657200,0.3216572265625,8.03512954711914,5.615778923034668,0.26478102803230286
1772607567710657000,0.331656982421875,8.05782413482666,5.584639072418213,0.2316770702600479
1772607567720657200,0.3416572265625,8.079144477844238,5.5547614097595215,0.20602665841579437
1772607567730657000,0.351656982421875,8.107833862304688,5.514329433441162,0.15997007489204407
1772607567740657200,0.3616572265625,8.14212417602539,5.465051174163818,0.09703726321458817
1772607567750657000,0.371656982421875,8.186694145202637,5.398794651031494,0.03800486400723457
1772607567760657200,0.3816572265625,8.240643501281738,5.316198348999023,-0.014306425116956234
1772607567770657000,0.391656982421875,8.301444053649902,5.220637798309326,-0.036761149764060974
1772607567780657200,0.4016572265625,8.36588191986084,5.116633892059326,-0.049761854112148285
1772607567790657000,0.411656982421875,8.429764747619629,5.010585308074951,-0.059124622493982315
1772607567800657200,0.4216572265625,8.489642143249512,4.908352375030518,-0.06662355363368988
1772607567810657000,0.431656982421875,8.54362964630127,4.813595771789551,-0.07803948223590851
1772607567820657200,0.4416572265625,8.58952808380127,4.730754375457764,-0.1017659604549408
1772607567830657000,0.451656982421875,8.624403953552246,4.665579795837402,-0.14969152212142944
1772607567840657200,0.4616572265625,8.645235061645508,4.623983860015869,-0.22150757908821106
1772607567850657000,0.471656982421875,8.648126602172852,4.614258289337158,-0.29818111658096313
1772607567860657200,0.4816572265625,8.629982948303223,4.6414384841918945,-0.38834717869758606
1772607567870657000,0.491656982421875,8.590435028076172,4.696563243865967,-0.5631392002105713
1772607567880657200,0.5016572265625,8.53087329864502,4.768110275268555,-0.8122300505638123
1772607567890657000,0.511656982421875,8.453638076782227,4.846351146697998,-1.104205846786499
1772607567900657200,0.5216572265625,8.356942176818848,4.9233198165893555,-1.446659803390503
1772607567910657000,0.531656982421875,8.239048957824707,4.987124919891357,-1.848524808883667
1772607567920657200,0.5416572265625,8.105671882629395,5.0187578201293945,-2.297945261001587
1772607567930657000,0.551656982421875,7.971475124359131,4.999845504760742,-2.7617969512939453
1772607567940657200,0.5616572265625,7.848232746124268,4.915864944458008,-3.226435422897339
1772607567950657000,0.571656982421875,7.7379536628723145,4.758325576782227,-3.6949703693389893
1772607567960657200,0.5816572265625,7.644750118255615,4.515344142913818,-4.164114952087402
1772607567970657000,0.591656982421875,7.57711935043335,4.173267364501953,-4.61968469619751
1772607567980657200,0.6016572265625,7.523780345916748,3.726364850997925,-5.0672807693481445
1772607567990657000,0.611656982421875,7.465940952301025,3.1809680461883545,-5.505593776702881
1772607568000657200,0.6216572265625,7.386513710021973,2.5544776916503906,-5.923211097717285
1772607568010657000,0.631656982421875,7.263697624206543,1.8768903017044067,-6.31556510925293
1772607568020657200,0.6416572265625,7.078824996948242,1.175190806388855,-6.684276103973389
1772607568030657000,0.651656982421875,6.83929967880249,0.4646519422531128,-7.012735843658447
1772607568040657200,0.6616572265625,6.5693206787109375,-0.24276728928089142,-7.2770514488220215
1772607568050657000,0.671656982421875,6.28434944152832,-0.9332266449928284,-7.470370292663574
1772607568060657200,0.6816572265625,6.007435321807861,-1.5899419784545898,-7.586381912231445
1772607568070657000,0.691656982421875,5.757471084594727,-2.219212055206299,-7.622138500213623
1772607568080657200,0.7016572265625,5.532932758331299,-2.837937831878662,-7.583083152770996
1772607568090657000,0.711656982421875,5.328566551208496,-3.437208890914917,-7.480799674987793
1772607568100657200,0.7216572265625,5.143275737762451,-4.0165605545043945,-7.320132255554199
1772607568110657000,0.731656982421875,4.989151954650879,-4.572024345397949,-7.097558975219727
1772607568120657200,0.7416572265625,4.869769096374512,-5.088538646697998,-6.823673248291016
1772607568130657000,0.751656982421875,4.770362854003906,-5.555026054382324,-6.523473262786865
1772607568140657200,0.7616572265625,4.639564514160156,-6.013396263122559,-6.20353889465332
1772607568150657000,0.771656982421875,4.495588302612305,-6.448121547698975,-5.86359977722168
1772607568160657200,0.7816572265625,4.34874963760376,-6.8329901695251465,-5.528923988342285
1772607568170657000,0.791656982421875,4.196414947509766,-7.155340671539307,-5.230831146240234
1772607568180657200,0.8016572265625,4.051449775695801,-7.412548542022705,-4.980991363525391
1772607568190657000,0.811656982421875,3.9472997188568115,-7.605982303619385,-4.768464088439941
1772607568200657200,0.8216572265625,3.904387950897217,-7.739943981170654,-4.584693431854248
1772607568210657000,0.831656982421875,3.901021957397461,-7.835190773010254,-4.422918796539307
1772607568220657200,0.8416572265625,3.8979690074920654,-7.891512393951416,-4.324378967285156
1772607568230657000,0.851656982421875,3.8588099479675293,-7.9373602867126465,-4.2753119468688965
1772607568240657200,0.8616572265625,3.769570827484131,-7.995578765869141,-4.246345043182373
1772607568250657000,0.871656982421875,3.6878433227539062,-8.061383247375488,-4.193363666534424
1772607568260657200,0.8816572265625,3.664862871170044,-8.116829872131348,-4.105636119842529
1772607568270657000,0.891656982421875,3.714895248413086,-8.145967483520508,-4.001645088195801
1772607568280657200,0.9016572265625,3.8092219829559326,-8.158756256103516,-3.88521671295166
1772607568290657000,0.911656982421875,3.915841817855835,-8.164057731628418,-3.7662620544433594
1772607568300657200,0.9216572265625,4.025760650634766,-8.158812522888184,-3.660248041152954
1772607568310657000,0.931656982421875,4.138286590576172,-8.15349006652832,-3.5447933673858643
1772607568320657200,0.9416572265625,4.266478061676025,-8.159672737121582,-3.374507427215576
1772607568330657000,0.951656982421875,4.422855377197266,-8.174089431762695,-3.129378080368042
1772607568340657200,0.9616572265625,4.582853317260742,-8.173807144165039,-2.8908004760742188
1772607568350657000,0.971656982421875,4.722682476043701,-8.152100563049316,-2.722116231918335
1772607568360657200,0.9816572265625,4.855778217315674,-8.123469352722168,-2.5692520141601562
1772607568370657000,0.991656982421875,4.979869842529297,-8.09515380859375,-2.416558027267456
1772607568380657200,1.0016572265625,5.078568458557129,-8.07657527923584,-2.2687995433807373
1772607568390657000,1.011656982421875,5.144683361053467,-8.070792198181152,-2.1365714073181152
1772607568400657200,1.0216572265625,5.249583721160889,-8.048230171203613,-1.9591429233551025
1772607568410657000,1.031656982421875,5.38218879699707,-7.99772310256958,-1.799683690071106
1772607568420657200,1.0416572265625,5.551114559173584,-7.91386079788208,-1.6511591672897339
1772607568430657000,1.051656982421875,5.707842826843262,-7.832651138305664,-1.4968256950378418
1772607568440657200,1.0616572265625,5.839493274688721,-7.767945289611816,-1.3151929378509521
1772607568450657000,1.071656982421875,5.977150917053223,-7.68727970123291,-1.1617991924285889
1772607568460657200,1.0816572265625,6.1292338371276855,-7.5832839012146,-1.047224760055542
1772607568470657000,1.091656982421875,6.281637668609619,-7.472610950469971,-0.9335470199584961
1772607568480657200,1.1016572265625,6.422669887542725,-7.3603739738464355,-0.8628948330879211
1772607568490657000,1.111656982421875,6.553626537322998,-7.2512359619140625,-0.7999653220176697
1772607568500657200,1.1216572265625,6.66886568069458,-7.15470027923584,-0.7119676470756531
1772607568510657000,1.131656982421875,6.777770042419434,-7.061890125274658,-0.6016034483909607
1772607568520657200,1.1416572265625,6.873623847961426,-6.9765825271606445,-0.5009857416152954
1772607568530657000,1.151656982421875,7.005582332611084,-6.849682807922363,-0.41719648241996765
1772607568540657200,1.1616572265625,7.189105987548828,-6.657098293304443,-0.4125147759914398
1772607568550657000,1.171656982421875,7.353401184082031,-6.478537082672119,-0.35557737946510315
1772607568560657200,1.1816572265625,7.499270915985107,-6.313260555267334,-0.2721520662307739
1772607568570657000,1.191656982421875,7.626694202423096,-6.1606292724609375,-0.22488747537136078
1772607568580657200,1.2016572265625,7.725945472717285,-6.036248683929443,-0.2094450145959854
1772607568590657000,1.211656982421875,7.793377876281738,-5.948601245880127,-0.218569815158844
1772607568600657200,1.2216572265625,7.832652568817139,-5.894796371459961,-0.2670458257198334
1772607568610657000,1.231656982421875,7.847497463226318,-5.870723724365234,-0.3489748537540436
1772607568620657200,1.2416572265625,7.8340044021606445,-5.881450653076172,-0.4553103744983673
1772607568630657000,1.251656982421875,7.802201271057129,-5.913668155670166,-0.5697062015533447
1772607568640657200,1.2616572265625,7.766707420349121,-5.950821876525879,-0.6605725884437561
1772607568650657000,1.271656982421875,7.724495887756348,-5.99711275100708,-0.7329338788986206
1772607568660657200,1.2816572265625,7.677750110626221,-6.0513529777526855,-0.7769494652748108
1772607568670657000,1.291656982421875,7.621586799621582,-6.118415355682373,-0.8042370080947876
1772607568680657200,1.3016572265625,7.553842544555664,-6.198670387268066,-0.8284538984298706
1772607568690657000,1.311656982421875,7.476059436798096,-6.287795543670654,-0.861708402633667
1772607568700657200,1.3216572265625,7.388790607452393,-6.384007930755615,-0.9058740735054016
1772607568710657000,1.331656982421875,7.289065837860107,-6.489374160766602,-0.9632909893989563
1772607568720657200,1.3416572265625,7.188309669494629,-6.587155342102051,-1.052598476409912
1772607568730657000,1.351656982421875,7.096292018890381,-6.668867588043213,-1.157250165939331
1772607568740657200,1.3616572265625,6.996819019317627,-6.755892753601074,-1.2541208267211914
1772607568750657000,1.371656982421875,6.852200031280518,-6.891514301300049,-1.3133039474487305
1772607568760657200,1.3816572265625,6.689027786254883,-7.039948463439941,-1.3661669492721558
1772607568770657000,1.391656982421875,6.538395404815674,-7.1652421951293945,-1.441907525062561
1772607568780657200,1.4016572265625,6.401014804840088,-7.27063512802124,-1.5281524658203125
1772607568790657000,1.411656982421875,6.257549285888672,-7.370284557342529,-1.6408452987670898
1772607568800657200,1.4216572265625,6.102633953094482,-7.473227500915527,-1.7547403573989868
1772607568810657000,1.431656982421875,5.94667911529541,-7.574240684509277,-1.8542557954788208
1772607568820657200,1.4416572265625,5.786438941955566,-7.675269603729248,-1.9436429738998413
1772607568830657000,1.451656982421875,5.610289096832275,-7.7825608253479,-2.031450033187866
1772607568840657200,1.4616572265625,5.401626110076904,-7.908463001251221,-2.1092722415924072
1772607568850657000,1.471656982421875,5.1529316902160645,-8.057615280151367,-2.1662240028381348
1772607568860657200,1.4816572265625,4.85563325881958,-8.234391212463379,-2.1881515979766846
1772607568870657000,1.491656982421875,4.53369140625,-8.418496131896973,-2.1782920360565186
1772607568880657200,1.5016572265625,4.23347806930542,-8.57308578491211,-2.179506301879883
1772607568890657000,1.511656982421875,3.9613378047943115,-8.694602012634277,-2.209543466567993
1772607568900657200,1.5216572265625,3.7200348377227783,-8.786066055297852,-2.2664456367492676
1772607568910657000,1.531656982421875,3.4846231937408447,-8.862072944641113,-2.343384027481079
1772607568920657200,1.5416572265625,3.249347686767578,-8.933462142944336,-2.4094367027282715
1772607568930657000,1.551656982421875,3.02683162689209,-9.000804901123047,-2.44830322265625
1772607568940657200,1.5616572265625,2.846764326095581,-9.05861759185791,-2.4510738849639893
1772607568950657000,1.571656982421875,2.7169668674468994,-9.105917930603027,-2.4229602813720703
1772607568960657200,1.5816572265625,2.6400349140167236,-9.142654418945312,-2.3690664768218994
1772607568970657000,1.591656982421875,2.6069881916046143,-9.179730415344238,-2.2597689628601074
1772607568980657200,1.6016572265625,2.5436010360717773,-9.232458114624023,-2.1123945713043213
1772607568990657000,1.611656982421875,2.4910888671875,-9.258737564086914,-2.059278726577759
1772607569000657200,1.6216572265625,2.461865186691284,-9.26764965057373,-2.054327964782715
1772607569010657000,1.631656982421875,2.431962251663208,-9.275035858154297,-2.056607484817505
1772607569020657200,1.6416572265625,2.3952882289886475,-9.285026550292969,-2.054570198059082
1772607569030657000,1.651656982421875,2.3460004329681396,-9.301984786987305,-2.034636974334717
1772607569040657200,1.6616572265625,2.2738890647888184,-9.325116157531738,-2.0104825496673584
1772607569050657000,1.671656982421875,2.199721097946167,-9.343362808227539,-2.00827956199646
1772607569060657200,1.6816572265625,2.124318838119507,-9.36089038848877,-2.00783371925354
1772607569070657000,1.691656982421875,2.038015842437744,-9.380677223205566,-2.0049376487731934
1772607569080657200,1.7016572265625,1.924239993095398,-9.407585144042969,-1.9912365674972534
1772607569090657000,1.711656982421875,1.7553924322128296,-9.449227333068848,-1.9496394395828247
1772607569100657200,1.7216572265625,1.5349395275115967,-9.4959135055542,-1.908395767211914
1772607569110657000,1.731656982421875,1.2610466480255127,-9.538707733154297,-1.8955750465393066
1772607569120657200,1.7416572265625,0.9588852524757385,-9.57197380065918,-1.9047948122024536
1772607569130657000,1.751656982421875,0.657843828201294,-9.59819507598877,-1.9006019830703735
1772607569140657200,1.7616572265625,0.3829064965248108,-9.624102592468262,-1.8440250158309937
1772607569150657000,1.771656982421875,0.1513330489397049,-9.655410766601562,-1.7089526653289795
1772607569160657200,1.7816572265625,-0.01957961730659008,-9.689349174499512,-1.5121245384216309
1772607569170657000,1.791656982421875,-0.11500013619661331,-9.717656135559082,-1.3131294250488281
1772607569180657200,1.8016572265625,-0.14625753462314606,-9.737496376037598,-1.1533281803131104
1772607569190657000,1.811656982421875,-0.14160889387130737,-9.750645637512207,-1.0369312763214111
1772607569200657200,1.8216572265625,-0.11121111363172531,-9.75955867767334,-0.9534331560134888
1772607569210657000,1.831656982421875,-0.07069570571184158,-9.764217376708984,-0.9085378050804138
1772607569220657200,1.8416572265625,-0.044771160930395126,-9.764798164367676,-0.9039264917373657
1772607569230657000,1.851656982421875,-0.0360165610909462,-9.762364387512207,-0.930230975151062
1772607569240657200,1.8616572265625,-0.03922044485807419,-9.757208824157715,-0.9827122688293457
1772607569250657000,1.871656982421875,-0.047208379954099655,-9.750279426574707,-1.0489044189453125
1772607569260657200,1.8816572265625,-0.0577426478266716,-9.742722511291504,-1.1164321899414062
1772607569270657000,1.891656982421875,-0.07265473157167435,-9.734663963317871,-1.1838210821151733
1772607569280657200,1.9016572265625,-0.08513283729553223,-9.727725982666016,-1.2387441396713257
1772607569290657000,1.911656982421875,-0.09792569279670715,-9.722175598144531,-1.2806642055511475
1772607569300657200,1.9216572265625,-0.11888668686151505,-9.717223167419434,-1.3159894943237305
1772607569310657000,1.931656982421875,-0.14866311848163605,-9.71160888671875,-1.3538635969161987
1772607569320657200,1.9416572265625,-0.1793426126241684,-9.70600700378418,-1.3898391723632812
1772607569330657000,1.951656982421875,-0.19835351407527924,-9.701011657714844,-1.4217690229415894
1772607569340657200,1.9616572265625,-0.1992277354001999,-9.69713020324707,-1.4478858709335327
1772607569350657000,1.971656982421875,-0.18832676112651825,-9.693368911743164,-1.4742848873138428
1772607569360657200,1.9816572265625,-0.17786702513694763,-9.688648223876953,-1.5062743425369263
1772607569370657000,1.991656982421875,-0.17651337385177612,-9.683062553405762,-1.541924238204956
1772607569380657200,2.0016572265625,-0.18862633407115936,-9.677959442138672,-1.5722308158874512
1772607569390657000,2.011656982421875,-0.2053266167640686,-9.675606727600098,-1.5845674276351929
1772607569400657200,2.0216572265625,-0.21980221569538116,-9.6759672164917,-1.5804234743118286
1772607569410657000,2.031656982421875,-0.23200224339962006,-9.680097579956055,-1.5531537532806396
1772607569420657200,2.0416572265625,-0.2469002902507782,-9.690451622009277,-1.4847776889801025
1772607569430657000,2.051656982421875,-0.2639947235584259,-9.70588493347168,-1.3771358728408813
1772607569440657200,2.0616572265625,-0.2701701819896698,-9.722759246826172,-1.251138687133789
1772607569450657000,2.071656982421875,-0.25263527035713196,-9.739575386047363,-1.1167923212051392
1772607569460657200,2.0816572265625,-0.20283269882202148,-9.755632400512695,-0.9782156348228455
1772607569470657000,2.091656982421875,-0.11618858575820923,-9.770041465759277,-0.8385642170906067
1772607569480657200,2.1016572265625,0.00009873784438241273,-9.78226089477539,-0.6912022233009338
1772607569490657000,2.111656982421875,0.13982369005680084,-9.791299819946289,-0.5303629636764526
1772607569500657200,2.1216572265625,0.29978519678115845,-9.795573234558105,-0.3567267060279846
1772607569510657000,2.131656982421875,0.46737140417099,-9.794047355651855,-0.16911709308624268
1772607569520657200,2.1416572265625,0.622150719165802,-9.78686237335205,0.025551017373800278
1772607569530657000,2.151656982421875,0.7585462331771851,-9.774918556213379,0.21439366042613983
1772607569540657200,2.1616572265625,0.8733380436897278,-9.758735656738281,0.4180256128311157
1772607569550657000,2.171656982421875,0.9622688889503479,-9.738090515136719,0.6434531211853027
1772607569560657200,2.1816572265625,1.0115933418273926,-9.716707229614258,0.8559622764587402
1772607569570657000,2.191656982421875,1.014832854270935,-9.698914527893066,1.0351642370224
1772607569580657200,2.2016572265625,0.972670316696167,-9.687073707580566,1.176814079284668
1772607569590657000,2.211656982421875,0.8836795687675476,-9.682323455810547,1.2814475297927856
1772607569600657200,2.2216572265625,0.7642446160316467,-9.682568550109863,1.3543190956115723
1772607569610657000,2.231656982421875,0.6290076971054077,-9.686308860778809,1.3964786529541016
1772607569620657200,2.2416572265625,0.4943501353263855,-9.69275188446045,1.4059083461761475
1772607569630657000,2.251656982421875,0.3781856894493103,-9.702139854431152,1.3768951892852783
1772607569640657200,2.2616572265625,0.2944067716598511,-9.714320182800293,1.309846043586731
1772607569650657000,2.271656982421875,0.2543191909790039,-9.729854583740234,1.198184609413147
1772607569660657200,2.2816572265625,0.26409098505973816,-9.746767044067383,1.0493645668029785
1772607569670657000,2.291656982421875,0.31605589389801025,-9.759774208068848,0.9040427207946777
1772607569680657200,2.3016572265625,0.3813430964946747,-9.766160011291504,0.8044071793556213
1772607569690657000,2.311656982421875,0.4271794855594635,-9.767497062683105,0.7641506791114807
1772607569700657200,2.3216572265625,0.43830105662345886,-9.76671314239502,0.7678408026695251
1772607569710657000,2.331656982421875,0.4172786474227905,-9.765900611877441,0.7896007299423218
1772607569720657200,2.3416572265625,0.37946364283561707,-9.76550006866455,0.813269317150116
1772607569730657000,2.351656982421875,0.34168800711631775,-9.765281677246094,0.8324118256568909
1772607569740657200,2.3616572265625,0.3145352005958557,-9.7650785446167,0.8454070687294006
1772607569750657000,2.371656982421875,0.300578773021698,-9.764936447143555,0.8520922660827637
1772607569760657200,2.3816572265625,0.2961784303188324,-9.764972686767578,0.8532217741012573
1772607569770657000,2.391656982421875,0.29495346546173096,-9.76522159576416,0.8507806062698364
1772607569780657200,2.4016572265625,0.2918776869773865,-9.765700340270996,0.8463354110717773
1772607569790657000,2.411656982421875,0.2855219841003418,-9.766277313232422,0.8418378233909607
1772607569800657200,2.4216572265625,0.2783479392528534,-9.766668319702148,0.839694082736969
1772607569810657000,2.431656982421875,0.27431586384773254,-9.766563415527344,0.8422490358352661
1772607569820657200,2.4416572265625,0.2719688415527344,-9.766185760498047,0.8473669290542603
1772607569830657000,2.451656982421875,0.26120907068252563,-9.766036987304688,0.8524594902992249
1772607569840657200,2.4616572265625,0.23568041622638702,-9.766256332397461,0.8573573231697083
1772607569850657000,2.471656982421875,0.19783379137516022,-9.766606330871582,0.8629177212715149
1772607569860657200,2.4816572265625,0.15657493472099304,-9.76705551147461,0.8663195371627808
1772607569870657000,2.491656982421875,0.11630379408597946,-9.767542839050293,0.8671638369560242
1772607569880657200,2.5016572265625,0.08925876766443253,-9.767355918884277,0.8724570274353027
1772607569890657000,2.511656982421875,0.07387480139732361,-9.767204284667969,0.875591516494751
1772607569900657200,2.5216572265625,0.06529899686574936,-9.767393112182617,0.8741545081138611
1772607569910657000,2.531656982421875,0.06135779619216919,-9.767885208129883,0.8689409494400024
1772607569920657200,2.5416572265625,0.055858924984931946,-9.768776893615723,0.8592240214347839
1772607569930657000,2.551656982421875,0.05107834190130234,-9.769518852233887,0.8510440587997437
1772607569940657200,2.5616572265625,0.04792437329888344,-9.770185470581055,0.8435430526733398
1772607569950657000,2.571656982421875,0.047096505761146545,-9.771013259887695,0.8339483737945557
1772607569960657200,2.5816572265625,0.047350138425827026,-9.771889686584473,0.823604166507721
1772607569970657000,2.591656982421875,0.048574961721897125,-9.772627830505371,0.814721941947937
1772607569980657200,2.6016572265625,0.05021516606211662,-9.77321720123291,0.8075333833694458
1772607569990657000,2.611656982421875,0.05150013789534569,-9.77380657196045,0.8002786636352539
1772607570000657200,2.6216572265625,0.053436681628227234,-9.774432182312012,0.7924662828445435
1772607570010657000,2.631656982421875,0.057604242116212845,-9.77513313293457,0.7834712266921997
1772607570020657200,2.6416572265625,0.06693428754806519,-9.775835990905762,0.7739145159721375
1772607570030657000,2.651656982421875,0.07424475997686386,-9.776206016540527,0.7685586214065552
1772607570040657200,2.6616572265625,0.06808648258447647,-9.776314735412598,0.7677415013313293
1772607570050657000,2.671656982421875,0.04964334890246391,-9.776294708251953,0.7693992257118225
1772607570060657200,2.6816572265625,0.02778775617480278,-9.775994300842285,0.7743155360221863
1772607570070657000,2.691656982421875,0.00825843308120966,-9.775147438049316,0.7853708863258362
1772607570080657200,2.7016572265625,-0.004390694200992584,-9.774476051330566,0.7937160730361938
1772607570090657000,2.711656982421875,-0.010510765947401524,-9.774133682250977,0.797859251499176
1772607570100657200,2.7216572265625,-0.014200534671545029,-9.77406120300293,0.7986870408058167
1772607570110657000,2.731656982421875,-0.018129738047719002,-9.774234771728516,0.7964862585067749
1772607570120657200,2.7416572265625,-0.0213987547904253,-9.774553298950195,0.7924911379814148
1772607570130657000,2.751656982421875,-0.022217927500605583,-9.774893760681152,0.7882571816444397
1772607570140657200,2.7616572265625,-0.019983533769845963,-9.775211334228516,0.7843653559684753
1772607570150657000,2.771656982421875,-0.015198584645986557,-9.775508880615234,0.780753493309021
1772607570160657200,2.7816572265625,-0.008278863504529,-9.775781631469727,0.7774485945701599
1772607570170657000,2.791656982421875,0.0003526581567712128,-9.776071548461914,0.773832380771637
1772607570180657200,2.8016572265625,0.01028706319630146,-9.776394844055176,0.7696699500083923
1772607570190657000,2.811656982421875,0.02101665548980236,-9.776748657226562,0.7649271488189697
1772607570200657200,2.8216572265625,0.031055880710482597,-9.777228355407715,0.7584250569343567
1772607570210657000,2.831656982421875,0.04182508960366249,-9.77772331237793,0.7514985799789429
1772607570220657200,2.8416572265625,0.05314836651086807,-9.778179168701172,0.7448280453681946
1772607570230657000,2.851656982421875,0.06508416682481766,-9.778546333312988,0.7390425801277161
1772607570240657200,2.8616572265625,0.07661697268486023,-9.778736114501953,0.7354194521903992
1772607570250657000,2.871656982421875,0.08717797696590424,-9.77859115600586,0.7361738681793213
1772607570260657200,2.8816572265625,0.09683118015527725,-9.778074264526367,0.7418049573898315
1772607570270657000,2.891656982421875,0.10511527955532074,-9.77719497680664,0.7521888017654419
1772607570280657200,2.9016572265625,0.11235541850328445,-9.776041030883789,0.7660152316093445
1772607570290657000,2.911656982421875,0.11791788041591644,-9.774711608886719,0.7819850444793701
1772607570300657200,2.9216572265625,0.12069415301084518,-9.773256301879883,0.7995665073394775
1772607570310657000,2.931656982421875,0.12156246602535248,-9.771812438964844,0.816872239112854
1772607570320657200,2.9416572265625,0.12171709537506104,-9.77042007446289,0.8333354592323303
1772607570330657000,2.951656982421875,0.12168962508440018,-9.769074440002441,0.8489711880683899
1772607570340657200,2.9616572265625,0.12137474864721298,-9.767842292785645,0.8630872964859009
1772607570350657000,2.971656982421875,0.12082918733358383,-9.766728401184082,0.8756763339042664
1772607570360657200,2.9816572265625,0.11973438411951065,-9.76578426361084,0.886289656162262
1772607570370657000,2.991656982421875,0.11758828163146973,-9.764986991882324,0.8953137993812561
1772607570380657200,3.0016572265625,0.11435124278068542,-9.76431941986084,0.9029911160469055
1772607570390657000,3.011656982421875,0.11164236068725586,-9.763744354248047,0.9095115661621094
1772607570400657200,3.0216572265625,0.11026538163423538,-9.763177871704102,0.9157471656799316
1772607570410657000,3.031656982421875,0.10918691009283066,-9.762566566467285,0.9223749041557312
1772607570420657200,3.0416572265625,0.10866283625364304,-9.762001991271973,0.9283840656280518
1772607570430657000,3.051656982421875,0.10877127945423126,-9.761556625366211,0.9330468773841858
1772607570440657200,3.0616572265625,0.10925383865833282,-9.761311531066895,0.9355412721633911
1772607570450657000,3.071656982421875,0.10960898548364639,-9.761219024658203,0.9364675879478455
1772607570460657200,3.0816572265625,0.10985445231199265,-9.761213302612305,0.9365009665489197
1772607570470657000,3.091656982421875,0.10968775302171707,-9.761320114135742,0.935406506061554
1772607570480657200,3.1016572265625,0.10857872664928436,-9.761490821838379,0.9337563514709473
1772607570490657000,3.111656982421875,0.10791588574647903,-9.76168441772461,0.9318005442619324
1772607570500657200,3.1216572265625,0.10748887807130814,-9.761869430541992,0.9299057126045227
1772607570510657000,3.131656982421875,0.10809439420700073,-9.761931419372559,0.9291961789131165
1772607570520657200,3.1416572265625,0.10948213934898376,-9.761836051940918,0.9300327301025391
1772607570530657000,3.151656982421875,0.11181963235139847,-9.761580467224121,0.9324199557304382
1772607570540657200,3.1616572265625,0.11499957740306854,-9.761162757873535,0.9364086389541626
1772607570550657000,3.171656982421875,0.11740946769714355,-9.760701179504395,0.9409189224243164
1772607570560657200,3.1816572265625,0.1185559630393982,-9.760381698608398,0.9440708756446838
1772607570570657000,3.191656982421875,0.11805540323257446,-9.760366439819336,0.9443019032478333
1772607570580657200,3.2016572265625,0.11484482884407043,-9.760597229003906,0.9423058032989502
1772607570590657000,3.211656982421875,0.10682363063097,-9.76103687286377,0.938683807849884
1772607570600657200,3.2216572265625,0.09407851099967957,-9.761598587036133,0.9341996908187866
1772607570610657000,3.231656982421875,0.07740034908056259,-9.76220703125,0.9293579459190369
1772607570620657200,3.2416572265625,0.05919754505157471,-9.762731552124023,0.9251723885536194
1772607570630657000,3.251656982421875,0.04347483068704605,-9.76317310333252,0.9213820695877075
1772607570640657200,3.2616572265625,0.027655504643917084,-9.763617515563965,0.9172772169113159
1772607570650657000,3.271656982421875,0.012841624207794666,-9.763871192932129,0.914893627166748
1772607570660657200,3.2816572265625,0.0016114197205752134,-9.763998031616211,0.913631021976471
1772607570670657000,3.291656982421875,-0.007721321191638708,-9.764110565185547,0.912394642829895
1772607570680657200,3.3016572265625,-0.016044147312641144,-9.764225959777832,0.9110634326934814
1772607570690657000,3.311656982421875,-0.02478737011551857,-9.764381408691406,0.9091890454292297
1772607570700657200,3.3216572265625,-0.03306324779987335,-9.764674186706543,0.9057824611663818
1772607570710657000,3.331656982421875,-0.040834203362464905,-9.765256881713867,0.8991480469703674
1772607570720657200,3.3416572265625,-0.048503998667001724,-9.765944480895996,0.8912674188613892
1772607570730657000,3.351656982421875,-0.05509534850716591,-9.76650333404541,0.884737491607666
1772607570740657200,3.3616572265625,-0.06075822189450264,-9.76694107055664,0.8795157670974731
1772607570750657000,3.371656982421875,-0.06574845314025879,-9.767258644104004,0.8756244778633118
1772607570760657200,3.3816572265625,-0.06983558088541031,-9.767525672912598,0.8723251223564148
1772607570770657000,3.391656982421875,-0.07186133414506912,-9.767760276794434,0.8695402145385742
1772607570780657200,3.4016572265625,-0.07304324954748154,-9.76798152923584,0.8669431209564209
1772607570790657000,3.411656982421875,-0.07346467673778534,-9.768192291259766,0.8645156621932983
1772607570800657200,3.4216572265625,-0.07417258620262146,-9.768468856811523,0.8613408207893372
1772607570810657000,3.431656982421875,-0.07512220740318298,-9.768750190734863,0.8580657243728638
1772607570820657200,3.4416572265625,-0.07642123848199844,-9.769063949584961,0.8543540239334106
1772607570830657000,3.451656982421875,-0.07770787924528122,-9.769430160522461,0.8500530123710632
1772607570840657200,3.4616572265625,-0.0785011425614357,-9.769792556762695,0.8458061814308167
1772607570850657000,3.471656982421875,-0.07862751930952072,-9.770125389099121,0.8419377207756042
1772607570860657200,3.4816572265625,-0.07708175480365753,-9.770347595214844,0.8394970893859863
1772607570870657000,3.491656982421875,-0.07482992112636566,-9.770442008972168,0.8386019468307495
1772607570880657200,3.5016572265625,-0.07220730930566788,-9.77037239074707,0.8396430015563965
1772607570890657000,3.511656982421875,-0.06974514573812485,-9.770190238952637,0.8419575691223145
1772607570900657200,3.5216572265625,-0.06790438294410706,-9.76990795135498,0.8453866243362427
1772607570910657000,3.531656982421875,-0.0662151575088501,-9.769583702087402,0.8492577075958252
1772607570920657200,3.5416572265625,-0.0653252899646759,-9.769364356994629,0.8518466353416443
1772607570930657000,3.551656982421875,-0.06474850326776505,-9.76923656463623,0.8533421158790588
1772607570940657200,3.5616572265625,-0.06457116454839706,-9.769182205200195,0.8539835214614868
1772607570950657000,3.571656982421875,-0.06482766568660736,-9.769227981567383,0.8534436821937561
1772607570960657200,3.5816572265625,-0.06527974456548691,-9.769315719604492,0.8524026274681091
1772607570970657000,3.591656982421875,-0.06669117510318756,-9.769476890563965,0.8504512310028076
1772607570980657200,3.6016572265625,-0.0685252770781517,-9.769684791564941,0.8479146361351013
1772607570990657000,3.611656982421875,-0.07099747657775879,-9.769909858703613,0.8451116681098938
1772607571000657200,3.6216572265625,-0.07339110970497131,-9.770100593566895,0.8426991105079651
1772607571010657000,3.631656982421875,-0.07490494847297668,-9.770302772521973,0.8402224183082581
1772607571020657200,3.6416572265625,-0.075295589864254,-9.770511627197266,0.8377442359924316
1772607571030657000,3.651656982421875,-0.074116550385952,-9.770776748657227,0.8347615003585815
1772607571040657200,3.6616572265625,-0.07274316996335983,-9.771123886108398,0.830803394317627
1772607571050657000,3.671656982421875,-0.07082071900367737,-9.771474838256836,0.8268371820449829
1772607571060657200,3.6816572265625,-0.06973455101251602,-9.771900177001953,0.8218746781349182
1772607571070657000,3.691656982421875,-0.06954877078533173,-9.772311210632324,0.8170017600059509
1772607571080657200,3.7016572265625,-0.06997159868478775,-9.772647857666016,0.8129178285598755
1772607571090657000,3.711656982421875,-0.07097123563289642,-9.772910118103027,0.8096721768379211
1772607571100657200,3.7216572265625,-0.07358812540769577,-9.773131370544434,0.8067602515220642
1772607571110657000,3.731656982421875,-0.07781092077493668,-9.773287773132324,0.8044719696044922
1772607571120657200,3.7416572265625,-0.08289894461631775,-9.773355484008789,0.8031501173973083
1772607571130657000,3.751656982421875,-0.08851999044418335,-9.773327827453613,0.8028691411018372
1772607571140657200,3.7616572265625,-0.09365545958280563,-9.773261070251465,0.8031038641929626
1772607571150657000,3.771656982421875,-0.09844230115413666,-9.773208618164062,0.8031803965568542
1772607571160657200,3.7816572265625,-0.10307024419307709,-9.773136138916016,0.8034802079200745
1772607571170657000,3.791656982421875,-0.10767675936222076,-9.773064613342285,0.8037517666816711
1772607571180657200,3.8016572265625,-0.11192318052053452,-9.772974014282227,0.8042660355567932
1772607571190657000,3.811656982421875,-0.11596579104661942,-9.772842407226562,0.805285632610321
1772607571200657200,3.8216572265625,-0.1201348528265953,-9.772625923156738,0.807299792766571
1772607571210657000,3.831656982421875,-0.12428466975688934,-9.772250175476074,0.811216413974762
1772607571220657200,3.8416572265625,-0.12849250435829163,-9.771702766418457,0.8171258568763733
1772607571230657000,3.851656982421875,-0.13288681209087372,-9.771106719970703,0.8235344886779785
1772607571240657200,3.8616572265625,-0.13631199300289154,-9.77058219909668,0.8291796445846558
1772607571250657000,3.871656982421875,-0.13878947496414185,-9.770166397094727,0.833642303943634
1772607571260657200,3.8816572265625,-0.14098556339740753,-9.769845962524414,0.8370298743247986
1772607571270657000,3.891656982421875,-0.1433107554912567,-9.769526481628418,0.840363621711731
1772607571280657200,3.9016572265625,-0.14532601833343506,-9.769232749938965,0.8434121608734131
1772607571290657000,3.911656982421875,-0.14680887758731842,-9.76895809173584,0.8463371992111206
1772607571300657200,3.9216572265625,-0.14767131209373474,-9.768760681152344,0.8484741449356079
1772607571310657000,3.931656982421875,-0.14768080413341522,-9.768659591674805,0.8496212363243103
1772607571320657200,3.9416572265625,-0.14691822230815887,-9.76862907409668,0.8501102924346924
1772607571330657000,3.951656982421875,-0.14557206630706787,-9.768616676330566,0.8504864573478699
1772607571340657200,3.9616572265625,-0.14343710243701935,-9.768568992614746,0.8514026999473572
1772607571350657000,3.971656982421875,-0.1403050720691681,-9.768527030944824,0.8523986339569092
1772607571360657200,3.9816572265625,-0.13633380830287933,-9.768507957458496,0.8532628417015076
1772607571370657000,3.991656982421875,-0.1324290633201599,-9.768576622009277,0.8530951142311096
1772607571380657200,4.0016572265625,-0.12877900898456573,-9.768767356872559,0.8514606356620789
1772607571390657000,4.011656982421875,-0.12523549795150757,-9.769009590148926,0.8492166996002197
1772607571400657200,4.0216572265625,-0.12189580500125885,-9.769298553466797,0.8463615775108337
1772607571410657000,4.031656982421875,-0.11816176027059555,-9.769614219665527,0.8432391285896301
1772607571420657200,4.0416572265625,-0.1141161397099495,-9.769922256469727,0.840236485004425
1772607571430657000,4.051656982421875,-0.1103205606341362,-9.770169258117676,0.8378506302833557
1772607571440657200,4.0616572265625,-0.10726179927587509,-9.770369529724121,0.8359256982803345
1772607571450657000,4.071656982421875,-0.1052841767668724,-9.770528793334961,0.8343146443367004
1772607571460657200,4.0816572265625,-0.1027463749051094,-9.770668029785156,0.8329851627349854
1772607571470657000,4.091656982421875,-0.09994866698980331,-9.770880699157715,0.8308222889900208
1772607571480657200,4.1016572265625,-0.09705855697393417,-9.771234512329102,0.8270077109336853
1772607571490657000,4.111656982421875,-0.09413409978151321,-9.771746635437012,0.8212739825248718
1772607571500657200,4.1216572265625,-0.09129936993122101,-9.77237319946289,0.8141127824783325
1772607571510657000,4.131656982421875,-0.08861430734395981,-9.773058891296387,0.806141197681427
1772607571520657200,4.1416572265625,-0.08614978939294815,-9.773624420166016,0.7995161414146423
1772607571530657000,4.151656982421875,-0.08463714271783829,-9.774038314819336,0.7946115136146545
1772607571540657200,4.1616572265625,-0.08319298923015594,-9.774365425109863,0.7907342910766602
1772607571550657000,4.171656982421875,-0.0815192237496376,-9.774609565734863,0.7878725528717041
1772607571560657200,4.1816572265625,-0.08012934029102325,-9.774809837341309,0.7855363488197327
1772607571570657000,4.191656982421875,-0.07989483326673508,-9.775007247924805,0.7831068634986877
1772607571580657200,4.2016572265625,-0.08054541796445847,-9.775211334228516,0.7804751396179199
1772607571590657000,4.211656982421875,-0.08159813284873962,-9.775410652160645,0.7778646349906921
1772607571600657200,4.2216572265625,-0.08260207623243332,-9.775567054748535,0.775797426700592
1772607571610657000,4.231656982421875,-0.0830555260181427,-9.775665283203125,0.7745118141174316
1772607571620657200,4.2416572265625,-0.08245597034692764,-9.77570915222168,0.7740134596824646
1772607571630657000,4.251656982421875,-0.08039776980876923,-9.775712013244629,0.7741963267326355
1772607571640657200,4.2616572265625,-0.07806111872196198,-9.775676727294922,0.7748703956604004
1772607571650657000,4.271656982421875,-0.0755237266421318,-9.77567195892334,0.7751985788345337
1772607571660657200,4.2816572265625,-0.07253120094537735,-9.775712966918945,0.7749529480934143
1772607571670657000,4.291656982421875,-0.06938278675079346,-9.77581787109375,0.7739185690879822
1772607571680657200,4.3016572265625,-0.0658731535077095,-9.77592658996582,0.7728477716445923
1772607571690657000,4.311656982421875,-0.06265097111463547,-9.776031494140625,0.7718074321746826
1772607571700657200,4.3216572265625,-0.05975372716784477,-9.776113510131836,0.7709828019142151
1772607571710657000,4.331656982421875,-0.05755292624235153,-9.776132583618164,0.770905077457428
1772607571720657200,4.3416572265625,-0.056116145104169846,-9.77609920501709,0.7714488506317139
1772607571730657000,4.351656982421875,-0.05510861426591873,-9.776058197021484,0.7720428705215454
1772607571740657200,4.3616572265625,-0.05389544367790222,-9.776023864746094,0.7725518345832825
1772607571750657000,4.371656982421875,-0.051464203745126724,-9.776040077209473,0.7725265622138977
1772607571760657200,4.3816572265625,-0.047917455434799194,-9.776098251342773,0.7720057964324951
1772607571770657000,4.391656982421875,-0.044950928539037704,-9.776225090026855,0.7705747485160828
1772607571780657200,4.4016572265625,-0.042677391320466995,-9.776440620422363,0.7679657340049744
1772607571790657000,4.411656982421875,-0.04080784320831299,-9.776774406433105,0.763802170753479
1772607571800657200,4.4216572265625,-0.039897266775369644,-9.777189254760742,0.7585288286209106
1772607571810657000,4.431656982421875,-0.04064562916755676,-9.777569770812988,0.7535647749900818
1772607571820657200,4.4416572265625,-0.0433715283870697,-9.777838706970215,0.7499315738677979
1772607571830657000,4.451656982421875,-0.04787242412567139,-9.777979850769043,0.7478048205375671
1772607571840657200,4.4616572265625,-0.052973080426454544,-9.778010368347168,0.7470496296882629
1772607571850657000,4.471656982421875,-0.059055157005786896,-9.777922630310059,0.7477506399154663
1772607571860657200,4.4816572265625,-0.06608457863330841,-9.777761459350586,0.7492645978927612
1772607571870657000,4.491656982421875,-0.07347770035266876,-9.777531623840332,0.7515735030174255
1772607571880657200,4.5016572265625,-0.0804145410656929,-9.777260780334473,0.754377007484436
1772607571890657000,4.511656982421875,-0.08651456981897354,-9.776941299438477,0.757834792137146
1772607571900657200,4.5216572265625,-0.09116815775632858,-9.776544570922852,0.7623893618583679
1772607571910657000,4.531656982421875,-0.09454295784235,-9.776094436645508,0.7677378058433533
1772607571920657200,4.5416572265625,-0.09755701571702957,-9.775643348693848,0.7730940580368042
1772607571930657000,4.551656982421875,-0.10038334131240845,-9.7752046585083,0.7782449722290039
1772607571940657200,4.5616572265625,-0.10388829559087753,-9.774834632873535,0.7824387550354004
1772607571950657000,4.571656982421875,-0.10818269103765488,-9.774557113647461,0.7853125333786011
1772607571960657200,4.5816572265625,-0.11326156556606293,-9.774368286132812,0.7869479060173035
1772607571970657000,4.591656982421875,-0.1190747544169426,-9.774249076843262,0.7875632643699646
1772607571980657200,4.6016572265625,-0.12538525462150574,-9.774173736572266,0.7875266075134277
1772607571990657000,4.611656982421875,-0.1313745230436325,-9.774147987365723,0.7868755459785461
1772607572000657200,4.6216572265625,-0.1369350552558899,-9.774150848388672,0.7858871221542358
1772607572010657000,4.631656982421875,-0.14244894683361053,-9.774114608764648,0.785354495048523
1772607572020657200,4.6416572265625,-0.1477261483669281,-9.774022102355957,0.7855351567268372
1772607572030657000,4.651656982421875,-0.1532372236251831,-9.773926734924316,0.7856718301773071
1772607572040657200,4.6616572265625,-0.1595333367586136,-9.773835182189941,0.7855417728424072
1772607572050657000,4.671656982421875,-0.1658853441476822,-9.773758888244629,0.7851807475090027
1772607572060657200,4.6816572265625,-0.17223870754241943,-9.773703575134277,0.784494161605835
1772607572070657000,4.691656982421875,-0.17792177200317383,-9.773714065551758,0.7830880284309387
1772607572080657200,4.7016572265625,-0.1827654391527176,-9.773724555969238,0.7818667888641357
1772607572090657000,4.711656982421875,-0.1869598627090454,-9.77370834350586,0.7810548543930054
1772607572100657200,4.7216572265625,-0.19075824320316315,-9.77363109588623,0.7811072468757629
1772607572110657000,4.731656982421875,-0.19393415749073029,-9.773490905761719,0.7820799946784973
1772607572120657200,4.7416572265625,-0.19567205011844635,-9.773346900939941,0.7834519147872925
1772607572130657000,4.751656982421875,-0.19623155891895294,-9.77322769165039,0.7848025560379028
1772607572140657200,4.7616572265625,-0.1956680864095688,-9.773183822631836,0.7854861617088318
1772607572150657000,4.771656982421875,-0.1934097707271576,-9.773210525512695,0.78570157289505
1772607572160657200,4.7816572265625,-0.19070188701152802,-9.773274421691895,0.7855859994888306
1772607572170657000,4.791656982421875,-0.18714174628257751,-9.773382186889648,0.7851071357727051
1772607572180657200,4.8016572265625,-0.1837701052427292,-9.7734956741333,0.7844603657722473
1772607572190657000,4.811656982421875,-0.18109190464019775,-9.773598670959473,0.7838170528411865
1772607572200657200,4.8216572265625,-0.17937161028385162,-9.773696899414062,0.782975971698761
1772607572210657000,4.831656982421875,-0.17877161502838135,-9.773818016052246,0.781609058380127
1772607572220657200,4.8416572265625,-0.17833054065704346,-9.774035453796387,0.7789836525917053
1772607572230657000,4.851656982421875,-0.17857959866523743,-9.774320602416992,0.7753392457962036
1772607572240657200,4.8616572265625,-0.17931315302848816,-9.774624824523926,0.7713120579719543
1772607572250657000,4.871656982421875,-0.1800413727760315,-9.774904251098633,0.7676088213920593
1772607572260657200,4.8816572265625,-0.1804545521736145,-9.775189399719238,0.7638559341430664
1772607572270657000,4.891656982421875,-0.1801181584596634,-9.775479316711426,0.760231614112854
1772607572280657200,4.9016572265625,-0.17926308512687683,-9.77575397491455,0.7568967938423157
1772607572290657000,4.911656982421875,-0.17899250984191895,-9.775996208190918,0.7538291215896606
1772607572300657200,4.9216572265625,-0.17873930931091309,-9.776202201843262,0.7512004971504211
1772607572310657000,4.931656982421875,-0.1793755143880844,-9.776376724243164,0.7487887144088745
1772607572320657200,4.9416572265625,-0.18043801188468933,-9.776549339294434,0.7462676763534546
1772607572330657000,4.951656982421875,-0.18132159113883972,-9.776775360107422,0.7430899143218994
1772607572340657200,4.9616572265625,-0.18138469755649567,-9.777064323425293,0.7392547726631165
1772607572350657000,4.971656982421875,-0.18022139370441437,-9.777422904968262,0.7347854375839233
1772607572360657200,4.9816572265625,-0.1788725107908249,-9.777820587158203,0.7298073768615723
1772607572370657000,4.991656982421875,-0.17722690105438232,-9.778209686279297,0.7249794602394104
1772607572380657200,5.0016572265625,-0.17555534839630127,-9.77857494354248,0.720443606376648
1772607572390657000,5.011656982421875,-0.1742849200963974,-9.778923988342285,0.7160048484802246
1772607572400657200,5.0216572265625,-0.17328736186027527,-9.779285430908203,0.7112904787063599
1772607572410657000,5.031656982421875,-0.17314065992832184,-9.779620170593262,0.7067047357559204
1772607572420657200,5.0416572265625,-0.17429308593273163,-9.779876708984375,0.7028626799583435
1772607572430657000,5.051656982421875,-0.17589886486530304,-9.780067443847656,0.6998118162155151
1772607572440657200,5.0616572265625,-0.17730435729026794,-9.780206680297852,0.6974875926971436
1772607572450657000,5.071656982421875,-0.1779644936323166,-9.780314445495605,0.6958314180374146
1772607572460657200,5.0816572265625,-0.17837873101234436,-9.780397415161133,0.6945420503616333
1772607572470657000,5.091656982421875,-0.17768459022045135,-9.780445098876953,0.694054126739502
1772607572480657200,5.1016572265625,-0.17716583609580994,-9.780413627624512,0.6946290135383606
1772607572490657000,5.111656982421875,-0.17757157981395721,-9.780292510986328,0.6962217688560486
1772607572500657200,5.1216572265625,-0.17929020524024963,-9.780105590820312,0.6984117031097412
1772607572510657000,5.131656982421875,-0.18175004422664642,-9.779881477355957,0.7009038329124451
1772607572520657200,5.1416572265625,-0.18420828878879547,-9.77967643737793,0.7031160593032837
1772607572530657000,5.151656982421875,-0.18640559911727905,-9.779531478881836,0.7045553922653198
1772607572540657200,5.1616572265625,-0.18792417645454407,-9.779440879821777,0.7054173946380615
1772607572550657000,5.171656982421875,-0.18905054032802582,-9.779375076293945,0.7060256004333496
1772607572560657200,5.1816572265625,-0.1897265464067459,-9.779341697692871,0.7063038945198059
1772607572570657000,5.191656982421875,-0.1901455670595169,-9.779312133789062,0.706600546836853
1772607572580657200,5.2016572265625,-0.1902064085006714,-9.77922534942627,0.7077754735946655
1772607572590657000,5.211656982421875,-0.1895865499973297,-9.779122352600098,0.7093772888183594
1772607572600657200,5.2216572265625,-0.18922939896583557,-9.778975486755371,0.7114865183830261
1772607572610657000,5.231656982421875,-0.18907301127910614,-9.77883529663086,0.7134526371955872
1772607572620657200,5.2416572265625,-0.18960414826869965,-9.778685569763184,0.7153527140617371
1772607572630657000,5.251656982421875,-0.19063971936702728,-9.778559684753418,0.7168107628822327
1772607572640657200,5.2616572265625,-0.19181373715400696,-9.778426170349121,0.7183154225349426
1772607572650657000,5.271656982421875,-0.19216559827327728,-9.778326988220215,0.7195765972137451
1772607572660657200,5.2816572265625,-0.19203917682170868,-9.778220176696777,0.7210679650306702
1772607572670657000,5.291656982421875,-0.19141490757465363,-9.778093338012695,0.7229422330856323
1772607572680657200,5.3016572265625,-0.1909736543893814,-9.77794075012207,0.7251068949699402
1772607572690657000,5.311656982421875,-0.19051261246204376,-9.777763366699219,0.7276275157928467
1772607572700657200,5.3216572265625,-0.19009646773338318,-9.77762222290039,0.7296168208122253
1772607572710657000,5.331656982421875,-0.1894199550151825,-9.77755355834961,0.7307289838790894
1772607572720657200,5.3416572265625,-0.18829171359539032,-9.777539253234863,0.7311975955963135
1772607572730657000,5.351656982421875,-0.18745777010917664,-9.777552604675293,0.7312320470809937
1772607572740657200,5.3616572265625,-0.18666328489780426,-9.777581214904785,0.7310603857040405
1772607572750657000,5.371656982421875,-0.18571989238262177,-9.777621269226074,0.7307543754577637
1772607572760657200,5.3816572265625,-0.18439260125160217,-9.777694702148438,0.7301162481307983
1772607572770657000,5.391656982421875,-0.1829266995191574,-9.777798652648926,0.7290886044502258
1772607572780657200,5.4016572265625,-0.18184390664100647,-9.777891159057617,0.7281301021575928
1772607572790657000,5.411656982421875,-0.18066498637199402,-9.777955055236816,0.7275636196136475
1772607572800657200,5.4216572265625,-0.1792261302471161,-9.777970314025879,0.7277108430862427
1772607572810657000,5.431656982421875,-0.17714586853981018,-9.77798080444336,0.7280774116516113
1772607572820657200,5.4416572265625,-0.17435786128044128,-9.778033256530762,0.7280532121658325
1772607572830657000,5.451656982421875,-0.17077459394931793,-9.77812671661377,0.7276397943496704
1772607572840657200,5.4616572265625,-0.16672256588935852,-9.7782564163208,0.7268412709236145
1772607572850657000,5.471656982421875,-0.16265782713890076,-9.778392791748047,0.7259172201156616
1772607572860657200,5.4816572265625,-0.15890634059906006,-9.77854061126709,0.7247602939605713
1772607572870657000,5.491656982421875,-0.15585798025131226,-9.778725624084473,0.7229228615760803
1772607572880657200,5.5016572265625,-0.15295663475990295,-9.778938293457031,0.7206659913063049
1772607572890657000,5.511656982421875,-0.15057696402072906,-9.77912425994873,0.7186437845230103
1772607572900657200,5.5216572265625,-0.14856979250907898,-9.779263496398926,0.7171621322631836
1772607572910657000,5.531656982421875,-0.146332249045372,-9.779375076293945,0.7161082029342651
1772607572920657200,5.5416572265625,-0.1437370926141739,-9.779473304748535,0.7152842283248901
1772607572930657000,5.551656982421875,-0.14091302454471588,-9.779547691345215,0.7148281335830688
1772607572940657200,5.5616572265625,-0.13791069388389587,-9.779597282409668,0.7147340178489685
1772607572950657000,5.571656982421875,-0.1348770260810852,-9.77963638305664,0.7147731781005859
1772607572960657200,5.5816572265625,-0.13104820251464844,-9.779683113098145,0.7148498296737671
1772607572970657000,5.591656982421875,-0.12743689119815826,-9.779742240905762,0.71469646692276
1772607572980657200,5.6016572265625,-0.12382015585899353,-9.779825210571289,0.7141832709312439
1772607572990657000,5.611656982421875,-0.12039493769407272,-9.779935836791992,0.7132598757743835
1772607573000657200,5.6216572265625,-0.11763987690210342,-9.780083656311035,0.7117056250572205
1772607573010657000,5.631656982421875,-0.11536874622106552,-9.780241012573242,0.709905207157135
1772607573020657200,5.6416572265625,-0.11340220272541046,-9.780381202697754,0.7082909941673279
1772607573030657000,5.651656982421875,-0.11172346025705338,-9.780492782592773,0.7070146799087524
1772607573040657200,5.6616572265625,-0.11012347042560577,-9.780567169189453,0.7062320709228516
1772607573050657000,5.671656982421875,-0.10834153741598129,-9.78060245513916,0.7060207724571228
1772607573060657200,5.6816572265625,-0.10683514922857285,-9.780604362487793,0.7062207460403442
1772607573070657000,5.691656982421875,-0.10554680228233337,-9.780571937561035,0.7068701982498169
1772607573080657200,5.7016572265625,-0.10426399856805801,-9.780502319335938,0.7080172300338745
1772607573090657000,5.711656982421875,-0.10246197879314423,-9.780438423156738,0.7091659307479858
1772607573100657200,5.7216572265625,-0.09980057179927826,-9.780403137207031,0.7100342512130737
1772607573110657000,5.731656982421875,-0.096598781645298,-9.780427932739258,0.710131049156189
1772607573120657200,5.7416572265625,-0.09330478310585022,-9.780489921569824,0.7097194194793701
1772607573130657000,5.751656982421875,-0.09064451605081558,-9.780550956726074,0.7092264890670776
1772607573140657200,5.7616572265625,-0.08904058486223221,-9.780596733093262,0.7087947130203247
1772607573150657000,5.771656982421875,-0.08792749792337418,-9.780645370483398,0.7082564234733582
1772607573160657200,5.7816572265625,-0.08715509623289108,-9.780669212341309,0.7080379724502563
1772607573170657000,5.791656982421875,-0.08609086275100708,-9.780644416809082,0.7085129618644714
1772607573180657200,5.8016572265625,-0.08428825438022614,-9.780576705932617,0.7096439003944397
1772607573190657000,5.811656982421875,-0.08187053352594376,-9.780489921569824,0.7111260294914246
1772607573200657200,5.8216572265625,-0.07874494791030884,-9.780427932739258,0.7123304605484009
1772607573210657000,5.831656982421875,-0.07553035765886307,-9.780405044555664,0.7129915952682495
1772607573220657200,5.8416572265625,-0.07302723079919815,-9.78039836883545,0.7133419513702393
1772607573230657000,5.851656982421875,-0.07140504568815231,-9.780386924743652,0.7136736512184143
1772607573240657200,5.8616572265625,-0.07048385590314865,-9.780344009399414,0.7143544554710388
1772607573250657000,5.871656982421875,-0.0698053240776062,-9.780290603637695,0.7151365876197815
1772607573260657200,5.8816572265625,-0.06855130940675735,-9.780282974243164,0.7153589129447937
1772607573270657000,5.891656982421875,-0.06703692674636841,-9.780325889587402,0.7149224877357483
1772607573280657200,5.9016572265625,-0.06545129418373108,-9.780390739440918,0.7141860723495483
1772607573290657000,5.911656982421875,-0.06414914131164551,-9.780435562133789,0.7136891484260559
1772607573300657200,5.9216572265625,-0.06314246356487274,-9.780474662780762,0.7132483124732971
1772607573310657000,5.931656982421875,-0.062256038188934326,-9.780488967895508,0.7131248712539673
1772607573320657200,5.9416572265625,-0.06120334565639496,-9.780499458312988,0.7130822539329529
1772607573330657000,5.951656982421875,-0.059732601046562195,-9.780517578125,0.7129479050636292
1772607573340657200,5.9616572265625,-0.058100923895835876,-9.780560493469238,0.712494432926178
1772607573350657000,5.971656982421875,-0.055933043360710144,-9.780632019042969,0.7116772532463074
1772607573360657200,5.9816572265625,-0.05331818759441376,-9.780694007873535,0.7110438346862793
1772607573370657000,5.991656982421875,-0.05072331428527832,-9.780729293823242,0.7107426524162292
1772607573380657200,6.0016572265625,-0.047979168593883514,-9.780707359313965,0.7112350463867188
1772607573390657000,6.011656982421875,-0.044726669788360596,-9.780655860900879,0.7121466994285583
1772607573400657200,6.0216572265625,-0.041050370782613754,-9.780616760253906,0.7129094004631042
1772607573410657000,6.031656982421875,-0.03748534619808197,-9.78054428100586,0.7141017913818359
1772607573420657200,6.0416572265625,-0.033717960119247437,-9.780444145202637,0.7156583666801453
1772607573430657000,6.051656982421875,-0.029957860708236694,-9.780312538146973,0.7176271677017212
1772607573440657200,6.0616572265625,-0.02644147165119648,-9.780135154724121,0.7201718688011169
1772607573450657000,6.071656982421875,-0.02284366451203823,-9.779947280883789,0.7228417992591858
1772607573460657200,6.0816572265625,-0.01938377507030964,-9.779790878295898,0.7250491380691528
1772607573470657000,6.091656982421875,-0.01674448512494564,-9.77968692779541,0.7265076041221619
1772607573480657200,6.1016572265625,-0.015556272119283676,-9.779600143432617,0.727703869342804
1772607573490657000,6.111656982421875,-0.015283106826245785,-9.779474258422852,0.729404628276825
1772607573500657200,6.1216572265625,-0.015378527343273163,-9.779308319091797,0.7316292524337769
1772607573510657000,6.131656982421875,-0.014638803899288177,-9.779134750366211,0.7339489459991455
1772607573520657200,6.1416572265625,-0.013060249388217926,-9.779008865356445,0.735658586025238
1772607573530657000,6.151656982421875,-0.010798351839184761,-9.77895736694336,0.7363965511322021
1772607573540657200,6.1616572265625,-0.008607222698628902,-9.778952598571777,0.7364669442176819
1772607573550657000,6.171656982421875,-0.006881086155772209,-9.778925895690918,0.736855149269104
1772607573560657200,6.1816572265625,-0.0052711088210344315,-9.77885913848877,0.7377414703369141
1772607573570657000,6.191656982421875,-0.003387184115126729,-9.7787504196167,0.7391995787620544
1772607573580657200,6.2016572265625,-0.0014103826833888888,-9.778657913208008,0.7404358386993408
1772607573590657000,6.211656982421875,0.0002991068467963487,-9.778596878051758,0.7412354350090027
1772607573600657200,6.2216572265625,0.0010929121635854244,-9.778559684753418,0.7417309880256653
1772607573610657000,6.231656982421875,0.0016713509103283286,-9.778512001037598,0.7423580288887024
1772607573620657200,6.2416572265625,0.0022673874627798796,-9.778474807739258,0.742834210395813
1772607573630657000,6.251656982421875,0.003455614671111107,-9.77843189239502,0.7434028387069702
1772607573640657200,6.2616572265625,0.005485102534294128,-9.778419494628906,0.7435513734817505
1772607573650657000,6.271656982421875,0.0073768263682723045,-9.778446197509766,0.7431790828704834
1772607573660657200,6.2816572265625,0.008479418233036995,-9.778465270996094,0.742916464805603
1772607573670657000,6.291656982421875,0.009096547961235046,-9.778471946716309,0.7428184151649475
1772607573680657200,6.3016572265625,0.009377814829349518,-9.778392791748047,0.7438626289367676
1772607573690657000,6.311656982421875,0.009143081493675709,-9.778286933898926,0.7452573180198669
1772607573700657200,6.3216572265625,0.009348872117698193,-9.778193473815918,0.7464778423309326
1772607573710657000,6.331656982421875,0.01024287473410368,-9.77813720703125,0.7472037672996521
1772607573720657200,6.3416572265625,0.011252840049564838,-9.778129577636719,0.7472906708717346
1772607573730657000,6.351656982421875,0.012050594203174114,-9.778142929077148,0.7470971345901489
1772607573740657200,6.3616572265625,0.012295345775783062,-9.77812385559082,0.7473457455635071
1772607573750657000,6.371656982421875,0.012396079488098621,-9.778076171875,0.747965931892395
1772607573760657200,6.3816572265625,0.012742259539663792,-9.777999877929688,0.7489778995513916
1772607573770657000,6.391656982421875,0.013433577492833138,-9.777975082397461,0.7492639422416687
1772607573780657200,6.4016572265625,0.014489871449768543,-9.77802848815918,0.7485597133636475
1772607573790657000,6.411656982421875,0.01498896162956953,-9.778109550476074,0.7474875450134277
1772607573800657200,6.4216572265625,0.013916253112256527,-9.778185844421387,0.7465097308158875
1772607573810657000,6.431656982421875,0.01170613244175911,-9.778210639953613,0.746228039264679
1772607573820657200,6.4416572265625,0.009327082894742489,-9.77817440032959,0.7467328906059265
1772607573830657000,6.451656982421875,0.008011090569198132,-9.778100967407227,0.7477043271064758
1772607573840657200,6.4616572265625,0.008509919978678226,-9.777996063232422,0.7490679025650024
1772607573850657000,6.471656982421875,0.009937353432178497,-9.777875900268555,0.7506184577941895
1772607573860657200,6.4816572265625,0.011266395449638367,-9.777799606323242,0.751595139503479
1772607573870657000,6.491656982421875,0.01217569224536419,-9.777745246887207,0.7522859573364258
1772607573880657200,6.5016572265625,0.012333979830145836,-9.777716636657715,0.7526491284370422
1772607573890657000,6.511656982421875,0.011822323314845562,-9.777738571166992,0.7523831129074097
1772607573900657200,6.5216572265625,0.010995054617524147,-9.777785301208496,0.7517784833908081
1772607573910657000,6.531656982421875,0.009472723118960857,-9.777802467346191,0.7515817880630493
1772607573920657200,6.5416572265625,0.007580984383821487,-9.777763366699219,0.7521155476570129
1772607573930657000,6.551656982421875,0.0060243443585932255,-9.777663230895996,0.7534262537956238
1772607573940657200,6.5616572265625,0.004832938779145479,-9.777524948120117,0.7552294135093689
1772607573950657000,6.571656982421875,0.004334287717938423,-9.77739143371582,0.7569503784179688
1772607573960657200,6.5816572265625,0.004417989868670702,-9.777300834655762,0.7581325769424438
1772607573970657000,6.591656982421875,0.004663172177970409,-9.777259826660156,0.7586418986320496
1772607573980657200,6.6016572265625,0.004655187483876944,-9.777263641357422,0.7586081624031067
1772607573990657000,6.611656982421875,0.004140143282711506,-9.777281761169434,0.7583692073822021
1772607574000657200,6.6216572265625,0.003143956186249852,-9.7772798538208,0.7583988308906555
1772607574010657000,6.631656982421875,0.0015782351838424802,-9.777226448059082,0.7591037750244141
1772607574020657200,6.6416572265625,-0.000004339086899562972,-9.77717113494873,0.7598024606704712
1772607574030657000,6.651656982421875,-0.0008309450931847095,-9.777101516723633,0.7607053518295288
1772607574040657200,6.6616572265625,-0.0008549735648557544,-9.77701473236084,0.7618177533149719
1772607574050657000,6.671656982421875,-0.00029478970100171864,-9.776938438415527,0.762794554233551
1772607574060657200,6.6816572265625,0.00032273208489641547,-9.776891708374023,0.7633988261222839
1772607574070657000,6.691656982421875,0.0003876445989590138,-9.776848793029785,0.7639487981796265
1772607574080657200,6.7016572265625,0.00032012208248488605,-9.776787757873535,0.7647228837013245
1772607574090657000,6.711656982421875,0.00023097271332517266,-9.776734352111816,0.7654090523719788
1772607574100657200,6.7216572265625,-0.0001547576393932104,-9.776691436767578,0.7659574151039124
1772607574110657000,6.731656982421875,-0.0003040021692868322,-9.776660919189453,0.7663548588752747
1772607574120657200,6.7416572265625,-0.000447198748588562,-9.776606559753418,0.7670342922210693
1772607574130657000,6.751656982421875,-0.0005065259174443781,-9.776568412780762,0.7675307393074036
1772607574140657200,6.7616572265625,-0.0005472289631143212,-9.776531219482422,0.7679994106292725
1772607574150657000,6.771656982421875,-0.0005564092425629497,-9.7764892578125,0.7685472369194031
1772607574160657200,6.7816572265625,-0.0007284978055395186,-9.77647876739502,0.7686656713485718
1772607574170657000,6.791656982421875,-0.0007630575564689934,-9.776514053344727,0.768226146697998
1772607574180657200,6.8016572265625,-0.0009165969677269459,-9.776495933532715,0.7684547305107117
1772607574190657000,6.811656982421875,-0.0017020422965288162,-9.776408195495605,0.7695539593696594
1772607574200657200,6.8216572265625,-0.002388586523011327,-9.77624225616455,0.7716668844223022
1772607574210657000,6.831656982421875,-0.0022488515824079514,-9.77604866027832,0.7741063833236694
1772607574220657200,6.8416572265625,-0.0013931087451055646,-9.77587890625,0.7762671113014221
1772607574230657000,6.851656982421875,0.00005934548607910983,-9.775712966918945,0.7783454060554504
1772607574240657200,6.8616572265625,0.0009208976989611983,-9.775551795959473,0.7803598642349243
1772607574250657000,6.871656982421875,0.0011789847631007433,-9.775418281555176,0.7820422649383545
1772607574260657200,6.8816572265625,0.0013940839562565088,-9.775300025939941,0.7835047841072083
1772607574270657000,6.891656982421875,0.001149487216025591,-9.775212287902832,0.78461092710495
1772607574280657200,6.9016572265625,0.0005667098448611796,-9.77519416809082,0.784843385219574
1772607574290657000,6.911656982421875,0.00004408561289892532,-9.775263786315918,0.7839633822441101
1772607574300657200,6.9216572265625,-0.0004153834597673267,-9.775350570678711,0.7828724384307861
1772607574310657000,6.931656982421875,-0.0006145092775113881,-9.775359153747559,0.7827653884887695
1772607574320657200,6.9416572265625,-0.0004629263421520591,-9.775283813476562,0.7837132811546326
1772607574330657000,6.951656982421875,0.0003806147142313421,-9.775169372558594,0.7851446866989136
1772607574340657200,6.9616572265625,0.001318667782470584,-9.775053024291992,0.7865886688232422
1772607574350657000,6.971656982421875,0.0021409757900983095,-9.774965286254883,0.7876735925674438
1772607574360657200,6.9816572265625,0.0028999054338783026,-9.774909019470215,0.7883684635162354
1772607574370657000,6.991656982421875,0.0035314320120960474,-9.774924278259277,0.788180947303772
1772607574380657200,7.0016572265625,0.003984810784459114,-9.774981498718262,0.787473201751709
1772607574390657000,7.011656982421875,0.004228128585964441,-9.775054931640625,0.7865498661994934
1772607574400657200,7.0216572265625,0.004740284290164709,-9.775074005126953,0.7863104939460754
1772607574410657000,7.031656982421875,0.005121320020407438,-9.775039672851562,0.7867514491081238
1772607574420657200,7.0416572265625,0.005596490576863289,-9.77497386932373,0.7875522971153259
1772607574430657000,7.051656982421875,0.006226838566362858,-9.77490234375,0.7884410619735718
1772607574440657200,7.0616572265625,0.0067511978559195995,-9.774825096130371,0.789392352104187
1772607574450657000,7.071656982421875,0.006751249078661203,-9.774758338928223,0.7902219295501709
1772607574460657200,7.0816572265625,0.006059529725462198,-9.774734497070312,0.7905158996582031
1772607574470657000,7.091656982421875,0.005193263292312622,-9.774734497070312,0.7905194163322449
1772607574480657200,7.1016572265625,0.0047595929354429245,-9.774731636047363,0.7905634045600891
1772607574490657000,7.111656982421875,0.0041533042676746845,-9.774701118469238,0.7909371852874756
1772607574500657200,7.1216572265625,0.0036704307422041893,-9.774652481079102,0.7915385365486145
1772607574510657000,7.131656982421875,0.0035507110878825188,-9.774580001831055,0.7924363613128662
1772607574520657200,7.1416572265625,0.003926688339561224,-9.774534225463867,0.7929973602294922
1772607574530657000,7.151656982421875,0.005020826123654842,-9.77449893951416,0.7934170365333557
1772607574540657200,7.1616572265625,0.005979971494525671,-9.774507522583008,0.7933144569396973
1772607574550657000,7.171656982421875,0.0071134683676064014,-9.774537086486816,0.7929375171661377
1772607574560657200,7.1816572265625,0.008225218392908573,-9.77460765838623,0.7920681238174438
1772607574570657000,7.191656982421875,0.009392340667545795,-9.774711608886719,0.7907692790031433
1772607574580657200,7.2016572265625,0.010651085525751114,-9.774797439575195,0.7896766066551208
1772607574590657000,7.211656982421875,0.01148072350770235,-9.774852752685547,0.7889857888221741
1772607574600657200,7.2216572265625,0.012422957457602024,-9.774862289428711,0.7888484597206116
1772607574610657000,7.231656982421875,0.01305640023201704,-9.774845123291016,0.7890677452087402
1772607574620657200,7.2416572265625,0.013156787492334843,-9.774798393249512,0.7896363735198975
1772607574630657000,7.251656982421875,0.01296630036085844,-9.774772644042969,0.7899537086486816
1772607574640657200,7.2616572265625,0.012478192336857319,-9.774738311767578,0.7903955578804016
1772607574650657000,7.271656982421875,0.011650750413537025,-9.7747220993042,0.7906057834625244
1772607574660657200,7.2816572265625,0.010985689237713814,-9.77470874786377,0.790783166885376
1772607574670657000,7.291656982421875,0.010854765772819519,-9.774677276611328,0.7911789417266846
1772607574680657200,7.3016572265625,0.01209142804145813,-9.774654388427734,0.7914398908615112
1772607574690657000,7.311656982421875,0.014296762645244598,-9.774659156799316,0.7913398146629333
1772607574700657200,7.3216572265625,0.017014432698488235,-9.77466869354248,0.7911613583564758
1772607574710657000,7.331656982421875,0.01948210783302784,-9.774730682373047,0.7903568148612976
1772607574720657200,7.3416572265625,0.02123650163412094,-9.774815559387207,0.7892462611198425
1772607574730657000,7.351656982421875,0.02201884612441063,-9.77490520477295,0.7881108522415161
1772607574740657200,7.3616572265625,0.021769849583506584,-9.774970054626465,0.7873237133026123
1772607574750657000,7.371656982421875,0.020827431231737137,-9.774989128112793,0.7871086597442627
1772607574760657200,7.3816572265625,0.019994916394352913,-9.774959564208984,0.7874945402145386
1772607574770657000,7.391656982421875,0.019168507307767868,-9.774900436401367,0.7882595062255859
1772607574780657200,7.4016572265625,0.018825078383088112,-9.774863243103027,0.7887163162231445
1772607574790657000,7.411656982421875,0.019397031515836716,-9.774847984313965,0.788897693157196
1772607574800657200,7.4216572265625,0.020108280703425407,-9.774847030639648,0.7888907790184021
1772607574810657000,7.431656982421875,0.02089552953839302,-9.774826049804688,0.7891388535499573
1772607574820657200,7.4416572265625,0.021602286025881767,-9.774807929992676,0.789340615272522
1772607574830657000,7.451656982421875,0.022390924394130707,-9.774843215942383,0.788877546787262
1772607574840657200,7.4616572265625,0.023829087615013123,-9.774955749511719,0.7874388694763184
1772607574850657000,7.471656982421875,0.02499241940677166,-9.775141716003418,0.7850845456123352
1772607574860657200,7.4816572265625,0.026282578706741333,-9.775344848632812,0.7825270295143127
1772607574870657000,7.491656982421875,0.027246322482824326,-9.775537490844727,0.7800657153129578
1772607574880657200,7.5016572265625,0.027900997549295425,-9.775670051574707,0.7783913612365723
1772607574890657000,7.511656982421875,0.02848540060222149,-9.775707244873047,0.7778988480567932
1772607574900657200,7.5216572265625,0.02910579741001129,-9.775681495666504,0.7781829237937927
1772607574910657000,7.531656982421875,0.029928822070360184,-9.775623321533203,0.778892457485199
1772607574920657200,7.5416572265625,0.030523238703608513,-9.77557373046875,0.7794895172119141
1772607574930657000,7.551656982421875,0.030684318393468857,-9.775537490844727,0.7799487113952637
1772607574940657200,7.5616572265625,0.030317867174744606,-9.775505065917969,0.7803582549095154
1772607574950657000,7.571656982421875,0.030139124020934105,-9.775496482849121,0.7804792523384094
1772607574960657200,7.5816572265625,0.030869005247950554,-9.775486946105957,0.7805729508399963
1772607574970657000,7.591656982421875,0.03223281353712082,-9.775551795959473,0.7796961665153503
1772607574980657200,7.6016572265625,0.03436973690986633,-9.775693893432617,0.7778267860412598
1772607574990657000,7.611656982421875,0.03592141345143318,-9.775866508483887,0.7755738496780396
1772607575000657200,7.6216572265625,0.03663083538413048,-9.776047706604004,0.7732676863670349
1772607575010657000,7.631656982421875,0.03707943111658096,-9.77619743347168,0.7713491320610046
1772607575020657200,7.6416572265625,0.037369534373283386,-9.776266098022461,0.77046799659729
1772607575030657000,7.651656982421875,0.03782230615615845,-9.776301383972168,0.7699952125549316
1772607575040657200,7.6616572265625,0.038194552063941956,-9.776327133178711,0.7696501016616821
1772607575050657000,7.671656982421875,0.038777485489845276,-9.776318550109863,0.7697317004203796
1772607575060657200,7.6816572265625,0.039377257227897644,-9.776281356811523,0.7701704502105713
1772607575070657000,7.691656982421875,0.03986790403723717,-9.776247024536133,0.7705826163291931
1772607575080657200,7.7016572265625,0.040233153849840164,-9.776206970214844,0.771056056022644
1772607575090657000,7.711656982421875,0.04084627330303192,-9.776211738586426,0.7709746360778809
1772607575100657200,7.7216572265625,0.04139496386051178,-9.776259422302246,0.7703342437744141
1772607575110657000,7.731656982421875,0.042040932923555374,-9.776329040527344,0.7694259881973267
1772607575120657200,7.7416572265625,0.04290376603603363,-9.776419639587402,0.7682207226753235
1772607575130657000,7.751656982421875,0.04409287869930267,-9.776511192321777,0.766988217830658
1772607575140657200,7.7616572265625,0.045413676649332047,-9.776595115661621,0.7658356428146362
1772607575150657000,7.771656982421875,0.045835111290216446,-9.77669906616211,0.7644801735877991
1772607575160657200,7.7816572265625,0.046077534556388855,-9.776798248291016,0.7632010579109192
1772607575170657000,7.791656982421875,0.04568326845765114,-9.776898384094238,0.761935293674469
1772607575180657200,7.8016572265625,0.04487736523151398,-9.776952743530273,0.761286199092865
1772607575190657000,7.811656982421875,0.04475776478648186,-9.776972770690918,0.761050283908844
1772607575200657200,7.8216572265625,0.045200005173683167,-9.776981353759766,0.7609077095985413
1772607575210657000,7.831656982421875,0.04601593688130379,-9.777022361755371,0.7603290677070618
1772607575220657200,7.8416572265625,0.047391198575496674,-9.77712631225586,0.7589117288589478
1772607575230657000,7.851656982421875,0.048769112676382065,-9.777277946472168,0.756857693195343
1772607575240657200,7.8616572265625,0.04920605942606926,-9.777466773986816,0.7543867230415344
1772607575250657000,7.871656982421875,0.04882683977484703,-9.777660369873047,0.7519105076789856
1772607575260657200,7.8816572265625,0.04806080460548401,-9.777771949768066,0.7504878044128418
1772607575270657000,7.891656982421875,0.04721524566411972,-9.777852058410645,0.7495094537734985
1772607575280657200,7.9016572265625,0.04680836945772171,-9.777935981750488,0.7484350204467773
1772607575290657000,7.911656982421875,0.046881020069122314,-9.778045654296875,0.746999204158783
1772607575300657200,7.9216572265625,0.04746357351541519,-9.778164863586426,0.7454022765159607
1772607575310657000,7.931656982421875,0.04793740436434746,-9.778240203857422,0.7443874478340149
1772607575320657200,7.9416572265625,0.04843522608280182,-9.778276443481445,0.7438867688179016
1772607575330657000,7.951656982421875,0.04874814674258232,-9.778328895568848,0.7431710362434387
1772607575340657200,7.9616572265625,0.04895118623971939,-9.778395652770996,0.7422711849212646
1772607575350657000,7.971656982421875,0.049134641885757446,-9.77847671508789,0.7411925196647644
1772607575360657200,7.9816572265625,0.04921373352408409,-9.778556823730469,0.7401356101036072
1772607575370657000,7.991656982421875,0.04931752383708954,-9.778630256652832,0.7391588687896729
1772607575380657200,8.0016572265625,0.049771375954151154,-9.778701782226562,0.7381669878959656
1772607575390657000,8.011656982421876,0.050509240478277206,-9.778794288635254,0.7369033694267273
1772607575400657200,8.0216572265625,0.05124465003609657,-9.7788667678833,0.7358836531639099
1772607575410657000,8.031656982421875,0.0520055927336216,-9.778932571411133,0.7349461317062378
1772607575420657200,8.0416572265625,0.05237952992320061,-9.778993606567383,0.7341163158416748
1772607575430657000,8.051656982421875,0.052854664623737335,-9.779003143310547,0.7339439988136292
1772607575440657200,8.0616572265625,0.05326976999640465,-9.77898120880127,0.734215259552002
1772607575450657000,8.071656982421874,0.05364271625876427,-9.778904914855957,0.7352001667022705
1772607575460657200,8.0816572265625,0.05396327003836632,-9.778797149658203,0.7366070747375488
1772607575470657000,8.091656982421876,0.054418984800577164,-9.778697967529297,0.7378947734832764
1772607575480657200,8.1016572265625,0.05449839308857918,-9.77861499786377,0.7389903664588928
1772607575490657000,8.111656982421875,0.054023828357458115,-9.778568267822266,0.7396389245986938
1772607575500657200,8.1216572265625,0.05430750921368599,-9.778562545776367,0.7396941184997559
1772607575510657000,8.131656982421875,0.05481601879000664,-9.778620719909668,0.7389045357704163
1772607575520657200,8.1416572265625,0.05521068722009659,-9.778741836547852,0.7372491955757141
1772607575530657000,8.151656982421875,0.05516187474131584,-9.778904914855957,0.7351031303405762
1772607575540657200,8.1616572265625,0.055223654955625534,-9.77908992767334,0.732610821723938
1772607575550657000,8.171656982421876,0.05491512641310692,-9.77924919128418,0.7305085062980652
1772607575560657200,8.1816572265625,0.053994178771972656,-9.779366493225098,0.7290262579917908
1772607575570657000,8.191656982421875,0.05344739928841591,-9.779430389404297,0.7282001972198486
1772607575580657200,8.2016572265625,0.0531206913292408,-9.779454231262207,0.7278982400894165
1772607575590657000,8.211656982421875,0.053126100450754166,-9.77945613861084,0.7278870344161987
1772607575600657200,8.2216572265625,0.053539879620075226,-9.77944278717041,0.7280270457267761
1772607575610657000,8.231656982421875,0.0541669987142086,-9.779438972473145,0.7280272841453552
1772607575620657200,8.2416572265625,0.054954126477241516,-9.779446601867676,0.7278757691383362
1772607575630657000,8.251656982421874,0.05497995391488075,-9.779494285583496,0.727215051651001
1772607575640657200,8.2616572265625,0.054684679955244064,-9.779581069946289,0.7260904908180237
1772607575650657000,8.271656982421876,0.054240550845861435,-9.779732704162598,0.7240642309188843
1772607575660657200,8.2816572265625,0.0532851479947567,-9.779932975769043,0.7214163541793823
1772607575670657000,8.291656982421875,0.052547384053468704,-9.780121803283691,0.7189140915870667
1772607575680657200,8.3016572265625,0.05187447369098663,-9.780268669128418,0.7169687747955322
1772607575690657000,8.311656982421875,0.050870735198259354,-9.780365943908691,0.715722382068634
1772607575700657200,8.3216572265625,0.05019930750131607,-9.780412673950195,0.7151187062263489
1772607575710657000,8.331656982421874,0.050638698041439056,-9.780379295349121,0.7155473828315735
1772607575720657200,8.3416572265625,0.051581334322690964,-9.78028678894043,0.7167399525642395
1772607575730657000,8.351656982421876,0.052455272525548935,-9.78017520904541,0.718205451965332
1772607575740657200,8.3616572265625,0.05377984046936035,-9.780107498168945,0.7190362215042114
1772607575750657000,8.371656982421875,0.0554448701441288,-9.78010368347168,0.718949019908905
1772607575760657200,8.3816572265625,0.05656464397907257,-9.780156135559082,0.7181521058082581
1772607575770657000,8.391656982421875,0.057147782295942307,-9.78024959564209,0.7168189287185669
1772607575780657200,8.4016572265625,0.05752589926123619,-9.780367851257324,0.7151687741279602
1772607575790657000,8.411656982421874,0.0584685355424881,-9.780512809753418,0.7131187915802002
1772607575800657200,8.4216572265625,0.05923079699277878,-9.780680656433105,0.7107506990432739
1772607575810657000,8.431656982421876,0.06029282137751579,-9.780855178833008,0.7082534432411194
1772607575820657200,8.4416572265625,0.06083734706044197,-9.781015396118164,0.7059928178787231
1772607575830657000,8.451656982421875,0.060543011873960495,-9.781109809875488,0.7047157287597656
1772607575840657200,8.4616572265625,0.06036278232932091,-9.781106948852539,0.7047604322433472
1772607575850657000,8.471656982421875,0.060973912477493286,-9.781018257141113,0.70594322681427
1772607575860657200,8.4816572265625,0.0617617703974247,-9.780877113342285,0.7078297138214111
1772607575870657000,8.491656982421874,0.06275840848684311,-9.78071403503418,0.7099854350090027
1772607575880657200,8.5016572265625,0.06423881649971008,-9.780591011047363,0.7115494608879089
1772607575890657000,8.511656982421876,0.06623966991901398,-9.780509948730469,0.7124866247177124
1772607575900657200,8.5216572265625,0.06806375086307526,-9.780488014221191,0.7126033306121826
1772607575910657000,8.531656982421875,0.06945250928401947,-9.780531883239746,0.7118598818778992
1772607575920657200,8.5416572265625,0.0703340470790863,-9.780583381652832,0.7110855579376221
1772607575930657000,8.551656982421875,0.07106910645961761,-9.78063678741455,0.7102758884429932
1772607575940657200,8.5616572265625,0.07208526879549026,-9.780693054199219,0.709372878074646
1772607575950657000,8.571656982421874,0.07337741553783417,-9.780739784240723,0.7086071372032166
1772607575960657200,8.5816572265625,0.07431256026029587,-9.780743598937988,0.708459734916687
1772607575970657000,8.591656982421876,0.07468321919441223,-9.780661582946777,0.7095416188240051
1772607575980657200,8.6016572265625,0.07544917613267899,-9.780518531799316,0.7114373445510864
1772607575990657000,8.611656982421875,0.07647977769374847,-9.780359268188477,0.7135215997695923
1772607576000657200,8.6216572265625,0.0777164101600647,-9.780220031738281,0.7152926921844482
1772607576010657000,8.631656982421875,0.07907626032829285,-9.780123710632324,0.7164697647094727
1772607576020657200,8.6416572265625,0.08041564375162125,-9.780086517333984,0.7168104648590088
1772607576030657000,8.651656982421875,0.08181382715702057,-9.780094146728516,0.7165523767471313
1772607576040657200,8.6616572265625,0.0832822322845459,-9.780123710632324,0.7159873247146606
1772607576050657000,8.671656982421876,0.08537699282169342,-9.780200004577637,0.7147035598754883
1772607576060657200,8.6816572265625,0.08798433095216751,-9.780312538146973,0.7128347754478455
1772607576070657000,8.691656982421875,0.09056685864925385,-9.780439376831055,0.7107735872268677
1772607576080657200,8.7016572265625,0.09253186732530594,-9.780572891235352,0.7086793780326843
1772607576090657000,8.711656982421875,0.09352489560842514,-9.780695915222168,0.7068434953689575
1772607576100657200,8.7216572265625,0.09364446997642517,-9.780813217163086,0.7052085995674133
1772607576110657000,8.731656982421875,0.092899389564991,-9.780875205993652,0.7044292688369751
1772607576120657200,8.7416572265625,0.09201199561357498,-9.780868530273438,0.7046523094177246
1772607576130657000,8.751656982421874,0.09177993983030319,-9.780793190002441,0.7057157754898071
1772607576140657200,8.7616572265625,0.09242985397577286,-9.780688285827637,0.7070985436439514
1772607576150657000,8.771656982421876,0.09331700950860977,-9.78061294555664,0.7080128788948059
1772607576160657200,8.7816572265625,0.09399839490652084,-9.780587196350098,0.7082964777946472
1772607576170657000,8.791656982421875,0.09408032149076462,-9.780590057373047,0.7082339525222778
1772607576180657200,8.8016572265625,0.09389577805995941,-9.780634880065918,0.7076267600059509
1772607576190657000,8.811656982421875,0.09347183257341385,-9.780733108520508,0.7063312530517578
1772607576200657200,8.8216572265625,0.09333424270153046,-9.780876159667969,0.7043718695640564
1772607576210657000,8.831656982421874,0.093316949903965,-9.7810640335083,0.7017641067504883
1772607576220657200,8.8416572265625,0.09289685636758804,-9.781254768371582,0.699163556098938
1772607576230657000,8.851656982421876,0.0913194790482521,-9.781425476074219,0.6969683766365051
1772607576240657200,8.8616572265625,0.08934170752763748,-9.781539916992188,0.695632815361023
1772607576250657000,8.871656982421875,0.08748911321163177,-9.781538963317871,0.6958543062210083
1772607576260657200,8.8816572265625,0.08612605184316635,-9.781461715698242,0.6971045136451721
1772607576270657000,8.891656982421875,0.08551197499036789,-9.781365394592285,0.6985419392585754
1772607576280657200,8.9016572265625,0.08500556647777557,-9.781323432922363,0.699192464351654
1772607576290657000,8.911656982421874,0.0843234583735466,-9.781400680541992,0.6982017755508423
1772607576300657200,8.9216572265625,0.08338405191898346,-9.781572341918945,0.6959004402160645
1772607576310657000,8.931656982421876,0.08156351745128632,-9.781781196594238,0.6931864619255066
1772607576320657200,8.9416572265625,0.07940936833620071,-9.78197956085205,0.6906276941299438
1772607576330657000,8.951656982421875,0.07739068567752838,-9.782129287719727,0.6887416839599609
1772607576340657200,8.9616572265625,0.07616055756807327,-9.782251358032227,0.6871216297149658
1772607576350657000,8.971656982421875,0.07521625608205795,-9.782354354858398,0.6857607364654541
1772607576360657200,8.9816572265625,0.07442031055688858,-9.782455444335938,0.6844136714935303
1772607576370657000,8.991656982421874,0.0740848034620285,-9.78250503540039,0.683728039264679
1772607576380657200,9.0016572265625,0.07404188811779022,-9.782482147216797,0.6840585470199585
1772607576390657000,9.011656982421876,0.07468944042921066,-9.782407760620117,0.6850574016571045
1772607576400657200,9.0216572265625,0.07605179399251938,-9.782317161560059,0.6862108707427979
1772607576410657000,9.031656982421875,0.077452152967453,-9.782252311706543,0.6869734525680542
1772607576420657200,9.0416572265625,0.07868991047143936,-9.78223991394043,0.6869988441467285
1772607576430657000,9.051656982421875,0.07946111261844635,-9.782273292541504,0.6864436864852905
1772607576440657200,9.0616572265625,0.07967425137758255,-9.78233814239502,0.6854854822158813
1772607576450657000,9.071656982421874,0.07929904758930206,-9.782404899597168,0.6845803260803223
1772607576460657200,9.0816572265625,0.07812287658452988,-9.782452583312988,0.6840320229530334
1772607576470657000,9.091656982421876,0.0768466666340828,-9.782483100891113,0.6837548613548279
1772607576480657200,9.1016572265625,0.07538203150033951,-9.782472610473633,0.6840552687644958
1772607576490657000,9.111656982421875,0.0734950602054596,-9.782415390014648,0.6850773096084595
1772607576500657200,9.1216572265625,0.07069148868322372,-9.78232479095459,0.6866735816001892
1772607576510657000,9.131656982421875,0.06771690398454666,-9.782145500183105,0.6895215511322021
1772607576520657200,9.1416572265625,0.06525803357362747,-9.781890869140625,0.6933563947677612
1772607576530657000,9.151656982421875,0.06373900920152664,-9.781583786010742,0.6978143453598022
1772607576540657200,9.1616572265625,0.06360504776239395,-9.781306266784668,0.7016933560371399
1772607576550657000,9.171656982421876,0.06443783640861511,-9.781097412109375,0.7045396566390991
1772607576560657200,9.1816572265625,0.06549501419067383,-9.780966758728027,0.7062391042709351
1772607576570657000,9.191656982421875,0.0659378170967102,-9.780874252319336,0.7074915766716003
1772607576580657200,9.2016572265625,0.06592100113630295,-9.780763626098633,0.7090276479721069
1772607576590657000,9.211656982421875,0.06556656956672668,-9.780661582946777,0.7104593515396118
1772607576600657200,9.2216572265625,0.0649716854095459,-9.780559539794922,0.7119153738021851
1772607576610657000,9.231656982421875,0.06431213021278381,-9.78046989440918,0.7132014036178589
1772607576620657200,9.2416572265625,0.06317385286092758,-9.780379295349121,0.7145445942878723
1772607576630657000,9.251656982421874,0.06189471855759621,-9.780269622802734,0.7161445021629333
1772607576640657200,9.2616572265625,0.06123413145542145,-9.780142784118652,0.7179492712020874
1772607576650657000,9.271656982421876,0.06074431166052818,-9.779964447021484,0.7204189300537109
1772607576660657200,9.2816572265625,0.060352228581905365,-9.779746055603027,0.7233994007110596
1772607576670657000,9.291656982421875,0.05951884016394615,-9.779518127441406,0.726540207862854
1772607576680657200,9.3016572265625,0.0585467703640461,-9.779311180114746,0.7294211983680725
1772607576690657000,9.311656982421875,0.057931505143642426,-9.779112815856934,0.7321087121963501
1772607576700657200,9.3216572265625,0.057683490216732025,-9.77895736694336,0.7342044711112976
1772607576710657000,9.331656982421874,0.05798080936074257,-9.778850555419922,0.735598087310791
1772607576720657200,9.3416572265625,0.05835932493209839,-9.778787612915039,0.7364012002944946
1772607576730657000,9.351656982421876,0.05836549401283264,-9.778787612915039,0.7364149689674377
1772607576740657200,9.3616572265625,0.05763622000813484,-9.778816223144531,0.7360855937004089
1772607576750657000,9.371656982421875,0.05641641840338707,-9.778857231140137,0.7356237769126892
1772607576760657200,9.3816572265625,0.05511149391531944,-9.778883934020996,0.7353665232658386
1772607576770657000,9.391656982421875,0.053979020565748215,-9.778886795043945,0.7354279160499573
1772607576780657200,9.4016572265625,0.053222816437482834,-9.778839111328125,0.736098051071167
1772607576790657000,9.411656982421874,0.05269715562462807,-9.778767585754395,0.7371164560317993
1772607576800657200,9.4216572265625,0.052406881004571915,-9.778641700744629,0.7387832999229431
1772607576810657000,9.431656982421876,0.0530799999833107,-9.778499603271484,0.740616500377655
1772607576820657200,9.4416572265625,0.054281916469335556,-9.778406143188477,0.7417664527893066
1772607576830657000,9.451656982421875,0.05540855601429939,-9.778376579284668,0.7420698404312134
1772607576840657200,9.4616572265625,0.05624031648039818,-9.778397560119629,0.7417240738868713
1772607576850657000,9.471656982421875,0.056494951248168945,-9.778437614440918,0.7411813139915466
1772607576860657200,9.4816572265625,0.05618809536099434,-9.778434753417969,0.7412426471710205
1772607576870657000,9.491656982421874,0.05566684156656265,-9.778379440307617,0.7420111894607544
1772607576880657200,9.5016572265625,0.05510313808917999,-9.778321266174316,0.7428162097930908
1772607576890657000,9.511656982421876,0.05462837219238281,-9.778297424316406,0.743172824382782
1772607576900657200,9.5216572265625,0.054318733513355255,-9.778313636779785,0.7429811358451843
1772607576910657000,9.531656982421875,0.054041653871536255,-9.778359413146973,0.7423892617225647
1772607576920657200,9.5416572265625,0.053844839334487915,-9.778399467468262,0.7418899536132812
1772607576930657000,9.551656982421875,0.05353092402219772,-9.778406143188477,0.7418292164802551
1772607576940657200,9.5616572265625,0.05268240347504616,-9.77839183807373,0.7420565485954285
1772607576950657000,9.571656982421874,0.051753122359514236,-9.778366088867188,0.742485761642456
1772607576960657200,9.5816572265625,0.05101490393280983,-9.778342247009277,0.7428493499755859
1772607576970657000,9.591656982421876,0.04988692328333855,-9.778300285339355,0.7434712052345276
1772607576980657200,9.6016572265625,0.048798706382513046,-9.778203010559082,0.7448265552520752
1772607576990657000,9.611656982421875,0.04773462191224098,-9.778093338012695,0.7463289499282837
1772607577000657200,9.6216572265625,0.04690719023346901,-9.777993202209473,0.7476858496665955
1772607577010657000,9.631656982421875,0.04671497642993927,-9.777935981750488,0.7484480142593384
1772607577020657200,9.6416572265625,0.046984415501356125,-9.777928352355957,0.7485279440879822
1772607577030657000,9.651656982421875,0.04732470586895943,-9.777996063232422,0.7476277351379395
1772607577040657200,9.6616572265625,0.04733795300126076,-9.778072357177734,0.7466251254081726
1772607577050657000,9.671656982421876,0.04746124520897865,-9.778144836425781,0.7456647157669067
1772607577060657200,9.6816572265625,0.04725192114710808,-9.778206825256348,0.7448697090148926
1772607577070657000,9.691656982421875,0.04659596085548401,-9.778268814086914,0.7440977096557617
1772607577080657200,9.7016572265625,0.046233925968408585,-9.778290748596191,0.7438230514526367
1772607577090657000,9.711656982421875,0.045864082872867584,-9.77830982208252,0.7436028718948364
1772607577100657200,9.7216572265625,0.04584352672100067,-9.778319358825684,0.7434616088867188
1772607577110657000,9.731656982421875,0.04567321389913559,-9.778337478637695,0.7432476878166199
1772607577120657200,9.7416572265625,0.045481640845537186,-9.778386116027832,0.7426081299781799
1772607577130657000,9.751656982421874,0.0451895110309124,-9.778454780578613,0.7417347431182861
1772607577140657200,9.7616572265625,0.04463138058781624,-9.77853775024414,0.7406765818595886
1772607577150657000,9.771656982421876,0.043939974159002304,-9.778647422790527,0.7392756938934326
1772607577160657200,9.7816572265625,0.04327090084552765,-9.778756141662598,0.7378561496734619
1772607577170657000,9.791656982421875,0.042565613985061646,-9.778892517089844,0.7360929250717163
1772607577180657200,9.8016572265625,0.041929326951503754,-9.779012680053711,0.7345342040061951
1772607577190657000,9.811656982421875,0.041010405868291855,-9.779135704040527,0.7329494953155518
1772607577200657200,9.8216572265625,0.04003962129354477,-9.77925968170166,0.7313362956047058
1772607577210657000,9.831656982421874,0.038994792848825455,-9.779365539550781,0.729981541633606
1772607577220657200,9.8416572265625,0.03817090392112732,-9.779489517211914,0.7283593416213989
1772607577230657000,9.851656982421876,0.03748825564980507,-9.779653549194336,0.7261980175971985
1772607577240657200,9.8616572265625,0.036809735000133514,-9.779838562011719,0.7237343788146973
1772607577250657000,9.871656982421875,0.036308515816926956,-9.78003978729248,0.7210402488708496
1772607577260657200,9.8816572265625,0.035686593502759933,-9.780206680297852,0.7188066244125366
1772607577270657000,9.891656982421875,0.03515012562274933,-9.780322074890137,0.7172632813453674
1772607577280657200,9.9016572265625,0.03477443382143974,-9.78040599822998,0.7161300778388977
1772607577290657000,9.911656982421874,0.034280695021152496,-9.780487060546875,0.7150393128395081
1772607577300657200,9.9216572265625,0.03347361460328102,-9.780531883239746,0.7144637703895569
1772607577310657000,9.931656982421876,0.032416995614767075,-9.78052043914795,0.7146722674369812
1772607577320657200,9.9416572265625,0.03146654739975929,-9.780461311340332,0.7155251502990723
1772607577330657000,9.951656982421875,0.030510729178786278,-9.78039836883545,0.7164186239242554
1772607577340657200,9.9616572265625,0.030138874426484108,-9.780377388000488,0.7167233824729919
1772607577350657000,9.971656982421875,0.029741067439317703,-9.780411720275879,0.7162796258926392
1772607577360657200,9.9816572265625,0.028705008327960968,-9.780521392822266,0.714813232421875
1772607577370657000,9.991656982421874,0.02773149684071541,-9.780672073364258,0.712795078754425
1772607577380657200,10.0016572265625,0.02693958580493927,-9.780835151672363,0.7105841040611267
1772607577390657000,10.011656982421876,0.026184245944023132,-9.78099250793457,0.7084442377090454
1772607577400657200,10.0216572265625,0.025699421763420105,-9.78111457824707,0.7067766189575195
1772607577410657000,10.031656982421875,0.025994552299380302,-9.781189918518066,0.7057225704193115
1772607577420657200,10.0416572265625,0.026911459863185883,-9.781246185302734,0.704896092414856
1772607577430657000,10.051656982421875,0.027775870636105537,-9.781274795532227,0.7044733166694641
1772607577440657200,10.0616572265625,0.02814600057899952,-9.78130054473877,0.7040961980819702
1772607577450657000,10.071656982421874,0.02801206149160862,-9.781325340270996,0.7037608027458191
1772607577460657200,10.0816572265625,0.02747908979654312,-9.781332015991211,0.7036870121955872
1772607577470657000,10.091656982421876,0.027068020775914192,-9.781342506408691,0.7035616636276245
1772607577480657200,10.1016572265625,0.026980726048350334,-9.781377792358398,0.7030621767044067
1772607577490657000,10.111656982421875,0.027325816452503204,-9.781373023986816,0.7031121850013733
1772607577500657200,10.1216572265625,0.02809559926390648,-9.781415939331055,0.7024837732315063
1772607577510657000,10.131656982421875,0.02862098626792431,-9.781494140625,0.7013752460479736
1772607577520657200,10.1416572265625,0.02880784124135971,-9.781582832336426,0.7001452445983887
1772607577530657000,10.151656982421875,0.028423873707652092,-9.781675338745117,0.6988474726676941
1772607577540657200,10.1616572265625,0.028084002435207367,-9.781752586364746,0.6977835297584534
1772607577550657000,10.171656982421876,0.02798425778746605,-9.781813621520996,0.6969466209411621
1772607577560657200,10.1816572265625,0.027625903487205505,-9.781856536865234,0.6963678002357483
1772607577570657000,10.191656982421875,0.02691442333161831,-9.781825065612793,0.6968196630477905
1772607577580657200,10.2016572265625,0.02565884031355381,-9.78173828125,0.6980854868888855
1772607577590657000,10.211656982421875,0.024806702509522438,-9.781632423400879,0.6996018290519714
1772607577600657200,10.2216572265625,0.02463650517165661,-9.78152847290039,0.7010632753372192
1772607577610657000,10.231656982421875,0.024977099150419235,-9.781453132629395,0.7020940184593201
1772607577620657200,10.2416572265625,0.02504855766892433,-9.78143310546875,0.7023791074752808
1772607577630657000,10.251656982421874,0.02474919892847538,-9.78142261505127,0.7025362849235535
1772607577640657200,10.2616572265625,0.023901650682091713,-9.78142261505127,0.7025542259216309
1772607577650657000,10.271656982421876,0.023034323006868362,-9.781445503234863,0.7022629976272583
1772607577660657200,10.2816572265625,0.02213253267109394,-9.781508445739746,0.7014264464378357
1772607577670657000,10.291656982421875,0.020562395453453064,-9.7815523147583,0.7008602023124695
1772607577680657200,10.3016572265625,0.018498670309782028,-9.781550407409668,0.7009409070014954
1772607577690657000,10.311656982421875,0.016363196074962616,-9.781502723693848,0.7016506195068359
1772607577700657200,10.3216572265625,0.015386851504445076,-9.781389236450195,0.7032601237297058
1772607577710657000,10.331656982421874,0.015174544416368008,-9.78122615814209,0.7055153846740723
1772607577720657200,10.3416572265625,0.01541165728121996,-9.781052589416504,0.7079235315322876
1772607577730657000,10.351656982421876,0.015860943123698235,-9.780882835388184,0.7102494835853577
1772607577740657200,10.3616572265625,0.016260599717497826,-9.780774116516113,0.7117438316345215
1772607577750657000,10.371656982421875,0.017187952995300293,-9.780736923217773,0.7122402787208557
1772607577760657200,10.3816572265625,0.018715135753154755,-9.78076171875,0.7118472456932068
1772607577770657000,10.391656982421875,0.020391488447785378,-9.780869483947754,0.7103366851806641
1772607577780657200,10.4016572265625,0.02133825235068798,-9.780996322631836,0.7085533142089844
1772607577790657000,10.411656982421874,0.021438712254166603,-9.781171798706055,0.706121027469635
1772607577800657200,10.4216572265625,0.021170414984226227,-9.781359672546387,0.7035213708877563
1772607577810657000,10.431656982421876,0.021493036299943924,-9.781525611877441,0.7011997103691101
1772607577820657200,10.4416572265625,0.021760132163763046,-9.781612396240234,0.6999745965003967
1772607577830657000,10.451656982421875,0.022167090326547623,-9.781579971313477,0.7004094123840332
1772607577840657200,10.4616572265625,0.02245675027370453,-9.781436920166016,0.7024130821228027
1772607577850657000,10.471656982421875,0.02334411069750786,-9.781200408935547,0.7056742310523987
1772607577860657200,10.4816572265625,0.02429444156587124,-9.780900001525879,0.7097870111465454
1772607577870657000,10.491656982421874,0.02512299083173275,-9.780599594116211,0.7138745188713074
1772607577880657200,10.5016572265625,0.02590552344918251,-9.780330657958984,0.7175391912460327
1772607577890657000,10.511656982421876,0.026744786649942398,-9.780117988586426,0.7203859686851501
1772607577900657200,10.5216572265625,0.027766214683651924,-9.779991149902344,0.7220854163169861
1772607577910657000,10.531656982421875,0.028938302770256996,-9.780014991760254,0.7216875553131104
1772607577920657200,10.5416572265625,0.029374001547694206,-9.780115127563477,0.7203213572502136
1772607577930657000,10.551656982421875,0.030819542706012726,-9.780232429504395,0.7186769843101501
1772607577940657200,10.5616572265625,0.03164128214120865,-9.780352592468262,0.7169923782348633
1772607577950657000,10.571656982421874,0.032125074416399,-9.78045654296875,0.7155609130859375
1772607577960657200,10.5816572265625,0.032197006046772,-9.780508995056152,0.7148418426513672
1772607577970657000,10.591656982421876,0.03186021372675896,-9.780538558959961,0.7144394516944885
1772607577980657200,10.6016572265625,0.031188681721687317,-9.780548095703125,0.7143443822860718
1772607577990657000,10.611656982421875,0.030250651761889458,-9.78052043914795,0.7147626280784607
1772607578000657200,10.6216572265625,0.029073510318994522,-9.780451774597168,0.715758740901947
1772607578010657000,10.631656982421875,0.028005946427583694,-9.780374526977539,0.716856837272644
1772607578020657200,10.6416572265625,0.02704101800918579,-9.780294418334961,0.7179782390594482
1772607578030657000,10.651656982421875,0.025897018611431122,-9.780267715454102,0.7183927297592163
1772607578040657200,10.6616572265625,0.025950077921152115,-9.78030014038086,0.7179436683654785
1772607578050657000,10.671656982421876,0.026527686044573784,-9.78038215637207,0.7168013453483582
1772607578060657200,10.6816572265625,0.02709282748401165,-9.78048324584961,0.715399980545044
1772607578070657000,10.691656982421875,0.027500569820404053,-9.780550956726074,0.7144578695297241
1772607578080657200,10.7016572265625,0.02710387483239174,-9.780576705932617,0.714123010635376
1772607578090657000,10.711656982421875,0.026446698233485222,-9.780590057373047,0.7139629125595093
1772607578100657200,10.7216572265625,0.025213148444890976,-9.78061294555664,0.7136980295181274
1772607578110657000,10.731656982421875,0.02374216355383396,-9.780680656433105,0.7128221392631531
1772607578120657200,10.7416572265625,0.022551601752638817,-9.780746459960938,0.7119444012641907
1772607578130657000,10.751656982421874,0.02195005677640438,-9.780811309814453,0.7110759019851685
1772607578140657200,10.7616572265625,0.02154567278921604,-9.780891418457031,0.7099856734275818
1772607578150657000,10.771656982421876,0.02144790068268776,-9.78096866607666,0.7089351415634155
1772607578160657200,10.7816572265625,0.021761206910014153,-9.781033515930176,0.7080176472663879
1772607578170657000,10.791656982421875,0.021687356755137444,-9.781071662902832,0.7074997425079346
1772607578180657200,10.8016572265625,0.021484890952706337,-9.7810640335083,0.7075924277305603
1772607578190657000,10.811656982421875,0.021159492433071136,-9.781025886535645,0.708156943321228
1772607578200657200,10.8216572265625,0.020665766671299934,-9.780966758728027,0.7089760899543762
1772607578210657000,10.831656982421874,0.02014889381825924,-9.78091812133789,0.7096592783927917
1772607578220657200,10.8416572265625,0.02022208832204342,-9.780866622924805,0.7103630304336548
1772607578230657000,10.851656982421876,0.02056288719177246,-9.780817031860352,0.7110313177108765
1772607578240657200,10.8616572265625,0.020966235548257828,-9.780778884887695,0.711545467376709
1772607578250657000,10.871656982421875,0.020946277305483818,-9.780755996704102,0.7118678689002991
1772607578260657200,10.8816572265625,0.020967785269021988,-9.780744552612305,0.7120336294174194
1772607578270657000,10.891656982421875,0.020594565197825432,-9.780759811401367,0.7118321657180786
1772607578280657200,10.9016572265625,0.020285066217184067,-9.780774116516113,0.7116307020187378
1772607578290657000,10.911656982421874,0.020111657679080963,-9.780818939208984,0.7110397219657898
1772607578300657200,10.9216572265625,0.01953308843076229,-9.780842781066895,0.7107163071632385
1772607578310657000,10.931656982421876,0.01796506531536579,-9.780869483947754,0.7104049324989319
1772607578320657200,10.9416572265625,0.016423719003796577,-9.780865669250488,0.7104798555374146
1772607578330657000,10.951656982421875,0.015302546322345734,-9.780791282653809,0.7115272879600525
1772607578340657200,10.9616572265625,0.014227479696273804,-9.780658721923828,0.7133622169494629
1772607578350657000,10.971656982421875,0.013237763196229935,-9.780486106872559,0.7157559394836426
1772607578360657200,10.9816572265625,0.012425767257809639,-9.780354499816895,0.7175479531288147
1772607578370657000,10.991656982421874,0.01152750663459301,-9.780285835266113,0.7185187935829163
1772607578380657200,11.0016572265625,0.01055892650038004,-9.780242919921875,0.7191189527511597
1772607578390657000,11.011656982421876,0.009488693438470364,-9.78018569946289,0.7199084758758545
1772607578400657200,11.0216572265625,0.008215353824198246,-9.780107498168945,0.7209842801094055
1772607578410657000,11.031656982421875,0.007322940044105053,-9.780031204223633,0.7220244407653809
1772607578420657200,11.0416572265625,0.007265827618539333,-9.780011177062988,0.7223085165023804
1772607578430657000,11.051656982421875,0.0072050029411911964,-9.78006649017334,0.7215443849563599
1772607578440657200,11.0616572265625,0.007543980609625578,-9.780104637145996,0.7210213541984558
1772607578450657000,11.071656982421874,0.00716447364538908,-9.780165672302246,0.7202090620994568
1772607578460657200,11.0816572265625,0.006767734885215759,-9.780193328857422,0.7198431491851807
1772607578470657000,11.091656982421876,0.006140516139566898,-9.780196189880371,0.7198071479797363
1772607578480657200,11.1016572265625,0.005740998778492212,-9.780157089233398,0.7203221321105957
1772607578490657000,11.111656982421875,0.005587585736066103,-9.780065536499023,0.7215688228607178
1772607578500657200,11.1216572265625,0.005156143568456173,-9.779889106750488,0.7239615321159363
1772607578510657000,11.131656982421875,0.0045296926982700825,-9.779644012451172,0.7272718548774719
1772607578520657200,11.1416572265625,0.003925597760826349,-9.779367446899414,0.7309755086898804
1772607578530657000,11.151656982421875,0.0037840506993234158,-9.779106140136719,0.7344796657562256
1772607578540657200,11.1616572265625,0.003791635390371084,-9.778929710388184,0.736813485622406
1772607578550657000,11.171656982421876,0.003751549869775772,-9.778818130493164,0.7383056282997131
1772607578560657200,11.1816572265625,0.004052331671118736,-9.778791427612305,0.7386415600776672
1772607578570657000,11.191656982421875,0.004013063386082649,-9.778817176818848,0.7383133172988892
1772607578580657200,11.2016572265625,0.0038772549014538527,-9.778848648071289,0.7378949522972107
1772607578590657000,11.211656982421875,0.00321392435580492,-9.77883243560791,0.7381170988082886
1772607578600657200,11.2216572265625,0.002076028613373637,-9.778732299804688,0.7394394278526306
1772607578610657000,11.231656982421875,0.0008889934979379177,-9.778607368469238,0.7410953044891357
1772607578620657200,11.2416572265625,0.0009189671836793423,-9.778458595275879,0.7430474162101746
1772607578630657000,11.251656982421874,0.0016247573075816035,-9.77833080291748,0.7447368502616882
1772607578640657200,11.2616572265625,0.002225410658866167,-9.778238296508789,0.745952844619751
1772607578650657000,11.271656982421876,0.0030076466500759125,-9.778148651123047,0.747119128704071
1772607578660657200,11.2816572265625,0.0037083697970956564,-9.778059959411621,0.7482801675796509
1772607578670657000,11.291656982421875,0.003934516105800867,-9.777982711791992,0.7492811679840088
1772607578680657200,11.3016572265625,0.0037469498347491026,-9.777914047241211,0.7501790523529053
1772607578690657000,11.311656982421875,0.0034650354646146297,-9.777887344360352,0.7505331039428711
1772607578700657200,11.3216572265625,0.003145910333842039,-9.777886390686035,0.7505382895469666
1772607578710657000,11.331656982421874,0.002868861425668001,-9.77794075012207,0.7498406171798706
1772607578720657200,11.3416572265625,0.0028896124567836523,-9.777997016906738,0.7491118311882019
1772607578730657000,11.351656982421876,0.002906379522755742,-9.77802848815918,0.748686671257019
1772607578740657200,11.3616572265625,0.002822390291839838,-9.77804946899414,0.7484191656112671
1772607578750657000,11.371656982421875,0.002808398799970746,-9.778019905090332,0.7487931847572327
1772607578760657200,11.3816572265625,0.003123081289231777,-9.777966499328613,0.7495017647743225
1772607578770657000,11.391656982421875,0.003323822747915983,-9.777864456176758,0.7508237361907959
1772607578780657200,11.4016572265625,0.003629835322499275,-9.777758598327637,0.7522026300430298
1772607578790657000,11.411656982421874,0.0036453919019550085,-9.777649879455566,0.7536220550537109
1772607578800657200,11.4216572265625,0.003094813786447048,-9.777554512023926,0.7548581957817078
1772607578810657000,11.431656982421876,0.002247441094368696,-9.777482032775879,0.7557878494262695
1772607578820657200,11.4416572265625,0.00146361137740314,-9.777421951293945,0.7565717697143555
1772607578830657000,11.451656982421875,0.0007900461787357926,-9.777402877807617,0.7568203210830688
1772607578840657200,11.4616572265625,0.00020039439550600946,-9.77741527557373,0.7566578984260559
1772607578850657000,11.471656982421875,-0.0005799750797450542,-9.7774658203125,0.7560021877288818
1772607578860657200,11.4816572265625,-0.00077700155088678,-9.777514457702637,0.7553752660751343
1772607578870657000,11.491656982421874,-0.0011974247172474861,-9.777556419372559,0.7548298835754395
1772607578880657200,11.5016572265625,-0.001236519543454051,-9.777565002441406,0.754729688167572
1772607578890657000,11.511656982421876,-0.0012105053756386042,-9.777549743652344,0.754926323890686
1772607578900657200,11.5216572265625,-0.0008413401083089411,-9.777521133422852,0.7552828192710876
1772607578910657000,11.531656982421875,-0.0003018942952621728,-9.777493476867676,0.7556449174880981
1772607578920657200,11.5416572265625,-0.0005570196080952883,-9.777446746826172,0.7562524676322937
1772607578930657000,11.551656982421875,-0.001962685491889715,-9.777352333068848,0.7574678063392639
1772607578940657200,11.5616572265625,-0.0040724570862948895,-9.777209281921387,0.7593131065368652
1772607578950657000,11.571656982421874,-0.006516503635793924,-9.777090072631836,0.76081782579422
1772607578960657200,11.5816572265625,-0.00943662878125906,-9.777016639709473,0.7617391347885132
1772607578970657000,11.591656982421876,-0.012020770460367203,-9.77698802947998,0.7620733976364136
1772607578980657200,11.6016572265625,-0.014475776813924313,-9.777031898498535,0.7614548206329346
1772607578990657000,11.611656982421875,-0.01629526913166046,-9.77710247039795,0.7605218291282654
1772607579000657200,11.6216572265625,-0.01804938167333603,-9.777167320251465,0.7596538662910461
1772607579010657000,11.631656982421875,-0.019538547843694687,-9.777177810668945,0.7594649791717529
1772607579020657200,11.6416572265625,-0.020861748605966568,-9.777117729187012,0.7602133750915527
1772607579030657000,11.651656982421875,-0.02213461324572563,-9.776985168457031,0.7618852257728577
1772607579040657200,11.6616572265625,-0.022709080949425697,-9.776814460754395,0.7640642523765564
1772607579050657000,11.671656982421876,-0.022713271901011467,-9.776636123657227,0.7663391828536987
1772607579060657200,11.6816572265625,-0.022382551804184914,-9.776480674743652,0.7683175802230835
1772607579070657000,11.691656982421875,-0.02206895314157009,-9.776361465454102,0.7698363661766052
1772607579080657200,11.7016572265625,-0.02204851061105728,-9.776256561279297,0.7711776494979858
1772607579090657000,11.711656982421875,-0.02244066633284092,-9.776175498962402,0.7721933126449585
1772607579100657200,11.7216572265625,-0.023758944123983383,-9.77612018585205,0.7728486657142639
1772607579110657000,11.731656982421875,-0.025654086843132973,-9.776061058044434,0.7735316753387451
1772607579120657200,11.7416572265625,-0.027734527364373207,-9.775959968566895,0.7747466564178467
1772607579130657000,11.751656982421874,-0.02964303456246853,-9.775853157043457,0.7760074138641357
1772607579140657200,11.7616572265625,-0.031286854296922684,-9.775703430175781,0.7778269648551941
1772607579150657000,11.771656982421876,-0.032179541885852814,-9.77554988861084,0.7797263860702515
1772607579160657200,11.7816572265625,-0.03216692432761192,-9.775423049926758,0.7813180088996887
1772607579170657000,11.791656982421875,-0.0313483402132988,-9.775324821472168,0.7825878858566284
1772607579180657200,11.8016572265625,-0.02986329235136509,-9.775273323059082,0.7832818627357483
1772607579190657000,11.811656982421875,-0.02815263904631138,-9.77524185180664,0.7837362885475159
1772607579200657200,11.8216572265625,-0.026330210268497467,-9.775227546691895,0.7839716672897339
1772607579210657000,11.831656982421874,-0.024728240445256233,-9.77523136138916,0.7839732766151428
1772607579220657200,11.8416572265625,-0.023636916652321815,-9.775251388549805,0.783760130405426
1772607579230657000,11.851656982421876,-0.022726591676473618,-9.77529525756836,0.7832404375076294
1772607579240657200,11.8616572265625,-0.02209855429828167,-9.775381088256836,0.78219074010849
1772607579250657000,11.871656982421875,-0.021885892376303673,-9.775518417358398,0.7804740071296692
1772607579260657200,11.8816572265625,-0.022217143326997757,-9.775647163391113,0.7788517475128174
1772607579270657000,11.891656982421875,-0.022763025015592575,-9.775712013244629,0.7780221104621887
1772607579280657200,11.9016572265625,-0.023154446855187416,-9.77572250366211,0.7778818607330322
1772607579290657000,11.911656982421874,-0.02304222248494625,-9.775704383850098,0.7781013250350952
1772607579300657200,11.9216572265625,-0.022235415875911713,-9.775673866271973,0.7785180807113647
1772607579310657000,11.931656982421876,-0.02117193304002285,-9.775594711303711,0.7795515060424805
1772607579320657200,11.9416572265625,-0.020197957754135132,-9.7755126953125,0.780610978603363
1772607579330657000,11.951656982421875,-0.01940571516752243,-9.775403022766113,0.7819852828979492
1772607579340657200,11.9616572265625,-0.01853722706437111,-9.775341033935547,0.7827824950218201
1772607579350657000,11.971656982421875,-0.017747515812516212,-9.775337219238281,0.7828495502471924
1772607579360657200,11.9816572265625,-0.01672065258026123,-9.775405883789062,0.7820156216621399
1772607579370657000,11.991656982421874,-0.015835868194699287,-9.775540351867676,0.7803490161895752
1772607579380657200,12.0016572265625,-0.015486342832446098,-9.775678634643555,0.7786251306533813
1772607579390657000,12.011656982421876,-0.015450752340257168,-9.775803565979004,0.7770577073097229
1772607579400657200,12.0216572265625,-0.01548814307898283,-9.77592658996582,0.7755135297775269
1772607579410657000,12.031656982421875,-0.015382119454443455,-9.776023864746094,0.774279773235321
1772607579420657200,12.0416572265625,-0.014936600811779499,-9.77608871459961,0.7734710574150085
1772607579430657000,12.051656982421875,-0.014533723704516888,-9.776067733764648,0.7737399339675903
1772607579440657200,12.0616572265625,-0.013751553371548653,-9.776007652282715,0.7745109796524048
1772607579450657000,12.071656982421874,-0.012626338750123978,-9.775915145874023,0.7757012248039246
1772607579460657200,12.0816572265625,-0.011800713837146759,-9.775818824768066,0.7769186496734619
1772607579470657000,12.091656982421876,-0.011566316708922386,-9.77571964263916,0.7781715393066406
1772607579480657200,12.1016572265625,-0.012033830396831036,-9.775640487670898,0.7791666388511658
1772607579490657000,12.111656982421875,-0.012960808351635933,-9.775556564331055,0.7801992297172546
1772607579500657200,12.1216572265625,-0.014113947749137878,-9.77542781829834,0.781792402267456
1772607579510657000,12.131656982421875,-0.015259696170687675,-9.77529239654541,0.783455491065979
1772607579520657200,12.1416572265625,-0.016140757128596306,-9.77522087097168,0.7843284010887146
1772607579530657000,12.151656982421875,-0.014901409856975079,-9.775375366210938,0.7824316620826721
1772607579540657200,12.1616572265625,-0.013565730303525925,-9.775644302368164,0.7790915966033936
1772607579550657000,12.171656982421876,-0.012946246191859245,-9.775870323181152,0.7762535810470581
1772607579560657200,12.1816572265625,-0.013634285889565945,-9.775979042053223,0.7748690247535706
1772607579570657000,12.191656982421875,-0.014304699376225471,-9.775986671447754,0.7747766971588135
1772607579580657200,12.2016572265625,-0.014641216024756432,-9.775944709777832,0.7752936482429504
1772607579590657000,12.211656982421875,-0.015381254255771637,-9.775874137878418,0.7761700749397278
1772607579600657200,12.2216572265625,-0.016816016286611557,-9.775775909423828,0.7773725986480713
1772607579610657000,12.231656982421875,-0.01895056664943695,-9.77568531036377,0.7784563899040222
1772607579620657200,12.2416572265625,-0.020835865288972855,-9.775598526000977,0.7795019745826721
1772607579630657000,12.251656982421874,-0.022244948893785477,-9.775531768798828,0.7803065180778503
1772607579640657200,12.2616572265625,-0.022299014031887054,-9.77554988861084,0.7800673246383667
1772607579650657000,12.271656982421876,-0.021665774285793304,-9.775578498840332,0.7797405123710632
1772607579660657200,12.2816572265625,-0.02032540738582611,-9.775605201721191,0.7794356346130371
1772607579670657000,12.291656982421875,-0.019407449290156364,-9.775603294372559,0.7794772386550903
1772607579680657200,12.3016572265625,-0.018923263996839523,-9.775582313537598,0.7797570824623108
1772607579690657000,12.311656982421875,-0.019011758267879486,-9.77554988861084,0.7801547050476074
1772607579700657200,12.3216572265625,-0.019507212564349174,-9.775527954101562,0.78042072057724
1772607579710657000,12.331656982421874,-0.020232494920492172,-9.775532722473145,0.7803473472595215
1772607579720657200,12.3416572265625,-0.020945804193615913,-9.775568962097168,0.7798611521720886
1772607579730657000,12.351656982421876,-0.020806651562452316,-9.775635719299316,0.7790393829345703
1772607579740657200,12.3616572265625,-0.020076602697372437,-9.775732040405273,0.7778480052947998
1772607579750657000,12.371656982421875,-0.019313588738441467,-9.775796890258789,0.777041494846344
1772607579760657200,12.3816572265625,-0.01908416859805584,-9.775848388671875,0.7764026522636414
1772607579770657000,12.391656982421875,-0.019427137449383736,-9.775897026062012,0.7757883071899414
1772607579780657200,12.4016572265625,-0.020544076338410378,-9.775943756103516,0.7751748561859131
1772607579790657000,12.411656982421874,-0.021983547136187553,-9.775970458984375,0.774788498878479
1772607579800657200,12.4216572265625,-0.02359776571393013,-9.775994300842285,0.774446964263916
1772607579810657000,12.431656982421876,-0.024523114785552025,-9.776012420654297,0.7741860151290894
1772607579820657200,12.4416572265625,-0.024687549099326134,-9.776042938232422,0.7738007307052612
1772607579830657000,12.451656982421875,-0.024183249101042747,-9.776009559631348,0.7742401361465454
1772607579840657200,12.4616572265625,-0.02287880703806877,-9.77595329284668,0.774985671043396
1772607579850657000,12.471656982421875,-0.02013026550412178,-9.775954246520996,0.7750484347343445
1772607579860657200,12.4816572265625,-0.0168839730322361,-9.775960922241211,0.7750422358512878
1772607579870657000,12.491656982421874,-0.013823091052472591,-9.775982856750488,0.7748233079910278
1772607579880657200,12.5016572265625,-0.012048354372382164,-9.776054382324219,0.7739508152008057
1772607579890657000,12.511656982421876,-0.011570475995540619,-9.776180267333984,0.7723612785339355
1772607579900657200,12.5216572265625,-0.011798606254160404,-9.776351928710938,0.7702005505561829
1772607579910657000,12.531656982421875,-0.012612002901732922,-9.776567459106445,0.7674363851547241
1772607579920657200,12.5416572265625,-0.01332447025924921,-9.77676773071289,0.7648661732673645
1772607579930657000,12.551656982421875,-0.014263877645134926,-9.77696704864502,0.7623158693313599
1772607579940657200,12.5616572265625,-0.014592494815587997,-9.777125358581543,0.7602555751800537
