time,seconds_elapsed,z,y,x
1772881621847716000,0.063716064453125,8.378170013427734,4.59912109375,2.1965277194976807
1772881621857716000,0.073716064453125,8.308992385864258,4.668586254119873,2.3098361492156982
1772881621867716000,0.083716064453125,8.250415802001953,4.729903221130371,2.393542766571045
1772881621877716000,0.093716064453125,8.317781448364258,4.6280717849731445,2.3592069149017334
1772881621887716000,0.103716064453125,8.442360877990723,4.453585624694824,2.250002145767212
1772881621897716000,0.113716064453125,8.496920585632324,4.4081268310546875,2.130997896194458
1772881621907716000,0.123716064453125,8.506000518798828,4.450616359710693,2.0025861263275146
1772881621917716000,0.133716064453125,8.483856201171875,4.555433750152588,1.8554224967956543
1772881621927716000,0.143716064453125,8.412360191345215,4.739029407501221,1.7158591747283936
1772881621937716000,0.153716064453125,8.323074340820312,4.942294120788574,1.5717984437942505
1772881621947716000,0.163716064453125,8.210062026977539,5.175721168518066,1.4061205387115479
1772881621957716000,0.173716064453125,8.086315155029297,5.413203239440918,1.2161935567855835
1772881621967716000,0.183716064453125,7.984160900115967,5.603887557983398,1.0099557638168335
1772881621977716000,0.193716064453125,7.953426361083984,5.672584056854248,0.8574329614639282
1772881621987716000,0.203716064453125,7.926693916320801,5.723781108856201,0.7591058015823364
1772881621997716000,0.213716064453125,7.8560967445373535,5.829416751861572,0.6855812668800354
1772881622007716000,0.223716064453125,7.7871479988098145,5.9240899085998535,0.6602057218551636
1772881622017716000,0.233716064453125,7.764003753662109,5.9529218673706055,0.6733124852180481
1772881622027716000,0.243716064453125,7.817261695861816,5.873517036437988,0.7500791549682617
1772881622037716000,0.253716064453125,7.869026184082031,5.793840408325195,0.8247625231742859
1772881622047716000,0.263716064453125,7.931212902069092,5.698370456695557,0.891531229019165
1772881622057716000,0.273716064453125,8.019699096679688,5.565523624420166,0.9379603266716003
1772881622067716000,0.283716064453125,8.10311222076416,5.434289455413818,0.9891754388809204
1772881622077716000,0.293716064453125,8.213284492492676,5.238466739654541,1.1273001432418823
1772881622087716000,0.303716064453125,8.354915618896484,4.961880683898926,1.3211804628372192
1772881622097716000,0.313716064453125,8.496015548706055,4.648576259613037,1.5423521995544434
1772881622107716000,0.323716064453125,8.605355262756348,4.355008125305176,1.7754337787628174
1772881622117716000,0.333716064453125,8.666534423828125,4.125215530395508,2.0110089778900146
1772881622127716000,0.343716064453125,8.732925415039062,3.9230945110321045,2.1250245571136475
1772881622137716000,0.353716064453125,8.838702201843262,3.7177984714508057,2.0556559562683105
1772881622147716000,0.363716064453125,8.939314842224121,3.5490899085998535,1.9138950109481812
1772881622157716000,0.373716064453125,9.013511657714844,3.4698991775512695,1.6990605592727661
1772881622167716000,0.383716064453125,9.057719230651855,3.494203567504883,1.3851560354232788
1772881622177716000,0.393716064453125,9.079300880432129,3.560697555541992,1.028648018836975
1772881622187716000,0.403716064453125,9.077397346496582,3.6520438194274902,0.6586596965789795
1772881622197716000,0.413716064453125,9.050054550170898,3.766608238220215,0.28205496072769165
1772881622207716000,0.423716064453125,9.00492000579834,3.8824284076690674,-0.0924157053232193
1772881622217716000,0.433716064453125,8.948077201843262,3.985147714614868,-0.47000181674957275
1772881622227716000,0.443716064453125,8.880062103271484,4.067001819610596,-0.8799870610237122
1772881622237716000,0.453716064453125,8.79957389831543,4.10797643661499,-1.364705204963684
1772881622247716000,0.463716064453125,8.707581520080566,4.08274507522583,-1.9182223081588745
1772881622257716000,0.473716064453125,8.605093002319336,3.9519805908203125,-2.550414562225342
1772881622267716000,0.483716064453125,8.47476577758789,3.691771984100342,-3.274069309234619
1772881622277716000,0.493716064453125,8.285977363586426,3.3037846088409424,-4.074061393737793
1772881622287716000,0.503716064453125,8.00831127166748,2.7684481143951416,-4.9369072914123535
1772881622297716000,0.513716064453125,7.625561237335205,2.0725927352905273,-5.807370662689209
1772881622307716000,0.523716064453125,7.142764568328857,1.249311089515686,-6.602311611175537
1772881622317716000,0.533716064453125,6.563832759857178,0.306183397769928,-7.279611110687256
1772881622327716000,0.543716064453125,5.905620098114014,-0.7705163359642029,-7.791042804718018
1772881622337716000,0.553716064453125,5.182627201080322,-1.9343849420547485,-8.097464561462402
1772881622347716000,0.563716064453125,4.465746879577637,-3.102004051208496,-8.161192893981934
1772881622357716000,0.573716064453125,3.8738784790039062,-4.1757049560546875,-7.98291540145874
1772881622367716000,0.583716064453125,3.473099708557129,-5.087581634521484,-7.630496501922607
1772881622377716000,0.593716064453125,3.235696315765381,-5.8069329261779785,-7.209729194641113
1772881622387716000,0.603716064453125,3.1242117881774902,-6.32417106628418,-6.812821388244629
1772881622397716000,0.613716064453125,3.1480207443237305,-6.665184497833252,-6.468049049377441
1772881622407716000,0.623716064453125,3.269723415374756,-6.869268894195557,-6.188088893890381
1772881622417716000,0.633716064453125,3.454760789871216,-6.964951992034912,-5.976993083953857
1772881622427716000,0.643716064453125,3.6526618003845215,-6.992688179016113,-5.82501220703125
1772881622437716000,0.653716064453125,3.8395791053771973,-6.979446887969971,-5.719732761383057
1772881622447716000,0.663716064453125,4.003509521484375,-6.93442964553833,-5.661800861358643
1772881622457716000,0.673716064453125,4.124709129333496,-6.86475944519043,-5.659703731536865
1772881622467716000,0.683716064453125,4.204190731048584,-6.756148338317871,-5.7314605712890625
1772881622477716000,0.693716064453125,4.21945858001709,-6.607211589813232,-5.891631126403809
1772881622487716000,0.703716064453125,4.159439563751221,-6.419641971588135,-6.136582374572754
1772881622497716000,0.713716064453125,4.025691032409668,-6.183055877685547,-6.460187911987305
1772881622507716000,0.723716064453125,3.821934223175049,-5.9109978675842285,-6.828126430511475
1772881622517716000,0.733716064453125,3.555856466293335,-5.643677711486816,-7.188544750213623
1772881622527716000,0.743716064453125,3.255199670791626,-5.432734489440918,-7.48728609085083
1772881622537716000,0.753716064453125,2.9902961254119873,-5.264044284820557,-7.714814186096191
1772881622547716000,0.763716064453125,2.7549657821655273,-5.134695529937744,-7.88767671585083
1772881622557716000,0.773716064453125,2.5265612602233887,-5.07969331741333,-7.998974323272705
1772881622567716000,0.783716064453125,2.302969217300415,-5.12375545501709,-8.038274765014648
1772881622577716000,0.793716064453125,2.0514869689941406,-5.233685493469238,-8.035565376281738
1772881622587716000,0.803716064453125,1.7785100936889648,-5.340574741363525,-8.030289649963379
1772881622597716000,0.813716064453125,1.5228493213653564,-5.392004489898682,-8.048453330993652
1772881622607716000,0.823716064453125,1.317258358001709,-5.374054908752441,-8.096589088439941
1772881622617716000,0.833716064453125,1.1502902507781982,-5.314887046813965,-8.160833358764648
1772881622627716000,0.843716064453125,1.0943764448165894,-5.264225959777832,-8.201258659362793
1772881622637716000,0.853716064453125,1.0389142036437988,-5.231559753417969,-8.229327201843262
1772881622647716000,0.863716064453125,0.8998585939407349,-5.24464750289917,-8.237372398376465
1772881622657716000,0.873716064453125,0.8094659447669983,-5.260092735290527,-8.236903190612793
1772881622667716000,0.883716064453125,0.7591211199760437,-5.264420509338379,-8.238931655883789
1772881622677716000,0.893716064453125,0.6769248247146606,-5.235791206359863,-8.264300346374512
1772881622687716000,0.903716064453125,0.7471185922622681,-5.139642238616943,-8.318429946899414
1772881622697716000,0.913716064453125,0.8539721369743347,-5.001650810241699,-8.391937255859375
1772881622707716000,0.923716064453125,0.9853988289833069,-4.864315032958984,-8.458002090454102
1772881622717716000,0.933716064453125,1.1214969158172607,-4.7475810050964355,-8.50723934173584
1772881622727716000,0.943716064453125,1.2539571523666382,-4.617950439453125,-8.5599365234375
1772881622737716000,0.953716064453125,1.380516529083252,-4.504493236541748,-8.60081958770752
1772881622747716000,0.963716064453125,1.5153905153274536,-4.396128177642822,-8.634119987487793
1772881622757716000,0.973716064453125,1.6743695735931396,-4.260946750640869,-8.672439575195312
1772881622767716000,0.983716064453125,1.8204251527786255,-4.149585247039795,-8.696975708007812
1772881622777716000,0.993716064453125,1.9473812580108643,-4.083077430725098,-8.700953483581543
1772881622787716000,1.003716064453125,2.066383123397827,-4.0331926345825195,-8.696769714355469
1772881622797716000,1.013716064453125,2.160512924194336,-4.003284454345703,-8.687708854675293
1772881622807716000,1.023716064453125,2.229973077774048,-3.9878931045532227,-8.677229881286621
1772881622817716000,1.033716064453125,2.3124728202819824,-3.9543709754943848,-8.670975685119629
1772881622827716000,1.043716064453125,2.3463728427886963,-3.9289536476135254,-8.673421859741211
1772881622837716000,1.053716064453125,2.3768956661224365,-3.918848991394043,-8.669681549072266
1772881622847716000,1.063716064453125,2.421729326248169,-3.8921194076538086,-8.66931438446045
1772881622857716000,1.073716064453125,2.4650814533233643,-3.8088388442993164,-8.694049835205078
1772881622867716000,1.083716064453125,2.5481584072113037,-3.7507731914520264,-8.695342063903809
1772881622877716000,1.093716064453125,2.593674421310425,-3.651736259460449,-8.723993301391602
1772881622887716000,1.103716064453125,2.5003440380096436,-3.486354112625122,-8.818390846252441
1772881622897716000,1.113716064453125,2.564418077468872,-3.37121844291687,-8.844717025756836
1772881622907716000,1.123716064453125,2.6358096599578857,-3.285846710205078,-8.855851173400879
1772881622917716000,1.133716064453125,2.700587511062622,-3.2170464992523193,-8.861593246459961
1772881622927716000,1.143716064453125,2.735004425048828,-3.184931516647339,-8.862637519836426
1772881622937716000,1.153716064453125,2.733448028564453,-3.1910274028778076,-8.860925674438477
1772881622947716000,1.163716064453125,2.690117120742798,-3.180978298187256,-8.877782821655273
1772881622957716000,1.173716064453125,2.553863763809204,-3.1290290355682373,-8.936293601989746
1772881622967716000,1.183716064453125,2.3630309104919434,-3.0428972244262695,-9.01816177368164
1772881622977716000,1.193716064453125,2.201263427734375,-2.9750301837921143,-9.081520080566406
1772881622987716000,1.203716064453125,2.143616199493408,-2.9162039756774902,-9.11433219909668
1772881622997716000,1.213716064453125,2.154035806655884,-2.8486218452453613,-9.133228302001953
1772881623007716000,1.223716064453125,2.168250799179077,-2.7881648540496826,-9.14850902557373
1772881623017716000,1.233716064453125,2.121004819869995,-2.7464420795440674,-9.172173500061035
1772881623027716000,1.243716064453125,1.9356740713119507,-2.7258026599884033,-9.219195365905762
1772881623037716000,1.253716064453125,1.616474986076355,-2.7280728816986084,-9.279817581176758
1772881623047716000,1.263716064453125,1.2188923358917236,-2.813093900680542,-9.315106391906738
1772881623057716000,1.273716064453125,0.8805983662605286,-2.9879813194274902,-9.298757553100586
1772881623067716000,1.283716064453125,0.7076914310455322,-3.189182996749878,-9.246549606323242
1772881623077716000,1.293716064453125,0.649377703666687,-3.383455276489258,-9.181553840637207
1772881623087716000,1.303716064453125,0.6125576496124268,-3.5909922122955322,-9.104940414428711
1772881623097716000,1.313716064453125,0.5565423369407654,-3.8399624824523926,-9.0064058303833
1772881623107716000,1.323716064453125,0.4797852337360382,-4.132681369781494,-8.880379676818848
1772881623117716000,1.333716064453125,0.3883272707462311,-4.465879917144775,-8.722127914428711
1772881623127716000,1.343716064453125,0.280431866645813,-4.842498779296875,-8.523024559020996
1772881623137716000,1.353716064453125,0.13079243898391724,-5.253942012786865,-8.279455184936523
1772881623147716000,1.363716064453125,-0.05721506476402283,-5.684213161468506,-7.991047382354736
1772881623157716000,1.373716064453125,-0.2907797694206238,-6.113669395446777,-7.662171363830566
1772881623167716000,1.383716064453125,-0.5575947165489197,-6.485969066619873,-7.3342814445495605
1772881623177716000,1.393716064453125,-0.7568846344947815,-6.808844089508057,-7.01692008972168
1772881623187716000,1.403716064453125,-0.7700339555740356,-7.042613983154297,-6.780784606933594
1772881623197716000,1.413716064453125,-0.5638478398323059,-7.170577526092529,-6.665978908538818
1772881623207716000,1.423716064453125,-0.2519593834877014,-7.213481903076172,-6.638719081878662
1772881623217716000,1.433716064453125,0.08169878274202347,-7.21013879776001,-6.6466240882873535
1772881623227716000,1.443716064453125,0.43284872174263,-7.167200565338135,-6.679390907287598
1772881623237716000,1.453716064453125,0.8064094185829163,-7.092333793640137,-6.724499225616455
1772881623247716000,1.463716064453125,1.272935152053833,-6.999012470245361,-6.7500996589660645
1772881623257716000,1.473716064453125,1.795172095298767,-6.999398708343506,-6.629944324493408
1772881623267716000,1.483716064453125,2.0199005603790283,-7.023150444030762,-6.539552688598633
1772881623277716000,1.493716064453125,2.1007187366485596,-7.048117637634277,-6.48701810836792
1772881623287716000,1.503716064453125,2.1831259727478027,-7.099486351013184,-6.403252601623535
1772881623297716000,1.513716064453125,2.229783535003662,-7.179136276245117,-6.297496318817139
1772881623307716000,1.523716064453125,2.2088661193847656,-7.279618740081787,-6.188573360443115
1772881623317716000,1.533716064453125,2.151340961456299,-7.413454055786133,-6.048373699188232
1772881623327716000,1.543716064453125,2.0903944969177246,-7.586646556854248,-5.8517889976501465
1772881623337716000,1.553716064453125,2.0206360816955566,-7.7907867431640625,-5.602772235870361
1772881623347716000,1.563716064453125,1.9239436388015747,-8.020171165466309,-5.3052496910095215
1772881623357716000,1.573716064453125,1.791557788848877,-8.274359703063965,-4.94931173324585
1772881623367716000,1.583716064453125,1.6398706436157227,-8.5498628616333,-4.51453971862793
1772881623377716000,1.593716064453125,1.5159337520599365,-8.825579643249512,-3.997685432434082
1772881623387716000,1.603716064453125,1.4522889852523804,-9.077619552612305,-3.4143919944763184
1772881623397716000,1.613716064453125,1.423205018043518,-9.292880058288574,-2.7905642986297607
1772881623407716000,1.623716064453125,1.4290708303451538,-9.45181655883789,-2.1889045238494873
1772881623417716000,1.633716064453125,1.4721583127975464,-9.556130409240723,-1.6381397247314453
1772881623427716000,1.643716064453125,1.5349721908569336,-9.614559173583984,-1.1723910570144653
1772881623437716000,1.653716064453125,1.5557079315185547,-9.646340370178223,-0.8356382846832275
1772881623447716000,1.663716064453125,1.5477168560028076,-9.661069869995117,-0.662325382232666
1772881623457716000,1.673716064453125,1.5495750904083252,-9.664077758789062,-0.612212061882019
1772881623467716000,1.683716064453125,1.5765266418457031,-9.660733222961426,-0.5959851741790771
1772881623477716000,1.693716064453125,1.6196316480636597,-9.65622615814209,-0.5517926812171936
1772881623487716000,1.703716064453125,1.67279052734375,-9.651894569396973,-0.46161773800849915
1772881623497716000,1.713716064453125,1.7371015548706055,-9.645866394042969,-0.3318431079387665
1772881623507716000,1.723716064453125,1.8012803792953491,-9.63805866241455,-0.1833091527223587
1772881623517716000,1.733716064453125,1.8534204959869385,-9.62981128692627,-0.044408682733774185
1772881623527716000,1.743716064453125,1.9000216722488403,-9.620548248291016,0.07321221381425858
1772881623537716000,1.753716064453125,1.9297541379928589,-9.613374710083008,0.17162580788135529
1772881623547716000,1.763716064453125,1.9479974508285522,-9.608057022094727,0.2468673139810562
1772881623557716000,1.773716064453125,1.9452102184295654,-9.60731029510498,0.29348552227020264
1772881623567716000,1.783716064453125,1.9289122819900513,-9.610068321228027,0.3102884590625763
1772881623577716000,1.793716064453125,1.9163206815719604,-9.613005638122559,0.2970395088195801
1772881623587716000,1.803716064453125,1.927886962890625,-9.611943244934082,0.2533232271671295
1772881623597716000,1.813716064453125,1.9696532487869263,-9.60508918762207,0.1819280982017517
1772881623607716000,1.823716064453125,2.0638904571533203,-9.5866060256958,0.08794151991605759
1772881623617716000,1.833716064453125,2.203050136566162,-9.555985450744629,-0.009531021118164062
1772881623627716000,1.843716064453125,2.358330488204956,-9.518352508544922,-0.09809059649705887
1772881623637716000,1.853716064453125,2.507749319076538,-9.478937149047852,-0.1769963949918747
1772881623647716000,1.863716064453125,2.651430606842041,-9.438169479370117,-0.24748769402503967
1772881623657716000,1.873716064453125,2.788461208343506,-9.396927833557129,-0.3043321967124939
1772881623667716000,1.883716064453125,2.9097213745117188,-9.359489440917969,-0.3222793638706207
1772881623677716000,1.893716064453125,2.9835798740386963,-9.337545394897461,-0.28085219860076904
1772881623687716000,1.903716064453125,2.9931633472442627,-9.336028099060059,-0.22349056601524353
1772881623697716000,1.913716064453125,2.9632046222686768,-9.345727920532227,-0.2172176092863083
1772881623707716000,1.923716064453125,2.9338057041168213,-9.354774475097656,-0.2266097217798233
1772881623717716000,1.933716064453125,2.9255387783050537,-9.357390403747559,-0.2255364954471588
1772881623727716000,1.943716064453125,2.940343141555786,-9.352919578552246,-0.21829630434513092
1772881623737716000,1.953716064453125,2.963813304901123,-9.345751762390137,-0.2076607644557953
1772881623747716000,1.963716064453125,2.984171152114868,-9.339722633361816,-0.18627305328845978
1772881623757716000,1.973716064453125,3.0140790939331055,-9.331212997436523,-0.1190454512834549
1772881623767716000,1.983716064453125,2.990980386734009,-9.339286804199219,-0.046266358345746994
1772881623777716000,1.993716064453125,2.9510860443115234,-9.352039337158203,0.02893073670566082
1772881623787716000,2.003716064453125,2.8933427333831787,-9.369453430175781,0.11092518270015717
1772881623797716000,2.013716064453125,2.8452916145324707,-9.382979393005371,0.1854676604270935
1772881623807716000,2.023716064453125,2.7979893684387207,-9.395705223083496,0.24974417686462402
1772881623817716000,2.033716064453125,2.751251220703125,-9.408429145812988,0.28715071082115173
1772881623827716000,2.043716064453125,2.6948935985565186,-9.424356460571289,0.29908183217048645
1772881623837716000,2.053716064453125,2.6446115970611572,-9.438728332519531,0.29468822479248047
1772881623847716000,2.063716064453125,2.597224712371826,-9.452466011047363,0.275157630443573
1772881623857716000,2.073716064453125,2.5738024711608887,-9.459247589111328,0.26186373829841614
1772881623867716000,2.083716064453125,2.580665111541748,-9.457451820373535,0.259133905172348
1772881623877716000,2.093716064453125,2.584632158279419,-9.456995964050293,0.2351507991552353
1772881623887716000,2.103716064453125,2.5651893615722656,-9.462989807128906,0.20500190556049347
1772881623897716000,2.113716064453125,2.5531671047210693,-9.46644115447998,0.19552095234394073
1772881623907716000,2.123716064453125,2.555474281311035,-9.465876579284668,0.19264747202396393
1772881623917716000,2.133716064453125,2.571434497833252,-9.461466789245605,0.19687145948410034
1772881623927716000,2.143716064453125,2.5897889137268066,-9.456387519836426,0.20028901100158691
1772881623937716000,2.153716064453125,2.6017818450927734,-9.453058242797852,0.20196659862995148
1772881623947716000,2.163716064453125,2.6077146530151367,-9.451394081115723,0.20336824655532837
1772881623957716000,2.173716064453125,2.6096720695495605,-9.450786590576172,0.20649327337741852
1772881623967716000,2.183716064453125,2.6038951873779297,-9.452231407165527,0.2131754457950592
1772881623977716000,2.193716064453125,2.5905656814575195,-9.455623626708984,0.22482439875602722
1772881623987716000,2.203716064453125,2.5739221572875977,-9.459962844848633,0.233260840177536
1772881623997716000,2.213716064453125,2.562954902648926,-9.462845802307129,0.23706454038619995
1772881624007716000,2.223716064453125,2.5583088397979736,-9.463977813720703,0.24202415347099304
1772881624017716000,2.233716064453125,2.555393695831299,-9.464639663696289,0.24688869714736938
1772881624027716000,2.243716064453125,2.55350923538208,-9.464922904968262,0.2553548216819763
1772881624037716000,2.253716064453125,2.5507614612579346,-9.465343475341797,0.2669714093208313
1772881624047716000,2.263716064453125,2.5478124618530273,-9.465550422668457,0.287044495344162
1772881624057716000,2.273716064453125,2.5484344959259033,-9.46447467803955,0.315569132566452
1772881624067716000,2.283716064453125,2.552866220474243,-9.462248802185059,0.34514570236206055
1772881624077716000,2.293716064453125,2.561361312866211,-9.45899486541748,0.37042421102523804
1772881624087716000,2.303716064453125,2.577263593673706,-9.453307151794434,0.4038360118865967
1772881624097716000,2.313716064453125,2.608703374862671,-9.442647933959961,0.4488539695739746
1772881624107716000,2.323716064453125,2.663142681121826,-9.424796104431152,0.5012766122817993
1772881624117716000,2.333716064453125,2.743234157562256,-9.398709297180176,0.5561667680740356
1772881624127716000,2.343716064453125,2.849973201751709,-9.36263656616211,0.6237602829933167
1772881624137716000,2.353716064453125,2.974621295928955,-9.319424629211426,0.6858186721801758
1772881624147716000,2.363716064453125,3.103343963623047,-9.273110389709473,0.7409898042678833
1772881624157716000,2.373716064453125,3.2308132648468018,-9.225667953491211,0.7869462370872498
1772881624167716000,2.383716064453125,3.338616371154785,-9.184046745300293,0.8229906558990479
1772881624177716000,2.393716064453125,3.394646167755127,-9.15959358215332,0.865226686000824
1772881624187716000,2.403716064453125,3.3712000846862793,-9.16767406463623,0.8712966442108154
1772881624197716000,2.413716064453125,3.311048984527588,-9.184715270996094,0.9210466146469116
1772881624207716000,2.423716064453125,3.2457468509674072,-9.199531555175781,1.0020660161972046
1772881624217716000,2.433716064453125,3.2015693187713623,-9.205804824829102,1.083282232284546
1772881624227716000,2.443716064453125,3.1677730083465576,-9.217840194702148,1.0802888870239258
1772881624237716000,2.453716064453125,3.139680862426758,-9.229994773864746,1.058297872543335
1772881624247716000,2.463716064453125,3.092613935470581,-9.244967460632324,1.066166877746582
1772881624257716000,2.473716064453125,3.0265748500823975,-9.267498016357422,1.060056209564209
1772881624267716000,2.483716064453125,2.954796552658081,-9.29102897644043,1.0565745830535889
1772881624277716000,2.493716064453125,2.865658760070801,-9.318818092346191,1.0573623180389404
1772881624287716000,2.503716064453125,2.7415168285369873,-9.354774475097656,1.0689505338668823
1772881624297716000,2.513716064453125,2.575650691986084,-9.400819778442383,1.0774929523468018
1772881624307716000,2.523716064453125,2.3638148307800293,-9.456706047058105,1.0740067958831787
1772881624317716000,2.533716064453125,2.1238882541656494,-9.51664924621582,1.0454014539718628
1772881624327716000,2.543716064453125,1.8815354108810425,-9.571115493774414,1.0119059085845947
1772881624337716000,2.553716064453125,1.6684975624084473,-9.614216804504395,0.9763873219490051
1772881624347716000,2.563716064453125,1.5134258270263672,-9.642324447631836,0.9515934586524963
1772881624357716000,2.573716064453125,1.4355709552764893,-9.655062675476074,0.9430145621299744
1772881624367716000,2.583716064453125,1.433245062828064,-9.657018661499023,0.9263917803764343
1772881624377716000,2.593716064453125,1.4963136911392212,-9.650925636291504,0.8894287943840027
1772881624387716000,2.603716064453125,1.609034538269043,-9.63750171661377,0.8366401195526123
1772881624397716000,2.613716064453125,1.7577334642410278,-9.617574691772461,0.7635561227798462
1772881624407716000,2.623716064453125,1.9242266416549683,-9.591171264648438,0.6907685995101929
1772881624417716000,2.633716064453125,2.095244884490967,-9.557860374450684,0.6539404988288879
1772881624427716000,2.643716064453125,2.2034506797790527,-9.528026580810547,0.7293194532394409
1772881624437716000,2.653716064453125,2.217392921447754,-9.511316299438477,0.8879238963127136
1772881624447716000,2.663716064453125,2.163564682006836,-9.516118049621582,0.9658454060554504
1772881624457716000,2.673716064453125,2.0660078525543213,-9.536202430725098,0.981243908405304
1772881624467716000,2.683716064453125,1.9514988660812378,-9.562398910522461,0.9604983329772949
1772881624477716000,2.693716064453125,1.8716734647750854,-9.581608772277832,0.9273632168769836
1772881624487716000,2.703716064453125,1.861570119857788,-9.586824417114258,0.8931640982627869
1772881624497716000,2.713716064453125,1.91977858543396,-9.57870864868164,0.8562574982643127
1772881624507716000,2.723716064453125,2.0362131595611572,-9.558432579040527,0.812768280506134
1772881624517716000,2.733716064453125,2.2373852729797363,-9.519379615783691,0.7388501167297363
1772881624527716000,2.743716064453125,2.4980416297912598,-9.46130657196045,0.6433258056640625
1772881624537716000,2.753716064453125,2.7592201232910156,-9.392855644226074,0.5756283402442932
1772881624547716000,2.763716064453125,2.9747097492218018,-9.327305793762207,0.5682095885276794
1772881624557716000,2.773716064453125,3.13087797164917,-9.271822929382324,0.6334697604179382
1772881624567716000,2.783716064453125,3.2166590690612793,-9.239373207092285,0.6763678789138794
1772881624577716000,2.793716064453125,3.246305227279663,-9.22713565826416,0.7013214826583862
1772881624587716000,2.803716064453125,3.2312774658203125,-9.23171615600586,0.7103947401046753
1772881624597716000,2.813716064453125,3.191861152648926,-9.246641159057617,0.6942822337150574
1772881624607716000,2.823716064453125,3.147362232208252,-9.264254570007324,0.661872923374176
1772881624617716000,2.833716064453125,3.1147828102111816,-9.277826309204102,0.6248544454574585
1772881624627716000,2.843716064453125,3.1007423400878906,-9.284337997436523,0.5973778367042542
1772881624637716000,2.853716064453125,3.1019530296325684,-9.284499168395996,0.5885071158409119
1772881624647716000,2.863716064453125,3.1118738651275635,-9.280901908874512,0.5928570628166199
1772881624657716000,2.873716064453125,3.1266443729400635,-9.275091171264648,0.6059359312057495
1772881624667716000,2.883716064453125,3.1461164951324463,-9.267566680908203,0.6201121211051941
1772881624677716000,2.893716064453125,3.169898748397827,-9.258763313293457,0.6304153800010681
1772881624687716000,2.903716064453125,3.1974706649780273,-9.249049186706543,0.6337617039680481
1772881624697716000,2.913716064453125,3.2289538383483887,-9.238253593444824,0.6315801739692688
1772881624707716000,2.923716064453125,3.2610316276550293,-9.22741413116455,0.625209629535675
1772881624717716000,2.933716064453125,3.288722038269043,-9.21794319152832,0.6198492050170898
1772881624727716000,2.943716064453125,3.3121755123138428,-9.209519386291504,0.6201885938644409
1772881624737716000,2.953716064453125,3.329838514328003,-9.202573776245117,0.6286522746086121
1772881624747716000,2.963716064453125,3.3369696140289307,-9.199334144592285,0.6381741762161255
1772881624757716000,2.973716064453125,3.33988618850708,-9.19746208190918,0.6497984528541565
1772881624767716000,2.983716064453125,3.3446035385131836,-9.19475269317627,0.6637297868728638
1772881624777716000,2.993716064453125,3.3524084091186523,-9.191093444824219,0.6749480962753296
1772881624787716000,3.003716064453125,3.365290403366089,-9.185495376586914,0.6869354844093323
1772881624797716000,3.013716064453125,3.3818187713623047,-9.178136825561523,0.7039114236831665
1772881624807716000,3.023716064453125,3.3996903896331787,-9.169569969177246,0.7290217876434326
1772881624817716000,3.033716064453125,3.4166128635406494,-9.16049861907959,0.7631658315658569
1772881624827716000,3.043716064453125,3.434091091156006,-9.150388717651367,0.8048555254936218
1772881624837716000,3.053716064453125,3.456778049468994,-9.138121604919434,0.8460545539855957
1772881624847716000,3.063716064453125,3.4844753742218018,-9.124167442321777,0.8822650909423828
1772881624857716000,3.073716064453125,3.5161778926849365,-9.108513832092285,0.917529821395874
1772881624867716000,3.083716064453125,3.5490105152130127,-9.091479301452637,0.9591302275657654
1772881624877716000,3.093716064453125,3.580336570739746,-9.073205947875977,1.0141496658325195
1772881624887716000,3.103716064453125,3.606118679046631,-9.054725646972656,1.0854625701904297
1772881624897716000,3.113716064453125,3.6291840076446533,-9.035016059875488,1.1695680618286133
1772881624907716000,3.123716064453125,3.6550400257110596,-9.011995315551758,1.262932300567627
1772881624917716000,3.133716064453125,3.687690496444702,-8.984368324279785,1.3610448837280273
1772881624927716000,3.143716064453125,3.726317882537842,-8.952583312988281,1.461574912071228
1772881624937716000,3.153716064453125,3.7637603282928467,-8.919650077819824,1.5634397268295288
1772881624947716000,3.163716064453125,3.797043800354004,-8.88580322265625,1.6719321012496948
1772881624957716000,3.173716064453125,3.823227643966675,-8.850967407226562,1.7926812171936035
1772881624967716000,3.183716064453125,3.8388447761535645,-8.815481185913086,1.928977131843567
1772881624977716000,3.193716064453125,3.8428142070770264,-8.779165267944336,2.08072829246521
1772881624987716000,3.203716064453125,3.837411403656006,-8.741726875305176,2.242069721221924
1772881624997716000,3.213716064453125,3.8249011039733887,-8.705080032348633,2.40043568611145
1772881625007716000,3.223716064453125,3.8026435375213623,-8.676165580749512,2.5366203784942627
1772881625017716000,3.233716064453125,3.778794288635254,-8.655813217163086,2.63969349861145
1772881625027716000,3.243716064453125,3.7636735439300537,-8.638046264648438,2.718327760696411
1772881625037716000,3.253716064453125,3.76533842086792,-8.617094993591309,2.781777858734131
1772881625047716000,3.263716064453125,3.785888910293579,-8.591909408569336,2.8313486576080322
1772881625057716000,3.273716064453125,3.8199210166931152,-8.563376426696777,2.871788740158081
1772881625067716000,3.283716064453125,3.8579211235046387,-8.533224105834961,2.910487413406372
1772881625077716000,3.293716064453125,3.8933229446411133,-8.502630233764648,2.9525718688964844
1772881625087716000,3.303716064453125,3.9240434169769287,-8.471681594848633,3.0004806518554688
1772881625097716000,3.313716064453125,3.949770927429199,-8.440460205078125,3.054230213165283
1772881625107716000,3.323716064453125,3.9700605869293213,-8.409340858459473,3.113196849822998
1772881625117716000,3.333716064453125,3.9867029190063477,-8.378374099731445,3.1748132705688477
1772881625127716000,3.343716064453125,4.006770133972168,-8.344897270202637,3.2371060848236084
1772881625137716000,3.353716064453125,4.032681465148926,-8.307594299316406,3.300264596939087
1772881625147716000,3.363716064453125,4.06187105178833,-8.266711235046387,3.366464853286743
1772881625157716000,3.373716064453125,4.09267520904541,-8.224566459655762,3.431748151779175
1772881625167716000,3.383716064453125,4.117856025695801,-8.182628631591797,3.501176595687866
1772881625177716000,3.393716064453125,4.135707378387451,-8.142398834228516,3.573185682296753
1772881625187716000,3.403716064453125,4.157675743103027,-8.10056209564209,3.642115592956543
1772881625197716000,3.413716064453125,4.197048664093018,-8.052833557128906,3.702300548553467
1772881625207716000,3.423716064453125,4.25049352645874,-7.998197078704834,3.759326934814453
1772881625217716000,3.433716064453125,4.3083343505859375,-7.938663005828857,3.819197416305542
1772881625227716000,3.443716064453125,4.369582176208496,-7.874183177947998,3.8825716972351074
1772881625237716000,3.453716064453125,4.435752868652344,-7.802232265472412,3.9521708488464355
1772881625247716000,3.463716064453125,4.507057189941406,-7.72404670715332,4.024416923522949
1772881625257716000,3.473716064453125,4.5753560066223145,-7.643813610076904,4.099830150604248
1772881625267716000,3.483716064453125,4.6431074142456055,-7.564435958862305,4.170282363891602
1772881625277716000,3.493716064453125,4.715680122375488,-7.485461235046387,4.230911731719971
1772881625287716000,3.503716064453125,4.789351940155029,-7.409341812133789,4.2818403244018555
1772881625297716000,3.513716064453125,4.862790107727051,-7.335163593292236,4.326549053192139
1772881625307716000,3.523716064453125,4.936871528625488,-7.261313438415527,4.36703634262085
1772881625317716000,3.533716064453125,5.001652717590332,-7.1910014152526855,4.409461498260498
1772881625327716000,3.543716064453125,5.051815032958984,-7.1296186447143555,4.451751708984375
1772881625337716000,3.553716064453125,5.092974662780762,-7.079247951507568,4.485112190246582
1772881625347716000,3.563716064453125,5.125643253326416,-7.039888381958008,4.509782791137695
1772881625357716000,3.573716064453125,5.154721260070801,-7.00929069519043,4.524277210235596
1772881625367716000,3.583716064453125,5.181344509124756,-6.984721660614014,4.531857490539551
1772881625377716000,3.593716064453125,5.202802658081055,-6.965965270996094,4.536138534545898
1772881625387716000,3.603716064453125,5.214089870452881,-6.957383632659912,4.536348342895508
1772881625397716000,3.613716064453125,5.213393211364746,-6.9629106521606445,4.528665065765381
1772881625407716000,3.623716064453125,5.202381610870361,-6.9835076332092285,4.5095696449279785
1772881625417716000,3.633716064453125,5.184231281280518,-7.019103527069092,4.475078582763672
1772881625427716000,3.643716064453125,5.160521030426025,-7.069308757781982,4.423151969909668
1772881625437716000,3.653716064453125,5.130234241485596,-7.133195400238037,4.355298042297363
1772881625447716000,3.663716064453125,5.093039035797119,-7.207324981689453,4.2761921882629395
1772881625457716000,3.673716064453125,5.049383640289307,-7.288482189178467,4.18952751159668
1772881625467716000,3.683716064453125,5.000652313232422,-7.373505115509033,4.098203182220459
1772881625477716000,3.693716064453125,4.948975086212158,-7.458266258239746,4.006534099578857
1772881625487716000,3.703716064453125,4.895511627197266,-7.538640975952148,3.9208743572235107
1772881625497716000,3.713716064453125,4.841663360595703,-7.611185073852539,3.846889019012451
1772881625507716000,3.723716064453125,4.790701866149902,-7.673633098602295,3.7861475944519043
1772881625517716000,3.733716064453125,4.7469801902771,-7.724924087524414,3.7365918159484863
1772881625527716000,3.743716064453125,4.711648464202881,-7.7651777267456055,3.69767165184021
1772881625537716000,3.753716064453125,4.683218002319336,-7.795576572418213,3.6697206497192383
1772881625547716000,3.763716064453125,4.66076135635376,-7.817328929901123,3.651994228363037
1772881625557716000,3.773716064453125,4.641913414001465,-7.832517623901367,3.6434435844421387
1772881625567716000,3.783716064453125,4.624850273132324,-7.842824459075928,3.642972707748413
1772881625577716000,3.793716064453125,4.607212543487549,-7.850669860839844,3.6484203338623047
1772881625587716000,3.803716064453125,4.587305068969727,-7.857052326202393,3.6597471237182617
1772881625597716000,3.813716064453125,4.565611839294434,-7.863555908203125,3.672882556915283
1772881625607716000,3.823716064453125,4.54206657409668,-7.873466491699219,3.6808340549468994
1772881625617716000,3.833716064453125,4.517164707183838,-7.888777256011963,3.6786975860595703
1772881625627716000,3.843716064453125,4.491237163543701,-7.907209396362305,3.6708600521087646
1772881625637716000,3.853716064453125,4.458565711975098,-7.932684898376465,3.6556925773620605
1772881625647716000,3.863716064453125,4.418495178222656,-7.964796543121338,3.634460926055908
1772881625657716000,3.873716064453125,4.37299108505249,-8.001739501953125,3.6082537174224854
1772881625667716000,3.883716064453125,4.3251214027404785,-8.041681289672852,3.577021598815918
1772881625677716000,3.893716064453125,4.282104969024658,-8.080791473388672,3.5404484272003174
1772881625687716000,3.903716064453125,4.250024318695068,-8.114459037780762,3.501887798309326
1772881625697716000,3.913716064453125,4.236738681793213,-8.139033317565918,3.4607181549072266
1772881625707716000,3.923716064453125,4.245297908782959,-8.152505874633789,3.418255090713501
1772881625717716000,3.933716064453125,4.27452278137207,-8.15649700164795,3.3720037937164307
1772881625727716000,3.943716064453125,4.318161964416504,-8.153914451599121,3.322279930114746
1772881625737716000,3.953716064453125,4.372086048126221,-8.147204399108887,3.267770767211914
1772881625747716000,3.963716064453125,4.429382801055908,-8.138827323913574,3.2109875679016113
1772881625757716000,3.973716064453125,4.482396125793457,-8.130535125732422,3.1579930782318115
1772881625767716000,3.983716064453125,4.526447772979736,-8.12214469909668,3.116475820541382
1772881625777716000,3.993716064453125,4.5616888999938965,-8.112375259399414,3.0904290676116943
1772881625787716000,4.003716064453125,4.590324401855469,-8.102091789245605,3.0749666690826416
1772881625797716000,4.013716064453125,4.612516403198242,-8.094249725341797,3.0623867511749268
1772881625807716000,4.023716064453125,4.625677108764648,-8.092300415039062,3.0476481914520264
1772881625817716000,4.033716064453125,4.626942157745361,-8.097573280334473,3.031682014465332
1772881625827716000,4.043716064453125,4.615795612335205,-8.105772018432617,3.026759386062622
1772881625837716000,4.053716064453125,4.593906402587891,-8.11621379852295,3.0320746898651123
1772881625847716000,4.063716064453125,4.559722900390625,-8.130904197692871,3.0442914962768555
1772881625857716000,4.073716064453125,4.513916492462158,-8.150307655334473,3.060624599456787
1772881625867716000,4.083716064453125,4.462176322937012,-8.171442985534668,3.0800812244415283
1772881625877716000,4.093716064453125,4.413391590118408,-8.188599586486816,3.104706287384033
1772881625887716000,4.103716064453125,4.371396064758301,-8.198766708374023,3.137118101119995
1772881625897716000,4.113716064453125,4.337162494659424,-8.201573371887207,3.177042007446289
1772881625907716000,4.123716064453125,4.310389518737793,-8.19810676574707,3.2221057415008545
1772881625917716000,4.133716064453125,4.284867286682129,-8.192026138305664,3.271237850189209
1772881625927716000,4.143716064453125,4.253983497619629,-8.186278343200684,3.325486183166504
1772881625937716000,4.153716064453125,4.214229583740234,-8.182005882263184,3.3860645294189453
1772881625947716000,4.163716064453125,4.165424823760986,-8.181031227111816,3.4482383728027344
1772881625957716000,4.173716064453125,4.106728553771973,-8.184014320373535,3.5109946727752686
1772881625967716000,4.183716064453125,4.040910243988037,-8.190014839172363,3.572824716567993
1772881625977716000,4.193716064453125,3.97306227684021,-8.196244239807129,3.634108781814575
1772881625987716000,4.203716064453125,3.910503387451172,-8.199273109436035,3.6946260929107666
1772881625997716000,4.213716064453125,3.858908176422119,-8.19745922088623,3.752451181411743
1772881626007716000,4.223716064453125,3.823155164718628,-8.189516067504883,3.806008815765381
1772881626017716000,4.233716064453125,3.8062658309936523,-8.174667358398438,3.8545472621917725
1772881626027716000,4.243716064453125,3.8073043823242188,-8.152657508850098,3.8998708724975586
1772881626037716000,4.253716064453125,3.81953501701355,-8.125514030456543,3.944307804107666
1772881626047716000,4.263716064453125,3.837522268295288,-8.094191551208496,3.9909729957580566
1772881626057716000,4.273716064453125,3.855123281478882,-8.059629440307617,4.0436110496521
1772881626067716000,4.283716064453125,3.867037296295166,-8.023664474487305,4.10331916809082
1772881626077716000,4.293716064453125,3.8739125728607178,-7.985381603240967,4.170955657958984
1772881626087716000,4.303716064453125,3.8821678161621094,-7.943493366241455,4.242650032043457
1772881626097716000,4.313716064453125,3.898390531539917,-7.898268222808838,4.311646461486816
1772881626107716000,4.323716064453125,3.9262588024139404,-7.849645614624023,4.374693870544434
1772881626117716000,4.333716064453125,3.9606003761291504,-7.800716876983643,4.430896282196045
1772881626127716000,4.343716064453125,3.9943881034851074,-7.752521514892578,4.484825611114502
1772881626137716000,4.353716064453125,4.027625560760498,-7.704519271850586,4.537510871887207
1772881626147716000,4.363716064453125,4.061509132385254,-7.655505180358887,4.589963912963867
1772881626157716000,4.373716064453125,4.098293304443359,-7.60665225982666,4.638235569000244
1772881626167716000,4.383716064453125,4.142797470092773,-7.55781364440918,4.678362846374512
1772881626177716000,4.393716064453125,4.192840099334717,-7.508493423461914,4.713067531585693
1772881626187716000,4.403716064453125,4.241910934448242,-7.458377361297607,4.748597621917725
1772881626197716000,4.413716064453125,4.289534568786621,-7.406429767608643,4.7869696617126465
1772881626207716000,4.423716064453125,4.3414506912231445,-7.349978923797607,4.82700777053833
1772881626217716000,4.433716064453125,4.397619724273682,-7.2891926765441895,4.868161678314209
1772881626227716000,4.443716064453125,4.45586633682251,-7.2253618240356445,4.910172462463379
1772881626237716000,4.453716064453125,4.513310432434082,-7.161207675933838,4.9515180587768555
1772881626247716000,4.463716064453125,4.564183235168457,-7.101116180419922,4.991269111633301
1772881626257716000,4.473716064453125,4.607391834259033,-7.045726776123047,5.029917240142822
1772881626267716000,4.483716064453125,4.652266502380371,-6.994313716888428,5.060275077819824
1772881626277716000,4.493716064453125,4.694984436035156,-6.947941303253174,5.084644794464111
1772881626287716000,4.503716064453125,4.731380939483643,-6.9060893058776855,5.107872009277344
1772881626297716000,4.513716064453125,4.76115608215332,-6.868919372558594,5.130275249481201
1772881626307716000,4.523716064453125,4.780801296234131,-6.836519241333008,5.155221939086914
1772881626317716000,4.533716064453125,4.793593883514404,-6.811787128448486,5.1760406494140625
1772881626327716000,4.543716064453125,4.800714015960693,-6.797276496887207,5.188503742218018
1772881626337716000,4.553716064453125,4.802639484405518,-6.791040897369385,5.194883346557617
1772881626347716000,4.563716064453125,4.799166202545166,-6.791758060455322,5.197153568267822
1772881626357716000,4.573716064453125,4.791042327880859,-6.798928260803223,5.195274829864502
1772881626367716000,4.583716064453125,4.777789115905762,-6.813277721405029,5.188675880432129
1772881626377716000,4.593716064453125,4.757681369781494,-6.8361945152282715,5.176997661590576
1772881626387716000,4.603716064453125,4.72931432723999,-6.868730068206787,5.1598944664001465
1772881626397716000,4.613716064453125,4.69327449798584,-6.91051721572876,5.136956691741943
1772881626407716000,4.623716064453125,4.651148319244385,-6.9597697257995605,5.108698844909668
1772881626417716000,4.633716064453125,4.604116916656494,-7.014379978179932,5.076510429382324
1772881626427716000,4.643716064453125,4.554014205932617,-7.072727680206299,5.040621280670166
1772881626437716000,4.653716064453125,4.500652313232422,-7.133742332458496,5.002424240112305
1772881626447716000,4.663716064453125,4.446003437042236,-7.195515155792236,4.96265983581543
1772881626457716000,4.673716064453125,4.393899440765381,-7.256349086761475,4.9203081130981445
1772881626467716000,4.683716064453125,4.346580505371094,-7.31455135345459,4.875957489013672
1772881626477716000,4.693716064453125,4.303030014038086,-7.368776321411133,4.832748889923096
1772881626487716000,4.703716064453125,4.25987434387207,-7.419530868530273,4.793164253234863
1772881626497716000,4.713716064453125,4.215750217437744,-7.466919898986816,4.758459568023682
1772881626507716000,4.723716064453125,4.171401500701904,-7.511775493621826,4.726840972900391
1772881626517716000,4.733716064453125,4.130556583404541,-7.555201530456543,4.693379878997803
1772881626527716000,4.743716064453125,4.097947120666504,-7.597246170043945,4.653928756713867
1772881626537716000,4.753716064453125,4.072803020477295,-7.638075828552246,4.608954429626465
1772881626547716000,4.763716064453125,4.053522109985352,-7.677454471588135,4.560266017913818
1772881626557716000,4.773716064453125,4.0378875732421875,-7.714367866516113,4.51158332824707
1772881626567716000,4.783716064453125,4.021657943725586,-7.749536991119385,4.46557092666626
1772881626577716000,4.793716064453125,4.000565528869629,-7.785399913787842,4.421924591064453
1772881626587716000,4.803716064453125,3.9705281257629395,-7.824578762054443,4.379642009735107
1772881626597716000,4.813716064453125,3.9293737411499023,-7.866260051727295,4.341928958892822
1772881626607716000,4.823716064453125,3.8801488876342773,-7.911965847015381,4.302979469299316
1772881626617716000,4.833716064453125,3.8324921131134033,-7.9615583419799805,4.253935813903809
1772881626627716000,4.843716064453125,3.7911746501922607,-8.014599800109863,4.190890789031982
1772881626637716000,4.853716064453125,3.7537577152252197,-8.06782341003418,4.121883392333984
1772881626647716000,4.863716064453125,3.715289831161499,-8.120677947998047,4.052358150482178
1772881626657716000,4.873716064453125,3.677910327911377,-8.169533729553223,3.9877419471740723
1772881626667716000,4.883716064453125,3.6715798377990723,-8.206401824951172,3.917252540588379
1772881626677716000,4.893716064453125,3.7006494998931885,-8.226387977600098,3.84735369682312
1772881626687716000,4.903716064453125,3.7453763484954834,-8.232975006103516,3.7895467281341553
1772881626697716000,4.913716064453125,3.8046605587005615,-8.230928421020508,3.7345380783081055
1772881626707716000,4.923716064453125,3.8587605953216553,-8.230466842651367,3.679642677307129
1772881626717716000,4.933716064453125,3.8985393047332764,-8.2344388961792,3.628469467163086
1772881626727716000,4.943716064453125,3.924901008605957,-8.24082088470459,3.5853030681610107
1772881626737716000,4.953716064453125,3.9405200481414795,-8.246737480163574,3.554433584213257
1772881626747716000,4.963716064453125,3.94893217086792,-8.251914978027344,3.5330185890197754
1772881626757716000,4.973716064453125,3.9547629356384277,-8.255568504333496,3.5179283618927
1772881626767716000,4.983716064453125,3.9588818550109863,-8.25814151763916,3.5072414875030518
1772881626777716000,4.993716064453125,3.960395336151123,-8.261807441711426,3.4968812465667725
1772881626787716000,5.003716064453125,3.95706844329834,-8.268564224243164,3.484656810760498
1772881626797716000,5.013716064453125,3.9471662044525146,-8.277033805847168,3.4757707118988037
1772881626807716000,5.023716064453125,3.9360952377319336,-8.283300399780273,3.4733943939208984
1772881626817716000,5.033716064453125,3.9277594089508057,-8.284591674804688,3.4797463417053223
1772881626827716000,5.043716064453125,3.922823667526245,-8.28055477142334,3.4948904514312744
1772881626837716000,5.053716064453125,3.918712615966797,-8.271993637084961,3.519688844680786
1772881626847716000,5.063716064453125,3.911919355392456,-8.261091232299805,3.5526959896087646
1772881626857716000,5.073716064453125,3.900418519973755,-8.248953819274902,3.5933101177215576
1772881626867716000,5.083716064453125,3.880249261856079,-8.236339569091797,3.6437294483184814
1772881626877716000,5.093716064453125,3.850619077682495,-8.224846839904785,3.700676202774048
1772881626887716000,5.103716064453125,3.808253526687622,-8.21778678894043,3.7597298622131348
1772881626897716000,5.113716064453125,3.752584934234619,-8.215085983276367,3.8211071491241455
1772881626907716000,5.123716064453125,3.6878981590270996,-8.214213371276855,3.8854188919067383
1772881626917716000,5.133716064453125,3.620694160461426,-8.212636947631836,3.951399564743042
1772881626927716000,5.143716064453125,3.5562891960144043,-8.208121299743652,4.018698215484619
1772881626937716000,5.153716064453125,3.49665904045105,-8.201041221618652,4.084933280944824
1772881626947716000,5.163716064453125,3.4418463706970215,-8.192473411560059,4.148187637329102
1772881626957716000,5.173716064453125,3.392867088317871,-8.18414306640625,4.204596996307373
1772881626967716000,5.183716064453125,3.3554508686065674,-8.177763938903809,4.246824264526367
1772881626977716000,5.193716064453125,3.335304021835327,-8.172884941101074,4.272012233734131
1772881626987716000,5.203716064453125,3.3370845317840576,-8.166468620300293,4.282876968383789
1772881626997716000,5.213716064453125,3.360309362411499,-8.156002044677734,4.284664154052734
1772881627007716000,5.223716064453125,3.4031741619110107,-8.13761043548584,4.285800933837891
1772881627017716000,5.233716064453125,3.4640305042266846,-8.108285903930664,4.292618274688721
1772881627027716000,5.243716064453125,3.5371358394622803,-8.068303108215332,4.308311462402344
1772881627037716000,5.253716064453125,3.6143958568573,-8.021700859069824,4.331148147583008
1772881627047716000,5.263716064453125,3.686929225921631,-7.972182273864746,4.361335754394531
1772881627057716000,5.273716064453125,3.7492127418518066,-7.924488544464111,4.3950276374816895
1772881627067716000,5.283716064453125,3.8009209632873535,-7.880478382110596,4.429609775543213
1772881627077716000,5.293716064453125,3.8445053100585938,-7.839349269866943,4.464837551116943
1772881627087716000,5.303716064453125,3.8825905323028564,-7.8003363609313965,4.500070095062256
1772881627097716000,5.313716064453125,3.9256365299224854,-7.757939338684082,4.535873889923096
1772881627107716000,5.323716064453125,3.9759812355041504,-7.707546234130859,4.577737808227539
1772881627117716000,5.333716064453125,4.039684772491455,-7.644039154052734,4.628173828125
1772881627127716000,5.343716064453125,4.123475074768066,-7.564767837524414,4.684190273284912
1772881627137716000,5.353716064453125,4.233396530151367,-7.4713897705078125,4.735723495483398
1772881627147716000,5.363716064453125,4.355095386505127,-7.370529651641846,4.783180236816406
1772881627157716000,5.373716064453125,4.472306251525879,-7.268030166625977,4.831625461578369
1772881627167716000,5.383716064453125,4.5779924392700195,-7.1695780754089355,4.879500389099121
1772881627177716000,5.393716064453125,4.677918910980225,-7.076472282409668,4.920466423034668
1772881627187716000,5.403716064453125,4.775967597961426,-6.9859747886657715,4.95546817779541
1772881627197716000,5.413716064453125,4.8757171630859375,-6.89380407333374,4.987307548522949
1772881627207716000,5.423716064453125,4.979191780090332,-6.796871662139893,5.018025875091553
1772881627217716000,5.433716064453125,5.074934482574463,-6.699830532073975,5.052494049072266
1772881627227716000,5.443716064453125,5.16282320022583,-6.609140396118164,5.082805633544922
1772881627237716000,5.453716064453125,5.244460582733154,-6.529965400695801,5.101527690887451
1772881627247716000,5.463716064453125,5.310170650482178,-6.466821670532227,5.113970756530762
1772881627257716000,5.473716064453125,5.365451812744141,-6.418121337890625,5.117619514465332
1772881627267716000,5.483716064453125,5.417135715484619,-6.3845014572143555,5.105210781097412
1772881627277716000,5.493716064453125,5.459231853485107,-6.368390083312988,5.080432415008545
1772881627287716000,5.503716064453125,5.491440773010254,-6.368585586547852,5.045353412628174
1772881627297716000,5.513716064453125,5.5123209953308105,-6.3847336769104,5.001987457275391
1772881627307716000,5.523716064453125,5.519461631774902,-6.41742467880249,4.952030658721924
1772881627317716000,5.533716064453125,5.511868476867676,-6.46811580657959,4.894197940826416
1772881627327716000,5.543716064453125,5.490513324737549,-6.537143230438232,4.826013088226318
1772881627337716000,5.553716064453125,5.456496715545654,-6.625739574432373,4.743058204650879
1772881627347716000,5.563716064453125,5.407000541687012,-6.732887268066406,4.647897243499756
1772881627357716000,5.573716064453125,5.337866306304932,-6.855247974395752,4.547872543334961
1772881627367716000,5.583716064453125,5.251304626464844,-6.9884772300720215,4.444702625274658
1772881627377716000,5.593716064453125,5.156000137329102,-7.124119758605957,4.339696407318115
1772881627387716000,5.603716064453125,5.066196918487549,-7.250348091125488,4.23514986038208
1772881627397716000,5.613716064453125,4.993030548095703,-7.3565897941589355,4.13770866394043
1772881627407716000,5.623716064453125,4.938652038574219,-7.435807228088379,4.060649394989014
1772881627417716000,5.633716064453125,4.902569770812988,-7.486338138580322,4.011225700378418
1772881627427716000,5.643716064453125,4.887032985687256,-7.512401103973389,3.9813477993011475
1772881627437716000,5.653716064453125,4.888146877288818,-7.5210795402526855,3.9635558128356934
1772881627447716000,5.663716064453125,4.901589393615723,-7.519479751586914,3.949965238571167
1772881627457716000,5.673716064453125,4.9235663414001465,-7.513151168823242,3.9346446990966797
1772881627467716000,5.683716064453125,4.947899341583252,-7.508045196533203,3.913813591003418
1772881627477716000,5.693716064453125,4.968966484069824,-7.510104656219482,3.883051633834839
1772881627487716000,5.703716064453125,4.982203960418701,-7.524521350860596,3.8379173278808594
1772881627497716000,5.713716064453125,4.985842227935791,-7.552483081817627,3.7777976989746094
1772881627507716000,5.723716064453125,4.978344917297363,-7.592663764953613,3.7064733505249023
1772881627517716000,5.733716064453125,4.957274436950684,-7.643841743469238,3.628704786300659
1772881627527716000,5.743716064453125,4.922911643981934,-7.706737995147705,3.541400671005249
1772881627537716000,5.753716064453125,4.878292560577393,-7.779437065124512,3.4428184032440186
1772881627547716000,5.763716064453125,4.82766580581665,-7.859302520751953,3.330974578857422
1772881627557716000,5.773716064453125,4.777606010437012,-7.941717624664307,3.2053074836730957
1772881627567716000,5.783716064453125,4.729909896850586,-8.02385139465332,3.068577289581299
1772881627577716000,5.793716064453125,4.686488151550293,-8.102442741394043,2.925347089767456
1772881627587716000,5.803716064453125,4.653625011444092,-8.172120094299316,2.7803971767425537
1772881627597716000,5.813716064453125,4.651602745056152,-8.223796844482422,2.6271936893463135
1772881627607716000,5.823716064453125,4.67270565032959,-8.254900932312012,2.488539457321167
1772881627617716000,5.833716064453125,4.702446460723877,-8.269229888916016,2.3826911449432373
1772881627627716000,5.843716064453125,4.733386039733887,-8.271162033081055,2.3137261867523193
1772881627637716000,5.853716064453125,4.764327526092529,-8.263209342956543,2.27836275100708
1772881627647716000,5.863716064453125,4.79117488861084,-8.249101638793945,2.273178815841675
1772881627657716000,5.873716064453125,4.807594299316406,-8.236855506896973,2.282900810241699
1772881627667716000,5.883716064453125,4.808326244354248,-8.232308387756348,2.2977170944213867
1772881627677716000,5.893716064453125,4.795444011688232,-8.236443519592285,2.3097848892211914
1772881627687716000,5.903716064453125,4.775571823120117,-8.245756149291992,2.317713975906372
1772881627697716000,5.913716064453125,4.753600120544434,-8.25416374206543,2.332904100418091
1772881627707716000,5.923716064453125,4.732943058013916,-8.25853443145752,2.35929274559021
1772881627717716000,5.933716064453125,4.711124420166016,-8.257843017578125,2.404937267303467
1772881627727716000,5.943716064453125,4.686181545257568,-8.25308609008789,2.4691388607025146
1772881627737716000,5.953716064453125,4.662363052368164,-8.244197845458984,2.542823553085327
1772881627747716000,5.963716064453125,4.642352104187012,-8.229898452758789,2.6244490146636963
1772881627757716000,5.973716064453125,4.628620624542236,-8.211213111877441,2.705962896347046
1772881627767716000,5.983716064453125,4.622984409332275,-8.187837600708008,2.785266160964966
1772881627777716000,5.993716064453125,4.624033451080322,-8.158539772033691,2.868263006210327
1772881627787716000,6.003716064453125,4.624791622161865,-8.125497817993164,2.959390640258789
1772881627797716000,6.013716064453125,4.619214057922363,-8.091533660888672,3.0594663619995117
1772881627807716000,6.023716064453125,4.607334613800049,-8.057634353637695,3.165025234222412
1772881627817716000,6.033716064453125,4.588518142700195,-8.023547172546387,3.276975154876709
1772881627827716000,6.043716064453125,4.567911148071289,-7.98662805557251,3.393869400024414
1772881627837716000,6.053716064453125,4.551845073699951,-7.94415283203125,3.513052463531494
1772881627847716000,6.063716064453125,4.5432939529418945,-7.895709037780762,3.631343364715576
1772881627857716000,6.073716064453125,4.543071269989014,-7.842304229736328,3.7455499172210693
1772881627867716000,6.083716064453125,4.552746295928955,-7.783580303192139,3.854707717895508
1772881627877716000,6.093716064453125,4.568789005279541,-7.7182936668396,3.965412139892578
1772881627887716000,6.103716064453125,4.588162422180176,-7.646627902984619,4.080227375030518
1772881627897716000,6.113716064453125,4.606196880340576,-7.5709052085876465,4.199373722076416
1772881627907716000,6.123716064453125,4.618930339813232,-7.498042106628418,4.314536094665527
1772881627917716000,6.133716064453125,4.624964237213135,-7.436342716217041,4.413718223571777
1772881627927716000,6.143716064453125,4.625583171844482,-7.3885064125061035,4.492697715759277
1772881627937716000,6.153716064453125,4.621562957763672,-7.35183572769165,4.5565385818481445
1772881627947716000,6.163716064453125,4.617964267730713,-7.321672439575195,4.60845947265625
1772881627957716000,6.173716064453125,4.621654033660889,-7.292994022369385,4.6500468254089355
1772881627967716000,6.183716064453125,4.636651039123535,-7.262732028961182,4.682368278503418
1772881627977716000,6.193716064453125,4.661684513092041,-7.230855464935303,4.706784248352051
1772881627987716000,6.203716064453125,4.6982340812683105,-7.1923675537109375,4.729359149932861
1772881627997716000,6.213716064453125,4.749936103820801,-7.140610218048096,4.756067276000977
1772881628007716000,6.223716064453125,4.820043087005615,-7.075001239776611,4.783505439758301
1772881628017716000,6.233716064453125,4.903409004211426,-6.997561931610107,4.812597751617432
1772881628027716000,6.243716064453125,4.996666431427002,-6.912520885467529,4.839500904083252
1772881628037716000,6.253716064453125,5.0959272384643555,-6.828551769256592,4.855182647705078
1772881628047716000,6.263716064453125,5.187260627746582,-6.7529497146606445,4.864193439483643
1772881628057716000,6.273716064453125,5.263431072235107,-6.685176372528076,4.875971794128418
1772881628067716000,6.283716064453125,5.324445724487305,-6.620635509490967,4.897739887237549
1772881628077716000,6.293716064453125,5.372071266174316,-6.556188583374023,4.932303428649902
1772881628087716000,6.303716064453125,5.420977592468262,-6.49213981628418,4.963417053222656
1772881628097716000,6.313716064453125,5.477593421936035,-6.425755023956299,4.9875874519348145
1772881628107716000,6.323716064453125,5.53454065322876,-6.352835178375244,5.018040657043457
1772881628117716000,6.333716064453125,5.597990036010742,-6.2750983238220215,5.0453972816467285
1772881628127716000,6.343716064453125,5.65924596786499,-6.196933269500732,5.073592185974121
1772881628137716000,6.353716064453125,5.722635269165039,-6.122544288635254,5.092767715454102
1772881628147716000,6.363716064453125,5.78348445892334,-6.055135250091553,5.104609489440918
1772881628157716000,6.373716064453125,5.844117641448975,-5.9979987144470215,5.1030073165893555
1772881628167716000,6.383716064453125,5.902596950531006,-5.9545674324035645,5.086535930633545
1772881628177716000,6.393716064453125,5.952890396118164,-5.929789066314697,5.056786060333252
1772881628187716000,6.403716064453125,5.988428115844727,-5.930794715881348,5.013461112976074
1772881628197716000,6.413716064453125,6.008142471313477,-5.961027145385742,4.9536614418029785
1772881628207716000,6.423716064453125,6.0166730880737305,-6.014378547668457,4.878245830535889
1772881628217716000,6.433716064453125,6.013387203216553,-6.085268974304199,4.793647766113281
1772881628227716000,6.443716064453125,6.000345230102539,-6.168105602264404,4.7032670974731445
1772881628237716000,6.453716064453125,5.982739448547363,-6.254427433013916,4.610787391662598
1772881628247716000,6.463716064453125,5.966392517089844,-6.333447456359863,4.5232720375061035
1772881628257716000,6.473716064453125,5.960292816162109,-6.391167163848877,4.449524402618408
1772881628267716000,6.483716064453125,5.9704508781433105,-6.419702053070068,4.3944878578186035
1772881628277716000,6.493716064453125,5.997378826141357,-6.420553684234619,4.356412410736084
1772881628287716000,6.503716064453125,6.039650917053223,-6.3968505859375,4.332817077636719
1772881628297716000,6.513716064453125,6.090981960296631,-6.357104778289795,4.3194379806518555
1772881628307716000,6.523716064453125,6.139749526977539,-6.315573215484619,4.311311721801758
1772881628317716000,6.533716064453125,6.1730756759643555,-6.287529945373535,4.304704666137695
1772881628327716000,6.543716064453125,6.186327934265137,-6.282386779785156,4.293174743652344
1772881628337716000,6.553716064453125,6.17793083190918,-6.302384376525879,4.2759222984313965
1772881628347716000,6.563716064453125,6.147353649139404,-6.3448286056518555,4.257181644439697
1772881628357716000,6.573716064453125,6.101278305053711,-6.407110214233398,4.230097770690918
1772881628367716000,6.583716064453125,6.049751281738281,-6.484411239624023,4.1860833168029785
1772881628377716000,6.593716064453125,5.996531963348389,-6.573516368865967,4.1232123374938965
1772881628387716000,6.603716064453125,5.941193580627441,-6.6699299812316895,4.047794342041016
1772881628397716000,6.613716064453125,5.881195545196533,-6.770877838134766,3.967005968093872
1772881628407716000,6.623716064453125,5.820813179016113,-6.872395992279053,3.8805551528930664
1772881628417716000,6.633716064453125,5.769137382507324,-6.96820592880249,3.78570294380188
1772881628427716000,6.643716064453125,5.732480525970459,-7.054321765899658,3.680433750152588
1772881628437716000,6.653716064453125,5.711556434631348,-7.128830909729004,3.5676732063293457
1772881628447716000,6.663716064453125,5.694721698760986,-7.195069789886475,3.4599876403808594
1772881628457716000,6.673716064453125,5.68887996673584,-7.248171329498291,3.3572375774383545
1772881628467716000,6.683716064453125,5.714789867401123,-7.27943754196167,3.243664264678955
1772881628477716000,6.693716064453125,5.751984119415283,-7.298776149749756,3.1325595378875732
1772881628487716000,6.703716064453125,5.783720016479492,-7.314924716949463,3.034937858581543
1772881628497716000,6.713716064453125,5.799976348876953,-7.337236404418945,2.9488344192504883
1772881628507716000,6.723716064453125,5.800185680389404,-7.367069721221924,2.87306547164917
1772881628517716000,6.733716064453125,5.789854049682617,-7.398199558258057,2.8132946491241455
1772881628527716000,6.743716064453125,5.771091938018799,-7.427149772644043,2.7753069400787354
1772881628537716000,6.753716064453125,5.749354839324951,-7.44888973236084,2.7621278762817383
1772881628547716000,6.763716064453125,5.734672546386719,-7.457606792449951,2.769120931625366
1772881628557716000,6.773716064453125,5.7261433601379395,-7.4549760818481445,2.7937428951263428
1772881628567716000,6.783716064453125,5.719629764556885,-7.442984104156494,2.8386974334716797
1772881628577716000,6.793716064453125,5.714999198913574,-7.422168731689453,2.901824951171875
1772881628587716000,6.803716064453125,5.708772659301758,-7.395496368408203,2.981095314025879
1772881628597716000,6.813716064453125,5.700296878814697,-7.367239952087402,3.066067934036255
1772881628607716000,6.823716064453125,5.685314655303955,-7.341684818267822,3.153926372528076
1772881628617716000,6.833716064453125,5.660459518432617,-7.321930408477783,3.2432897090911865
1772881628627716000,6.843716064453125,5.627999305725098,-7.307365417480469,3.331429958343506
1772881628637716000,6.853716064453125,5.588611602783203,-7.296951770782471,3.4194014072418213
1772881628647716000,6.863716064453125,5.544238567352295,-7.288821220397949,3.507833480834961
1772881628657716000,6.873716064453125,5.499722957611084,-7.280161380767822,3.594815969467163
1772881628667716000,6.883716064453125,5.461284637451172,-7.267698287963867,3.6776773929595947
1772881628677716000,6.893716064453125,5.427480220794678,-7.250518321990967,3.7606940269470215
1772881628687716000,6.903716064453125,5.391838550567627,-7.227962493896484,3.8542227745056152
1772881628697716000,6.913716064453125,5.351742267608643,-7.196966648101807,3.9664738178253174
1772881628707716000,6.923716064453125,5.305816650390625,-7.154703617095947,4.102306842803955
1772881628717716000,6.933716064453125,5.256499290466309,-7.098092555999756,4.26106595993042
1772881628727716000,6.943716064453125,5.207137584686279,-7.02714204788208,4.435693264007568
1772881628737716000,6.953716064453125,5.162637710571289,-6.947883129119873,4.609172821044922
1772881628747716000,6.963716064453125,5.131131649017334,-6.868117332458496,4.7613911628723145
1772881628757716000,6.973716064453125,5.118729591369629,-6.792713642120361,4.881396770477295
1772881628767716000,6.983716064453125,5.126303195953369,-6.724799156188965,4.966736793518066
1772881628777716000,6.993716064453125,5.148499488830566,-6.668362140655518,5.019590377807617
1772881628787716000,7.003716064453125,5.170575141906738,-6.627798557281494,5.050528526306152
1772881628797716000,7.013716064453125,5.190481662750244,-6.600977420806885,5.065213680267334
1772881628807716000,7.023716064453125,5.217405319213867,-6.579904079437256,5.064969062805176
1772881628817716000,7.033716064453125,5.258888244628906,-6.557890892028809,5.050599575042725
1772881628827716000,7.043716064453125,5.315203666687012,-6.529682159423828,5.0281453132629395
1772881628837716000,7.053716064453125,5.384761333465576,-6.490553855895996,5.00474214553833
1772881628847716000,7.063716064453125,5.461846828460693,-6.437853813171387,4.989254474639893
1772881628857716000,7.073716064453125,5.537663459777832,-6.376430511474609,4.984555244445801
1772881628867716000,7.083716064453125,5.59820556640625,-6.313888072967529,4.996527671813965
1772881628877716000,7.093716064453125,5.646115779876709,-6.253513813018799,5.018499374389648
1772881628887716000,7.103716064453125,5.691919326782227,-6.195576190948486,5.038578510284424
1772881628897716000,7.113716064453125,5.730873107910156,-6.1478352546691895,5.052879810333252
1772881628907716000,7.123716064453125,5.772597312927246,-6.114920139312744,5.045320510864258
1772881628917716000,7.133716064453125,5.809253692626953,-6.092657089233398,5.030157566070557
1772881628927716000,7.143716064453125,5.842396259307861,-6.0772175788879395,5.010412216186523
1772881628937716000,7.153716064453125,5.87825870513916,-6.058591842651367,4.990983963012695
1772881628947716000,7.163716064453125,5.908839702606201,-6.033328533172607,4.985473155975342
1772881628957716000,7.173716064453125,5.931997299194336,-5.9995832443237305,4.998679161071777
1772881628967716000,7.183716064453125,5.962331771850586,-5.9536027908325195,5.01753044128418
1772881628977716000,7.193716064453125,6.006261348724365,-5.8910112380981445,5.038968086242676
1772881628987716000,7.203716064453125,6.060816287994385,-5.810490131378174,5.067060947418213
1772881628997716000,7.213716064453125,6.129947185516357,-5.71719217300415,5.089975833892822
1772881629007716000,7.223716064453125,6.200456142425537,-5.621762275695801,5.110822677612305
1772881629017716000,7.233716064453125,6.264510154724121,-5.53501033782959,5.127374172210693
1772881629027716000,7.243716064453125,6.321432590484619,-5.469236850738525,5.128091812133789
1772881629037716000,7.253716064453125,6.369217395782471,-5.429027557373047,5.111665725708008
1772881629047716000,7.263716064453125,6.408335208892822,-5.413993835449219,5.078611373901367
1772881629057716000,7.273716064453125,6.441977500915527,-5.4214911460876465,5.027797222137451
1772881629067716000,7.283716064453125,6.471909046173096,-5.447800636291504,4.960468769073486
1772881629077716000,7.293716064453125,6.49399995803833,-5.484790802001953,4.8903398513793945
1772881629087716000,7.303716064453125,6.512515544891357,-5.519369602203369,4.826394081115723
1772881629097716000,7.313716064453125,6.53366756439209,-5.53909969329834,4.774928092956543
1772881629107716000,7.323716064453125,6.561799049377441,-5.535935878753662,4.739895343780518
1772881629117716000,7.333716064453125,6.6004414558410645,-5.507020950317383,4.719880104064941
1772881629127716000,7.343716064453125,6.646095275878906,-5.4574384689331055,4.713404178619385
1772881629137716000,7.353716064453125,6.696025371551514,-5.393371105194092,4.71647834777832
1772881629147716000,7.363716064453125,6.748843193054199,-5.321457862854004,4.7228779792785645
1772881629157716000,7.373716064453125,6.8014068603515625,-5.250120639801025,4.727313995361328
1772881629167716000,7.383716064453125,6.854263782501221,-5.18862771987915,4.718855857849121
1772881629177716000,7.393716064453125,6.90716028213501,-5.1437668800354,4.690755844116211
1772881629187716000,7.403716064453125,6.955665111541748,-5.120955944061279,4.643805503845215
1772881629197716000,7.413716064453125,6.9947509765625,-5.124630451202393,4.580613613128662
1772881629207716000,7.423716064453125,7.020181179046631,-5.15686559677124,4.5049052238464355
1772881629217716000,7.433716064453125,7.029824733734131,-5.217611312866211,4.419105052947998
1772881629227716000,7.443716064453125,7.024543762207031,-5.303262710571289,4.324531078338623
1772881629237716000,7.453716064453125,7.005683422088623,-5.407105922698975,4.22539758682251
1772881629247716000,7.463716064453125,6.979248046875,-5.520295143127441,4.12150764465332
1772881629257716000,7.473716064453125,6.952682018280029,-5.636899948120117,4.006989479064941
1772881629267716000,7.483716064453125,6.937267780303955,-5.747650623321533,3.8741707801818848
1772881629277716000,7.493716064453125,6.930827617645264,-5.850217342376709,3.7294743061065674
1772881629287716000,7.503716064453125,6.927252292633057,-5.950643539428711,3.5739896297454834
1772881629297716000,7.513716064453125,6.918381214141846,-6.053134918212891,3.4155445098876953
1772881629307716000,7.523716064453125,6.908851146697998,-6.158934116363525,3.2412476539611816
1772881629317716000,7.533716064453125,6.919692516326904,-6.260720729827881,3.015232801437378
1772881629327716000,7.543716064453125,6.931176662445068,-6.3649678230285645,2.7597768306732178
1772881629337716000,7.553716064453125,6.927341461181641,-6.471530437469482,2.5103023052215576
1772881629347716000,7.563716064453125,6.9132914543151855,-6.566137313842773,2.294044256210327
1772881629357716000,7.573716064453125,6.906501293182373,-6.626238822937012,2.1362555027008057
1772881629367716000,7.583716064453125,6.914208889007568,-6.642976760864258,2.0579023361206055
1772881629377716000,7.593716064453125,6.925055980682373,-6.631283283233643,2.05914044380188
1772881629387716000,7.603716064453125,6.929213047027588,-6.613141059875488,2.1030356884002686
1772881629397716000,7.613716064453125,6.921753883361816,-6.604501247406006,2.1541264057159424
1772881629407716000,7.623716064453125,6.9064106941223145,-6.604602813720703,2.202521324157715
1772881629417716000,7.633716064453125,6.884918689727783,-6.611739158630371,2.2479262351989746
1772881629427716000,7.643716064453125,6.857621192932129,-6.625040531158447,2.2917816638946533
1772881629437716000,7.653716064453125,6.827004909515381,-6.640650272369385,2.3375535011291504
1772881629447716000,7.663716064453125,6.79410982131958,-6.655491828918457,2.3905839920043945
1772881629457716000,7.673716064453125,6.7585320472717285,-6.667721748352051,2.45644474029541
1772881629467716000,7.683716064453125,6.7216620445251465,-6.6732869148254395,2.5410444736480713
1772881629477716000,7.693716064453125,6.688735485076904,-6.6655144691467285,2.646151542663574
1772881629487716000,7.703716064453125,6.660147666931152,-6.645143032073975,2.7667486667633057
1772881629497716000,7.713716064453125,6.6368818283081055,-6.613616943359375,2.895212411880493
1772881629507716000,7.723716064453125,6.617806911468506,-6.575169086456299,3.02360200881958
1772881629517716000,7.733716064453125,6.59917688369751,-6.535259246826172,3.1482760906219482
1772881629527716000,7.743716064453125,6.579164028167725,-6.492760181427002,3.2755239009857178
1772881629537716000,7.753716064453125,6.556650638580322,-6.4420976638793945,3.417616367340088
1772881629547716000,7.763716064453125,6.52957820892334,-6.3795976638793945,3.5826992988586426
1772881629557716000,7.773716064453125,6.497897148132324,-6.303738117218018,3.769695997238159
1772881629567716000,7.783716064453125,6.464449882507324,-6.211885452270508,3.9741370677948
1772881629577716000,7.793716064453125,6.437861919403076,-6.099331378936768,4.185987949371338
1772881629587716000,7.803716064453125,6.433634281158447,-5.9649786949157715,4.381525993347168
1772881629597716000,7.813716064453125,6.453098297119141,-5.814986705780029,4.551244735717773
1772881629607716000,7.823716064453125,6.4868621826171875,-5.662076950073242,4.693815231323242
1772881629617716000,7.833716064453125,6.5214924812316895,-5.520183086395264,4.813324451446533
1772881629627716000,7.843716064453125,6.551403999328613,-5.396325588226318,4.912145137786865
1772881629637716000,7.853716064453125,6.575488090515137,-5.294032573699951,4.99064826965332
1772881629647716000,7.863716064453125,6.5966997146606445,-5.208817005157471,5.05194616317749
1772881629657716000,7.873716064453125,6.617612838745117,-5.137403964996338,5.097515106201172
1772881629667716000,7.883716064453125,6.636492729187012,-5.080254077911377,5.130144119262695
1772881629677716000,7.893716064453125,6.642935276031494,-5.046075344085693,5.155475616455078
1772881629687716000,7.903716064453125,6.634252071380615,-5.040914535522461,5.1716790199279785
1772881629697716000,7.913716064453125,6.632123947143555,-5.059338569641113,5.156395435333252
1772881629707716000,7.923716064453125,6.628885746002197,-5.0948333740234375,5.125517845153809
1772881629717716000,7.933716064453125,6.625571250915527,-5.145625591278076,5.07885217666626
1772881629727716000,7.943716064453125,6.6222639083862305,-5.201681137084961,5.025785446166992
1772881629737716000,7.953716064453125,6.614850044250488,-5.253323554992676,4.981639385223389
1772881629747716000,7.963716064453125,6.603114604949951,-5.293722629547119,4.954368591308594
1772881629757716000,7.973716064453125,6.584741592407227,-5.322450637817383,4.948038101196289
1772881629767716000,7.983716064453125,6.561136245727539,-5.343252182006836,4.956968307495117
1772881629777716000,7.993716064453125,6.541684150695801,-5.355086326599121,4.9698896408081055
1772881629787716000,8.003716064453124,6.529928684234619,-5.357975006103516,4.9822211265563965
1772881629797716000,8.013716064453124,6.538212776184082,-5.3487701416015625,4.981246471405029
1772881629807716000,8.023716064453126,6.56931734085083,-5.327952861785889,4.9625983238220215
1772881629817716000,8.033716064453126,6.611618518829346,-5.308060169219971,4.927613258361816
1772881629827716000,8.043716064453125,6.653492450714111,-5.304957866668701,4.874305248260498
1772881629837716000,8.053716064453125,6.686639785766602,-5.324532508850098,4.807138919830322
1772881629847716000,8.063716064453125,6.717565536499023,-5.360589027404785,4.723217964172363
1772881629857716000,8.073716064453125,6.749549388885498,-5.402435302734375,4.629003047943115
1772881629867716000,8.083716064453125,6.784599304199219,-5.439969539642334,4.53280782699585
1772881629877716000,8.093716064453124,6.824148654937744,-5.470368385314941,4.435815811157227
1772881629887716000,8.103716064453126,6.865195274353027,-5.496492862701416,4.339129447937012
1772881629897716000,8.113716064453126,6.903539657592773,-5.524789810180664,4.241251468658447
1772881629907716000,8.123716064453125,6.936219692230225,-5.558243751525879,4.143086910247803
1772881629917716000,8.133716064453125,6.961605072021484,-5.5976881980896,4.046274662017822
1772881629927716000,8.143716064453125,6.978811264038086,-5.642605781555176,3.9531731605529785
1772881629937716000,8.153716064453125,6.991892337799072,-5.691318035125732,3.8591103553771973
1772881629947716000,8.163716064453125,7.00018835067749,-5.742441654205322,3.767240285873413
1772881629957716000,8.173716064453124,7.001535892486572,-5.798196792602539,3.6782877445220947
1772881629967716000,8.183716064453124,6.993707180023193,-5.857553005218506,3.59826397895813
1772881629977716000,8.193716064453126,6.977596282958984,-5.918890953063965,3.528496265411377
1772881629987716000,8.203716064453126,6.955667018890381,-5.981448173522949,3.4657413959503174
1772881629997716000,8.213716064453125,6.9298834800720215,-6.044335842132568,3.4078009128570557
1772881630007716000,8.223716064453125,6.90672492980957,-6.104803085327148,3.346477508544922
1772881630017716000,8.233716064453125,6.888867378234863,-6.159970283508301,3.2815632820129395
1772881630027716000,8.243716064453125,6.878321647644043,-6.216561794281006,3.195847511291504
1772881630037716000,8.253716064453124,6.865708827972412,-6.282265663146973,3.0928242206573486
1772881630047716000,8.263716064453124,6.843978404998779,-6.358513355255127,2.9832277297973633
1772881630057716000,8.273716064453126,6.8133625984191895,-6.443859100341797,2.867952585220337
1772881630067716000,8.283716064453126,6.774526596069336,-6.534475326538086,2.7525980472564697
1772881630077716000,8.293716064453125,6.730140209197998,-6.626174449920654,2.6399636268615723
1772881630087716000,8.303716064453125,6.6869964599609375,-6.714642524719238,2.5234973430633545
1772881630097716000,8.313716064453125,6.648102760314941,-6.800167083740234,2.393921136856079
1772881630107716000,8.323716064453125,6.6138691902160645,-6.8827948570251465,2.2481696605682373
1772881630117716000,8.333716064453125,6.581182479858398,-6.965186595916748,2.0843703746795654
1772881630127716000,8.343716064453124,6.5474853515625,-7.047529220581055,1.9060808420181274
1772881630137716000,8.353716064453126,6.509491443634033,-7.1297221183776855,1.72161865234375
1772881630147716000,8.363716064453126,6.469643592834473,-7.211113452911377,1.5211639404296875
1772881630157716000,8.373716064453125,6.436244487762451,-7.285105228424072,1.2932058572769165
1772881630167716000,8.383716064453125,6.404677391052246,-7.350471496582031,1.0588018894195557
1772881630177716000,8.393716064453125,6.374784469604492,-7.403197288513184,0.8515735268592834
1772881630187716000,8.403716064453125,6.349620819091797,-7.441348552703857,0.6921281218528748
1772881630197716000,8.413716064453125,6.33736515045166,-7.461453437805176,0.5787044763565063
1772881630207716000,8.423716064453124,6.338486194610596,-7.465142250061035,0.5153953433036804
1772881630217716000,8.433716064453124,6.342334747314453,-7.463441371917725,0.4921640157699585
1772881630227716000,8.443716064453126,6.3388261795043945,-7.466644763946533,0.4887634813785553
1772881630237716000,8.453716064453126,6.32159423828125,-7.480935573577881,0.49338528513908386
1772881630247716000,8.463716064453125,6.288695335388184,-7.508421897888184,0.49628522992134094
1772881630257716000,8.473716064453125,6.246135234832764,-7.544041156768799,0.49359601736068726
1772881630267716000,8.483716064453125,6.202287197113037,-7.580422878265381,0.48908960819244385
1772881630277716000,8.493716064453125,6.164175510406494,-7.611800670623779,0.48355138301849365
1772881630287716000,8.503716064453124,6.131985664367676,-7.637552261352539,0.48675963282585144
1772881630297716000,8.513716064453124,6.101108551025391,-7.660707950592041,0.5103147625923157
1772881630307716000,8.523716064453126,6.066635608673096,-7.685269832611084,0.5504162907600403
1772881630317716000,8.533716064453126,6.0271830558776855,-7.7121992111206055,0.6045212149620056
1772881630327716000,8.543716064453125,5.983452320098877,-7.740695476531982,0.6710533499717712
1772881630337716000,8.553716064453125,5.9383416175842285,-7.768378734588623,0.7475214004516602
1772881630347716000,8.563716064453125,5.89762544631958,-7.7907538414001465,0.8321905136108398
1772881630357716000,8.573716064453125,5.863733768463135,-7.805408477783203,0.9287745952606201
1772881630367716000,8.583716064453125,5.8400654792785645,-7.810662269592285,1.0283807516098022
1772881630377716000,8.593716064453124,5.8237504959106445,-7.809179306030273,1.1274069547653198
1772881630387716000,8.603716064453126,5.812844753265381,-7.801338195800781,1.233027458190918
1772881630397716000,8.613716064453126,5.801947593688965,-7.78887939453125,1.3568918704986572
1772881630407716000,8.623716064453125,5.785187721252441,-7.7742767333984375,1.5042009353637695
1772881630417716000,8.633716064453125,5.758718013763428,-7.759284019470215,1.673641562461853
1772881630427716000,8.643716064453125,5.723260879516602,-7.744009017944336,1.8560729026794434
1772881630437716000,8.653716064453125,5.686193466186523,-7.725795745849609,2.037074327468872
1772881630447716000,8.663716064453125,5.657076835632324,-7.7024149894714355,2.200155258178711
1772881630457716000,8.673716064453124,5.642641067504883,-7.671843528747559,2.339616060256958
1772881630467716000,8.683716064453124,5.644104480743408,-7.635255813598633,2.4530274868011475
1772881630477716000,8.693716064453126,5.666161060333252,-7.590036869049072,2.5409343242645264
1772881630487716000,8.703716064453126,5.709622859954834,-7.533663272857666,2.610461950302124
1772881630497716000,8.713716064453125,5.765956401824951,-7.469703197479248,2.669769287109375
1772881630507716000,8.723716064453125,5.828020095825195,-7.402238368988037,2.7223947048187256
1772881630517716000,8.733716064453125,5.889859676361084,-7.334741115570068,2.7715537548065186
1772881630527716000,8.743716064453125,5.947772979736328,-7.271511554718018,2.814161777496338
1772881630537716000,8.753716064453124,6.001387119293213,-7.213248252868652,2.850052833557129
1772881630547716000,8.763716064453124,6.051329612731934,-7.159090995788574,2.8808352947235107
1772881630557716000,8.773716064453126,6.097250461578369,-7.1097540855407715,2.9060826301574707
1772881630567716000,8.783716064453126,6.13716459274292,-7.066418647766113,2.9276821613311768
1772881630577716000,8.793716064453125,6.164922714233398,-7.032877445220947,2.9500439167022705
1772881630587716000,8.803716064453125,6.175427436828613,-7.010110855102539,2.982086181640625
1772881630597716000,8.813716064453125,6.168881416320801,-6.9987287521362305,3.0220985412597656
1772881630607716000,8.823716064453125,6.161402702331543,-6.98984956741333,3.057696580886841
1772881630617716000,8.833716064453125,6.165414333343506,-6.972476959228516,3.08911395072937
1772881630627716000,8.843716064453124,6.194235801696777,-6.935812473297119,3.1138930320739746
1772881630637716000,8.853716064453126,6.257452964782715,-6.8743438720703125,3.1237916946411133
1772881630647716000,8.863716064453126,6.345129489898682,-6.791220188140869,3.1287457942962646
1772881630657716000,8.873716064453125,6.431709289550781,-6.702681541442871,3.142859935760498
1772881630667716000,8.883716064453125,6.497288227081299,-6.623210430145264,3.176276445388794
1772881630677716000,8.893716064453125,6.546191692352295,-6.557652950286865,3.211688995361328
1772881630687716000,8.903716064453125,6.593481540679932,-6.500557899475098,3.2309634685516357
1772881630697716000,8.913716064453125,6.641052722930908,-6.450267791748047,3.2343220710754395
1772881630707716000,8.923716064453124,6.6919169425964355,-6.404847621917725,3.2197139263153076
1772881630717716000,8.933716064453124,6.74437952041626,-6.362016201019287,3.1950697898864746
1772881630727716000,8.943716064453126,6.796481609344482,-6.320088863372803,3.167760133743286
1772881630737716000,8.953716064453126,6.848538875579834,-6.277023792266846,3.141158103942871
1772881630747716000,8.963716064453125,6.902946472167969,-6.231921195983887,3.1117300987243652
1772881630757716000,8.973716064453125,6.956453323364258,-6.187169075012207,3.0817341804504395
1772881630767716000,8.983716064453125,7.008455276489258,-6.144981384277344,3.048140048980713
1772881630777716000,8.993716064453125,7.05979061126709,-6.105868339538574,3.008009433746338
1772881630787716000,9.003716064453124,7.111446857452393,-6.068968296051025,2.960632085800171
1772881630797716000,9.013716064453124,7.161098957061768,-6.035011291503906,2.9099295139312744
1772881630807716000,9.023716064453126,7.206977844238281,-6.004122734069824,2.860135793685913
1772881630817716000,9.033716064453126,7.249053955078125,-5.976985454559326,2.810201644897461
1772881630827716000,9.043716064453125,7.286228179931641,-5.957158088684082,2.7556374073028564
1772881630837716000,9.053716064453125,7.315307140350342,-5.947583198547363,2.6986911296844482
1772881630847716000,9.063716064453125,7.334519863128662,-5.948014259338379,2.6450576782226562
1772881630857716000,9.073716064453125,7.345186710357666,-5.957196235656738,2.5943078994750977
1772881630867716000,9.083716064453125,7.3507304191589355,-5.973267555236816,2.5411081314086914
1772881630877716000,9.093716064453124,7.351388931274414,-5.99171781539917,2.4953503608703613
1772881630887716000,9.103716064453126,7.348637580871582,-6.012042045593262,2.454233407974243
1772881630897716000,9.113716064453126,7.344593524932861,-6.031904697418213,2.417325735092163
1772881630907716000,9.123716064453125,7.339409828186035,-6.053969860076904,2.3775813579559326
1772881630917716000,9.133716064453125,7.332934379577637,-6.077483654022217,2.337230920791626
1772881630927716000,9.143716064453125,7.323723316192627,-6.104381084442139,2.295649528503418
1772881630937716000,9.153716064453125,7.309772491455078,-6.135102272033691,2.2579052448272705
1772881630947716000,9.163716064453125,7.288928508758545,-6.1753926277160645,2.2150487899780273
1772881630957716000,9.173716064453124,7.260924816131592,-6.227899551391602,2.159313201904297
1772881630967716000,9.183716064453124,7.22424840927124,-6.29523229598999,2.085824489593506
1772881630977716000,9.193716064453126,7.176078796386719,-6.37999153137207,1.9924837350845337
1772881630987716000,9.203716064453126,7.116652011871338,-6.480585098266602,1.8776791095733643
1772881630997716000,9.213716064453125,7.047867298126221,-6.591980457305908,1.7446335554122925
1772881631007716000,9.223716064453125,6.970614910125732,-6.709104537963867,1.6027573347091675
1772881631017716000,9.233716064453125,6.8872857093811035,-6.827287673950195,1.457332730293274
1772881631027716000,9.243716064453125,6.801898002624512,-6.9416704177856445,1.3106409311294556
1772881631037716000,9.253716064453124,6.722392559051514,-7.045941352844238,1.1552242040634155
1772881631047716000,9.263716064453124,6.685392379760742,-7.109610557556152,0.9640235900878906
1772881631057716000,9.273716064453126,6.680541038513184,-7.13654088973999,0.7813825011253357
1772881631067716000,9.283716064453126,6.678861618041992,-7.151695728302002,0.6453126072883606
1772881631077716000,9.293716064453125,6.6587300300598145,-7.179947853088379,0.5291898250579834
1772881631087716000,9.303716064453125,6.612799644470215,-7.230039119720459,0.40963131189346313
1772881631097716000,9.313716064453125,6.54580020904541,-7.296758651733398,0.2831779420375824
1772881631107716000,9.323716064453125,6.469454765319824,-7.368169784545898,0.16312797367572784
1772881631117716000,9.333716064453125,6.397979259490967,-7.431832313537598,0.06410158425569534
1772881631127716000,9.343716064453124,6.341538429260254,-7.480325222015381,0.00006546788790728897
1772881631137716000,9.353716064453126,6.302287578582764,-7.51339864730835,-0.019798215478658676
1772881631147716000,9.363716064453126,6.276483535766602,-7.534991264343262,-0.006275277119129896
1772881631157716000,9.373716064453125,6.254873752593994,-7.552890300750732,0.028294716030359268
1772881631167716000,9.383716064453125,6.2270636558532715,-7.5754923820495605,0.07735373824834824
1772881631177716000,9.393716064453125,6.189513206481934,-7.605433464050293,0.13301478326320648
1772881631187716000,9.403716064453125,6.144745349884033,-7.640415668487549,0.19119347631931305
1772881631197716000,9.413716064453125,6.097335338592529,-7.676589488983154,0.2507341504096985
1772881631207716000,9.423716064453124,6.0487895011901855,-7.712639808654785,0.31261923909187317
1772881631217716000,9.433716064453124,5.998983860015869,-7.748515605926514,0.37826836109161377
1772881631227716000,9.443716064453126,5.9498066902160645,-7.782706260681152,0.4468512237071991
1772881631237716000,9.453716064453126,5.905795097351074,-7.811285018920898,0.5251583456993103
1772881631247716000,9.463716064453125,5.876265048980713,-7.826693534851074,0.6186737418174744
1772881631257716000,9.473716064453125,5.8663763999938965,-7.823754787445068,0.7381653785705566
1772881631267716000,9.483716064453125,5.872978687286377,-7.8038105964660645,0.8826247453689575
1772881631277716000,9.493716064453125,5.886622905731201,-7.774422645568848,1.0374982357025146
1772881631287716000,9.503716064453124,5.90494441986084,-7.7367658615112305,1.2018625736236572
1772881631297716000,9.513716064453124,5.924248218536377,-7.6925859451293945,1.3775988817214966
1772881631307716000,9.523716064453126,5.940188407897949,-7.644613742828369,1.5634649991989136
1772881631317716000,9.533716064453126,5.950359344482422,-7.594022274017334,1.7590994834899902
1772881631327716000,9.543716064453125,5.957834720611572,-7.539076328277588,1.958808183670044
1772881631337716000,9.553716064453125,5.967304706573486,-7.480801582336426,2.1445932388305664
1772881631347716000,9.563716064453125,5.981603622436523,-7.4205121994018555,2.3079874515533447
1772881631357716000,9.573716064453125,6.003125190734863,-7.356420993804932,2.4527437686920166
1772881631367716000,9.583716064453125,6.035406589508057,-7.2845778465271,2.5844106674194336
1772881631377716000,9.593716064453124,6.081591606140137,-7.2013421058654785,2.7065298557281494
1772881631387716000,9.603716064453126,6.143584728240967,-7.108371734619141,2.8103017807006836
1772881631397716000,9.613716064453126,6.223568916320801,-7.008419990539551,2.8843750953674316
1772881631407716000,9.623716064453125,6.30956506729126,-6.911427021026611,2.9312047958374023
1772881631417716000,9.633716064453125,6.388845920562744,-6.82707405090332,2.9570400714874268
1772881631427716000,9.643716064453125,6.453719615936279,-6.759611129760742,2.9711179733276367
1772881631437716000,9.653716064453125,6.500576972961426,-6.709856033325195,2.9817299842834473
1772881631447716000,9.663716064453125,6.5310959815979,-6.674999237060547,2.9932525157928467
1772881631457716000,9.673716064453124,6.550466537475586,-6.651914596557617,3.0022997856140137
1772881631467716000,9.683716064453124,6.56489896774292,-6.633172035217285,3.012226104736328
1772881631477716000,9.693716064453126,6.578717231750488,-6.611785888671875,3.02905011177063
1772881631487716000,9.703716064453126,6.594482898712158,-6.586743354797363,3.0492613315582275
1772881631497716000,9.713716064453125,6.611730575561523,-6.558701515197754,3.072270154953003
1772881631507716000,9.723716064453125,6.62978982925415,-6.530106544494629,3.0941848754882812
1772881631517716000,9.733716064453125,6.647961616516113,-6.501341342926025,3.1156957149505615
1772881631527716000,9.743716064453125,6.675117492675781,-6.465478420257568,3.1322169303894043
1772881631537716000,9.753716064453124,6.721217632293701,-6.414880752563477,3.137662649154663
1772881631547716000,9.763716064453124,6.777742862701416,-6.3531317710876465,3.14170241355896
1772881631557716000,9.773716064453126,6.833274841308594,-6.288549423217773,3.151331663131714
1772881631567716000,9.783716064453126,6.8781256675720215,-6.231015205383301,3.168003559112549
1772881631577716000,9.793716064453125,6.906599998474121,-6.1880364418029785,3.190213918685913
1772881631587716000,9.803716064453125,6.932088851928711,-6.155861854553223,3.197169780731201
1772881631597716000,9.813716064453125,6.9560370445251465,-6.129206657409668,3.196368455886841
1772881631607716000,9.823716064453125,6.982991695404053,-6.107061386108398,3.179938554763794
1772881631617716000,9.833716064453125,7.014009475708008,-6.084932804107666,3.153989315032959
1772881631627716000,9.843716064453124,7.0464959144592285,-6.0588507652282715,3.131711483001709
1772881631637716000,9.853716064453126,7.084142684936523,-6.028308868408203,3.105609178543091
1772881631647716000,9.863716064453126,7.125897407531738,-5.990688323974609,3.0827951431274414
1772881631657716000,9.873716064453125,7.175525665283203,-5.944490909576416,3.0569989681243896
1772881631667716000,9.883716064453125,7.230027198791504,-5.891166687011719,3.0317060947418213
1772881631677716000,9.893716064453125,7.2835564613342285,-5.836876392364502,3.0084962844848633
1772881631687716000,9.903716064453125,7.332338809967041,-5.787605285644531,2.9850993156433105
1772881631697716000,9.913716064453125,7.3758745193481445,-5.748140335083008,2.9539377689361572
1772881631707716000,9.923716064453124,7.412437915802002,-5.722801685333252,2.911304235458374
1772881631717716000,9.933716064453124,7.440998077392578,-5.71412992477417,2.854935646057129
1772881631727716000,9.943716064453126,7.458895206451416,-5.724015235900879,2.787637233734131
1772881631737716000,9.953716064453126,7.466342926025391,-5.751844882965088,2.7093160152435303
1772881631747716000,9.963716064453125,7.464310646057129,-5.7942633628845215,2.623162269592285
1772881631757716000,9.973716064453125,7.452793121337891,-5.846469402313232,2.5387115478515625
1772881631767716000,9.983716064453125,7.434982776641846,-5.901467800140381,2.4625394344329834
1772881631777716000,9.993716064453125,7.41483736038208,-5.95628547668457,2.3902390003204346
1772881631787716000,10.003716064453124,7.396166801452637,-6.005509376525879,2.323998212814331
1772881631797716000,10.013716064453124,7.382288932800293,-6.04664945602417,2.26058030128479
1772881631807716000,10.023716064453126,7.376151084899902,-6.075826168060303,2.2016172409057617
1772881631817716000,10.033716064453126,7.377152919769287,-6.092840194702148,2.1506524085998535
1772881631827716000,10.043716064453125,7.3776397705078125,-6.105851650238037,2.111727237701416
1772881631837716000,10.053716064453125,7.371645927429199,-6.1268630027771,2.0714192390441895
1772881631847716000,10.063716064453125,7.357785224914551,-6.161691665649414,2.016664743423462
1772881631857716000,10.073716064453125,7.333527088165283,-6.214126110076904,1.9427825212478638
1772881631867716000,10.083716064453125,7.297573089599609,-6.284582138061523,1.849279761314392
1772881631877716000,10.093716064453124,7.2498369216918945,-6.37198543548584,1.734376311302185
1772881631887716000,10.103716064453126,7.188833713531494,-6.475955009460449,1.59782874584198
1772881631897716000,10.113716064453126,7.10969352722168,-6.598291397094727,1.4440220594406128
1772881631907716000,10.123716064453125,7.011929988861084,-6.735703468322754,1.2780964374542236
1772881631917716000,10.133716064453125,6.897353649139404,-6.883963584899902,1.0990700721740723
1772881631927716000,10.143716064453125,6.768764495849609,-7.037301540374756,0.9113767743110657
1772881631937716000,10.153716064453125,6.632296562194824,-7.187428951263428,0.723810613155365
1772881631947716000,10.163716064453125,6.4936041831970215,-7.328841686248779,0.5399630665779114
1772881631957716000,10.173716064453124,6.373646259307861,-7.444797039031982,0.349305123090744
1772881631967716000,10.183716064453124,6.308160781860352,-7.506927490234375,0.15341852605342865
1772881631977716000,10.193716064453126,6.2829155921936035,-7.52959680557251,0.02286878600716591
1772881631987716000,10.203716064453126,6.283554553985596,-7.528891086578369,-0.05607471242547035
1772881631997716000,10.213716064453125,6.281557083129883,-7.529987812042236,-0.1081572026014328
1772881632007716000,10.223716064453125,6.258557319641113,-7.548376560211182,-0.15122058987617493
1772881632017716000,10.233716064453125,6.218100070953369,-7.580896377563477,-0.18878355622291565
1772881632027716000,10.243716064453125,6.1713786125183105,-7.61807918548584,-0.22211121022701263
1772881632037716000,10.253716064453124,6.123472213745117,-7.655869007110596,-0.2472701072692871
1772881632047716000,10.263716064453124,6.076344013214111,-7.692829608917236,-0.2622859477996826
1772881632057716000,10.273716064453126,6.034810543060303,-7.72566032409668,-0.25615793466567993
1772881632067716000,10.283716064453126,5.997834205627441,-7.7551679611206055,-0.2318088412284851
1772881632077716000,10.293716064453125,5.9666619300842285,-7.780059814453125,-0.20000052452087402
1772881632087716000,10.303716064453125,5.943971633911133,-7.798290729522705,-0.1620328575372696
1772881632097716000,10.313716064453125,5.933326244354248,-7.807222366333008,-0.11538536846637726
1772881632107716000,10.323716064453125,5.932079315185547,-7.808791160583496,-0.05999508127570152
1772881632117716000,10.333716064453125,5.93348503112793,-7.807953834533691,0.0007579525699838996
1772881632127716000,10.343716064453124,5.933079242706299,-7.807976722717285,0.06667755544185638
1772881632137716000,10.353716064453126,5.930482864379883,-7.808924198150635,0.1430869847536087
1772881632147716000,10.363716064453126,5.928642749786377,-7.808269500732422,0.22914405167102814
1772881632157716000,10.373716064453125,5.924645900726318,-7.807329177856445,0.338479220867157
1772881632167716000,10.383716064453125,5.913265705108643,-7.808635711669922,0.4784092307090759
1772881632177716000,10.393716064453125,5.891929626464844,-7.814072132110596,0.6291508078575134
1772881632187716000,10.403716064453125,5.868096351623535,-7.818159580230713,0.7824503779411316
1772881632197716000,10.413716064453125,5.849247455596924,-7.815291881561279,0.9369699954986572
1772881632207716000,10.423716064453124,5.838507175445557,-7.803654670715332,1.0886696577072144
1772881632217716000,10.433716064453124,5.838711261749268,-7.781342506408691,1.2371591329574585
1772881632227716000,10.443716064453126,5.854648590087891,-7.743705749511719,1.3887044191360474
1772881632237716000,10.453716064453126,5.8846306800842285,-7.689534664154053,1.5532423257827759
1772881632247716000,10.463716064453125,5.9207305908203125,-7.621874809265137,1.7384899854660034
1772881632257716000,10.473716064453125,5.95546293258667,-7.543844699859619,1.9476284980773926
1772881632267716000,10.483716064453125,5.990693092346191,-7.453702449798584,2.1735472679138184
1772881632277716000,10.493716064453125,6.031047821044922,-7.350134372711182,2.402573823928833
1772881632287716000,10.503716064453124,6.078604698181152,-7.23862361907959,2.61214280128479
1772881632297716000,10.513716064453124,6.130608081817627,-7.132019996643066,2.7785472869873047
1772881632307716000,10.523716064453126,6.18394660949707,-7.038251876831055,2.896930694580078
1772881632317716000,10.533716064453126,6.236968994140625,-6.959085464477539,2.9735054969787598
1772881632327716000,10.543716064453125,6.287562847137451,-6.893096446990967,3.0202908515930176
1772881632337716000,10.553716064453125,6.332731246948242,-6.836792469024658,3.0537142753601074
1772881632347716000,10.563716064453125,6.367602348327637,-6.790933132171631,3.0833826065063477
1772881632357716000,10.573716064453125,6.389311790466309,-6.757086277008057,3.1126954555511475
1772881632367716000,10.583716064453125,6.398056983947754,-6.7346882820129395,3.143123149871826
1772881632377716000,10.593716064453124,6.396579742431641,-6.721827983856201,3.173513412475586
1772881632387716000,10.603716064453126,6.390019416809082,-6.714314937591553,3.202501058578491
1772881632397716000,10.613716064453126,6.390323638916016,-6.701451778411865,3.228729724884033
1772881632407716000,10.623716064453125,6.401181697845459,-6.680816173553467,3.249915838241577
1772881632417716000,10.633716064453125,6.423625469207764,-6.651821136474609,3.265072822570801
1772881632427716000,10.643716064453125,6.454113960266113,-6.616274833679199,3.277150869369507
1772881632437716000,10.653716064453125,6.4828104972839355,-6.581750869750977,3.290001392364502
1772881632447716000,10.663716064453125,6.5004191398620605,-6.554081439971924,3.3104305267333984
1772881632457716000,10.673716064453124,6.50448751449585,-6.534982681274414,3.3400650024414062
1772881632467716000,10.683716064453124,6.496883392333984,-6.52513313293457,3.373948574066162
1772881632477716000,10.693716064453126,6.4805006980896,-6.52109432220459,3.413036346435547
1772881632487716000,10.703716064453126,6.470872402191162,-6.516291618347168,3.4403679370880127
1772881632497716000,10.713716064453125,6.474664688110352,-6.506598472595215,3.451561212539673
1772881632507716000,10.723716064453125,6.490333557128906,-6.491395950317383,3.450758695602417
1772881632517716000,10.733716064453125,6.514418125152588,-6.472005844116211,3.4417855739593506
1772881632527716000,10.743716064453125,6.54509973526001,-6.449316024780273,3.426131248474121
1772881632537716000,10.753716064453124,6.577817916870117,-6.425349712371826,3.408459186553955
1772881632547716000,10.763716064453124,6.608870029449463,-6.401792526245117,3.3926801681518555
1772881632557716000,10.773716064453126,6.63737678527832,-6.379807472229004,3.3784146308898926
1772881632567716000,10.783716064453126,6.663681507110596,-6.360603332519531,3.3628041744232178
1772881632577716000,10.793716064453125,6.6918792724609375,-6.343128681182861,3.339738607406616
1772881632587716000,10.803716064453125,6.726430892944336,-6.32271146774292,3.3089022636413574
1772881632597716000,10.813716064453125,6.769591331481934,-6.295864105224609,3.271867275238037
1772881632607716000,10.823716064453125,6.8180108070373535,-6.264743328094482,3.2308051586151123
1772881632617716000,10.833716064453125,6.86580753326416,-6.236324787139893,3.184229612350464
1772881632627716000,10.843716064453124,6.908340930938721,-6.2169365882873535,3.12968373298645
1772881632637716000,10.853716064453126,6.9411821365356445,-6.210511684417725,3.0691893100738525
1772881632647716000,10.863716064453126,6.962412357330322,-6.2188920974731445,3.0034267902374268
1772881632657716000,10.873716064453125,6.969851970672607,-6.242786407470703,2.935844898223877
1772881632667716000,10.883716064453125,6.963352203369141,-6.281011581420898,2.868974208831787
1772881632677716000,10.893716064453125,6.9456377029418945,-6.3277716636657715,2.808522939682007
1772881632687716000,10.903716064453125,6.921848773956299,-6.374152660369873,2.76198673248291
1772881632697716000,10.913716064453125,6.902573108673096,-6.409364700317383,2.728536605834961
1772881632707716000,10.923716064453124,6.898422718048096,-6.423121452331543,2.7065937519073486
1772881632717716000,10.933716064453124,6.913003921508789,-6.415164947509766,2.688202142715454
1772881632727716000,10.943716064453126,6.940855026245117,-6.391732692718506,2.672203302383423
1772881632737716000,10.953716064453126,6.9729719161987305,-6.360661506652832,2.6627144813537598
1772881632747716000,10.963716064453125,7.003162384033203,-6.330111503601074,2.6562750339508057
1772881632757716000,10.973716064453125,7.026782512664795,-6.308999061584473,2.6440961360931396
1772881632767716000,10.983716064453125,7.036006927490234,-6.306707859039307,2.6249635219573975
1772881632777716000,10.993716064453125,7.026361465454102,-6.328250408172607,2.598823070526123
1772881632787716000,11.003716064453124,6.998618125915527,-6.374928951263428,2.5593016147613525
1772881632797716000,11.013716064453124,6.952824115753174,-6.447226524353027,2.5023791790008545
1772881632807716000,11.023716064453126,6.894338130950928,-6.539101600646973,2.424593687057495
1772881632817716000,11.033716064453126,6.830542087554932,-6.6425089836120605,2.321885824203491
1772881632827716000,11.043716064453125,6.765255451202393,-6.751282691955566,2.1958789825439453
1772881632837716000,11.053716064453125,6.700870037078857,-6.860727787017822,2.049180507659912
1772881632847716000,11.063716064453125,6.639742851257324,-6.9667510986328125,1.8837662935256958
1772881632857716000,11.073716064453125,6.578942775726318,-7.069112777709961,1.7074968814849854
1772881632867716000,11.083716064453125,6.515069961547852,-7.168784141540527,1.5273425579071045
1772881632877716000,11.093716064453124,6.447612285614014,-7.264995574951172,1.3485251665115356
1772881632887716000,11.103716064453126,6.373926639556885,-7.358187675476074,1.1834410429000854
1772881632897716000,11.113716064453126,6.321498870849609,-7.429546356201172,1.0054242610931396
1772881632907716000,11.123716064453125,6.290884494781494,-7.4744977951049805,0.8526738882064819
1772881632917716000,11.133716064453125,6.2829084396362305,-7.491761684417725,0.754291832447052
1772881632927716000,11.143716064453125,6.299186706542969,-7.481653213500977,0.7179751396179199
1772881632937716000,11.153716064453125,6.317375183105469,-7.465364933013916,0.7276603579521179
1772881632947716000,11.163716064453125,6.306499004364014,-7.472835063934326,0.7451117038726807
1772881632957716000,11.173716064453124,6.261955738067627,-7.508575916290283,0.7613003253936768
1772881632967716000,11.183716064453124,6.19478178024292,-7.565371036529541,0.7484827041625977
1772881632977716000,11.193716064453126,6.116321086883545,-7.631903648376465,0.7176697254180908
1772881632987716000,11.203716064453126,6.037044525146484,-7.696483612060547,0.6990150809288025
1772881632997716000,11.213716064453125,5.967038631439209,-7.751120090484619,0.6964086890220642
1772881633007716000,11.223716064453125,5.91173791885376,-7.793013572692871,0.700493574142456
1772881633017716000,11.233716064453125,5.873016834259033,-7.821167469024658,0.7123276591300964
1772881633027716000,11.243716064453125,5.851598262786865,-7.834554672241211,0.7409011721611023
1772881633037716000,11.253716064453124,5.846254348754883,-7.833622455596924,0.7912417054176331
1772881633047716000,11.263716064453124,5.850804805755615,-7.823008060455322,0.8596674203872681
1772881633057716000,11.273716064453126,5.856642723083496,-7.809764862060547,0.9368479251861572
1772881633067716000,11.283716064453126,5.858730792999268,-7.798461437225342,1.0147203207015991
1772881633077716000,11.293716064453125,5.85524845123291,-7.791756629943848,1.083962321281433
1772881633087716000,11.303716064453125,5.845829486846924,-7.7903900146484375,1.1430164575576782
1772881633097716000,11.313716064453125,5.830618381500244,-7.793538570404053,1.1979299783706665
1772881633107716000,11.323716064453125,5.809185028076172,-7.8004984855651855,1.2553855180740356
1772881633117716000,11.333716064453125,5.780068397521973,-7.811670780181885,1.318710207939148
1772881633127716000,11.343716064453124,5.745070934295654,-7.825097560882568,1.3901091814041138
1772881633137716000,11.353716064453126,5.70547342300415,-7.838261127471924,1.4763569831848145
1772881633147716000,11.363716064453126,5.66363525390625,-7.849628448486328,1.5738388299942017
1772881633157716000,11.373716064453125,5.623004913330078,-7.856746196746826,1.680401086807251
1772881633167716000,11.383716064453125,5.5893635749816895,-7.853712558746338,1.8023864030838013
1772881633177716000,11.393716064453125,5.562621593475342,-7.835996150970459,1.9557048082351685
1772881633187716000,11.403716064453125,5.537625312805176,-7.802815914154053,2.149683952331543
1772881633197716000,11.413716064453125,5.507376670837402,-7.758822441101074,2.3748366832733154
1772881633207716000,11.423716064453124,5.468489646911621,-7.7117919921875,2.6065807342529297
1772881633217716000,11.433716064453124,5.427981853485107,-7.6643452644348145,2.8222718238830566
1772881633227716000,11.443716064453126,5.3869853019714355,-7.622479438781738,3.0080859661102295
1772881633237716000,11.453716064453126,5.355585098266602,-7.586030960083008,3.1528146266937256
1772881633247716000,11.463716064453125,5.345040321350098,-7.550537586212158,3.254275321960449
1772881633257716000,11.473716064453125,5.359383583068848,-7.512225151062012,3.318716049194336
1772881633267716000,11.483716064453125,5.39259672164917,-7.4689202308654785,3.362370014190674
1772881633277716000,11.493716064453125,5.437466144561768,-7.419400215148926,3.3995368480682373
1772881633287716000,11.503716064453124,5.488742351531982,-7.366143703460693,3.432783603668213
1772881633297716000,11.513716064453124,5.540261268615723,-7.310726165771484,3.468311309814453
1772881633307716000,11.523716064453126,5.586864471435547,-7.2560954093933105,3.508049488067627
1772881633317716000,11.533716064453126,5.628845691680908,-7.203917980194092,3.5482473373413086
1772881633327716000,11.543716064453125,5.6666975021362305,-7.156298637390137,3.5841751098632812
1772881633337716000,11.553716064453125,5.698823928833008,-7.116138458251953,3.613081932067871
1772881633347716000,11.563716064453125,5.726012706756592,-7.083439350128174,3.6342897415161133
1772881633357716000,11.573716064453125,5.749204158782959,-7.054970741271973,3.653003692626953
1772881633367716000,11.583716064453125,5.771873950958252,-7.025619029998779,3.6737630367279053
1772881633377716000,11.593716064453124,5.797613143920898,-6.991077899932861,3.699040174484253
1772881633387716000,11.603716064453126,5.827490329742432,-6.9488983154296875,3.7314298152923584
1772881633397716000,11.613716064453126,5.863982200622559,-6.9011640548706055,3.7627158164978027
1772881633407716000,11.623716064453125,5.904686450958252,-6.850942611694336,3.7907333374023438
1772881633417716000,11.633716064453125,5.950876712799072,-6.803067207336426,3.804699182510376
1772881633427716000,11.643716064453125,5.999365329742432,-6.760639190673828,3.8041765689849854
1772881633437716000,11.653716064453125,6.035504341125488,-6.727725505828857,3.8053603172302246
1772881633447716000,11.663716064453125,6.060708999633789,-6.705615043640137,3.8043296337127686
1772881633457716000,11.673716064453124,6.084201812744141,-6.68845796585083,3.797025203704834
1772881633467716000,11.683716064453124,6.108678817749023,-6.670017719268799,3.790156841278076
1772881633477716000,11.693716064453126,6.146124839782715,-6.644524097442627,3.774366617202759
1772881633487716000,11.703716064453126,6.191549777984619,-6.610691547393799,3.759500503540039
1772881633497716000,11.713716064453125,6.231755256652832,-6.576642990112305,3.7527828216552734
1772881633507716000,11.723716064453125,6.264504432678223,-6.546020030975342,3.7517988681793213
1772881633517716000,11.733716064453125,6.297679901123047,-6.520502090454102,3.7406771183013916
1772881633527716000,11.743716064453125,6.329655647277832,-6.504424095153809,3.7146081924438477
1772881633537716000,11.753716064453124,6.365106582641602,-6.493498802185059,3.67290997505188
1772881633547716000,11.763716064453124,6.404104232788086,-6.484683990478516,3.6203196048736572
1772881633557716000,11.773716064453126,6.444005012512207,-6.478292942047119,3.560462236404419
1772881633567716000,11.783716064453126,6.481563568115234,-6.476344108581543,3.495238780975342
1772881633577716000,11.793716064453125,6.512940406799316,-6.481721878051758,3.426262617111206
1772881633587716000,11.803716064453125,6.536544322967529,-6.497480869293213,3.350630521774292
1772881633597716000,11.813716064453125,6.553730487823486,-6.520743370056152,3.270916700363159
1772881633607716000,11.823716064453125,6.566196918487549,-6.545499801635742,3.195601224899292
1772881633617716000,11.833716064453125,6.5796613693237305,-6.565863609313965,3.125361204147339
1772881633627716000,11.843716064453124,6.595755577087402,-6.579158306121826,3.0628550052642822
1772881633637716000,11.853716064453126,6.614785671234131,-6.584681987762451,3.0094761848449707
1772881633647716000,11.863716064453126,6.6355767250061035,-6.583643913269043,2.96566104888916
1772881633657716000,11.873716064453125,6.65436315536499,-6.579761028289795,2.9319944381713867
1772881633667716000,11.883716064453125,6.667311668395996,-6.580961227416992,2.899705171585083
1772881633677716000,11.893716064453125,6.672948360443115,-6.591986656188965,2.8614439964294434
1772881633687716000,11.903716064453125,6.6666178703308105,-6.6178412437438965,2.8161606788635254
1772881633697716000,11.913716064453125,6.646894454956055,-6.661201000213623,2.759995698928833
1772881633707716000,11.923716064453124,6.6150689125061035,-6.722926139831543,2.6857962608337402
1772881633717716000,11.933716064453124,6.571657657623291,-6.802169322967529,2.5911760330200195
1772881633727716000,11.943716064453126,6.516960144042969,-6.89699125289917,2.4761126041412354
1772881633737716000,11.953716064453126,6.452565670013428,-7.003094673156738,2.3433825969696045
1772881633747716000,11.963716064453125,6.381674766540527,-7.113677024841309,2.2000489234924316
1772881633757716000,11.973716064453125,6.307568073272705,-7.222659587860107,2.0538172721862793
1772881633767716000,11.983716064453125,6.235510349273682,-7.326523303985596,1.900224208831787
1772881633777716000,11.993716064453125,6.170074939727783,-7.4206061363220215,1.7421761751174927
1772881633787716000,12.003716064453124,6.109164237976074,-7.506915092468262,1.579472303390503
1772881633797716000,12.013716064453124,6.049731731414795,-7.588352203369141,1.4099828004837036
1772881633807716000,12.023716064453126,5.997169017791748,-7.662597179412842,1.2202246189117432
1772881633817716000,12.033716064453126,5.951931953430176,-7.726070880889893,1.0260175466537476
1772881633827716000,12.043716064453125,5.904423236846924,-7.783310890197754,0.8533759117126465
1772881633837716000,12.053716064453125,5.852177619934082,-7.836281776428223,0.7177003026008606
1772881633847716000,12.063716064453125,5.804926872253418,-7.879613399505615,0.6203969120979309
1772881633857716000,12.073716064453125,5.775957107543945,-7.90553617477417,0.5578566193580627
1772881633867716000,12.083716064453125,5.76276159286499,-7.916747570037842,0.534850001335144
1772881633877716000,12.093716064453124,5.753389358520508,-7.923035621643066,0.542589008808136
1772881633887716000,12.103716064453126,5.737796783447266,-7.932459831237793,0.5693409442901611
1772881633897716000,12.113716064453126,5.716575622558594,-7.945168972015381,0.6045059561729431
1772881633907716000,12.123716064453125,5.6949872970581055,-7.9577789306640625,0.6412997245788574
1772881633917716000,12.133716064453125,5.672791481018066,-7.969908714294434,0.6858433485031128
1772881633927716000,12.143716064453125,5.650951385498047,-7.980663299560547,0.7390169501304626
1772881633937716000,12.153716064453125,5.628656387329102,-7.9906392097473145,0.7989346385002136
1772881633947716000,12.163716064453125,5.60280704498291,-8.001860618591309,0.8655529022216797
1772881633957716000,12.173716064453124,5.5721025466918945,-8.015104293823242,0.9381714463233948
1772881633967716000,12.183716064453124,5.537202835083008,-8.029643058776855,1.0171563625335693
1772881633977716000,12.193716064453126,5.501563549041748,-8.042232513427734,1.1071090698242188
1772881633987716000,12.203716064453126,5.471548557281494,-8.04727840423584,1.2140240669250488
1772881633997716000,12.213716064453125,5.445003032684326,-8.04574203491211,1.3372979164123535
1772881634007716000,12.223716064453125,5.4195451736450195,-8.038681030273438,1.4759851694107056
1772881634017716000,12.233716064453125,5.399048805236816,-8.023903846740723,1.6240748167037964
1772881634027716000,12.243716064453125,5.385488033294678,-7.998599052429199,1.7858649492263794
1772881634037716000,12.253716064453124,5.375651836395264,-7.964055061340332,1.9612716436386108
1772881634047716000,12.263716064453124,5.371510028839111,-7.919224262237549,2.1454966068267822
1772881634057716000,12.273716064453126,5.375683784484863,-7.864194393157959,2.3295602798461914
1772881634067716000,12.283716064453126,5.38495397567749,-7.804004669189453,2.5040321350097656
1772881634077716000,12.293716064453125,5.396527290344238,-7.7414069175720215,2.6680519580841064
1772881634087716000,12.303716064453125,5.408194065093994,-7.67880916595459,2.8209424018859863
1772881634097716000,12.313716064453125,5.419985771179199,-7.6182756423950195,2.959056854248047
1772881634107716000,12.323716064453125,5.434415340423584,-7.559432029724121,3.080991268157959
1772881634117716000,12.333716064453125,5.454655647277832,-7.502562522888184,3.182560443878174
1772881634127716000,12.343716064453124,5.4820404052734375,-7.450200080871582,3.2576279640197754
1772881634137716000,12.353716064453126,5.514111042022705,-7.404308319091797,3.3077471256256104
1772881634147716000,12.363716064453126,5.546314239501953,-7.3645219802856445,3.3425452709198
1772881634157716000,12.373716064453125,5.577179431915283,-7.329366207122803,3.3683595657348633
1772881634167716000,12.383716064453125,5.606013298034668,-7.297534465789795,3.3895440101623535
1772881634177716000,12.393716064453125,5.633411407470703,-7.2682061195373535,3.407085657119751
1772881634187716000,12.403716064453125,5.662415504455566,-7.238308429718018,3.422621488571167
1772881634197716000,12.413716064453125,5.696751594543457,-7.205109119415283,3.4356677532196045
1772881634207716000,12.423716064453124,5.734195709228516,-7.167214393615723,3.4525961875915527
1772881634217716000,12.433716064453124,5.7693891525268555,-7.128374099731445,3.474308967590332
1772881634227716000,12.443716064453126,5.797008991241455,-7.090993881225586,3.5046937465667725
1772881634237716000,12.453716064453126,5.810366153717041,-7.055607795715332,3.553649663925171
1772881634247716000,12.463716064453125,5.824068546295166,-7.020516872406006,3.600410223007202
1772881634257716000,12.473716064453125,5.840314865112305,-6.9823808670043945,3.6479406356811523
1772881634267716000,12.483716064453125,5.8598952293396,-6.94097375869751,3.695254325866699
1772881634277716000,12.493716064453125,5.87958288192749,-6.898514747619629,3.7431795597076416
1772881634287716000,12.503716064453124,5.896265029907227,-6.856716156005859,3.7934014797210693
1772881634297716000,12.513716064453124,5.920749187469482,-6.81709098815918,3.8265368938446045
1772881634307716000,12.523716064453126,5.945038795471191,-6.783294677734375,3.848872661590576
1772881634317716000,12.533716064453126,5.958486080169678,-6.759103775024414,3.870572566986084
1772881634327716000,12.543716064453125,5.971343040466309,-6.741955757141113,3.8806538581848145
1772881634337716000,12.553716064453125,5.9817023277282715,-6.729609489440918,3.88612699508667
1772881634347716000,12.563716064453125,5.99310827255249,-6.717950344085693,3.888723850250244
1772881634357716000,12.573716064453125,6.009554862976074,-6.70629358291626,3.8834598064422607
1772881634367716000,12.583716064453125,6.03213357925415,-6.69425630569458,3.8691956996917725
1772881634377716000,12.593716064453124,6.059455394744873,-6.6807355880737305,3.849824905395508
1772881634387716000,12.603716064453126,6.089619159698486,-6.667492866516113,3.82511043548584
1772881634397716000,12.613716064453126,6.120760917663574,-6.657374858856201,3.7928900718688965
1772881634407716000,12.623716064453125,6.151381492614746,-6.651808738708496,3.752908945083618
1772881634417716000,12.633716064453125,6.180642127990723,-6.651317119598389,3.705404758453369
1772881634427716000,12.643716064453125,6.206635475158691,-6.65682315826416,3.651679515838623
1772881634437716000,12.653716064453125,6.230381011962891,-6.669180870056152,3.5881428718566895
1772881634447716000,12.663716064453125,6.250669479370117,-6.687603950500488,3.517879009246826
1772881634457716000,12.673716064453124,6.26544713973999,-6.710478782653809,3.447323799133301
1772881634467716000,12.683716064453124,6.274178504943848,-6.7353668212890625,3.3822951316833496
1772881634477716000,12.693716064453126,6.278655052185059,-6.758003234863281,3.328403949737549
1772881634487716000,12.703716064453126,6.280710220336914,-6.779962062835693,3.279508590698242
1772881634497716000,12.713716064453125,6.281754016876221,-6.802418231964111,3.2306432723999023
1772881634507716000,12.723716064453125,6.280838966369629,-6.827104091644287,3.1799511909484863
1772881634517716000,12.733716064453125,6.275428771972656,-6.8549370765686035,3.1303694248199463
1772881634527716000,12.743716064453125,6.263087272644043,-6.887934684753418,3.0822837352752686
1772881634537716000,12.753716064453124,6.2432451248168945,-6.92890739440918,3.030266046524048
1772881634547716000,12.763716064453124,6.217029094696045,-6.979941368103027,2.966369390487671
1772881634557716000,12.773716064453126,6.1840057373046875,-7.043048858642578,2.885120391845703
1772881634567716000,12.783716064453126,6.143789768218994,-7.118692398071289,2.7836031913757324
1772881634577716000,12.793716064453125,6.097614288330078,-7.204319953918457,2.662191152572632
1772881634587716000,12.803716064453125,6.044748783111572,-7.299307346343994,2.5202221870422363
1772881634597716000,12.813716064453125,5.984885215759277,-7.40211820602417,2.358003616333008
