time,seconds_elapsed,z,y,x
1772881621853305900,0.069305908203125,-0.22907429933547974,-0.10140355676412582,-0.6939423680305481
1772881621870651000,0.08665087890625,-0.4685332775115967,-0.10018182545900345,-0.6273581385612488
1772881621887996000,0.103995849609375,-0.7458658814430237,-0.1496618688106537,-0.2254091054201126
1772881621905341000,0.1213408203125,-0.8594867587089539,-0.09896009415388107,0.33169957995414734
1772881621922686000,0.13868603515625,-0.9272927641868591,-0.023212861269712448,0.9211840629577637
1772881621940031000,0.156031005859375,-0.8729257583618164,0.07757982611656189,1.3274091482162476
1772881621957376000,0.1733759765625,-0.6982184648513794,0.43860089778900146,1.459966778755188
1772881621974721000,0.190720947265625,-0.2834412455558777,0.5503891706466675,1.3445134162902832
1772881621992066000,0.208066162109375,0.08552107214927673,-0.0977383628487587,1.278540015220642
1772881622009411000,0.2254111328125,0.5729911923408508,0.01649334840476513,0.9773836731910706
1772881622026756000,0.242756103515625,0.5711585879325867,-0.27916520833969116,0.0769689604640007
1772881622044101000,0.26010107421875,0.5919279456138611,-0.7318159937858582,-0.8631519079208374
1772881622061446100,0.277446044921875,0.7929024696350098,-1.5974113941192627,-1.8820743560791016
1772881622078791200,0.294791259765625,1.1856884956359863,-1.1881320476531982,-3.103803873062134
1772881622096136200,0.31213623046875,1.1307107210159302,-1.045189619064331,-3.3719735145568848
1772881622113481200,0.329481201171875,0.28954991698265076,-1.099556565284729,-2.722013473510742
1772881622130826200,0.346826171875,-0.8124501705169678,-0.17531819641590118,-1.5845832824707031
1772881622148171300,0.364171142578125,-1.464242935180664,0.8729257583618164,-0.44409868121147156
1772881622165516300,0.381516357421875,-2.139859437942505,1.7446298599243164,0.618806004524231
1772881622182861300,0.398861328125,-2.522871494293213,1.9675954580307007,1.6218459606170654
1772881622200206300,0.416206298828125,-2.7513349056243896,1.9120067358016968,2.1691808700561523
1772881622217551400,0.43355126953125,-3.357923746109009,2.0573925971984863,2.4043638706207275
1772881622234896400,0.450896484375,-4.624857425689697,2.5686864852905273,2.4880521297454834
1772881622252241400,0.468241455078125,-6.387813091278076,3.236361503601074,2.478889226913452
1772881622269586400,0.48558642578125,-8.54050064086914,4.037816047668457,2.44468092918396
1772881622286931500,0.502931396484375,-10.411579132080078,4.989543437957764,2.6132795810699463
1772881622304276500,0.5202763671875,-11.817790031433105,5.681042671203613,3.0439391136169434
1772881622321621500,0.53762158203125,-12.65711784362793,6.020683288574219,3.5723371505737305
1772881622338966500,0.554966552734375,-13.256376266479492,6.3108439445495605,3.7568182945251465
1772881622356311600,0.5723115234375,-13.485450744628906,5.861247539520264,3.3035566806793213
1772881622373656600,0.589656494140625,-12.566099166870117,3.836230754852295,2.395200729370117
1772881622391001600,0.607001708984375,-10.419520378112793,2.3371686935424805,2.012188673019409
1772881622408346600,0.6243466796875,-7.819680213928223,1.0274745225906372,2.439182996749878
1772881622425691600,0.641691650390625,-5.676766395568848,0.5131264328956604,3.2394158840179443
1772881622443036700,0.65903662109375,-4.4440412521362305,0.22418737411499023,3.3799147605895996
1772881622460381700,0.676381591796875,-3.3011133670806885,-0.09529490768909454,2.7702717781066895
1772881622477726700,0.693726806640625,-1.8539745807647705,-0.29565855860710144,1.8026620149612427
1772881622495071700,0.71107177734375,-0.0824667438864708,0.1954767256975174,0.8686497211456299
1772881622512416800,0.728416748046875,1.6151264905929565,0.711046576499939,-0.01282816007733345
1772881622529761800,0.74576171875,2.316399335861206,0.8576541543006897,-1.229670763015747
1772881622547106800,0.76310693359375,2.561966896057129,0.7483093738555908,-1.2333359718322754
1772881622564451800,0.780451904296875,1.8106032609939575,1.1136064529418945,-0.9217949509620667
1772881622581796900,0.797796875,0.7531962990760803,1.8558071851730347,-0.500298261642456
1772881622599142000,0.815141845703125,0.7012727856636047,2.3005168437957764,-0.04459312930703163
1772881622616487000,0.83248681640625,1.2510510683059692,2.139859437942505,0.5302306413650513
1772881622633832000,0.84983203125,1.0305289030075073,1.4624103307724,1.5625921487808228
1772881622651177000,0.867177001953125,0.5375609993934631,1.896124243736267,0.7886264324188232
1772881622668522000,0.88452197265625,0.06291907280683517,0.9932661056518555,0.025045456364750862
1772881622685867000,0.901866943359375,0.593149721622467,1.0439679622650146,0.3689623177051544
1772881622703212000,0.9192119140625,1.201570987701416,0.5681042671203613,1.4373648166656494
1772881622720557000,0.93655712890625,1.1685843467712402,-0.6957749724388123,0.7067705392837524
1772881622737902000,0.953902099609375,1.3164136409759521,-1.3909391164779663,-0.05192350596189499
1772881622755247000,0.9712470703125,1.6255111694335938,-2.182008981704712,-0.9107993841171265
1772881622772592000,0.988592041015625,1.7177517414093018,-2.363435745239258,-1.0458004474639893
1772881622789937200,1.005937255859375,1.359174132347107,-2.4654502868652344,-1.3768892288208008
1772881622807282200,1.0232822265625,0.9621120095252991,-1.9596542119979858,-1.4850122928619385
1772881622824627200,1.040627197265625,0.8796452879905701,-0.9853248596191406,-0.3707949221134186
1772881622841972200,1.05797216796875,0.6695078015327454,-1.2431098222732544,-1.0567960739135742
1772881622859317200,1.075317138671875,1.288313865661621,-1.7525711059570312,-2.140470266342163
1772881622876662300,1.092662353515625,1.7721186876296997,-2.5717406272888184,-3.3707518577575684
1772881622894007300,1.11000732421875,2.813032388687134,-2.8423538208007812,-5.440972805023193
1772881622911352300,1.127352294921875,2.6725335121154785,-2.8099780082702637,-5.250382900238037
1772881622928697300,1.144697265625,1.811824917793274,-0.8710931539535522,-3.288896083831787
1772881622946042400,1.16204248046875,0.7263182401657104,1.4306453466415405,-0.3402516841888428
1772881622963387400,1.179387451171875,0.5198459029197693,2.9797983169555664,0.7061597108840942
1772881622980732400,1.196732421875,0.10140355676412582,2.442237377166748,0.430659681558609
1772881622998077400,1.214077392578125,0.11056652665138245,0.29016077518463135,-0.3390299379825592
1772881623015422500,1.23142236328125,0.018325943499803543,0.10384701192378998,-0.3384190797805786
1772881623032767200,1.248767333984375,-0.24006985127925873,1.609628677368164,-0.7342594861984253
1772881623050112500,1.266112548828125,-0.6750055551528931,1.9596542119979858,-3.28828501701355
1772881623067457300,1.283457275390625,-1.2693769931793213,-0.6676751971244812,-6.227155685424805
1772881623084802600,1.300802490234375,-1.0213658809661865,-1.8209879398345947,-5.8245954513549805
1772881623102147300,1.318147216796875,-1.6694934368133545,-0.6713404059410095,-3.3066110610961914
1772881623119492400,1.335492431640625,-2.6480987071990967,0.1081230640411377,-1.6884303092956543
1772881623136837400,1.35283740234375,-3.945575714111328,1.0482439994812012,-1.0500766038894653
1772881623154182400,1.370182373046875,-5.104386329650879,1.8417572975158691,-0.9230166673660278
1772881623171527700,1.387527587890625,-4.881420612335205,3.1673338413238525,-0.26022839546203613
1772881623188872400,1.40487255859375,-3.5613417625427246,1.9584324359893799,1.6957606077194214
1772881623206217500,1.422217529296875,-1.1172716617584229,-0.8032872080802917,3.8490588665008545
1772881623223562500,1.4395625,0.24251331388950348,-0.7342594861984253,4.745197772979736
1772881623240907500,1.456907470703125,0.7428115606307983,-0.33169957995414734,5.3884382247924805
1772881623258252500,1.47425244140625,-0.22785256803035736,-5.488008975982666,1.6279546022415161
1772881623275597600,1.49159765625,-0.3805687427520752,-2.1557416915893555,-0.6255255341529846
1772881623292942600,1.508942626953125,-1.0476330518722534,-1.6029092073440552,-0.9010255336761475
1772881623310287600,1.52628759765625,-1.5387684106826782,-0.02626718580722809,-0.5302306413650513
1772881623327632600,1.543632568359375,-2.5839579105377197,0.36651885509490967,-0.5790998339653015
1772881623344977700,1.560977783203125,-3.6700756549835205,0.6365211009979248,-0.6731730103492737
1772881623362322700,1.57832275390625,-5.157531261444092,1.51616632938385,-0.8142827749252319
1772881623379667700,1.595667724609375,-6.969967365264893,2.098931312561035,-0.36163195967674255
1772881623397012700,1.6130126953125,-7.450106620788574,2.4269657135009766,0.5955931544303894
1772881623414357800,1.630357666015625,-6.488605499267578,1.9669846296310425,0.8649845123291016
1772881623431702800,1.647702880859375,-4.319424629211426,0.029932374134659767,0.5681042671203613
1772881623449047800,1.6650478515625,-1.2443315982818604,-0.8912517428398132,-0.08613193035125732
1772881623466392800,1.682392822265625,0.2406807243824005,-1.0323615074157715,0.1496618688106537
1772881623483737900,1.69973779296875,-0.3646862804889679,-1.323133111000061,0.4007273018360138
1772881623501083000,1.717082763671875,-1.0836740732192993,-1.4404191970825195,0.5467239618301392
1772881623518428000,1.734427978515625,-1.0299180746078491,-1.6517783403396606,0.389120876789093
1772881623535773000,1.75177294921875,-0.7189878225326538,-1.1514800786972046,0.29626941680908203
1772881623553118000,1.769117919921875,-0.42271843552589417,-0.3799578845500946,0.10995566099882126
1772881623570463000,1.786462890625,-0.056810423731803894,0.23945899307727814,-0.1539379209280014
1772881623587808000,1.80380810546875,0.3133736252784729,0.9425643682479858,0.12034036219120026
1772881623605153000,1.821153076171875,0.647516667842865,1.4837905168533325,0.8521563410758972
1772881623622498000,1.838498046875,0.7635809779167175,0.924849271774292,1.4563016891479492
1772881623639843000,1.855843017578125,0.7867938280105591,0.013439024798572063,1.5033382177352905
1772881623657188000,1.87318798828125,0.740368127822876,-0.40317076444625854,1.5430444478988647
1772881623674533000,1.890533203125,0.16859868168830872,-1.2363903522491455,1.0653481483459473
1772881623691878100,1.907878173828125,-0.2926042377948761,-0.8277217745780945,0.0616973415017128
1772881623709223200,1.92522314453125,0.03787361457943916,-0.0030543238390237093,-0.24434591829776764
1772881623726568200,1.942568115234375,-0.043371398001909256,-0.05436696484684944,0.11606431007385254
1772881623743913000,1.959912841796875,-0.09285144507884979,-0.3451386094093323,0.1692095398902893
1772881623761258000,1.977258056640625,-0.17776164412498474,-2.05617094039917,-0.2620609998703003
1772881623778603000,1.99460302734375,-0.4379900395870209,-1.2724313735961914,-0.4318813979625702
1772881623795948000,2.011947998046875,-0.7195987105369568,-0.12156209349632263,-0.43493571877479553
1772881623813293000,2.02929296875,-0.2809978127479553,-0.49541133642196655,-0.4159989058971405
1772881623830638000,2.04663818359375,0.010995565913617611,-0.33231043815612793,-0.5021308660507202
1772881623847983000,2.063983154296875,0.1545487940311432,0.2657261788845062,-0.43371400237083435
1772881623865328000,2.081328125,-0.0360410213470459,0.21807873249053955,-0.003665188793092966
1772881623882673200,2.098673095703125,0.1545487940311432,0.01954767294228077,-0.04214967042207718
1772881623900018200,2.11601806640625,0.014660755172371864,0.01954767294228077,-0.06719512492418289
1772881623917363200,2.13336328125,-0.04520399495959282,0.09162971377372742,0.10690133273601532
1772881623934708200,2.150708251953125,-0.043371398001909256,0.1948658674955368,0.10567960888147354
1772881623952053200,2.16805322265625,-0.06352993845939636,0.12583814561367035,0.027488915249705315
1772881623969398300,2.185398193359375,-0.10995566099882126,-0.09529490768909454,-0.036651886999607086
1772881623986743300,2.202743408203125,-0.12522727251052856,-0.06536252796649933,-0.14477495849132538
1772881624004088300,2.22008837890625,-0.10690133273601532,0.16676609218120575,-0.0922405794262886
1772881624021433300,2.237433349609375,-0.19303326308727264,0.565049946308136,-0.04886918142437935
1772881624038778400,2.2547783203125,-0.28588470816612244,0.7195987105369568,-0.0818558782339096
1772881624056123400,2.272123291015625,-0.39400777220726013,0.6230821013450623,-0.05742128938436508
1772881624073468400,2.289468505859375,-0.5235111117362976,0.9541707634925842,0.0616973415017128
1772881624090813400,2.3068134765625,-0.7134900689125061,1.2736530303955078,0.21746785938739777
1772881624108158500,2.324158447265625,-1.0195332765579224,1.786779522895813,0.5607738494873047
1772881624125503500,2.34150341796875,-1.2877029180526733,2.011577606201172,1.0201442241668701
1772881624142848500,2.3588486328125,-1.2333359718322754,1.6853759288787842,1.2632683515548706
1772881624160193500,2.376193603515625,-0.8637627959251404,0.6988292932510376,1.2675443887710571
1772881624177538600,2.39353857421875,-0.3652971386909485,-0.5271763205528259,0.5369501113891602
1772881624194883600,2.410883544921875,0.20280711352825165,-1.2993093729019165,-0.7391464114189148
1772881624212228600,2.428228515625,-0.05558869615197182,-2.1306962966918945,-0.6976075768470764
1772881624229573400,2.445573486328125,0.36712974309921265,-0.6621774435043335,-0.21380266547203064
1772881624246918400,2.46291845703125,0.10079269111156464,-0.4428769648075104,-0.33597561717033386
1772881624264263400,2.480263427734375,0.22907429933547974,-0.6505709886550903,-0.5491674542427063
1772881624281608400,2.4976083984375,0.12278381735086441,-0.6218603253364563,-1.0042617321014404
1772881624298953500,2.514953369140625,0.06536252796649933,-0.7831286191940308,-1.8521419763565063
1772881624316298500,2.532298583984375,0.1740964651107788,0.11239911615848541,-2.533867120742798
1772881624333643500,2.5496435546875,0.1948658674955368,0.7336485981941223,-2.3799290657043457
1772881624350988500,2.566988525390625,0.11545344442129135,0.7006618976593018,-1.3164136409759521
1772881624368333600,2.58433349609375,0.10690133273601532,0.5809323787689209,0.010995565913617611
1772881624385678600,2.6016787109375,0.35124725103378296,0.9553925395011902,0.9914335608482361
1772881624403023600,2.619023681640625,0.7287616729736328,0.5913171172142029,1.536935806274414
1772881624420368600,2.63636865234375,0.3707949221134186,-0.6707295179367065,1.6591087579727173
1772881624437713700,2.653713623046875,-1.4483604431152344,-1.2828160524368286,0.33231043815612793
1772881624455058700,2.67105859375,-0.6517927050590515,1.5674790143966675,-0.8765909671783447
1772881624472403700,2.68840380859375,0.021380268037319183,1.5216641426086426,-1.2681553363800049
1772881624489748700,2.705748779296875,0.3121519088745117,0.1795942485332489,-0.12461641430854797
1772881624507093800,2.72309375,0.5754346251487732,-0.7141009569168091,1.1056652069091797
1772881624524438800,2.740438720703125,1.0928370952606201,-0.49968740344047546,2.480721950531006
1772881624541783800,2.75778369140625,0.9224058389663696,-1.135597586631775,2.601673126220703
1772881624559128800,2.77512890625,-0.4013381600379944,-0.8161153197288513,1.8643592596054077
1772881624576473900,2.792473876953125,-0.5076286196708679,0.6004800796508789,0.5485565662384033
1772881624593819000,2.80981884765625,-0.13133592903614044,0.4673115611076355,-0.35674503445625305
1772881624611164000,2.827163818359375,0.12644900381565094,0.6255255341529846,-0.5528326034545898
1772881624628509000,2.844509033203125,0.1288924664258957,0.3811796307563782,-0.2522871494293213
1772881624645854000,2.86185400390625,-0.021380268037319183,0.05253437161445618,0.08979712426662445
1772881624663199000,2.879198974609375,-0.10506874322891235,-0.024434590712189674,0.23762640357017517
1772881624680544000,2.8965439453125,-0.08063415437936783,0.05864302068948746,0.30604326725006104
1772881624697889000,2.913888916015625,-0.04520399495959282,0.17653992772102356,0.33658650517463684
1772881624715234000,2.931234130859375,0.006108647678047419,0.1386663019657135,0.28954991698265076
1772881624732579000,2.9485791015625,-0.08491020649671555,0.05803215503692627,0.20708316564559937
1772881624749923800,2.965923828125,-0.11545344442129135,0.03237583488225937,0.06475166976451874
1772881624767269000,2.98326904296875,-0.16004657745361328,0.05558869615197182,0.06963858753442764
1772881624784614000,3.00061376953125,-0.14233149588108063,0.0665842592716217,0.15027274191379547
1772881624801959000,3.017958984375,-0.23457208275794983,0.050090912729501724,0.2101374864578247
1772881624819304000,3.035303955078125,-0.4172206521034241,0.06841685622930527,0.19425499439239502
1772881624836649000,3.05264892578125,-0.49418962001800537,0.008552107028663158,0.23884813487529755
1772881624853994000,3.069993896484375,-0.4312705397605896,0.007330377586185932,0.3182605504989624
1772881624871339000,3.087339111328125,-0.4935787320137024,-0.06108647957444191,0.34574946761131287
1772881624888684000,3.10468408203125,-0.6969966888427734,-0.25961753726005554,0.2883281707763672
1772881624906029000,3.122029052734375,-0.8936951756477356,-0.287106454372406,0.30543237924575806
1772881624923374000,3.1393740234375,-0.998763918876648,-0.2724456787109375,0.4379900395870209
1772881624940719000,3.156718994140625,-1.007315993309021,-0.38850998878479004,0.471587598323822
1772881624958064000,3.174064208984375,-1.1899645328521729,-0.472198486328125,0.41355544328689575
1772881624975409200,3.1914091796875,-1.4636319875717163,-0.5729911923408508,0.2516762912273407
1772881624992754200,3.208754150390625,-1.545487880706787,-0.7037162184715271,0.1185077652335167
1772881625010099200,3.22609912109375,-0.9786053895950317,-1.0201442241668701,0.028099779039621353
1772881625027444200,3.2434443359375,-0.4465421438217163,-0.9260709881782532,0.12767073512077332
1772881625044789200,3.260789306640625,-0.40744680166244507,-0.49663305282592773,0.3445277214050293
1772881625062134300,3.27813427734375,-0.4013381600379944,-0.23945899307727814,0.5198459029197693
1772881625079479300,3.295479248046875,-0.45509424805641174,-0.27916520833969116,0.5064069032669067
1772881625096824300,3.31282421875,-0.5210676789283752,-0.33658650517463684,0.4050033390522003
1772881625114169300,3.33016943359375,-0.5137372612953186,-0.4984656572341919,0.3274235129356384
1772881625131514400,3.347514404296875,-0.5308414697647095,-0.5064069032669067,0.4159989058971405
1772881625148859400,3.364859375,-0.6291907429695129,-0.42882707715034485,0.5326740741729736
1772881625166204400,3.382204345703125,-0.6976075768470764,-0.3952295184135437,0.5112938284873962
1772881625183549400,3.399549560546875,-0.6866120100021362,-0.4367683231830597,0.4257727563381195
1772881625200894500,3.41689453125,-0.6145299673080444,-0.22235478460788727,0.6438514590263367
1772881625218239500,3.434239501953125,-0.5913171172142029,-0.2834412455558777,0.8381064534187317
1772881625235584500,3.45158447265625,-0.6352993845939636,-0.4318813979625702,1.0128138065338135
1772881625252929500,3.468929443359375,-0.6933315396308899,-0.48075059056282043,1.1594213247299194
1772881625270274600,3.486274658203125,-0.685390293598175,-0.37629270553588867,1.1246020793914795
1772881625287619600,3.50361962890625,-0.6090322136878967,-0.12522727251052856,1.0641264915466309
1772881625304964600,3.520964599609375,-0.5479456782341003,-0.021991131827235222,1.0317505598068237
1772881625322309400,3.538309326171875,-0.5009090900421143,-0.19242240488529205,0.9303470849990845
1772881625339654700,3.555654541015625,-0.37751442193984985,-0.11362084746360779,0.6548470258712769
1772881625356999400,3.57299951171875,-0.22663083672523499,-0.013439024798572063,0.4269944727420807
1772881625374344400,3.590344482421875,-0.17898337543010712,0.11056652665138245,0.2577849328517914
1772881625391689500,3.607689453125,-0.11545344442129135,0.17104214429855347,-0.0256563201546669
1772881625409034500,3.625034423828125,0.06536252796649933,0.2614501118659973,-0.35185810923576355
1772881625426379500,3.642379638671875,0.28588470816612244,0.5247328281402588,-0.6511818766593933
1772881625443724500,3.659724609375,0.4770853817462921,0.7434224486351013,-0.915075421333313
1772881625461069600,3.677069580078125,0.5687150955200195,0.8588758707046509,-1.0873392820358276
1772881625478414600,3.69441455078125,0.5900954008102417,0.8833104968070984,-1.145371437072754
1772881625495759600,3.711759521484375,0.4770853817462921,0.7757982611656189,-1.0757328271865845
1772881625513104600,3.729104736328125,0.2968802750110626,0.6169734001159668,-0.9077450633049011
1772881625530449700,3.74644970703125,0.13011419773101807,0.500298261642456,-0.6835576891899109
1772881625547794700,3.763794677734375,-0.06597339361906052,0.42882707715034485,-0.5106829404830933
1772881625565139700,3.7811396484375,-0.23945899307727814,0.3842339515686035,-0.4202749729156494
1772881625582484700,3.798484619140625,-0.32681265473365784,0.2987128794193268,-0.4147771894931793
1772881625599829800,3.815829833984375,-0.35796675086021423,0.2510654330253601,-0.44959646463394165
1772881625617174800,3.8331748046875,-0.268169641494751,0.40255987644195557,-0.545502245426178
1772881625634519800,3.850519775390625,-0.2577849328517914,0.6004800796508789,-0.667064368724823
1772881625651864800,3.86786474609375,-0.10567960888147354,0.5711585879325867,-0.7806851863861084
1772881625669209900,3.8852099609375,0.05192350596189499,0.5497782826423645,-0.8167262077331543
1772881625686555000,3.902554931640625,0.06719512492418289,0.7770199775695801,-0.7202095985412598
1772881625703900000,3.91989990234375,-0.013439024798572063,1.0977239608764648,-0.4477638900279999
1772881625721245000,3.937244873046875,-0.13439024984836578,1.4159845113754272,-0.16554436087608337
1772881625738590000,3.95458984375,-0.10934479534626007,1.442862629890442,0.03909534588456154
1772881625755935000,3.97193505859375,-0.010384701192378998,1.1398736238479614,0.13744457066059113
1772881625773280000,3.989280029296875,0.053756099194288254,0.5088503360748291,0.19181154668331146
1772881625790625000,4.006625,0.031154103577136993,0.17104214429855347,0.2156352698802948
1772881625807970000,4.023969970703125,0.09407317638397217,0.10934479534626007,0.10567960888147354
1772881625825315000,4.041315185546875,0.13072505593299866,-0.08002328872680664,-0.0665842592716217
1772881625842660000,4.05866015625,0.04214967042207718,-0.31459537148475647,-0.18875721096992493
1772881625860005000,4.076005126953125,-0.0513126403093338,-0.32009315490722656,-0.42332929372787476
1772881625877350100,4.09335009765625,-0.22968515753746033,-0.2162461280822754,-0.5119046568870544
1772881625894695200,4.110695068359375,-0.3341430425643921,-0.3292561173439026,-0.3347539007663727
1772881625912040200,4.128040283203125,-0.40866854786872864,-0.38789913058280945,-0.1649334877729416
1772881625929385200,4.14538525390625,-0.4838049113750458,-0.43493571877479553,-0.2254091054201126
1772881625946730200,4.162730224609375,-0.5601630210876465,-0.45509424805641174,-0.3946186602115631
1772881625964075300,4.1800751953125,-0.5326740741729736,-0.5400044918060303,-0.5314523577690125
1772881625981420000,4.197419921875,-0.4416552484035492,-0.7049379348754883,-0.5070177912712097
1772881625998765000,4.21476513671875,-0.40317076444625854,-0.7189878225326538,-0.3249800503253937
1772881626016110300,4.2321103515625,-0.4068359434604645,-0.5241219997406006,-0.056810423731803894
1772881626033455400,4.249455322265625,-0.44898560643196106,-0.33719736337661743,0.21135921776294708
1772881626050800400,4.26680029296875,-0.5589412450790405,-0.2205221801996231,0.3139844834804535
1772881626068145200,4.284145263671875,-0.6352993845939636,-0.3451386094093323,0.287106454372406
1772881626085490200,4.301490234375,-0.6792816519737244,-0.5277871489524841,0.31520622968673706
1772881626102835200,4.318835205078125,-0.7086031436920166,-0.2938259541988373,0.40255987644195557
1772881626120180200,4.33618017578125,-0.7275399565696716,0.02626718580722809,0.4196641147136688
1772881626137525200,4.353525146484375,-0.711046576499939,-0.010995565913617611,0.4050033390522003
1772881626154870300,4.370870361328125,-0.62857985496521,-0.10690133273601532,0.4838049113750458
1772881626172215300,4.38821533203125,-0.4630354940891266,-0.07086031138896942,0.6310232877731323
1772881626189560300,4.405560302734375,-0.4007273018360138,-0.17287473380565643,0.7079922556877136
1772881626206905300,4.4229052734375,-0.4416552484035492,-0.2101374864578247,0.7849612236022949
1772881626224250400,4.44025048828125,-0.5131264328956604,-0.13744457066059113,0.851545512676239
1772881626241595400,4.457595458984375,-0.5430588126182556,-0.08429934084415436,0.8106175661087036
1772881626258940400,4.4749404296875,-0.5100721120834351,-0.09834922850131989,0.6548470258712769
1772881626276285400,4.492285400390625,-0.48502662777900696,0.16676609218120575,0.4868592321872711
1772881626293630500,4.50963037109375,-0.5112938284873962,0.2412915825843811,0.2926042377948761
1772881626310975500,4.5269755859375,-0.5021308660507202,0.12705987691879272,0.13194678723812103
1772881626328320500,4.544320556640625,-0.40805765986442566,0.28466299176216125,-0.1185077652335167
1772881626345665500,4.56166552734375,-0.31459537148475647,0.318871408700943,-0.29016077518463135
1772881626363010600,4.579010498046875,-0.25045454502105713,0.37751442193984985,-0.46914416551589966
1772881626380355600,4.59635546875,-0.17287473380565643,0.45937031507492065,-0.7012727856636047
1772881626397700600,4.61370068359375,-0.08979712426662445,0.5564978122711182,-0.9657772183418274
1772881626415045600,4.631045654296875,-0.028099779039621353,0.6493492722511292,-1.1594213247299194
1772881626432390700,4.648390625,0.029932374134659767,0.7073814272880554,-1.2614357471466064
1772881626449735700,4.665735595703125,0.07086031138896942,0.729983389377594,-1.3103049993515015
1772881626467080700,4.683080810546875,0.10201441496610641,0.7959567904472351,-1.2424989938735962
1772881626484425700,4.70042578125,0.10140355676412582,0.730594277381897,-1.1136064529418945
1772881626501770800,4.717770751953125,0.06780599057674408,0.6126973628997803,-1.0299180746078491
1772881626519115800,4.73511572265625,0.06291907280683517,0.6511818766593933,-0.9663881063461304
1772881626536460800,4.752460693359375,0.08796452730894089,0.851545512676239,-0.8765909671783447
1772881626553805800,4.769805908203125,0.10140355676412582,0.934012234210968,-0.7849612236022949
1772881626571150800,4.78715087890625,0.09834922850131989,0.8277217745780945,-0.7189878225326538
1772881626588496000,4.804495849609375,0.1496618688106537,0.6811142563819885,-0.7910698652267456
1772881626605841000,4.8218408203125,0.11667517572641373,0.6078104376792908,-0.972496747970581
1772881626623186000,4.83918603515625,0.21258094906806946,0.8753692507743835,-1.0610721111297607
1772881626640531000,4.856531005859375,0.30970844626426697,1.0042617321014404,-1.0225876569747925
1772881626657876000,4.8738759765625,0.27855435013771057,0.9804379940032959,-0.998153030872345
1772881626675221000,4.891220947265625,0.19853104650974274,1.4685189723968506,-0.48991355299949646
1772881626692566000,4.90856591796875,0.01893680728971958,1.3842196464538574,-0.06230820715427399
1772881626709911000,4.9259111328125,0.0513126403093338,1.1850776672363281,0.06230820715427399
1772881626727256000,4.943256103515625,0.029932374134659767,0.9071341753005981,-0.09285144507884979
1772881626744601000,4.96060107421875,-0.09957095980644226,0.7128791809082031,-0.20402882993221283
1772881626761946000,4.977946044921875,-0.26511532068252563,0.8118392825126648,-0.28527384996414185
1772881626779291100,4.995291015625,-0.35735589265823364,0.9016364216804504,-0.3549124300479889
1772881626796636200,5.01263623046875,-0.36224281787872314,0.8826996088027954,-0.4520399272441864
1772881626813981200,5.029981201171875,-0.5076286196708679,0.8698714375495911,-0.462424635887146
1772881626831326200,5.047326171875,-0.6322450637817383,0.7415898442268372,-0.38301220536231995
1772881626848671200,5.064671142578125,-0.7006618976593018,0.5106829404830933,-0.3402516841888428
1772881626866016300,5.082016357421875,-0.7507528066635132,0.22968515753746033,-0.360410213470459
1772881626883361300,5.099361328125,-0.7360920310020447,-0.0824667438864708,-0.43860089778900146
1772881626900706300,5.116706298828125,-0.657290518283844,-0.3756818473339081,-0.5778780579566956
1772881626918051300,5.13405126953125,-0.6548470258712769,-0.49113526940345764,-0.627968966960907
1772881626935396400,5.151396240234375,-0.6701186895370483,-0.5174024701118469,-0.5369501113891602
1772881626952741400,5.168741455078125,-0.648127555847168,-0.41294458508491516,-0.46608981490135193
1772881626970086400,5.18608642578125,-0.5253437161445618,-0.030543239787220955,-0.42332929372787476
1772881626987431400,5.203431396484375,-0.389120876789093,0.4673115611076355,-0.24923282861709595
1772881627004776200,5.220776123046875,-0.35063639283180237,0.7055488228797913,0.06719512492418289
1772881627022121500,5.23812158203125,-0.46914416551589966,0.6963858604431152,0.4422661066055298
1772881627039466500,5.255466552734375,-0.5919279456138611,0.56382817029953,0.6462949514389038
1772881627056811500,5.2728115234375,-0.6524035930633545,0.3756818473339081,0.5876519083976746
1772881627074156300,5.29015625,-0.6065887212753296,0.20158538222312927,0.47525280714035034
1772881627091501300,5.307501220703125,-0.5216785073280334,0.03848448023200035,0.46914416551589966
1772881627108846300,5.324846435546875,-0.5235111117362976,-0.1637117564678192,0.7312051653862
1772881627126191600,5.342191650390625,-0.6090322136878967,-0.29993459582328796,1.158199667930603
1772881627143536400,5.359536376953125,-0.6108647584915161,-0.06780599057674408,1.5265511274337769
1772881627160881700,5.376881591796875,-0.6224712133407593,-0.0977383628487587,1.525329351425171
1772881627178226700,5.394226806640625,-0.5485565662384033,-0.06047561392188072,1.3848304748535156
1772881627195571500,5.411571533203125,-0.49663305282592773,0.04825831577181816,1.3365721702575684
1772881627212916700,5.428916748046875,-0.5290089249610901,0.13194678723812103,1.3671153783798218
1772881627230261500,5.446261474609375,-0.5320632457733154,0.1954767256975174,1.1801908016204834
1772881627247606500,5.4636064453125,-0.37262752652168274,0.2211330533027649,0.8668171167373657
1772881627264951600,5.48095166015625,-0.28527384996414185,0.4874700903892517,0.5131264328956604
1772881627282296800,5.498296875,-0.1747073233127594,0.7049379348754883,0.08429934084415436
1772881627299641600,5.5156416015625,-0.08491020649671555,0.8668171167373657,-0.3597993552684784
1772881627316987000,5.53298681640625,-0.000610864779446274,1.0060943365097046,-0.8381064534187317
1772881627334331600,5.55033154296875,0.14172062277793884,1.1991275548934937,-1.2858703136444092
1772881627351676700,5.5676767578125,0.27488914132118225,1.3573415279388428,-1.7299690246582031
1772881627369022000,5.58502197265625,0.3787361681461334,1.3182462453842163,-2.0891575813293457
1772881627386366700,5.60236669921875,0.5314523577690125,1.18446683883667,-2.0195188522338867
1772881627403712000,5.6197119140625,0.5241219997406006,0.9089667797088623,-1.4159845113754272
1772881627421056800,5.637056884765625,0.24984370172023773,0.45448338985443115,-0.6969966888427734
1772881627438402000,5.654402099609375,0.043982263654470444,0.2565632164478302,-0.16310089826583862
1772881627455746800,5.671746826171875,0.010384701192378998,0.25411975383758545,0.09957095980644226
1772881627473091800,5.689091796875,0.020769402384757996,0.4526508152484894,0.05925388261675835
1772881627490436900,5.706436767578125,0.11178825795650482,0.7623592615127563,-0.25411975383758545
1772881627507782000,5.723781982421875,0.2205221801996231,1.0189224481582642,-0.6047561168670654
1772881627525127000,5.741126953125,0.3121519088745117,1.1417062282562256,-0.9456186890602112
1772881627542472000,5.758471923828125,0.4685332775115967,1.3121376037597656,-1.202792763710022
1772881627559817000,5.77581689453125,0.6133082509040833,1.5888593196868896,-1.275485634803772
1772881627577162000,5.793161865234375,0.6334667801856995,1.8924590349197388,-1.2388337850570679
1772881627594507000,5.810507080078125,0.5503891706466675,2.2314889430999756,-0.9138537049293518
1772881627611852000,5.82785205078125,0.2974911332130432,2.1612396240234375,-0.3634645342826843
1772881627629197000,5.845197021484375,0.05864302068948746,1.2302817106246948,-0.04459312930703163
1772881627646542000,5.8625419921875,-0.06963858753442764,0.30604326725006104,0.15515965223312378
1772881627663887000,5.87988720703125,-0.15027274191379547,0.03298669680953026,0.04520399495959282
1772881627681232100,5.897232177734375,-0.16737695038318634,0.09162971377372742,-0.21258094906806946
1772881627698577200,5.9145771484375,-0.17226386070251465,-0.08491020649671555,-0.24740023910999298
1772881627715922200,5.931922119140625,-0.3231474757194519,-0.3341430425643921,-0.15027274191379547
1772881627733267200,5.94926708984375,-0.6261364221572876,-0.3970620930194855,-0.1692095398902893
1772881627750612200,5.9666123046875,-0.7354812026023865,-0.4783071279525757,-0.06963858753442764
1772881627767957200,5.983957275390625,-0.7104357481002808,-0.47525280714035034,0.09468404203653336
1772881627785302300,6.00130224609375,-0.8301652073860168,-0.5467239618301392,0.1954767256975174
1772881627802647300,6.018647216796875,-0.9089667797088623,-0.7519745230674744,0.14294235408306122
1772881627819992300,6.035992431640625,-0.9401208758354187,-0.9053016304969788,0.0769689604640007
1772881627837337300,6.05333740234375,-0.9608902931213379,-0.9944878816604614,0.1844811588525772
1772881627854682400,6.070682373046875,-0.9010255336761475,-1.0641264915466309,0.40927940607070923
1772881627872027400,6.08802734375,-0.7977893948554993,-1.1362085342407227,0.6805033683776855
1772881627889372400,6.105372314453125,-0.8533781170845032,-1.2174534797668457,0.8717040419578552
1772881627906717400,6.122717529296875,-0.9682206511497498,-1.0286962985992432,0.7794634699821472
1772881627924062500,6.1400625,-0.8167262077331543,-0.6053670048713684,0.4679224193096161
1772881627941407500,6.157407470703125,-0.6169734001159668,-0.3646862804889679,0.22174391150474548
1772881627958752500,6.17475244140625,-0.48930269479751587,-0.1893680840730667,0.21868959069252014
1772881627976097500,6.19209765625,-0.3659079968929291,-0.0513126403093338,0.35674503445625305
1772881627993442600,6.209442626953125,-0.45387253165245056,0.10140355676412582,0.5387827157974243
1772881628010787600,6.22678759765625,-0.6017017960548401,0.2883281707763672,0.7971785664558411
1772881628028132600,6.244132568359375,-0.5882627964019775,0.29993459582328796,1.0305289030075073
1772881628045477600,6.2614775390625,-0.328645259141922,0.2571740746498108,1.1313215494155884
1772881628062822700,6.27882275390625,-0.1588248461484909,-0.12095122784376144,1.0525200366973877
1772881628080167700,6.296167724609375,-0.13683371245861053,-0.5387827157974243,1.01708984375
1772881628097512700,6.3135126953125,-0.13744457066059113,-0.24434591829776764,1.008537769317627
1772881628114857700,6.330857666015625,-0.21380266547203064,-0.20280711352825165,1.119104266166687
1772881628132202800,6.34820263671875,-0.22785256803035736,-0.13683371245861053,1.135597586631775
1772881628149547800,6.3655478515625,-0.21258094906806946,0.04459312930703163,0.9908226728439331
1772881628166892800,6.382892822265625,-0.12950333952903748,0.379347026348114,0.711046576499939
1772881628184237800,6.40023779296875,0.03787361457943916,0.5754346251487732,0.26511532068252563
1772881628201582800,6.417582763671875,0.2315177470445633,0.8265000581741333,-0.3488037884235382
1772881628218927900,6.434927978515625,0.2730565667152405,1.0873392820358276,-0.8717040419578552
1772881628236273000,6.45227294921875,0.20708316564559937,1.3054180145263672,-1.2651009559631348
1772881628253618000,6.469617919921875,0.10629047453403473,1.1777472496032715,-1.0983349084854126
1772881628270963000,6.486962890625,-0.11484257876873016,0.8552106618881226,-0.3848448097705841
1772881628288308000,6.504307861328125,-0.3341430425643921,0.6731730103492737,0.1899789422750473
1772881628305653000,6.521653076171875,-0.4563159942626953,0.6181951761245728,0.3445277214050293
1772881628322998000,6.538998046875,-0.40744680166244507,0.5687150955200195,-0.05253437161445618
1772881628340343000,6.556343017578125,-0.30970844626426697,0.5852084755897522,-0.627968966960907
1772881628357688000,6.57368798828125,-0.22357651591300964,0.6249146461486816,-1.1026109457015991
1772881628375033000,6.591033203125,-0.08796452730894089,0.9608902931213379,-1.3994911909103394
1772881628392378000,6.608378173828125,0.0256563201546669,1.1716386079788208,-1.5668681859970093
1772881628409723100,6.62572314453125,0.04520399495959282,1.3616175651550293,-1.655443549156189
1772881628427068200,6.643068115234375,-0.007941242307424545,1.7629557847976685,-1.5204424858093262
1772881628444413200,6.6604130859375,-0.08857539296150208,2.017075538635254,-1.2980875968933105
1772881628461758200,6.67775830078125,-0.17837251722812653,2.084881544113159,-0.9407317638397217
1772881628479103200,6.695103271484375,-0.2205221801996231,2.2064435482025146,-0.49418962001800537
1772881628496448300,6.7124482421875,-0.15515965223312378,1.6927063465118408,-0.4740310609340668
1772881628513793300,6.729793212890625,0.013439024798572063,1.0916153192520142,-0.5693259835243225
1772881628531138300,6.74713818359375,-0.0824667438864708,0.637742817401886,-0.5693259835243225
1772881628548483300,6.7644833984375,-0.43860089778900146,0.4990765154361725,-0.4062250852584839
1772881628565828400,6.781828369140625,-0.6982184648513794,0.24923282861709595,-0.24740023910999298
1772881628583173400,6.79917333984375,-0.7929024696350098,-0.21868959069252014,-0.029932374134659767
1772881628600518400,6.816518310546875,-0.8765909671783447,-0.4172206521034241,0.036651886999607086
1772881628617863400,6.833863525390625,-0.9297361969947815,-0.45326167345046997,-0.10995566099882126
1772881628635208400,6.85120849609375,-0.9944878816604614,-0.370184063911438,-0.3017672002315521
1772881628652553500,6.868553466796875,-0.9663881063461304,-0.3964512348175049,-0.4269944727420807
1772881628669898500,6.8858984375,-0.8680388331413269,-0.45326167345046997,-0.3341430425643921
1772881628687243500,6.903243408203125,-0.822834849357605,-0.7354812026023865,-0.17348559200763702
1772881628704588500,6.920588623046875,-0.9285144805908203,-1.2339468002319336,0.01282816007733345
1772881628721933600,6.93793359375,-1.1661409139633179,-1.6523892879486084,0.22907429933547974
1772881628739278600,6.955278564453125,-1.2253947257995605,-1.6994258165359497,0.4147771894931793
1772881628756623600,6.97262353515625,-0.9645555019378662,-1.1630865335464478,0.5516108870506287
1772881628773968600,6.98996875,-0.6243038177490234,-0.4868592321872711,0.5949822664260864
1772881628791313700,7.007313720703125,-0.23273947834968567,-0.2614501118659973,0.48502662777900696
1772881628808658700,7.02465869140625,0.07147117704153061,-0.11667517572641373,0.49052441120147705
1772881628826003700,7.042003662109375,0.2516762912273407,0.06352993845939636,0.7556397318840027
1772881628843348700,7.0593486328125,0.18264856934547424,0.12950333952903748,1.0262528657913208
1772881628860693800,7.07669384765625,-0.02932151034474373,0.018325943499803543,1.091004490852356
1772881628878038800,7.094038818359375,-0.13744457066059113,-0.24251331388950348,0.9034690260887146
1772881628895383800,7.1113837890625,0.009162971749901772,-0.34208428859710693,0.8778126835823059
1772881628912728800,7.128728759765625,0.31642794609069824,-0.12278381735086441,0.7312051653862
1772881628930073900,7.146073974609375,0.46364638209342957,-0.164322629570961,0.6530144214630127
1772881628947419000,7.1634189453125,0.21685700118541718,-0.1386663019657135,0.6010909676551819
1772881628964764000,7.180763916015625,-0.13683371245861053,-0.17531819641590118,0.5479456782341003
1772881628982109000,7.19810888671875,-0.3298669755458832,-0.08613193035125732,0.8063415288925171
1772881628999454000,7.215453857421875,-0.45998117327690125,0.11972949653863907,1.072678565979004
1772881629016799000,7.232799072265625,-0.4563159942626953,0.15699224174022675,1.0128138065338135
1772881629034144000,7.25014404296875,-0.24556763470172882,0.3848448097705841,0.6334667801856995
1772881629051489000,7.267489013671875,-0.000610864779446274,0.5882627964019775,0.1905898153781891
1772881629068834000,7.284833984375,0.14599667489528656,0.8833104968070984,-0.2156352698802948
1772881629086179000,7.302178955078125,0.028099779039621353,0.9358448386192322,-0.48930269479751587
1772881629103524000,7.319524169921875,-0.23273947834968567,0.8283326625823975,-0.3121519088745117
1772881629120869000,7.336869140625,-0.5125155448913574,0.6682860851287842,0.1496618688106537
1772881629138214100,7.354214111328125,-0.7098248600959778,0.5235111117362976,0.4563159942626953
1772881629155559200,7.37155908203125,-0.750141978263855,0.5033525824546814,0.5387827157974243
1772881629172904200,7.388904296875,-0.6004800796508789,0.7018836140632629,0.3750709891319275
1772881629190249200,7.406249267578125,-0.4581485986709595,1.0317505598068237,-0.034208428114652634
1772881629207594200,7.42359423828125,-0.3652971386909485,1.2815942764282227,-0.6352993845939636
1772881629224939300,7.440939208984375,-0.28038692474365234,1.4453060626983643,-1.2516618967056274
1772881629242284300,7.4582841796875,-0.1899789422750473,1.5094468593597412,-1.654221773147583
1772881629259629300,7.47562939453125,-0.0922405794262886,1.7049236297607422,-1.7440189123153687
1772881629276974300,7.492974365234375,-0.10140355676412582,2.123976945877075,-1.563202977180481
1772881629294319400,7.5103193359375,-0.05925388261675835,2.335946798324585,-1.5015056133270264
1772881629311664400,7.527664306640625,0.04825831577181816,2.740950345993042,-1.470962405204773
1772881629329009400,7.545009521484375,0.2712239623069763,3.4080145359039307,-1.36772620677948
1772881629346354400,7.5623544921875,0.2406807243824005,2.9107706546783447,-1.32985258102417
1772881629363699500,7.579699462890625,-0.22174391150474548,1.7971642017364502,-0.6829468011856079
1772881629381044500,7.59704443359375,-0.7037162184715271,0.42882707715034485,-0.13561198115348816
1772881629398389500,7.614389404296875,-0.8936951756477356,0.17165300250053406,-0.235793799161911
1772881629415734500,7.631734619140625,-0.7971785664558411,0.10140355676412582,-0.36712974309921265
1772881629433079600,7.64907958984375,-0.7330377101898193,0.043982263654470444,-0.4783071279525757
1772881629450424600,7.666424560546875,-0.8008437156677246,-0.06291907280683517,-0.5021308660507202
1772881629467769600,7.68376953125,-0.9944878816604614,-0.2669478952884674,-0.4508182108402252
1772881629485114600,7.701114501953125,-1.2724313735961914,-0.49052441120147705,-0.22785256803035736
1772881629502459600,7.718459716796875,-1.3952151536941528,-0.6023126840591431,-0.039706211537122726
1772881629519804700,7.7358046875,-1.2724313735961914,-0.711046576499939,0.04459312930703163
1772881629537149700,7.753149658203125,-1.1997383832931519,-1.0641264915466309,0.19425499439239502
1772881629554494700,7.77049462890625,-1.2076796293258667,-1.6810998916625977,0.45875945687294006
1772881629571839700,7.78783984375,-1.1936297416687012,-2.153909206390381,0.7916807532310486
1772881629589184800,7.805184814453125,-1.148425817489624,-1.9272783994674683,1.2901464700698853
1772881629606529800,7.82252978515625,-0.9364557266235352,-1.4080432653427124,1.6426154375076294
1772881629623874800,7.839874755859375,-0.5925388336181641,-1.1013891696929932,1.5118902921676636
1772881629641219800,7.8572197265625,-0.1740964651107788,-0.9578359723091125,1.2693769931793213
1772881629658564900,7.87456494140625,0.19669845700263977,-0.8588758707046509,1.1887428760528564
1772881629675910000,7.891909912109375,0.5540543794631958,-0.80389803647995,1.0219768285751343
1772881629693255000,7.9092548828125,0.9004147052764893,-0.6780598759651184,0.5949822664260864
1772881629710600000,7.926599853515625,1.2541054487228394,-0.5045742988586426,0.3799578845500946
1772881629727945000,7.943945068359375,1.3103049993515015,-0.2528980076313019,0.18570289015769958
1772881629745290000,7.9612900390625,0.9896009564399719,-0.3274235129356384,0.12156209349632263
1772881629762635000,7.978635009765625,0.6200277805328369,-0.5766563415527344,0.12095122784376144
1772881629779980000,7.99597998046875,0.4465421438217163,-0.6035344004631042,0.18387030065059662
1772881629797325300,8.0133251953125,0.3249800503253937,-0.29443681240081787,0.3225366175174713
1772881629814670300,8.03067041015625,0.09651663154363632,0.3695732057094574,0.34208428859710693
1772881629832015400,8.048015380859376,0.07330377399921417,0.8539889454841614,-0.10506874322891235
1772881629849360400,8.0653603515625,0.18081597983837128,1.1685843467712402,-0.4825831651687622
1772881629866705400,8.082705322265625,0.16798780858516693,1.3237439393997192,-0.49663305282592773
1772881629884050400,8.100050537109375,0.08674279600381851,1.3854413032531738,-0.37262752652168274
1772881629901395500,8.1173955078125,0.053145237267017365,1.397047758102417,-0.4050033390522003
1772881629918740500,8.134740478515624,0.010995565913617611,1.377500057220459,-0.536339282989502
1772881629936085500,8.15208544921875,-0.053756099194288254,1.3921607732772827,-0.6676751971244812
1772881629953430500,8.169430419921875,-0.14660754799842834,1.4049890041351318,-0.7745765447616577
1772881629970775600,8.186775634765626,-0.22907429933547974,1.2919789552688599,-0.9279035925865173
1772881629988120600,8.20412060546875,-0.24923282861709595,1.128878116607666,-1.0134246349334717
1772881630005465600,8.221465576171875,-0.14538581669330597,0.998153030872345,-0.9663881063461304
1772881630022810600,8.238810546875,0.05253437161445618,1.0048725605010986,-0.759304940700531
1772881630040155600,8.25615576171875,0.42455101013183594,1.1142174005508423,-0.7672461867332458
1772881630057500700,8.273500732421875,0.7318159937858582,0.9749401807785034,-0.9120211005210876
1772881630074845700,8.290845703125,0.8381064534187317,0.8649845123291016,-1.0201442241668701
1772881630092190700,8.308190673828125,0.7874047160148621,1.0519092082977295,-1.01708984375
1772881630109535700,8.32553564453125,0.7721330523490906,1.470962405204773,-0.988990068435669
1772881630126880800,8.342880859375,0.841160774230957,1.820376992225647,-1.0060943365097046
1772881630144225800,8.360225830078125,0.833219587802887,2.0641121864318848,-1.0543526411056519
1772881630161570800,8.37757080078125,0.8576541543006897,2.7140722274780273,-0.9211840629577637
1772881630178915800,8.394915771484374,0.676227331161499,2.456287384033203,-0.7269290685653687
1772881630196260900,8.4122607421875,0.3451386094093323,1.536935806274414,-0.40805765986442566
1772881630213606000,8.42960595703125,0.15027274191379547,0.472198486328125,-0.0769689604640007
1772881630230951000,8.446950927734376,-0.026878049597144127,0.10445787757635117,-0.13194678723812103
1772881630248296000,8.4642958984375,-0.16249002516269684,0.205861434340477,-0.4251618981361389
1772881630265641000,8.481640869140625,-0.24495677649974823,0.3995055556297302,-0.6078104376792908
1772881630282986000,8.498986083984375,-0.2926042377948761,0.43371400237083435,-0.5131264328956604
1772881630300331000,8.5163310546875,-0.328645259141922,-0.013439024798572063,-0.4361574649810791
1772881630317676000,8.533676025390625,-0.35124725103378296,-0.37140578031539917,-0.4825831651687622
1772881630335021000,8.55102099609375,-0.4153880476951599,-0.627968966960907,-0.5057960152626038
1772881630352366000,8.568365966796875,-0.5699368119239807,-0.7189878225326538,-0.3903425931930542
1772881630369711000,8.585711181640624,-0.657290518283844,-0.850934624671936,-0.17165300250053406
1772881630387056000,8.60305615234375,-0.6359102129936218,-0.9908226728439331,-0.001221729558892548
1772881630404401200,8.620401123046875,-0.7165443897247314,-1.4483604431152344,0.06414080411195755
1772881630421746200,8.63774609375,-0.7660244107246399,-1.988364815711975,0.018325943499803543
1772881630439091200,8.65509130859375,-0.8124501705169678,-2.006690740585327,0.036651886999607086
1772881630456436200,8.672436279296875,-0.7715222239494324,-1.4605777263641357,0.22846342623233795
1772881630473781200,8.68978125,-0.6444623470306396,-0.8729257583618164,0.44470956921577454
1772881630491126300,8.707126220703126,-0.47586366534233093,-0.5345066785812378,0.7874047160148621
1772881630508471300,8.72447119140625,-0.34086254239082336,-0.462424635887146,0.9669989347457886
1772881630525816300,8.74181640625,-0.1997527778148651,-0.4838049113750458,0.9810488224029541
1772881630543161300,8.759161376953125,-0.0616973415017128,-0.45326167345046997,0.924849271774292
1772881630560506400,8.77650634765625,0.04764745384454727,-0.41783151030540466,0.8405499458312988
1772881630577851400,8.793851318359375,0.12278381735086441,-0.47097674012184143,0.6414080262184143
1772881630595196400,8.811196533203125,0.2254091054201126,-0.8936951756477356,0.3799578845500946
1772881630612541400,8.82854150390625,0.35063639283180237,-0.9388991594314575,0.3738492429256439
1772881630629886500,8.845886474609374,0.4410443603992462,-0.8026763200759888,0.8032872080802917
1772881630647231500,8.8632314453125,0.3035998046398163,-0.33047783374786377,1.359174132347107
1772881630664576500,8.880576416015625,0.08674279600381851,-0.4068359434604645,1.3213005065917969
1772881630681921500,8.897921630859376,0.11423171311616898,-0.49602219462394714,1.0195332765579224
1772881630699266600,8.9152666015625,0.3017672002315521,-0.25350889563560486,0.8729257583618164
1772881630716611600,8.932611572265625,0.36224281787872314,0.06902772188186646,0.7806851863861084
1772881630733956600,8.94995654296875,0.3194822669029236,0.10506874322891235,0.7745765447616577
1772881630751301600,8.967301513671876,0.2608392536640167,0.21197007596492767,0.7849612236022949
1772881630768646700,8.984646728515624,0.25473061203956604,0.28954991698265076,0.7379246354103088
1772881630785991700,9.00199169921875,0.2706131041049957,0.44837474822998047,0.6707295179367065
1772881630803336700,9.019336669921875,0.22907429933547974,0.535728394985199,0.5784889459609985
1772881630820681700,9.036681640625,0.1649334877729416,0.5986474752426147,0.46486809849739075
1772881630838026800,9.05402685546875,0.164322629570961,0.675616443157196,0.22907429933547974
1772881630855372000,9.0713720703125,0.13072505593299866,0.6206386089324951,-0.024434590712189674
1772881630872716800,9.088716796875,0.11972949653863907,0.6340776681900024,-0.16798780858516693
1772881630890061800,9.106061767578124,0.143553227186203,0.4770853817462921,-0.1948658674955368
1772881630907407000,9.123406982421875,0.20891575515270233,0.41844236850738525,-0.19853104650974274
1772881630924752100,9.140752197265625,0.2981020212173462,0.3909534513950348,-0.24373504519462585
1772881630942097200,9.15809716796875,0.39339691400527954,0.24373504519462585,-0.3445277214050293
1772881630959442200,9.175442138671874,0.5241219997406006,0.38301220536231995,-0.5760455131530762
1772881630976787200,9.192787109375,0.7031053900718689,0.6530144214630127,-0.9083559513092041
1772881630994132200,9.21013232421875,0.8723149299621582,0.9902117848396301,-1.232114315032959
1772881631011477200,9.227477294921876,0.8460476994514465,1.2608249187469482,-1.4483604431152344
1772881631028822300,9.244822265625,0.7635809779167175,1.4147628545761108,-1.499062180519104
1772881631046167300,9.262167236328125,0.5998691916465759,2.2284348011016846,-0.9999856352806091
1772881631063512300,9.27951220703125,0.3225366175174713,2.0891575813293457,-0.2669478952884674
1772881631080857300,9.296857421875,0.24495677649974823,1.5234967470169067,-0.4575377106666565
1772881631098202400,9.314202392578125,0.2577849328517914,1.6865977048873901,-0.9334014058113098
1772881631115547400,9.33154736328125,0.15271618962287903,1.5131120681762695,-1.0146464109420776
1772881631132892400,9.348892333984375,-0.0977383628487587,0.8429933786392212,-0.7024945020675659
1772881631150237400,9.366237548828124,-0.3335321843624115,0.14110976457595825,-0.4013381600379944
1772881631167582500,9.38358251953125,-0.4508182108402252,-0.19120067358016968,-0.39339691400527954
1772881631184927500,9.400927490234375,-0.5222893953323364,-0.22235478460788727,-0.5387827157974243
1772881631202272500,9.4182724609375,-0.5619956254959106,-0.19425499439239502,-0.5980366468429565
1772881631219617500,9.435617431640624,-0.5412262082099915,-0.35674503445625305,-0.6316341757774353
1772881631236962600,9.452962646484375,-0.4990765154361725,-0.6139190793037415,-0.5381718873977661
1772881631254307600,9.4703076171875,-0.627968966960907,-0.9315688014030457,-0.14294235408306122
1772881631271652600,9.487652587890626,-0.9144645929336548,-1.2632683515548706,0.258395791053772
1772881631288997600,9.50499755859375,-0.9847140312194824,-1.4886775016784668,0.4618137776851654
1772881631306342700,9.5223427734375,-1.0329723358154297,-1.786779522895813,0.5797106623649597
1772881631323687700,9.539687744140625,-1.073289394378662,-2.022573232650757,0.6023126840591431
1772881631341032700,9.55703271484375,-0.9236275553703308,-1.8674136400222778,0.6750055551528931
1772881631358377700,9.574377685546875,-0.6896663308143616,-1.5430444478988647,0.7806851863861084
1772881631375722800,9.59172265625,-0.5497782826423645,-1.361006736755371,1.053741693496704
1772881631393067800,9.60906787109375,-0.39767298102378845,-0.9578359723091125,1.368947982788086
1772881631410412800,9.626412841796874,-0.08674279600381851,-0.5161807537078857,1.4575233459472656
1772881631427757800,9.6437578125,0.22357651591300964,-0.4471530318260193,1.1966841220855713
1772881631445102800,9.661102783203125,0.4214966893196106,-0.5962040424346924,0.8503237962722778
1772881631462447900,9.67844775390625,0.5790998339653015,-0.6835576891899109,0.6139190793037415
1772881631479793000,9.69579296875,0.5491674542427063,-0.7611374855041504,0.6035344004631042
1772881631497138000,9.713137939453125,0.45875945687294006,-0.7544180154800415,0.6346884965896606
1772881631514483000,9.73048291015625,0.4673115611076355,-0.7599157691001892,0.6212494969367981
1772881631531828000,9.747827880859376,0.5253437161445618,-0.6493492722511292,0.80389803647995
1772881631549173000,9.765173095703124,0.34147340059280396,-0.3225366175174713,1.0421353578567505
1772881631566518000,9.78251806640625,0.19669845700263977,-0.36163195967674255,0.953559935092926
1772881631583863000,9.799863037109375,0.2968802750110626,-0.43982264399528503,0.6597339510917664
1772881631601208000,9.8172080078125,0.45020735263824463,-0.3225366175174713,0.5571087002754211
1772881631618553300,9.83455322265625,0.4428769648075104,0.03848448023200035,0.5235111117362976
1772881631635898000,9.851898193359375,0.3549124300479889,0.11911863088607788,0.5821541547775269
1772881631653243400,9.869243408203126,0.2938259541988373,0.143553227186203,0.7232639193534851
1772881631670588200,9.886588134765624,0.18387030065059662,0.23335035145282745,0.8484911918640137
1772881631687933400,9.903933349609375,0.08307760953903198,0.2883281707763672,0.7751874327659607
1772881631705278500,9.921278564453125,0.19364413619041443,0.4147771894931793,0.5491674542427063
1772881631722623500,9.93862353515625,0.3231474757194519,0.6200277805328369,0.1698204129934311
1772881631739968500,9.955968505859374,0.33719736337661743,0.8558215498924255,-0.2968802750110626
1772881631757313500,9.9733134765625,0.2718348205089569,0.9505056142807007,-0.6053670048713684
1772881631774658600,9.990658447265625,0.18142683804035187,0.8631519079208374,-0.6450732350349426
1772881631792003600,10.008003662109376,0.17592905461788177,0.7861829996109009,-0.5375609993934631
1772881631809348600,10.0253486328125,0.2809978127479553,0.6499601006507874,-0.2974911332130432
1772881631826693600,10.042693603515625,0.32620179653167725,0.37629270553588867,-0.10629047453403473
1772881631844038700,10.06003857421875,0.45387253165245056,0.3543015718460083,-0.26511532068252563
1772881631861383700,10.0773837890625,0.6872228980064392,0.565049946308136,-0.5913171172142029
1772881631878728700,10.094728759765625,0.9413426518440247,0.8057306408882141,-0.9352339506149292
1772881631896073700,10.11207373046875,1.1875211000442505,1.0329723358154297,-1.339626431465149
1772881631913418800,10.129418701171875,1.3964369297027588,1.1099413633346558,-1.7446298599243164
1772881631930763800,10.146763671875,1.552207350730896,1.1508692502975464,-1.9920300245285034
1772881631948108800,10.16410888671875,1.5112794637680054,1.1398736238479614,-1.9730932712554932
1772881631965453800,10.181453857421875,1.2095122337341309,1.9755367040634155,-1.0965023040771484
1772881631982798800,10.198798828125,0.46486809849739075,1.266933560371399,-0.18814635276794434
1772881632000144000,10.216143798828124,0.053145237267017365,0.8637627959251404,-0.07269290834665298
1772881632017489000,10.233489013671875,0.029932374134659767,0.6352993845939636,-0.4929678738117218
1772881632034834000,10.250833984375,0.07452550530433655,0.3909534513950348,-0.5943714380264282
1772881632052179000,10.268178955078126,0.0054977829568088055,0.16798780858516693,-0.5619956254959106
1772881632069524000,10.28552392578125,-0.30054548382759094,0.06047561392188072,-0.46608981490135193
1772881632086869000,10.302868896484375,-0.500298261642456,0.1185077652335167,-0.33108872175216675
1772881632104214000,10.320214111328125,-0.5387827157974243,-0.11972949653863907,-0.09590577334165573
1772881632121559000,10.33755908203125,-0.47036588191986084,-0.39767298102378845,0
1772881632138904000,10.354904052734375,-0.4789179861545563,-0.6139190793037415,-0.020158538594841957
1772881632156249000,10.3722490234375,-0.574212908744812,-0.9175189137458801,-0.002443459117785096
1772881632173594000,10.389593994140625,-0.8106175661087036,-1.388495683670044,-0.10323614627122879
1772881632190939100,10.406939208984374,-0.8747583627700806,-1.4587451219558716,-0.10140355676412582
1772881632208284200,10.4242841796875,-0.7324268817901611,-1.6242893934249878,0.1185077652335167
1772881632225629200,10.441629150390625,-0.7904590368270874,-1.5131120681762695,0.4361574649810791
1772881632242974200,10.45897412109375,-0.9602794051170349,-1.700036644935608,0.7953459620475769
1772881632260319200,10.4763193359375,-1.0934479236602783,-2.1862850189208984,0.9926552772521973
1772881632277664300,10.493664306640625,-1.2180644273757935,-2.274860382080078,1.2479966878890991
1772881632295009300,10.51100927734375,-1.1074978113174438,-1.601076602935791,1.3384047746658325
1772881632312354300,10.528354248046876,-0.6927206516265869,-0.7690787315368652,1.145371437072754
1772881632329699600,10.545699462890624,-0.2632827162742615,-0.39339691400527954,0.9572250843048096
1772881632347044400,10.56304443359375,-0.0360410213470459,-0.43310311436653137,0.7837395071983337
1772881632364389400,10.580389404296875,0.07513637095689774,-0.5308414697647095,0.5137372612953186
1772881632381734700,10.597734619140626,0.14477495849132538,-0.6010909676551819,0.2632827162742615
1772881632399079700,10.61507958984375,0.10384701192378998,-0.4764745235443115,0.24984370172023773
1772881632416424700,10.6324248046875,0.0616973415017128,-0.29016077518463135,0.43004879355430603
1772881632433769700,10.649769775390626,0.04886918142437935,-0.21319180727005005,0.5540543794631958
1772881632451114800,10.66711474609375,0.07391463965177536,-0.4013381600379944,0.4367683231830597
1772881632468459800,10.684459716796875,0.1698204129934311,-0.6487383842468262,0.2712239623069763
1772881632485804800,10.7018046875,0.2883281707763672,-0.7024945020675659,0.23945899307727814
1772881632503149800,10.71914990234375,0.4269944727420807,-0.3964512348175049,0.38667741417884827
1772881632520494800,10.736494873046874,0.4618137776851654,-0.19792018830776215,0.4838049113750458
1772881632537839900,10.75383984375,0.3488037884235382,-0.010995565913617611,0.49968740344047546
1772881632555185000,10.771184814453125,0.27977606654167175,0.004886918235570192,0.46364638209342957
1772881632572530000,10.788530029296876,0.337808221578598,0.020769402384757996,0.4361574649810791
1772881632589875000,10.805875,0.40866854786872864,0.14599667489528656,0.5283980369567871
1772881632607220000,10.823219970703125,0.36774060130119324,0.29077163338661194,0.6640099883079529
1772881632624565000,10.84056494140625,0.4471530318260193,0.35735589265823364,0.6010909676551819
1772881632641910000,10.857909912109376,0.5790998339653015,0.3958403766155243,0.34697118401527405
1772881632659255000,10.875255126953125,0.6316341757774353,0.4324922561645508,-0.03481929376721382
1772881632676600000,10.89260009765625,0.565049946308136,0.45448338985443115,-0.4153880476951599
1772881632693945000,10.909945068359375,0.35246896743774414,0.3329212963581085,-0.4990765154361725
1772881632711290000,10.9272900390625,0.1588248461484909,0.2205221801996231,-0.04825831577181816
1772881632728635100,10.94463525390625,0.14538581669330597,0.1740964651107788,0.4105011224746704
1772881632745980200,10.961980224609375,0.22357651591300964,-0.020158538594841957,0.544891357421875
1772881632763325200,10.9793251953125,0.4563159942626953,-0.08979712426662445,0.3597993552684784
1772881632780670200,10.996670166015624,0.7098248600959778,-0.16126830875873566,-0.10995566099882126
1772881632798015500,11.014015380859375,1.0109812021255493,-0.08063415437936783,-0.6395754218101501
1772881632815360300,11.0313603515625,1.2822052240371704,0.1747073233127594,-0.9651663303375244
1772881632832705500,11.04870556640625,1.4214823246002197,0.5693259835243225,-1.0806198120117188
1772881632850050600,11.066050537109374,1.4758492708206177,0.9615011811256409,-1.0781763792037964
1772881632867395600,11.0833955078125,1.4483604431152344,1.1459823846817017,-1.1074978113174438
1772881632884740600,11.10074072265625,1.2663227319717407,1.2168426513671875,-1.1588104963302612
1772881632902085600,11.118085693359374,1.0317505598068237,1.6633847951889038,-0.7513636946678162
1772881632919430700,11.1354306640625,0.6071996092796326,0.8662062287330627,-0.1649334877729416
1772881632936775700,11.152775634765625,0.1802051067352295,-0.12156209349632263,0.2315177470445633
1772881632954120700,11.17012060546875,0.023823726922273636,-0.16126830875873566,-0.3500255048274994
1772881632971465700,11.1874658203125,0.13072505593299866,0.2614501118659973,-0.8784235715866089
1772881632988810800,11.204810791015625,-0.049480047076940536,0.33536475896835327,-1.0054833889007568
1772881633006155800,11.22215576171875,-0.2260199636220932,0.2406807243824005,-0.7611374855041504
1772881633023500800,11.239500732421876,-0.43493571877479553,0.3078758418560028,-0.42088583111763
1772881633040845800,11.256845703125,-0.7000510096549988,0.07330377399921417,-0.07330377399921417
1772881633058190800,11.27419091796875,-0.7971785664558411,-0.18570289015769958,0.06475166976451874
1772881633075536000,11.291535888671875,-0.7220421433448792,-0.23518294095993042,-0.006719512399286032
1772881633092881000,11.308880859375,-0.5497782826423645,-0.205861434340477,-0.12644900381565094
1772881633110226000,11.326225830078124,-0.47586366534233093,-0.36163195967674255,-0.2461785078048706
1772881633127571000,11.343571044921875,-0.3915643095970154,-0.6988292932510376,-0.3451386094093323
1772881633144916000,11.360916015625,-0.40866854786872864,-1.1410953998565674,-0.3274235129356384
1772881633162261000,11.378260986328126,-0.37262752652168274,-1.5094468593597412,-0.1588248461484909
1772881633179606000,11.39560595703125,-0.7061597108840942,-1.8539745807647705,0.16249002516269684
1772881633196951000,11.412950927734375,-1.196073293685913,-2.341444730758667,0.3689623177051544
1772881633214296000,11.430296142578126,-1.2834268808364868,-2.3365578651428223,0.3439168632030487
1772881633231641000,11.44764111328125,-1.0225876569747925,-1.7544035911560059,0.21991132199764252
1772881633248986000,11.464986083984375,-0.5406153202056885,-1.0360267162322998,0.34574946761131287
1772881633266331100,11.4823310546875,-0.24862197041511536,-0.49418962001800537,0.6291907429695129
1772881633283676200,11.49967626953125,-0.21807873249053955,-0.337808221578598,0.8246674537658691
1772881633301021200,11.517021240234374,-0.16249002516269684,-0.4404335021972656,0.8973603844642639
1772881633318366200,11.5343662109375,-0.0818558782339096,-0.5491674542427063,0.8820887207984924
1772881633335711200,11.551711181640625,0.049480047076940536,-0.5412262082099915,0.7898481488227844
1772881633353056300,11.56905615234375,0.23518294095993042,-0.5937605500221252,0.6908880472183228
1772881633370401300,11.5864013671875,0.3133736252784729,-0.7330377101898193,0.7312051653862
1772881633387746300,11.603746337890625,0.2816086709499359,-0.8484911918640137,0.8796452879905701
1772881633405091300,11.62109130859375,0.27916520833969116,-0.8063415288925171,0.9932661056518555
1772881633422436400,11.638436279296876,0.41783151030540466,-0.5711585879325867,1.0054833889007568
1772881633439781600,11.65578173828125,0.5839866995811462,-0.6890554428100586,0.8631519079208374
1772881633457126400,11.67312646484375,0.7012727856636047,-0.6365211009979248,0.7134900689125061
1772881633474471700,11.6904716796875,0.6908880472183228,-0.5204567909240723,0.7843503952026367
1772881633491816700,11.707816650390624,0.47525280714035034,-0.2919933497905731,0.841160774230957
1772881633509161700,11.72516162109375,0.34147340059280396,-0.30604326725006104,0.6994401812553406
1772881633526506800,11.7425068359375,0.36224281787872314,0.034208428114652634,0.5076286196708679
1772881633543851800,11.759851806640626,0.44959646463394165,0.3445277214050293,0.4269944727420807
1772881633561196800,11.77719677734375,0.4520399272441864,0.5302306413650513,0.36651885509490967
1772881633578541800,11.794541748046875,0.47586366534233093,0.6023126840591431,0.2309068888425827
1772881633595886800,11.811886962890625,0.49480047821998596,0.7574723362922668,-0.010995565913617611
1772881633613231900,11.82923193359375,0.38850998878479004,0.7629700899124146,-0.10323614627122879
1772881633630577000,11.846576904296874,0.27488914132118225,0.6725621223449707,-0.01649334840476513
1772881633647922000,11.863921875,0.20341797173023224,0.45998117327690125,0.12583814561367035
1772881633665267000,11.881266845703125,0.24923282861709595,0.21258094906806946,0.14782927930355072
1772881633682612000,11.898612060546874,0.43921178579330444,0.19181154668331146,-0.023823726922273636
1772881633699957000,11.91595703125,0.6530144214630127,0.2559523284435272,-0.3750709891319275
1772881633717302000,11.933302001953125,0.8936951756477356,0.49968740344047546,-0.7831286191940308
1772881633734647000,11.95064697265625,1.082452416419983,0.7874047160148621,-1.1618647575378418
1772881633751992000,11.967991943359374,1.1074978113174438,1.0122029781341553,-1.3469568490982056
1772881633769337000,11.985337158203125,1.0506874322891235,1.247385859489441,-1.3206896781921387
1772881633786682000,12.00268212890625,1.0140355825424194,1.4282019138336182,-1.137430191040039
1772881633804027100,12.020027099609376,0.9572250843048096,1.8081597089767456,-1.0341941118240356
1772881633821372200,12.0373720703125,0.8240565657615662,2.199113130569458,-0.8185588121414185
1772881633838717200,12.05471728515625,0.46059203147888184,1.7269147634506226,-0.8124501705169678
1772881633856062200,12.072062255859375,0.14538581669330597,1.063515543937683,-0.536339282989502
1772881633873407200,12.0894072265625,-0.1698204129934311,0.35735589265823364,-0.21319180727005005
1772881633890752500,12.10675244140625,-0.4520399272441864,0.09040798991918564,-0.2565632164478302
1772881633908097300,12.12409716796875,-0.5558869242668152,0.10140355676412582,-0.287106454372406
1772881633925442600,12.141442626953125,-0.6884446144104004,0.04214967042207718,-0.2724456787109375
1772881633942787300,12.158787353515624,-0.8002328872680664,0.004886918235570192,-0.2730565667152405
1772881633960132600,12.176132568359375,-0.8124501705169678,-0.14721840620040894,-0.3530798554420471
1772881633977477600,12.1934775390625,-0.8246674537658691,-0.37751442193984985,-0.37323838472366333
1772881633994822700,12.21082275390625,-0.9132428169250488,-0.759304940700531,-0.20891575515270233
1772881634012167700,12.228167724609374,-0.9694424271583557,-1.163697361946106,-0.09285144507884979
1772881634029512700,12.2455126953125,-0.9957095980644226,-1.5809180736541748,0.17165300250053406
1772881634046857700,12.262857666015625,-1.0622938871383667,-1.9089524745941162,0.4263836145401001
1772881634064202800,12.28020263671875,-1.074511170387268,-1.841146469116211,0.667064368724823
1772881634081547800,12.2975478515625,-0.9786053895950317,-1.6615521907806396,0.740368127822876
1772881634098892800,12.314892822265625,-0.794124186038971,-1.464242935180664,0.7202095985412598
1772881634116237800,12.33223779296875,-0.6426297426223755,-1.0757328271865845,0.7055488228797913
1772881634133582800,12.349582763671876,-0.4269944727420807,-0.5094612240791321,0.6609556674957275
1772881634150928000,12.366927978515625,-0.19853104650974274,-0.31520622968673706,0.6047561168670654
1772881634168273000,12.38427294921875,-0.049480047076940536,-0.32559093832969666,0.5723803043365479
1772881634185618000,12.401617919921875,0.12767073512077332,-0.4520399272441864,0.6102539300918579
1772881634202963000,12.418962890625,0.23273947834968567,-0.5070177912712097,0.7538071274757385
1772881634220308000,12.436307861328125,0.24373504519462585,-0.6615665555000305,0.8081740736961365
1772881634237653000,12.453653076171875,0.2254091054201126,-1.1129956245422363,0.7391464114189148
1772881634254998000,12.470998046875,0.21991132199764252,-1.0787872076034546,0.7531962990760803
1772881634272343000,12.488343017578124,0.1844811588525772,-1.0140355825424194,0.8045089244842529
1772881634289688000,12.50568798828125,0.24006985127925873,-1.1154390573501587,0.8063415288925171
1772881634307033000,12.523033203125,0.23335035145282745,-0.62857985496521,0.7086031436920166
1772881634324378000,12.540378173828126,0.20463970303535461,-0.4416552484035492,0.46425724029541016
1772881634341723100,12.55772314453125,0.18142683804035187,-0.27550002932548523,0.328645259141922
1772881634359068200,12.575068115234375,0.19303326308727264,-0.10506874322891235,0.3396408259868622
1772881634376413400,12.592413330078125,0.19914191961288452,0.09285144507884979,0.37262752652168274
1772881634393758500,12.609758544921876,0.20280711352825165,0.268169641494751,0.35124725103378296
1772881634411103500,12.627103515625,0.2156352698802948,0.4776962697505951,0.24556763470172882
1772881634428448500,12.644448486328125,0.21441353857517242,0.656679630279541,0.09834922850131989
1772881634445793500,12.66179345703125,0.2156352698802948,0.8979712128639221,-0.07452550530433655
1772881634463138600,12.679138671875,0.19730933010578156,0.8869756460189819,-0.2162461280822754
1772881634480483600,12.696483642578125,0.20219624042510986,0.6175842881202698,-0.22174391150474548
1772881634497828600,12.71382861328125,0.3543015718460083,0.4196641147136688,-0.164322629570961
1772881634515173600,12.731173583984376,0.516791582107544,0.2712239623069763,-0.1533270627260208
1772881634532518700,12.7485185546875,0.627968966960907,0.11972949653863907,-0.2614501118659973
1772881634549863700,12.76586376953125,0.749531090259552,0.23457208275794983,-0.47586366534233093
1772881634567208700,12.783208740234375,0.8936951756477356,0.5558869242668152,-0.7648026943206787
1772881634584553700,12.8005537109375,0.9810488224029541,0.9731075763702393,-1.0317505598068237
1772881634601898800,12.817898681640624,1.0757328271865845,1.4288127422332764,-1.2699878215789795
1772881634619243800,12.835243896484375,1.0415244102478027,2.017686367034912,-1.3402373790740967
1772881634636588800,12.8525888671875,0.7922916412353516,2.629772901535034,-1.1337649822235107
1772881634653933800,12.869933837890626,0.268169641494751,2.8576254844665527,-0.3396408259868622
1772881634671278800,12.88727880859375,-0.1441640853881836,1.8723005056381226,-0.10018182545900345
1772881634688623900,12.904623779296875,-0.26022839546203613,1.1056652069091797,-0.3182605504989624
1772881634705969000,12.921968994140625,-0.2730565667152405,0.7855721116065979,-0.5027416944503784
1772881634723314000,12.93931396484375,-0.25350889563560486,0.6921098232269287,-0.4367683231830597
1772881634740659000,12.956658935546875,-0.4043924808502197,0.42332929372787476,-0.3280344009399414
1772881634758004000,12.97400390625,-0.5955931544303894,0.32131487131118774,-0.3121519088745117
1772881634775349000,12.991348876953126,-0.7483093738555908,0.2406807243824005,-0.3646862804889679
1772881634792694000,13.008694091796874,-0.7513636946678162,-0.08918625861406326,-0.48013970255851746
1772881634810039000,13.0260390625,-0.8759800791740417,-0.555276095867157,-0.5112938284873962
1772881634827384000,13.043384033203125,-1.074511170387268,-0.7525854110717773,-0.49663305282592773
1772881634844729300,13.060729248046876,-1.2620465755462646,-1.3023637533187866,-0.39828383922576904
1772881634862074000,13.07807421875,-1.1117738485336304,-1.7977750301361084,-0.26389357447624207
1772881634879419400,13.09541943359375,-1.0525200366973877,-2.028071165084839,-0.04520399495959282
1772881634896764200,13.11276416015625,-1.0115920305252075,-2.148411512374878,0.2254091054201126
1772881634914109400,13.130109375,-0.9107993841171265,-2.051283836364746,0.33108872175216675
1772881634931454500,13.147454345703125,-0.7574723362922668,-1.8374812602996826,0.3750709891319275
1772881634948799500,13.164799560546875,-0.5681042671203613,-1.3347395658493042,0.49113526940345764
1772881634966144500,13.18214453125,-0.31459537148475647,-0.7195987105369568,0.6805033683776855
1772881634983489500,13.199489501953124,-0.02871064469218254,-0.2101374864578247,0.8692606091499329
1772881635000834600,13.21683447265625,0.09529490768909454,-0.1747073233127594,0.880256175994873
1772881635018179600,13.2341796875,0.07269290834665298,-0.4819723069667816,0.6420188546180725
1772881635035524600,13.251524658203126,0.03298669680953026,-0.7959567904472351,0.49602219462394714
1772881635052869600,13.26886962890625,0.08918625861406326,-0.7788525819778442,0.6615665555000305
1772881635070214700,13.286214599609375,0.24312418699264526,-0.5015199780464172,0.9401208758354187
1772881635087559700,13.3035595703125,0.3329212963581085,-0.6688969135284424,1.0231984853744507
1772881635104904700,13.32090478515625,0.24434591829776764,-0.7519745230674744,0.9963204264640808
1772881635122249700,13.338249755859374,0.19120067358016968,-0.8265000581741333,0.9046907424926758
1772881635139594800,13.3555947265625,0.06597339361906052,-0.7067705392837524,0.7220421433448792
1772881635156939800,13.372939697265625,-0.031154103577136993,-0.3500255048274994,0.4776962697505951
1772881635174284800,13.390284912109376,-0.12278381735086441,-0.007941242307424545,0.34086254239082336
1772881635191629800,13.4076298828125,-0.09101885557174683,0.23273947834968567,0.2822195291519165
1772881635208974800,13.424974853515625,-0.027488915249705315,0.4062250852584839,0.24006985127925873
1772881635226320000,13.44231982421875,-0.07269290834665298,0.5375609993934631,0.16249002516269684
1772881635243665000,13.459664794921874,-0.1178968995809555,0.4868592321872711,0.05864302068948746
1772881635261010000,13.477010009765625,-0.05864302068948746,0.6249146461486816,0.030543239787220955
1772881635278355000,13.49435498046875,0.033597562462091446,0.7055488228797913,-0.1178968995809555
1772881635295700200,13.5117001953125,0.04520399495959282,0.7281508445739746,-0.22785256803035736
1772881635313045000,13.529044921875,-0.04459312930703163,0.6579013466835022,-0.21502439677715302
1772881635330390300,13.546390380859375,-0.08918625861406326,0.6591231226921082,-0.17715078592300415
1772881635347735300,13.5637353515625,-0.03176496922969818,0.6145299673080444,-0.2211330533027649
1772881635365080300,13.581080322265626,0.15577052533626556,0.6004800796508789,-0.4477638900279999
1772881635382425300,13.59842529296875,0.41783151030540466,0.6554579138755798,-0.7666352987289429
1772881635399770400,13.615770263671875,0.6945532560348511,0.9584468603134155,-0.9700532555580139
1772881635417115400,13.633115478515625,0.8717040419578552,1.1270455121994019,-1.0470222234725952
1772881635434460400,13.65046044921875,0.9309579133987427,1.3377938270568848,-1.0476330518722534
1772881635451805400,13.667805419921875,0.8460476994514465,1.553429126739502,-0.9450078010559082
1772881635469150500,13.685150390625,0.6786707639694214,1.821598768234253,-0.778241753578186
1772881635486495500,13.70249560546875,0.42088583111763,2.2204935550689697,-0.12950333952903748
1772881635503840500,13.719840576171874,0.18814635276794434,1.7837251424789429,-0.08124501258134842
1772881635521185500,13.737185546875,0.06047561392188072,1.5772528648376465,-0.42332929372787476
1772881635538530600,13.754530517578125,-0.025045456364750862,1.3310743570327759,-0.5308414697647095
1772881635555875600,13.77187548828125,-0.14110976457595825,0.9315688014030457,-0.535728394985199
1772881635573220600,13.789220703125,-0.3500255048274994,0.7116574645042419,-0.3805687427520752
1772881635590565600,13.806565673828125,-0.5222893953323364,0.47952884435653687,-0.15027274191379547
1772881635607910700,13.82391064453125,-0.627968966960907,0.07574722915887833,-0.026878049597144127
1772881635625255700,13.841255615234376,-0.6884446144104004,-0.16798780858516693,-0.08918625861406326
1772881635642600700,13.8586005859375,-0.6921098232269287,-0.42332929372787476,-0.24312418699264526
1772881635659945700,13.87594580078125,-0.7849612236022949,-0.7141009569168091,-0.4404335021972656
1772881635677290800,13.893290771484375,-0.8240565657615662,-0.9682206511497498,-0.48441576957702637
1772881635694635800,13.9106357421875,-0.7574723362922668,-1.0775654315948486,-0.46486809849739075
1772881635711980800,13.927980712890625,-0.7018836140632629,-1.2437206506729126,-0.2981020212173462
1772881635729325800,13.945325927734375,-0.8081740736961365,-1.6633847951889038,0.07147117704153061
1772881635746670800,13.9626708984375,-0.9621120095252991,-2.1502439975738525,0.31520622968673706
1772881635764015900,13.980015869140624,-0.9615011811256409,-2.10992693901062,0.46059203147888184
1772881635781361000,13.99736083984375,-0.8393282294273376,-1.4282019138336182,0.5015199780464172
1772881635798706000,14.014705810546875,-0.6243038177490234,-0.8301652073860168,0.5326740741729736
1772881635816051000,14.032051025390626,-0.5222893953323364,-0.6230821013450623,0.5308414697647095
1772881635833396000,14.04939599609375,-0.4673115611076355,-0.5381718873977661,0.4679224193096161
1772881635850741000,14.066740966796875,-0.29626941680908203,-0.31154105067253113,0.47525280714035034
1772881635868086300,14.084086181640625,-0.06841685622930527,-0.056199558079242706,0.49663305282592773
1772881635885431000,14.10143115234375,0.09896009415388107,0.01649334840476513,0.6719512343406677
1772881635902776300,14.1187763671875,0.14477495849132538,0.07391463965177536,0.8796452879905701
1772881635920121000,14.13612109375,0.16554436087608337,-0.17715078592300415,0.7434224486351013
1772881635937466400,14.15346630859375,0.2993237376213074,-0.36712974309921265,0.4428769648075104
1772881635954811400,14.170811279296874,0.5106829404830933,-0.5845975875854492,0.25961753726005554
1772881635972156400,14.188156494140625,0.6291907429695129,-0.6438514590263367,0.328645259141922
1772881635989501400,14.20550146484375,0.5797106623649597,-0.5149590373039246,0.5528326034545898
1772881636006846500,14.222846435546876,0.44470956921577454,-0.49052441120147705,0.7446441650390625
1772881636024191500,14.24019140625,0.3280344009399414,-0.14599667489528656,0.6401863098144531
1772881636041536500,14.25753662109375,0.3127627670764923,-0.013439024798572063,0.526565432548523
1772881636058881500,14.274881591796875,0.39400777220726013,0.18264856934547424,0.5858193039894104
1772881636076226600,14.2922265625,0.5473348498344421,0.6493492722511292,0.6896663308143616
1772881636093571600,14.309571533203124,0.5583304166793823,0.7281508445739746,0.5815432667732239
1772881636110916600,14.32691650390625,0.48563748598098755,0.5290089249610901,0.4276053309440613
1772881636128261600,14.34426171875,0.44959646463394165,0.38850998878479004,0.32559093832969666
1772881636145606700,14.361606689453126,0.32009315490722656,0.2932150959968567,0.3915643095970154
1772881636162951700,14.37895166015625,0.25045454502105713,0.3402516841888428,0.4324922561645508
1772881636180296700,14.396296630859375,0.28405213356018066,0.22724169492721558,0.39828383922576904
1772881636197641700,14.413641845703125,0.3591884970664978,0.0256563201546669,0.20463970303535461
1772881636214986800,14.43098681640625,0.4734202027320862,0.049480047076940536,-0.09101885557174683
1772881636232331800,14.448331787109375,0.7269290685653687,0.3854556679725647,-0.4453204274177551
1772881636249676800,14.4656767578125,1.0378592014312744,0.6511818766593933,-0.8387173414230347
1772881636267021800,14.483021728515626,1.2809834480285645,0.7984002828598022,-1.0830632448196411
1772881636284366800,14.500366943359374,1.3249657154083252,0.8680388331413269,-1.0329723358154297
1772881636301712000,14.5177119140625,1.1508692502975464,0.9450078010559082,-0.8429933786392212
1772881636319057000,14.535056884765625,0.8900299668312073,1.4312561750411987,-0.3750709891319275
1772881636336402000,14.55240185546875,0.33169957995414734,1.2699878215789795,0.017715077847242355
1772881636353747000,14.569746826171874,0.0513126403093338,1.0763437747955322,-0.10873392969369888
1772881636371092000,14.587092041015625,-0.04886918142437935,0.9224058389663696,-0.40805765986442566
1772881636388437200,14.604437255859375,-0.2406807243824005,0.5180133581161499,-0.46547895669937134
1772881636405782000,14.621781982421876,-0.3292561173439026,0.3426951467990875,-0.2889390289783478
1772881636423127300,14.639127197265625,-0.4972439408302307,0.32131487131118774,-0.043371398001909256
1772881636440472000,14.65647216796875,-0.5723803043365479,0.10079269111156464,0.2620609998703003
1772881636457817300,14.6738173828125,-0.5418370366096497,-0.3176496922969818,0.29016077518463135
1772881636475162000,14.691162109375,-0.5687150955200195,-0.6621774435043335,0.19120067358016968
1772881636492507400,14.70850732421875,-0.7348703145980835,-1.0427461862564087,0.037262752652168274
1772881636509852400,14.725852294921875,-0.6847794055938721,-1.2009601593017578,-0.13683371245861053
1772881636527197400,14.743197509765626,-0.6212494969367981,-1.2443315982818604,-0.2211330533027649
1772881636544542500,14.76054248046875,-0.6805033683776855,-1.5509856939315796,-0.06597339361906052
1772881636561887500,14.777887451171875,-0.7916807532310486,-1.9987496137619019,0.1288924664258957
1772881636579232500,14.795232421875,-0.7880155444145203,-2.2003350257873535,0.30115634202957153
1772881636596577500,14.81257763671875,-0.6328558921813965,-1.6701042652130127,0.5705476999282837
1772881636613922600,14.829922607421874,-0.36712974309921265,-0.8533781170845032,0.7159335017204285
1772881636631267600,14.847267578125,-0.13194678723812103,-0.36835145950317383,0.6175842881202698
1772881636648612600,14.864612548828125,-0.029932374134659767,-0.4050033390522003,0.45448338985443115
1772881636665957600,14.88195751953125,-0.02626718580722809,-0.593149721622467,0.3585776388645172
1772881636683302700,14.899302734375,0.053145237267017365,-0.6078104376792908,0.3805687427520752
1772881636700647700,14.916647705078125,0.16004657745361328,-0.6499601006507874,0.45326167345046997
1772881636717992700,14.93399267578125,0.2864955961704254,-0.5656607747077942,0.6126973628997803
1772881636735337700,14.951337646484374,0.34636032581329346,-0.5503891706466675,0.6878337264060974
1772881636752682800,14.968682861328125,0.2932150959968567,-0.6945532560348511,0.7550288438796997
1772881636770027800,14.98602783203125,0.23457208275794983,-0.7910698652267456,0.8197805285453796
1772881636787372800,15.003372802734376,0.16737695038318634,-1.1325433254241943,0.7953459620475769
1772881636804717800,15.0207177734375,0.11545344442129135,-1.0421353578567505,0.7544180154800415
1772881636822062800,15.038062744140625,0.16249002516269684,-0.8124501705169678,0.5937605500221252
1772881636839407900,15.055407958984375,0.23335035145282745,-0.29443681240081787,0.3915643095970154
1772881636856753000,15.0727529296875,0.2559523284435272,0.09712749719619751,0.21135921776294708
1772881636874098000,15.090097900390624,0.2614501118659973,0.33536475896835327,0.1594357043504715
1772881636891443200,15.107443115234375,0.21502439677715302,0.46914416551589966,0.14538581669330597
1772881636908788000,15.1247880859375,0.15027274191379547,0.6817250847816467,0.03787361457943916
1772881636926133200,15.14213330078125,0.1026252806186676,0.9004147052764893,-0.1441640853881836
1772881636952150800,15.16815087890625,-0.04276053607463837,1.0592395067214966,-0.3494146466255188
1772881636969495800,15.185495849609374,-0.16615521907806396,1.0018181800842285,-0.430659681558609
1772881636986840800,15.2028408203125,-0.33047783374786377,0.8429933786392212,-0.35185810923576355
1772881637004185900,15.220185791015625,-0.37690356373786926,0.6768381595611572,-0.33231043815612793
1772881637021531000,15.23753076171875,-0.24373504519462585,0.7391464114189148,-0.37140578031539917
1772881637038876000,15.2548759765625,-0.04153880476951599,0.6420188546180725,-0.5852084755897522
1772881637056221000,15.272220947265625,0.16310089826583862,0.6609556674957275,-0.9053016304969788
1772881637073566000,15.28956591796875,0.3995055556297302,0.6640099883079529,-1.1588104963302612
1772881637090911000,15.306910888671876,0.7024945020675659,0.8533781170845032,-1.2663227319717407
1772881637108256000,15.324256103515625,0.8741474747657776,1.2724313735961914,-1.2290599346160889
1772881637125601000,15.34160107421875,0.9853248596191406,1.5735876560211182,-1.2608249187469482
1772881637142946000,15.358946044921876,1.0146464109420776,1.8814635276794434,-1.2803726196289062
1772881637160291000,15.376291015625,0.9211840629577637,2.6670355796813965,-0.5894845128059387
1772881637177636000,15.393635986328125,0.5192350745201111,2.079383611679077,-0.22968515753746033
1772881637194981000,15.410981201171875,0.34574946761131287,1.5638138055801392,-0.44409868121147156
1772881637212326100,15.428326171875,0.19181154668331146,1.3915499448776245,-0.593149721622467
1772881637229671200,15.445671142578124,0.05864302068948746,1.1026109457015991,-0.37262752652168274
1772881637247016200,15.46301611328125,-0.20647229254245758,0.40744680166244507,-0.18081597983837128
1772881637264361200,15.480361328125,-0.39278605580329895,0.18203771114349365,-0.15760311484336853
1772881637281706200,15.497706298828126,-0.526565432548523,0.13255766034126282,0.06963858753442764
1772881637299051300,15.51505126953125,-0.4679224193096161,-0.07391463965177536,0.12217295914888382
1772881637316396300,15.532396240234375,-0.5485565662384033,-0.39889469742774963,0.10445787757635117
1772881637333741300,15.5497412109375,-0.7635809779167175,-0.6695078015327454,0.10140355676412582
1772881637351086300,15.56708642578125,-0.7342594861984253,-1.082452416419983,0.09468404203653336
1772881637368431400,15.584431396484375,-0.84177166223526,-1.1728603839874268,0.08613193035125732
1772881637385776400,15.6017763671875,-1.0030399560928345,-1.4587451219558716,0.2657261788845062
1772881637403121400,15.619121337890626,-1.0622938871383667,-1.905898094177246,0.535728394985199
1772881637420466400,15.636466552734374,-1.1319323778152466,-2.319453477859497,0.8203914165496826
1772881637437811500,15.6538115234375,-1.0781763792037964,-2.2669191360473633,1.0677915811538696
1772881637455156500,15.671156494140625,-0.8533781170845032,-1.7299690246582031,1.1814124584197998
1772881637472501500,15.68850146484375,-0.6389645338058472,-1.0793980360031128,1.2009601593017578
1772881637489846500,15.705846435546874,-0.462424635887146,-0.7971785664558411,1.1142174005508423
1772881637507191600,15.723191650390625,-0.32192572951316833,-0.6878337264060974,0.9602794051170349
1772881637524536600,15.74053662109375,-0.185092031955719,-0.6933315396308899,0.8888082504272461
1772881637541881600,15.757881591796876,-0.09101885557174683,-0.6524035930633545,0.8582650423049927
1772881637559226600,15.7752265625,-0.11056652665138245,-0.656679630279541,0.8173370957374573
1772881637576571600,15.792571533203125,-0.12461641430854797,-0.565049946308136,0.8265000581741333
1772881637593916700,15.809916748046875,-0.024434590712189674,-0.401949018239975,0.8020654320716858
1772881637611261700,15.82726171875,0.20280711352825165,-0.5235111117362976,0.638353705406189
1772881637628606700,15.844606689453125,0.4581485986709595,-0.5277871489524841,0.646905779838562
1772881637645952000,15.861951904296875,0.6591231226921082,-0.6450732350349426,0.749531090259552
1772881637663296800,15.879296875,0.7092140316963196,-0.5534434914588928,0.8912517428398132
1772881637680642000,15.89664208984375,0.6114756464958191,-0.401949018239975,0.9944878816604614
1772881637697987000,15.913987060546875,0.4471530318260193,-0.3530798554420471,1.1154390573501587
1772881637715332000,15.93133203125,0.34636032581329346,-0.33597561717033386,1.321911334991455
1772881637732677000,15.948677001953126,0.27977606654167175,-0.17592905461788177,1.4098758697509766
1772881637750022100,15.966022216796874,0.36224281787872314,0.15027274191379547,1.1227694749832153
1772881637767367200,15.9833671875,0.5436696410179138,0.42943793535232544,0.748920202255249
1772881637784712200,16.000712158203125,0.720820426940918,0.6841685771942139,0.39767298102378845
1772881637802057200,16.01805712890625,0.720820426940918,0.7745765447616577,0.12095122784376144
1772881637819402200,16.03540234375,0.6059778332710266,0.7721330523490906,-0.11911863088607788
1772881637836747300,16.052747314453125,0.48502662777900696,0.7984002828598022,-0.3335321843624115
1772881637854092300,16.07009228515625,0.38179048895835876,0.6365211009979248,-0.2632827162742615
1772881637871437300,16.087437255859374,0.32131487131118774,0.28466299176216125,-0.020769402384757996
1772881637888782300,16.1047822265625,0.3494146466255188,0.06047561392188072,-0.0720820426940918
1772881637906127400,16.12212744140625,0.5393936038017273,0.0977383628487587,-0.3347539007663727
1772881637923472400,16.139472412109374,0.8216131329536438,0.3659079968929291,-0.8222240209579468
1772881637940817400,16.1568173828125,1.0781763792037964,0.5601630210876465,-1.2858703136444092
1772881637958162400,16.174162353515626,1.191797137260437,0.7250964641571045,-1.528383731842041
1772881637975507500,16.191507568359373,1.0757328271865845,1.1062761545181274,-1.4269801378250122
1772881637992852500,16.2088525390625,0.9553925395011902,1.378721833229065,-0.9669989347457886
1772881638010197500,16.226197509765626,0.7257073521614075,1.4434734582901,-0.5283980369567871
1772881638027542500,16.24354248046875,0.4056142270565033,1.5430444478988647,-0.45937031507492065
1772881638044887600,16.260887451171875,0.37323838472366333,1.786779522895813,-0.46547895669937134
1772881638062232600,16.278232666015626,0.2987128794193268,1.8539745807647705,-0.5913171172142029
1772881638079577600,16.29557763671875,0.19914191961288452,1.5277727842330933,-0.6939423680305481
1772881638096922600,16.312922607421875,-0.11178825795650482,0.8521563410758972,-0.5888736248016357
1772881638114267600,16.330267578125,-0.5015199780464172,0.3652971386909485,-0.36712974309921265
1772881638131612700,16.34761279296875,-0.6585122346878052,0.10201441496610641,-0.17776164412498474
1772881638148957700,16.364957763671875,-0.6768381595611572,-0.33169957995414734,-0.13988803327083588
1772881638166302700,16.382302734375,-0.6878337264060974,-0.7134900689125061,-0.2364046722650528
1772881638183647700,16.399647705078124,-0.851545512676239,-1.025641918182373,-0.35735589265823364
1772881638200992800,16.41699267578125,-1.0384701490402222,-1.232114315032959,-0.39828383922576904
1772881638218337800,16.434337890625,-1.2052361965179443,-1.2101231813430786,-0.42271843552589417
1772881638235682800,16.451682861328123,-1.2528836727142334,-1.3384047746658325,-0.23518294095993042
1772881638253027800,16.46902783203125,-1.3762784004211426,-1.5314379930496216,0.13011419773101807
1772881638270372900,16.486372802734376,-1.4367539882659912,-1.8350378274917603,0.41844236850738525
1772881638287718000,16.5037177734375,-1.2516618967056274,-1.9425499439239502,0.49663305282592773
1772881638305063000,16.52106298828125,-0.953559935092926,-1.658497929573059,0.5699368119239807
1772881638322408000,16.538407958984376,-0.6151408553123474,-0.9957095980644226,0.6310232877731323
1772881638339753000,16.5557529296875,-0.43432486057281494,-0.4410443603992462,0.5693259835243225
1772881638357098000,16.573097900390625,-0.2938259541988373,-0.3854556679725647,0.481361448764801
1772881638374443000,16.590443115234375,-0.20830489695072174,-0.4361574649810791,0.4453204274177551
1772881638391788000,16.6077880859375,-0.17776164412498474,-0.42821621894836426,0.5681042671203613
1772881638409133000,16.625133056640625,-0.09712749719619751,-0.3280344009399414,0.750141978263855
1772881638426478000,16.64247802734375,0.014660755172371864,-0.19669845700263977,0.9425643682479858
1772881638443823000,16.659822998046874,0.17653992772102356,-0.26511532068252563,0.9877683520317078
1772881638461168000,16.677168212890624,0.3042106628417969,-0.4917461574077606,0.94439697265625
1772881638478513200,16.69451318359375,0.3396408259868622,-0.7898481488227844,0.9138537049293518
1772881638495858200,16.711858154296873,0.29077163338661194,-0.9297361969947815,0.7959567904472351
1772881638513203500,16.729203369140624,0.1795942485332489,-0.8717040419578552,0.730594277381897
1772881638530548500,16.746548583984374,0.10690133273601532,-0.39828383922576904,0.7764091491699219
1772881638547893500,16.7638935546875,0.0977383628487587,-0.09285144507884979,0.748920202255249
1772881638565238300,16.78123828125,0.09529490768909454,0.010995565913617611,0.7043271064758301
1772881638582583600,16.79858349609375,0.17165300250053406,0.07269290834665298,0.6340776681900024
1772881638599928600,16.815928466796876,0.23884813487529755,0.3023780584335327,0.49052441120147705
1772881638617273600,16.833273681640627,0.3090975880622864,0.5540543794631958,0.2510654330253601
1772881638634618600,16.85061865234375,0.4159989058971405,0.8448259830474854,-0.050090912729501724
1772881638651963600,16.867963623046876,0.4166097939014435,0.8924734592437744,-0.23335035145282745
1772881638669308700,16.88530859375,0.2107483446598053,0.6621774435043335,-0.10079269111156464
1772881638686653700,16.90265380859375,-0.021380268037319183,0.38301220536231995,0.2370155304670334
1772881638703998700,16.919998779296876,-0.16249002516269684,0.023823726922273636,0.5009090900421143
1772881638721343700,16.93734375,-0.1539379209280014,-0.09162971377372742,0.3659079968929291
1772881638738688800,16.954688720703125,0.024434590712189674,-0.04520399495959282,-0.11728604137897491
1772881638756033800,16.97203369140625,0.2675587832927704,0.056199558079242706,-0.695164144039154
1772881638773378800,16.98937890625,0.45020735263824463,0.3591884970664978,-1.137430191040039
1772881638790723800,17.006723876953124,0.544891357421875,0.6554579138755798,-1.3744457960128784
1772881638808068900,17.02406884765625,0.5436696410179138,0.9046907424926758,-1.4691298007965088
1772881638825414000,17.041413818359374,0.5051851868629456,1.663995623588562,-1.2479966878890991
1772881638842759000,17.058759033203124,0.4673115611076355,2.1868958473205566,-0.9847140312194824
1772881638860104000,17.07610400390625,0.401949018239975,2.3371686935424805,-0.9767727851867676
1772881638877449000,17.093448974609377,0.401949018239975,2.7342307567596436,-0.7696896195411682
1772881638894794000,17.1107939453125,0.20463970303535461,2.523482322692871,-0.6438514590263367
1772881638912139000,17.128138916015626,-0.029932374134659767,2.1050400733947754,-0.7098248600959778
1772881638929484000,17.145484130859376,-0.13683371245861053,1.51616632938385,-0.7458658814430237
1772881638946829000,17.1628291015625,-0.2309068888425827,0.9938769936561584,-0.6750055551528931
1772881638964174000,17.180174072265626,-0.36285367608070374,0.593149721622467,-0.5980366468429565
1772881638981519000,17.19751904296875,-0.4740310609340668,0.31581708788871765,-0.5797106623649597
1772881638998864100,17.214864013671875,-0.5619956254959106,-0.03298669680953026,-0.5687150955200195
1772881639016209200,17.232209228515625,-0.6798924803733826,-0.21930044889450073,-0.45448338985443115
1772881639033554200,17.24955419921875,-0.8069523572921753,-0.4050033390522003,-0.205861434340477
1772881639050899200,17.266899169921874,-1.0445787906646729,-0.8497129082679749,-0.04276053607463837
1772881639068244200,17.284244140625,-1.1777472496032715,-1.2968659400939941,0.040317077189683914
1772881639085589200,17.30158935546875,-1.2247838973999023,-1.5961896181106567,0.0256563201546669
1772881639102934300,17.318934326171874,-1.250440239906311,-1.8955134153366089,0.043982263654470444
1772881639120279300,17.336279296875,-1.0757328271865845,-1.950491189956665,0.16859868168830872
1772881639137624300,17.353624267578127,-0.7177661061286926,-1.7446298599243164,0.24923282861709595
1772881639154969300,17.37096923828125,-0.37751442193984985,-1.221118688583374,0.32070401310920715
1772881639172314400,17.388314453125,-0.3035998046398163,-0.7379246354103088,0.4569268524646759
1772881639189659400,17.405659423828126,-0.27916520833969116,-0.5687150955200195,0.5369501113891602
1772881639207004400,17.42300439453125,-0.18387030065059662,-0.6041452884674072,0.5467239618301392
1772881639224349400,17.440349365234376,-0.07819069176912308,-0.5180133581161499,0.544891357421875
1772881639241694500,17.457694580078126,0.02871064469218254,-0.44898560643196106,0.5766563415527344
1772881639259039500,17.47503955078125,0.16737695038318634,-0.4324922561645508,0.5729911923408508
1772881639276384500,17.492384521484375,0.2993237376213074,-0.4575377106666565,0.5418370366096497
1772881639293729500,17.5097294921875,0.34208428859710693,-0.347582072019577,0.7562506198883057
1772881639311074600,17.527074462890624,0.3390299379825592,-0.5015199780464172,0.8179479241371155
1772881639328419600,17.544419677734375,0.28954991698265076,-0.4740310609340668,0.9358448386192322
1772881639345764600,17.5617646484375,0.27427828311920166,-0.5748237371444702,1.0225876569747925
1772881639363109600,17.579109619140624,0.3439168632030487,-0.6835576891899109,1.0543526411056519
1772881639380454700,17.59645458984375,0.30543237924575806,-0.6291907429695129,1.0317505598068237
1772881639397799700,17.613799560546877,0.1795942485332489,-0.5009090900421143,1.0164790153503418
1772881639415144700,17.631144775390624,0.10079269111156464,-0.35063639283180237,0.9755510687828064
1772881639432489700,17.64848974609375,0.1954767256975174,-0.10690133273601532,0.8796452879905701
1772881639449834800,17.665834716796876,0.347582072019577,0.18875721096992493,0.7287616729736328
1772881639467179800,17.6831796875,0.39278605580329895,0.48991355299949646,0.5882627964019775
1772881639484524800,17.70052490234375,0.3292561173439026,0.7367029190063477,0.5033525824546814
1772881639501869800,17.717869873046876,0.23457208275794983,0.8118392825126648,0.462424635887146
1772881639519214800,17.73521484375,0.1282816082239151,0.7605266571044922,0.4172206521034241
1772881639536559900,17.752559814453125,-0.009773836471140385,0.6401863098144531,0.39217519760131836
1772881639553905000,17.76990478515625,-0.10629047453403473,0.49663305282592773,0.41416633129119873
1772881639571250000,17.78725,-0.1637117564678192,0.42332929372787476,0.4202749729156494
1772881639588595000,17.804594970703125,-0.19914191961288452,0.42271843552589417,0.3787361681461334
1772881639605940000,17.82193994140625,-0.10018182545900345,0.3543015718460083,0.14599667489528656
1772881639623285000,17.839284912109374,0.11606431007385254,0.4459312856197357,-0.25411975383758545
1772881639640630000,17.856630126953124,0.28527384996414185,0.5467239618301392,-0.6255255341529846
1772881639657975000,17.87397509765625,0.46914416551589966,0.8649845123291016,-1.0305289030075073
1772881639675320000,17.891320068359374,0.5699368119239807,1.2137882709503174,-1.2742639780044556
1772881639692665000,17.9086650390625,0.5229002237319946,1.5289945602416992,-1.314581036567688
1772881639710010000,17.926010009765626,0.370184063911438,1.7580687999725342,-1.1349867582321167
1772881639727355100,17.943355224609373,0.2309068888425827,1.61085045337677,-0.9053016304969788
1772881639744700200,17.9607001953125,0.1905898153781891,1.9425499439239502,-0.5797106623649597
1772881639762045200,17.978045166015626,0.17165300250053406,1.8533637523651123,-0.6096430420875549
1772881639779390200,17.99539013671875,0.04886918142437935,1.700036644935608,-0.7776308655738831
1772881639796735200,18.0127353515625,-0.021380268037319183,1.4721840620040894,-0.7904590368270874
1772881639814080300,18.030080322265626,-0.08674279600381851,0.8955277800559998,-0.5986474752426147
1772881639831425300,18.04742529296875,-0.3029889166355133,0.4007273018360138,-0.3139844834804535
1772881639848770300,18.064770263671875,-0.5198459029197693,0.11362084746360779,-0.22724169492721558
1772881639866115300,18.082115234375,-0.6169734001159668,-0.11606431007385254,-0.20769402384757996
1772881639883460400,18.09946044921875,-0.6126973628997803,-0.3237583339214325,-0.1545487940311432
1772881639900805400,18.116805419921874,-0.6438514590263367,-0.5283980369567871,-0.10384701192378998
1772881639918150400,18.134150390625,-0.7531962990760803,-0.7709113359451294,-0.01893680728971958
1772881639935495400,18.151495361328124,-0.8643736839294434,-1.0378592014312744,0.04459312930703163
1772881639952840400,18.16884033203125,-0.9657772183418274,-1.3836086988449097,0.06230820715427399
1772881639970185500,18.186185546875,-0.842382550239563,-1.4996730089187622,0.09101885557174683
1772881639987530500,18.203530517578123,-0.7904590368270874,-1.8270965814590454,0.27000224590301514
1772881640004875500,18.22087548828125,-0.8313869833946228,-2.148411512374878,0.5320632457733154
1772881640022220500,18.238220458984376,-0.7171552777290344,-2.1227550506591797,0.7648026943206787
1772881640039565600,18.255565673828126,-0.5858193039894104,-1.388495683670044,0.9175189137458801
1772881640056910600,18.27291064453125,-0.45448338985443115,-0.675616443157196,0.9553925395011902
1772881640074255600,18.290255615234376,-0.2834412455558777,-0.6902772188186646,0.7855721116065979
1772881640091600600,18.3076005859375,-0.20891575515270233,-0.6499601006507874,0.8057306408882141
1772881640108945700,18.324945556640625,-0.12767073512077332,-0.6071996092796326,0.9608902931213379
1772881640126290700,18.342290771484375,-0.014049889519810677,-0.5381718873977661,0.9211840629577637
1772881640143635700,18.3596357421875,0.13439024984836578,-0.7043271064758301,0.7745765447616577
1772881640160980700,18.376980712890624,0.2724456787109375,-0.47464191913604736,0.6065887212753296
1772881640178325800,18.39432568359375,0.4221075773239136,-0.5766563415527344,0.544891357421875
1772881640195670800,18.4116708984375,0.4526508152484894,-0.5528326034545898,0.46975502371788025
1772881640213015800,18.429015869140624,0.3860665261745453,-0.7605266571044922,0.535728394985199
1772881640230360800,18.44636083984375,0.27855435013771057,-0.8649845123291016,0.5485565662384033
1772881640247705900,18.463705810546877,0.20647229254245758,-0.7024945020675659,0.5528326034545898
1772881640265051000,18.48105078125,0.14782927930355072,-0.389120876789093,0.5797106623649597
1772881640282396000,18.49839599609375,0.1386663019657135,-0.05070177838206291,0.4612029194831848
1772881640299741000,18.515740966796876,0.12034036219120026,0.23823726177215576,0.30482152104377747
1772881640317086000,18.5330859375,0.10140355676412582,0.31520622968673706,0.2260199636220932
1772881640334431000,18.550430908203126,0.1081230640411377,0.3903425931930542,0.25350889563560486
1772881640351776000,18.56777587890625,0.18692462146282196,0.4868592321872711,0.35185810923576355
1772881640369121000,18.58512109375,0.2522871494293213,0.7116574645042419,0.379347026348114
1772881640386466000,18.602466064453125,0.23212862014770508,0.8460476994514465,0.29016077518463135
1772881640403811000,18.61981103515625,0.1893680840730667,0.9932661056518555,0.13683371245861053
1772881640421156000,18.637156005859374,0.1386663019657135,1.082452416419983,0.006719512399286032
1772881640438501000,18.654501220703125,0.10445787757635117,1.0299180746078491,-0.08063415437936783
1772881640455846100,18.67184619140625,0.07635809481143951,0.8796452879905701,-0.1698204129934311
1772881640473191200,18.689191162109374,0.07819069176912308,0.8185588121414185,-0.2156352698802948
1772881640490536200,18.7065361328125,0.12644900381565094,0.8503237962722778,-0.3072649836540222
1772881640507881200,18.723881103515627,0.1899789422750473,0.8167262077331543,-0.5424479246139526
1772881640525226200,18.741226318359374,0.277332603931427,0.46486809849739075,-0.7556397318840027
1772881640542571300,18.7585712890625,0.41905322670936584,0.3170388340950012,-0.9401208758354187
1772881640559916300,18.775916259765626,0.5986474752426147,0.5314523577690125,-0.9688315391540527
1772881640577261300,18.79326123046875,0.7086031436920166,0.9095776677131653,-0.9065233469009399
1772881640594606300,18.8106064453125,0.7452550530433655,1.3646719455718994,-0.8558215498924255
1772881640611951400,18.827951416015626,0.7189878225326538,1.525940179824829,-0.9083559513092041
1772881640629296400,18.84529638671875,0.6554579138755798,1.5021164417266846,-0.9541707634925842
1772881640646641400,18.862641357421875,0.535728394985199,1.9217805862426758,-0.657290518283844
1772881640663986400,18.879986328125,0.2981020212173462,1.7647883892059326,-0.24434591829776764
1772881640681331500,18.89733154296875,0.143553227186203,1.1838558912277222,-0.27977606654167175
1772881640698676500,18.914676513671875,0.06352993845939636,0.7550288438796997,-0.47036588191986084
1772881640716021500,18.932021484375,-0.014660755172371864,0.41294458508491516,-0.5632173418998718
1772881640733366500,18.949366455078124,-0.15577052533626556,0.12950333952903748,-0.5632173418998718
1772881640750711600,18.966711669921875,-0.3329212963581085,-0.13500112295150757,-0.516791582107544
1772881640768056600,18.984056640625,-0.3231474757194519,-0.38301220536231995,-0.4111120104789734
1772881640785401600,19.001401611328124,-0.3481929302215576,-0.8784235715866089,-0.4508182108402252
1772881640802746600,19.01874658203125,-0.4581485986709595,-1.110552191734314,-0.4679224193096161
1772881640820091600,19.036091552734376,-0.5925388336181641,-1.1331541538238525,-0.3610210716724396
1772881640837436700,19.053436767578123,-0.729983389377594,-1.25715970993042,-0.15821397304534912
1772881640854781700,19.07078173828125,-0.8784235715866089,-1.533881425857544,0.03543015569448471
1772881640872126700,19.088126708984376,-0.9266818761825562,-1.7153083086013794,0.1386663019657135
1772881640889471700,19.1054716796875,-1.0122029781341553,-2.073275089263916,0.2626718580722809
1772881640906816800,19.122816650390625,-1.0482439994812012,-2.283412456512451,0.32131487131118774
1772881640924161800,19.140161865234376,-1.0048725605010986,-2.266308307647705,0.45937031507492065
1772881640941506800,19.1575068359375,-0.8472694754600525,-1.9101741313934326,0.5955931544303894
1772881640958851800,19.174851806640625,-0.6420188546180725,-1.2614357471466064,0.7159335017204285
1772881640976196900,19.19219677734375,-0.4557051360607147,-0.7550288438796997,0.6750055551528931
1772881640993542000,19.2095419921875,-0.318871408700943,-0.685390293598175,0.5937605500221252
1772881641010887000,19.226886962890624,-0.24801109731197357,-0.5925388336181641,0.5925388336181641
1772881641028232000,19.24423193359375,-0.21319180727005005,-0.6676751971244812,0.5858193039894104
1772881641045577000,19.261576904296874,-0.1386663019657135,-0.5723803043365479,0.6017017960548401
1772881641062922000,19.278921875,-0.014049889519810677,-0.47586366534233093,0.657290518283844
1772881641080267000,19.29626708984375,0.08674279600381851,-0.6071996092796326,0.6866120100021362
1772881641097612000,19.313612060546873,0.15271618962287903,-0.44409868121147156,0.6163625717163086
1772881641114957000,19.33095703125,0.18692462146282196,-0.7043271064758301,0.6322450637817383
1772881641132302000,19.348302001953126,0.16859868168830872,-0.767857015132904,0.6688969135284424
1772881641149647000,19.365647216796877,0.14660754799842834,-0.880256175994873,0.7415898442268372
1772881641166992100,19.3829921875,0.14721840620040894,-0.7116574645042419,0.6908880472183228
1772881641184337200,19.400337158203126,0.09651663154363632,-0.45020735263824463,0.5766563415527344
1772881641201682200,19.41768212890625,0.08552107214927673,-0.1130099818110466,0.4068359434604645
1772881641219027200,19.435027099609375,0.12950333952903748,0.21685700118541718,0.2577849328517914
1772881641236372200,19.452372314453125,0.1380554437637329,0.3121519088745117,0.28466299176216125
1772881641253717200,19.46971728515625,0.11056652665138245,0.3836230933666229,0.411722868680954
1772881641271062300,19.487062255859374,0.14233149588108063,0.49480047821998596,0.4825831651687622
1772881641288407300,19.5044072265625,0.16798780858516693,0.6701186895370483,0.546113133430481
1772881641305752300,19.52175244140625,0.12461641430854797,0.9224058389663696,0.5351175665855408
1772881641323097300,19.539097412109374,-0.007330377586185932,0.9877683520317078,0.4728093445301056
1772881641340442400,19.5564423828125,-0.13255766034126282,1.071456789970398,0.46975502371788025
1772881641357787400,19.573787353515623,-0.17165300250053406,1.1423171758651733,0.4153880476951599
1772881641375132400,19.59113232421875,-0.20158538222312927,1.0512982606887817,0.33108872175216675
1772881641392477400,19.6084775390625,-0.24801109731197357,0.9841031432151794,0.20341797173023224
1772881641409822500,19.625822509765626,-0.20952661335468292,0.8026763200759888,0.03298669680953026
1772881641427167500,19.64316748046875,-0.10445787757635117,0.8387173414230347,-0.20830489695072174
1772881641444512500,19.660512451171876,0.01588248461484909,0.9511164426803589,-0.5485565662384033
1772881641461857500,19.677857421875,0.08552107214927673,0.8442151546478271,-0.861319363117218
1772881641479202600,19.69520263671875,0.1496618688106537,0.9260709881782532,-0.9517273306846619
1772881641496547600,19.712547607421875,0.2779434621334076,1.2632683515548706,-0.9700532555580139
1772881641513892600,19.729892578125,0.35674503445625305,1.5961896181106567,-1.0793980360031128
1772881641531237600,19.747237548828124,0.39828383922576904,2.0494513511657715,-1.2357794046401978
1772881641548582700,19.764582763671875,0.3659079968929291,2.2815799713134766,-1.3720022439956665
1772881641565927700,19.781927734375,0.31031930446624756,2.196669816970825,-1.4312561750411987
1772881641583272700,19.799272705078124,0.19181154668331146,2.321897029876709,-1.176525592803955
1772881641600617700,19.81661767578125,-0.03481929376721382,2.1386375427246094,-0.5717694163322449
1772881641617962800,19.833962646484373,-0.20463970303535461,1.5595377683639526,-0.40805765986442566
1772881641635307800,19.851307861328124,-0.34574946761131287,1.147204041481018,-0.31154105067253113
1772881641652652800,19.86865283203125,-0.4764745235443115,0.5400044918060303,-0.35246896743774414
1772881641669997800,19.885997802734376,-0.5943714380264282,0.03543015569448471,-0.47097674012184143
1772881641687342800,19.9033427734375,-0.6841685771942139,-0.2809978127479553,-0.5595521330833435
1772881641704687900,19.92068798828125,-0.6860011219978333,-0.37262752652168274,-0.5070177912712097
1772881641722033000,19.938032958984376,-0.758694052696228,-0.5516108870506287,-0.34574946761131287
1772881641739378000,19.9553779296875,-0.7434224486351013,-0.6096430420875549,-0.16004657745361328
1772881641756723000,19.972722900390625,-0.7617483735084534,-0.7910698652267456,-0.10018182545900345
1772881641774068000,19.99006787109375,-0.8344413042068481,-1.0525200366973877,0.02871064469218254
1772881641791413000,20.0074130859375,-1.0427461862564087,-1.5754202604293823,0.16737695038318634
1772881641808758000,20.024758056640625,-1.1081087589263916,-1.8503093719482422,0.27488914132118225
1772881641826103000,20.04210302734375,-1.1111630201339722,-2.081216335296631,0.4105011224746704
1772881641843447800,20.05944775390625,-1.082452416419983,-2.143524408340454,0.6071996092796326
1772881641860793000,20.07679296875,-1.008537769317627,-2.1087052822113037,0.750141978263855
1772881641878137900,20.094137939453127,-0.8698714375495911,-1.9022328853607178,0.7440332770347595
1772881641895483000,20.11148291015625,-0.7287616729736328,-1.590080976486206,0.6994401812553406
1772881641912828000,20.128827880859376,-0.6298015713691711,-1.1643083095550537,0.5864301919937134
1772881641930173000,20.1461728515625,-0.5039634704589844,-0.9938769936561584,0.5583304166793823
1772881641947518000,20.16351806640625,-0.3805687427520752,-0.8521563410758972,0.6957749724388123
1772881641964863000,20.180863037109376,-0.205861434340477,-0.6340776681900024,0.7812960743904114
1772881641982208000,20.1982080078125,0.02871064469218254,-0.5021308660507202,0.7837395071983337
1772881641999553000,20.215552978515625,0.22174391150474548,-0.28954991698265076,0.7415898442268372
1772881642016898000,20.23289794921875,0.3756818473339081,-0.31154105067253113,0.6823359727859497
1772881642034243000,20.2502431640625,0.46059203147888184,-0.18570289015769958,0.6456840634346008
1772881642051588000,20.267588134765624,0.45875945687294006,-0.34636032581329346,0.6218603253364563
1772881642068933000,20.28493310546875,0.44837474822998047,-0.46059203147888184,0.5442805290222168
1772881642086278100,20.302278076171874,0.5009090900421143,-0.5583304166793823,0.42271843552589417
1772881642103623200,20.319623046875,0.6023126840591431,-0.3958403766155243,0.37751442193984985
1772881642120968200,20.33696826171875,0.6615665555000305,-0.12644900381565094,0.44898560643196106
1772881642138313200,20.354313232421877,0.5925388336181641,0.18387030065059662,0.4630354940891266
1772881642155658200,20.371658203125,0.5253437161445618,0.4679224193096161,0.360410213470459
1772881642173003300,20.389003173828126,0.5271763205528259,0.7599157691001892,0.2993237376213074
1772881642190348300,20.406348388671876,0.44409868121147156,0.8680388331413269,0.3396408259868622
1772881642207693300,20.423693359375,0.3243691921234131,0.9193515181541443,0.45387253165245056
1772881642225038300,20.441038330078126,0.25900667905807495,1.0024291276931763,0.5222893953323364
1772881642242383400,20.45838330078125,0.3072649836540222,1.117882490158081,0.5009090900421143
1772881642259728400,20.475728271484375,0.36163195967674255,1.2382229566574097,0.4318813979625702
1772881642277073400,20.493073486328125,0.3194822669029236,1.2302817106246948,0.3964512348175049
1772881642294418400,20.51041845703125,0.2419024556875229,1.0848958492279053,0.3787361681461334
1772881642311763500,20.527763427734374,0.19669845700263977,0.9498947262763977,0.2987128794193268
1772881642329108500,20.5451083984375,0.1649334877729416,0.8723149299621582,0.20158538222312927
1772881642346453500,20.56245361328125,0.18081597983837128,0.7428115606307983,0.020158538594841957
1772881642363798500,20.579798583984374,0.24556763470172882,0.56382817029953,-0.1997527778148651
1772881642381143600,20.5971435546875,0.39828383922576904,0.42943793535232544,-0.4764745235443115
1772881642398488600,20.614488525390627,0.5711585879325867,0.49052441120147705,-0.7324268817901611
1772881642415833600,20.63183349609375,0.7648026943206787,0.5619956254959106,-0.861319363117218
1772881642433178600,20.6491787109375,0.861319363117218,0.7892373204231262,-0.9022472500801086
1772881642450523600,20.666523681640626,0.8839213252067566,1.1050543785095215,-0.8313869833946228
1772881642467868700,20.68386865234375,0.8735366463661194,1.5027273893356323,-0.8283326625823975
1772881642485213700,20.701213623046876,0.8393282294273376,1.8161009550094604,-0.8106175661087036
1772881642502558700,20.718558837890626,0.7929024696350098,1.7556253671646118,-0.880256175994873
1772881642519903700,20.73590380859375,0.6982184648513794,1.951712965965271,-0.6780598759651184
1772881642537248800,20.753248779296875,0.4312705397605896,1.6126830577850342,-0.37323838472366333
1772881642554593800,20.77059375,0.21746785938739777,1.1154390573501587,-0.39278605580329895
1772881642571938800,20.787938720703124,0.025045456364750862,1.0195332765579224,-0.4770853817462921
1772881642589283800,20.805283935546875,-0.23518294095993042,0.8258891701698303,-0.4673115611076355
1772881642606628900,20.82262890625,-0.4355465769767761,0.6065887212753296,-0.3274235129356384
1772881642623974000,20.839973876953124,-0.4838049113750458,0.2626718580722809,-0.1484401375055313
1772881642641319000,20.85731884765625,-0.4862483739852905,-0.23518294095993042,-0.1282816082239151
1772881642658664000,20.874663818359377,-0.49541133642196655,-0.27488914132118225,-0.3488037884235382
1772881642676009000,20.892009033203124,-0.46486809849739075,-0.1802051067352295,-0.49968740344047546
1772881642693353700,20.909353759765626,-0.360410213470459,-0.11423171311616898,-0.5558869242668152
1772881642710698800,20.92669873046875,-0.28588470816612244,-0.2968802750110626,-0.49541133642196655
1772881642728043800,20.944043701171875,-0.24312418699264526,-0.7422007322311401,-0.4062250852584839
1772881642745388800,20.961388916015625,-0.38179048895835876,-1.2461642026901245,-0.2412915825843811
1772881642762733800,20.97873388671875,-0.5424479246139526,-1.518609881401062,0.06047561392188072
1772881642780078800,20.996078857421875,-0.6444623470306396,-1.4605777263641357,0.3249800503253937
1772881642797423900,21.013423828125,-0.7464767694473267,-1.5039490461349487,0.49418962001800537
1772881642814769000,21.030768798828124,-0.7153226733207703,-1.6169590950012207,0.36651885509490967
1772881642832114000,21.048114013671874,-0.5693259835243225,-1.6951497793197632,0.24312418699264526
1772881642849459000,21.065458984375,-0.2822195291519165,-1.3585633039474487,0.27427828311920166
1772881642866804000,21.082803955078123,0.043982263654470444,-0.9022472500801086,0.3591884970664978
1772881642884149000,21.10014892578125,0.22663083672523499,-0.7244856357574463,0.379347026348114
1772881642901494000,21.117493896484376,0.22357651591300964,-0.9517273306846619,0.4514290690422058
1772881642918839000,21.134839111328127,0.23762640357017517,-1.0189224481582642,0.6682860851287842
1772881642936184000,21.15218408203125,0.43310311436653137,-0.4569268524646759,1.204014539718628
1772881642953529000,21.169529052734376,0.5320632457733154,-0.164322629570961,1.5430444478988647
1772881642970874000,21.1868740234375,0.5864301919937134,-0.39278605580329895,1.4104868173599243
1772881642988219100,21.20421923828125,0.5852084755897522,-0.7415898442268372,1.1972949504852295
1772881643005564200,21.221564208984375,0.6884446144104004,-0.9352339506149292,0.9834923148155212
1772881643022909200,21.2389091796875,0.7886264324188232,-1.110552191734314,0.9083559513092041
1772881643040254200,21.256254150390625,0.7721330523490906,-1.1398736238479614,1.0323615074157715
1772881643057599200,21.27359912109375,0.7275399565696716,-1.3182462453842163,0.9902117848396301
1772881643074944300,21.2909443359375,0.6933315396308899,-1.3371829986572266,0.7959567904472351
1772881643092289300,21.308289306640624,0.656679630279541,-0.7122683525085449,0.7379246354103088
1772881643109634300,21.32563427734375,0.5387827157974243,-0.23335035145282745,0.5125155448913574
1772881643126979300,21.342979248046873,0.5424479246139526,0.12278381735086441,0.22968515753746033
1772881643144324400,21.360324462890624,0.6585122346878052,0.3995055556297302,0.11178825795650482
1772881643161669400,21.37766943359375,0.7562506198883057,0.5595521330833435,0.16554436087608337
1772881643179014400,21.395014404296877,0.7666352987289429,0.6609556674957275,0.24495677649974823
1772881643196359400,21.412359375,0.7367029190063477,0.6945532560348511,0.19853104650974274
1772881643213704400,21.429704345703126,0.7037162184715271,0.7562506198883057,0.06780599057674408
1772881643231049500,21.447049560546876,0.593149721622467,0.7935133576393127,-0.03543015569448471
1772881643248394500,21.46439453125,0.39767298102378845,0.6365211009979248,-0.10934479534626007
1772881643265739500,21.481739501953125,0.23945899307727814,0.4098902642726898,-0.08552107214927673
1772881643283084500,21.49908447265625,0.12400554865598679,0.29443681240081787,0.08491020649671555
1772881643300429300,21.51642919921875,0.14233149588108063,0.24556763470172882,0.27916520833969116
1772881643317774600,21.533774658203125,0.27366742491722107,0.3433060050010681,0.3072649836540222
1772881643335119400,21.551119384765624,0.4471530318260193,0.19242240488529205,0.1594357043504715
1772881643352464600,21.568464599609374,0.593149721622467,0.35124725103378296,-0.21502439677715302
