time,seconds_elapsed,z,y,x
1772881621862748400,0.07874853515625,9.619147300720215,5.855237007141113,3.050848960876465
1772881621880093400,0.096093505859375,10.37767219543457,4.443471431732178,2.3497519493103027
1772881621897438500,0.1134384765625,10.48534870147705,5.123033046722412,1.887937068939209
1772881621914783500,0.130783447265625,10.29870891571045,5.802595138549805,1.2729816436767578
1772881621932128500,0.14812841796875,9.049654960632324,6.367300987243652,0.763310432434082
1772881621949473500,0.1654736328125,7.331608772277832,6.625725746154785,-0.12681959569454193
1772881621966818600,0.182818603515625,6.953542709350586,5.745167255401611,-1.0839486122131348
1772881621984163600,0.20016357421875,8.307880401611328,4.9124650955200195,-0.7896314859390259
1772881622001508600,0.217508544921875,5.120640277862549,4.347758769989014,-0.6293123364448547
1772881622018853600,0.234853515625,6.070590972900391,1.6821542978286743,0.8901300430297852
1772881622036198700,0.25219873046875,3.9433717727661133,2.368894338607788,0.15314064919948578
1772881622053543700,0.269543701171875,4.986642360687256,3.4815568923950195,-1.8711873292922974
1772881622070888700,0.286888671875,5.709274768829346,5.718846321105957,0.04307080805301666
1772881622088233700,0.304233642578125,9.956535339355469,5.702096462249756,3.211168050765991
1772881622105578800,0.321578857421875,10.432706832885742,4.728217601776123,5.1804609298706055
1772881622122923800,0.338923828125,8.901300430297852,2.328216314315796,4.689932346343994
1772881622140268800,0.356268798828125,8.666803359985352,-1.667797327041626,1.2538390159606934
1772881622157613800,0.37361376953125,9.58325481414795,0.29431718587875366,0.062213387340307236
1772881622174958800,0.390958740234375,10.427921295166016,0.7417750358581543,-1.94297194480896
1772881622192303900,0.408303955078125,9.664610862731934,0.49292147159576416,-3.074777126312256
1772881622209649000,0.42564892578125,8.059026718139648,-0.5527420043945312,-2.5531418323516846
1772881622226994000,0.442993896484375,5.6590256690979,-2.2851455211639404,-1.9166508913040161
1772881622244339000,0.4603388671875,4.005585193634033,-4.644468784332275,-1.734796404838562
1772881622261684000,0.47768408203125,3.4193434715270996,-8.015955924987793,-2.306680917739868
1772881622279029000,0.495029052734375,3.6227335929870605,-9.06401252746582,-4.890929698944092
1772881622296374000,0.5123740234375,2.9072794914245605,-10.942378044128418,-8.96829891204834
1772881622313719000,0.529718994140625,0.43549370765686035,-12.251252174377441,-12.227323532104492
1772881622331064000,0.54706396484375,-3.483949661254883,-15.850057601928711,-15.072389602661133
1772881622348409000,0.5644091796875,-2.823530673980713,-15.955341339111328,-19.692930221557617
1772881622365754000,0.581754150390625,1.5601203441619873,-11.590832710266113,-22.81077766418457
1772881622383099100,0.59909912109375,4.713860511779785,-6.183053493499756,-25.902305603027344
1772881622400444200,0.616444091796875,7.101897716522217,-0.851844847202301,-23.86122703552246
1772881622417789200,0.6337890625,5.278566837310791,2.1750757694244385,-20.26959991455078
1772881622435134000,0.651134033203125,1.6654045581817627,1.8089739084243774,-19.262222290039062
1772881622452479200,0.668479248046875,-1.3232308626174927,2.641676187515259,-19.99681854248047
1772881622469824000,0.685823974609375,-3.7878382205963135,6.577869415283203,-22.152751922607422
1772881622487169300,0.703169189453125,-7.022934436798096,8.030312538146973,-23.693729400634766
1772881622504514000,0.72051416015625,-8.60459041595459,6.898507595062256,-22.537996292114258
1772881622521859300,0.737859375,-8.6907320022583,0.4426721930503845,-17.647066116333008
1772881622539204000,0.7552041015625,-4.06540584564209,-8.358129501342773,-13.63908863067627
1772881622556549400,0.77254931640625,-3.7782669067382812,-13.586446762084961,-5.089533805847168
1772881622573894100,0.78989404296875,-4.9292144775390625,-16.49372673034668,0.07896314561367035
1772881622591239400,0.807239501953125,-4.187439441680908,-11.459227561950684,-0.45942193269729614
1772881622608584400,0.82458447265625,-1.5409778356552124,-7.511070251464844,-3.0795626640319824
1772881622625929500,0.841929443359375,3.4648072719573975,-8.647661209106445,-3.139383316040039
1772881622643274500,0.8592744140625,-2.053041934967041,-10.198209762573242,-2.352144718170166
1772881622660619300,0.876619384765625,4.560719966888428,-6.955935478210449,-7.470392227172852
1772881622677964500,0.893964599609375,7.860422611236572,-4.101297855377197,-11.997612953186035
1772881622695309300,0.911309326171875,9.724431037902832,-3.232703447341919,-11.703295707702637
1772881622712654300,0.928654296875,5.632704734802246,-5.015356063842773,-10.310672760009766
1772881622729999400,0.945999267578125,2.950350284576416,-4.156332969665527,-9.207581520080566
1772881622747344600,0.9633447265625,2.2205393314361572,-4.924428939819336,-10.456634521484375
1772881622764689400,0.980689453125,0.33020952343940735,-8.166703224182129,-9.736394882202148
1772881622782034400,0.998034423828125,-1.4021940231323242,-8.851051330566406,-8.7505521774292
1772881622799379500,1.01537939453125,-2.919243574142456,-7.128218650817871,-9.56650447845459
1772881622816724700,1.032724853515625,1.1892328262329102,-8.295916557312012,-9.678967475891113
1772881622834069800,1.05006982421875,0.16510476171970367,-7.219145774841309,-9.781859397888184
1772881622851414500,1.06741455078125,0.7537391185760498,-1.6295121908187866,-11.050054550170898
1772881622868759800,1.084759765625,3.022135019302368,-3.799802303314209,-9.719645500183105
1772881622886104600,1.1021044921875,-8.111668586730957,3.500699520111084,-11.308480262756348
1772881622903449900,1.119449951171875,0.8997012972831726,-4.1419758796691895,-6.876972198486328
1772881622920794600,1.136794677734375,6.106483459472656,-5.079962253570557,-0.4211367964744568
1772881622938139600,1.1541396484375,12.581461906433105,-6.671189308166504,3.9122650623321533
1772881622955484700,1.171484619140625,8.405985832214355,-0.6460621356964111,-0.6580262184143066
1772881622972829700,1.18882958984375,9.468399047851562,1.8376877307891846,-7.195217609405518
1772881622990174700,1.2061748046875,9.332008361816406,3.625126361846924,-12.524033546447754
1772881623007519700,1.223519775390625,3.005385160446167,3.014956474304199,-12.5742826461792
1772881623024865000,1.240864990234375,-7.841279983520508,2.9312076568603516,-12.981062889099121
1772881623042209800,1.258209716796875,-13.97408390045166,-2.1272194385528564,-14.933606147766113
1772881623059554800,1.275554931640625,-6.329015731811523,-8.908478736877441,-14.189437866210938
1772881623076899800,1.29289990234375,-0.3326023519039154,-12.401999473571777,-9.710074424743652
1772881623094244900,1.310244873046875,0.4833501875400543,-14.665610313415527,-0.8662018179893494
1772881623111590000,1.32758984375,-0.9619147181510925,-15.603596687316895,0.4713860750198364
1772881623128935000,1.344934814453125,-0.34695929288864136,-14.763715744018555,-0.9547362327575684
1772881623146280000,1.362280029296875,-1.1222338676452637,-9.080761909484863,-2.3617160320281982
1772881623163625000,1.379625,-1.7132610082626343,-2.8043880462646484,-3.345165967941284
1772881623180970000,1.396969970703125,2.493321180343628,-4.187439441680908,-11.535798072814941
1772881623198315000,1.41431494140625,-1.9669002294540405,-6.228517532348633,-17.319250106811523
1772881623215660000,1.431659912109375,-6.029912948608398,-11.267802238464355,-12.399606704711914
1772881623233005000,1.449005126953125,-2.1200408935546875,-10.351350784301758,-9.382257461547852
1772881623250350000,1.46635009765625,16.41954803466797,-17.27857208251953,-8.650053977966309
1772881623267695000,1.483695068359375,3.864408493041992,-8.468199729919434,-10.612168312072754
1772881623285040000,1.5010400390625,7.432106971740723,-4.319045066833496,-8.535198211669922
1772881623302385200,1.51838525390625,2.6321048736572266,-3.9984066486358643,-4.225724697113037
1772881623319730200,1.535730224609375,1.672582983970642,-6.900900363922119,-3.452843189239502
1772881623337075200,1.5530751953125,2.251646041870117,-8.482556343078613,-3.972085475921631
1772881623354420200,1.570420166015625,1.5649060010910034,-9.21715259552002,-6.690331935882568
1772881623371765200,1.58776513671875,2.6847469806671143,-8.803194046020508,-11.93061351776123
1772881623389110300,1.6051103515625,0.7106683254241943,-7.082755088806152,-8.11406135559082
1772881623406455300,1.622455322265625,-1.275374412536621,-3.840480327606201,-2.5387847423553467
1772881623423800300,1.63980029296875,-0.09810572862625122,-0.4977070987224579,0.8590233325958252
1772881623441145300,1.657145263671875,-0.8901300430297852,0.46899324655532837,3.0245277881622314
1772881623458490400,1.674490478515625,1.5314065217971802,-5.6590256690979,3.074777126312256
1772881623475835400,1.69183544921875,2.550748825073242,-9.9469633102417,1.8783657550811768
1772881623493180400,1.709180419921875,3.565305709838867,-11.186446189880371,1.222732424736023
1772881623510525400,1.726525390625,4.369294166564941,-10.636096954345703,1.423729419708252
1772881623527870500,1.743870361328125,3.81655216217041,-11.085947036743164,2.0793628692626953
1772881623545215500,1.761215576171875,2.0338993072509766,-10.750951766967773,2.495713949203491
1772881623562560500,1.778560546875,1.31365966796875,-9.884750366210938,2.012363910675049
1772881623579905500,1.795905517578125,1.184447169303894,-8.755337715148926,1.0839486122131348
1772881623597250600,1.81325048828125,0.9643075466156006,-6.685546398162842,0.20099709928035736
1772881623614595600,1.830595703125,3.82373046875,-6.946363925933838,0.04307080805301666
1772881623631940400,1.8479404296875,3.8213376998901367,-8.073383331298828,-0.5934200286865234
1772881623649285400,1.865285400390625,2.1655044555664062,-11.078768730163574,-0.1459621787071228
1772881623666630400,1.88263037109375,3.273381471633911,-14.758930206298828,0.2799602448940277
1772881623683975400,1.899975341796875,1.825723648071289,-17.546567916870117,-1.6845471858978271
1772881623701320400,1.917320556640625,3.019742250442505,-13.588839530944824,-1.8735800981521606
1772881623718665500,1.93466552734375,3.9625144004821777,-11.459227561950684,0.2512463629245758
1772881623736010500,1.952010498046875,4.517649173736572,-9.674181938171387,-1.1629117727279663
1772881623753355500,1.96935546875,12.930813789367676,-7.836493968963623,-0.97148597240448
1772881623770700500,1.986700439453125,3.620340585708618,-9.745966911315918,-0.5455635786056519
1772881623788045600,2.004045654296875,-0.25363919138908386,-11.351551055908203,1.5098711252212524
1772881623805390600,2.021390625,1.7850457429885864,-9.4660062789917,2.823530673980713
1772881623822735600,2.038735595703125,0.7202396392822266,-7.989634990692139,1.0815558433532715
1772881623840080600,2.05608056640625,-0.038285162299871445,-5.826523303985596,-0.35413774847984314
1772881623857425700,2.07342578125,2.6392834186553955,-9.671789169311523,-0.23449662327766418
1772881623874770700,2.090770751953125,0.7082754969596863,-6.833901405334473,-4.596612453460693
1772881623892115700,2.10811572265625,2.1750757694244385,-9.389435768127441,-0.9690931439399719
1772881623909460700,2.125460693359375,3.3379876613616943,-8.614161491394043,0.6005984544754028
1772881623926805800,2.1428056640625,4.0319061279296875,-9.9469633102417,1.0145567655563354
1772881623944150800,2.16015087890625,4.074976921081543,-12.083754539489746,0.2512463629245758
1772881623961495800,2.177495849609375,3.2063822746276855,-12.937992095947266,-0.8350951075553894
1772881623978840800,2.1948408203125,2.713460922241211,-11.33958625793457,-0.5647061467170715
1772881623996185900,2.212185791015625,3.3547372817993164,-10.124032974243164,-0.3206382393836975
1772881624013531000,2.22953076171875,3.28773832321167,-10.243673324584961,0.5120640397071838
1772881624030876000,2.2468759765625,3.531806230545044,-9.55214786529541,0.914058268070221
1772881624048221000,2.264220947265625,3.799802303314209,-9.284152030944824,1.6558332443237305
1772881624065566000,2.28156591796875,2.478964328765869,-9.633503913879395,0.9690931439399719
1772881624082911000,2.298910888671875,1.5672988891601562,-9.561718940734863,0.7752745151519775
1772881624100256000,2.316256103515625,1.404586911201477,-9.322437286376953,1.2203395366668701
1772881624117600800,2.333600830078125,3.053241729736328,-11.734402656555176,1.5170495510101318
1772881624134946000,2.350946044921875,3.5030922889709473,-12.564711570739746,-0.4785645306110382
1772881624152290800,2.368290771484375,4.082155227661133,-11.026126861572266,-2.761317253112793
1772881624169635800,2.3856357421875,5.197210788726807,-5.489135265350342,-1.4715858697891235
1772881624186980900,2.40298095703125,6.556334018707275,-0.2991028428077698,0.5910272002220154
1772881624204326000,2.420325927734375,10.77248764038086,-8.408378601074219,3.651447296142578
1772881624221671000,2.4376708984375,1.9764715433120728,-4.409972190856934,-1.1174482107162476
1772881624239016000,2.455015869140625,0.9212366938591003,-11.751152038574219,3.6394832134246826
1772881624256361000,2.47236083984375,1.6414763927459717,-14.378471374511719,0.12921242415905
1772881624273706000,2.4897060546875,3.366701364517212,-11.997612953186035,1.0241280794143677
1772881624291051000,2.507051025390625,6.128018856048584,-10.932806968688965,-0.14356936514377594
1772881624308396000,2.52439599609375,3.074777126312256,-10.593026161193848,-0.28953152894973755
1772881624325741000,2.541740966796875,0.16749759018421173,-8.135597229003906,0.19142581522464752
1772881624343086000,2.559086181640625,-1.8783657550811768,-6.281159400939941,1.3399807214736938
1772881624360431000,2.57643115234375,0.3756731450557709,-5.72123908996582,1.0719845294952393
1772881624377776000,2.593776123046875,0.14356936514377594,-0.9379864931106567,-0.1698904037475586
1772881624395121200,2.61112109375,2.531606435775757,-2.2157537937164307,-0.34695929288864136
1772881624412466200,2.628466064453125,5.498706340789795,-8.973084449768066,0.5982056856155396
1772881624429811200,2.645811279296875,7.850851058959961,-35.358741760253906,3.538984775543213
1772881624447156200,2.66315625,-2.3784656524658203,-15.230316162109375,0.5144568681716919
1772881624464501200,2.680501220703125,0.47617170214653015,-4.273581027984619,1.557727575302124
1772881624481846300,2.69784619140625,4.1036906242370605,0.7417750358581543,-0.24646073579788208
1772881624499191300,2.71519140625,2.823530673980713,2.557927370071411,-0.5072783827781677
1772881624516536300,2.732536376953125,4.46979284286499,2.1774685382843018,-1.6295121908187866
1772881624533881300,2.74988134765625,5.970092296600342,-6.273981094360352,1.038485050201416
1772881624551226400,2.767226318359375,5.127819061279297,-26.395227432250977,4.800002098083496
1772881624568571400,2.7845712890625,2.249253273010254,-26.15355110168457,0.9786644577980042
1772881624585916400,2.80191650390625,2.9934210777282715,-11.593225479125977,0.2153540402650833
1772881624603261200,2.81926123046875,3.1513473987579346,-5.426921844482422,-0.6484549641609192
1772881624620606200,2.836606201171875,4.381258487701416,-3.5461630821228027,-0.7441678643226624
1772881624637951200,2.853951171875,3.1489546298980713,-6.69990348815918,0.8470591902732849
1772881624655296300,2.871296142578125,2.368894338607788,-9.829715728759766,1.9214365482330322
1772881624672641300,2.888641357421875,2.737389087677002,-10.387243270874023,1.7180466651916504
1772881624689986300,2.905986328125,3.555734395980835,-10.346565246582031,0.6317051649093628
1772881624707331300,2.923331298828125,4.656432628631592,-10.710273742675781,0.34217363595962524
1772881624724676400,2.94067626953125,5.245067119598389,-11.437692642211914,0.5335994362831116
1772881624742021400,2.958021484375,4.1659040451049805,-11.01416301727295,0.7968099117279053
1772881624759366400,2.975366455078125,3.555734395980835,-10.540383338928223,1.1198409795761108
1772881624776711400,2.99271142578125,3.012563705444336,-10.05703353881836,0.9212366938591003
1772881624794056400,3.010056396484375,3.091526746749878,-9.353543281555176,0.8327022790908813
1772881624811401500,3.0274013671875,2.723032236099243,-7.812565803527832,0.6197410821914673
1772881624828746500,3.04474658203125,3.0245277881622314,-6.941578388214111,-0.17706887423992157
1772881624846091500,3.062091552734375,3.531806230545044,-7.082755088806152,-0.6245267391204834
1772881624863436500,3.0794365234375,4.4961137771606445,-8.566305160522461,0.2967100143432617
1772881624880781600,3.096781494140625,4.869394302368164,-9.382257461547852,1.2083754539489746
1772881624898126600,3.114126708984375,4.436293125152588,-9.056833267211914,1.6845471858978271
1772881624915471600,3.1314716796875,4.350151538848877,-8.812766075134277,1.5840486288070679
1772881624932816600,3.148816650390625,4.589433670043945,-9.394221305847168,1.2634103298187256
1772881624950161700,3.16616162109375,4.527220249176025,-11.274980545043945,1.5385849475860596
1772881624967506700,3.183506591796875,4.175475597381592,-12.299108505249023,2.0027925968170166
1772881624984851700,3.200851806640625,4.187439441680908,-11.576476097106934,2.7972097396850586
1772881625002196700,3.21819677734375,4.242474555969238,-9.226723670959473,4.328616142272949
1772881625019541800,3.235541748046875,3.2470602989196777,-7.5637125968933105,4.658825874328613
1772881625036886800,3.25288671875,3.541377544403076,-7.539783954620361,2.7326035499572754
1772881625054231800,3.270231689453125,3.9074792861938477,-8.331808090209961,1.2993026971817017
1772881625071576800,3.287576904296875,4.292723655700684,-9.511469841003418,0.9834501147270203
1772881625088921900,3.304921875,5.295316696166992,-9.870393753051758,2.0195422172546387
1772881625106267000,3.322266845703125,6.556334018707275,-8.798408508300781,2.8522446155548096
1772881625123611600,3.339611572265625,6.283552169799805,-8.630910873413086,3.0005996227264404
1772881625140956700,3.356956787109375,4.852644443511963,-9.293723106384277,2.902493953704834
1772881625158301700,3.3743017578125,4.364508628845215,-9.678967475891113,2.2325034141540527
1772881625175646700,3.391646728515625,4.101297855377197,-9.145368576049805,2.6464617252349854
1772881625192992000,3.408991943359375,5.003392219543457,-7.956135272979736,3.510270833969116
1772881625210336800,3.426336669921875,5.2043890953063965,-7.252645492553711,4.1730828285217285
1772881625227681800,3.443681884765625,5.072783946990967,-6.733402729034424,3.680161237716675
1772881625245026800,3.46102685546875,4.680361270904541,-6.774080753326416,3.421736478805542
1772881625262371800,3.478371826171875,3.9672999382019043,-6.8243303298950195,3.3858439922332764
1772881625279716900,3.495716796875,3.926621913909912,-5.78345251083374,3.3164522647857666
1772881625297062000,3.513061767578125,3.5581271648406982,-4.7401814460754395,3.043670415878296
1772881625314407000,3.530406982421875,4.0079779624938965,-5.7547383308410645,3.493520975112915
1772881625331752000,3.547751953125,3.902693748474121,-6.486942291259766,3.751945972442627
1772881625349097000,3.565096923828125,4.508078098297119,-6.25723123550415,3.493520975112915
1772881625366442000,3.58244189453125,5.170889854431152,-6.190232276916504,3.665804386138916
1772881625383787000,3.599787109375,5.498706340789795,-6.4319071769714355,3.91705060005188
1772881625401132000,3.617132080078125,5.876772403717041,-7.396214962005615,3.9146578311920166
1772881625418477000,3.63447705078125,5.290530681610107,-7.345965385437012,3.735196113586426
1772881625435822000,3.651822021484375,4.431507587432861,-7.1234331130981445,2.9288148880004883
1772881625453167000,3.6691669921875,3.7663028240203857,-7.472784996032715,2.337787628173828
1772881625470512000,3.68651220703125,3.3475589752197266,-7.197610378265381,1.8807586431503296
1772881625487857200,3.703857177734375,3.13220477104187,-7.0995049476623535,2.115255117416382
1772881625505202200,3.7212021484375,3.5365917682647705,-6.805187702178955,2.3234307765960693
1772881625522547200,3.738547119140625,4.266402721405029,-5.974878311157227,2.0482561588287354
1772881625539892200,3.755892333984375,4.661218643188477,-6.072983741760254,2.007578134536743
1772881625557237200,3.7732373046875,5.048855781555176,-7.037291526794434,2.124826431274414
1772881625574582300,3.790582275390625,6.10169792175293,-8.008777618408203,2.50289249420166
1772881625591927300,3.80792724609375,7.3052873611450195,-9.114261627197266,3.1800613403320312
1772881625609272300,3.825272216796875,7.664210796356201,-10.315458297729492,3.2231321334838867
1772881625626617300,3.842617431640625,7.015756130218506,-11.626725196838379,2.8139593601226807
1772881625643962400,3.85996240234375,6.1710896492004395,-12.28953742980957,2.342573404312134
1772881625661307400,3.877307373046875,5.5968122482299805,-11.571690559387207,2.926422119140625
1772881625678652400,3.89465234375,4.194618225097656,-9.930213928222656,4.048655986785889
1772881625695997400,3.91199755859375,3.6538400650024414,-7.410571575164795,4.596612453460693
1772881625713342500,3.929342529296875,3.6083765029907227,-5.565705299377441,3.601198196411133
1772881625730687500,3.9466875,4.649254322052002,-4.72582483291626,2.122433662414551
1772881625748032500,3.964032470703125,6.211767673492432,-4.955535888671875,0.7992027401924133
1772881625765377500,3.98137744140625,7.582854747772217,-6.374479293823242,0.885344386100769
1772881625782722600,3.99872265625,7.2813591957092285,-8.008777618408203,1.947757601737976
1772881625800067600,4.016067626953125,6.204588890075684,-8.86780071258545,2.66560435295105
1772881625817412600,4.03341259765625,6.180660724639893,-10.569097518920898,3.366701364517212
1772881625834757600,4.050757568359375,6.460621356964111,-13.043275833129883,3.9768712520599365
1772881625852102700,4.0681025390625,5.381458282470703,-12.626925468444824,3.8500516414642334
1772881625869447700,4.08544775390625,4.6061835289001465,-9.473184585571289,1.828116536140442
1772881625886792400,4.10279248046875,4.261617183685303,-6.7621169090271,1.155733346939087
1772881625904137700,4.1201376953125,4.012763500213623,-6.0849480628967285,1.00259268283844
1772881625921482500,4.137482421875,4.364508628845215,-7.17368221282959,1.7443677186965942
1772881625938827500,4.15482763671875,4.9292144775390625,-8.846264839172363,2.5459632873535156
1772881625956172500,4.172172607421875,4.874179840087891,-10.504491806030273,2.9623143672943115
1772881625973517600,4.189517578125,5.6590256690979,-11.320444107055664,3.5222349166870117
1772881625990862600,4.206862548828125,6.625725746154785,-10.820343971252441,3.6873397827148438
1772881626008207600,4.22420751953125,6.69990348815918,-9.516255378723145,3.077169895172119
1772881626025552600,4.241552734375,6.226124286651611,-8.865407943725586,2.2947168350219727
1772881626042897700,4.258897705078125,5.170889854431152,-8.760123252868652,1.8400806188583374
1772881626060242700,4.27624267578125,5.034498691558838,-7.987242221832275,2.045863389968872
1772881626077587700,4.293587646484375,5.737988471984863,-7.372286796569824,3.084348440170288
1772881626094932700,4.3109326171875,4.914857864379883,-6.491727828979492,3.5748770236968994
1772881626112277800,4.32827783203125,4.3788652420043945,-6.7310099601745605,3.8285162448883057
1772881626129622800,4.345622802734375,5.280959606170654,-8.001599311828613,3.7016966342926025
1772881626146967800,4.3629677734375,6.288337707519531,-8.34855842590332,4.467400074005127
1772881626164312800,4.380312744140625,6.530013084411621,-7.738388538360596,4.823930263519287
1772881626181657900,4.397657958984375,6.156732559204102,-6.7932233810424805,4.4482574462890625
1772881626199003000,4.4150029296875,6.041877269744873,-6.7621169090271,4.192225456237793
1772881626216348000,4.432347900390625,5.7619171142578125,-6.640082836151123,4.232903480529785
1772881626233693000,4.44969287109375,5.474778175354004,-6.874579429626465,4.1659040451049805
1772881626251038000,4.467037841796875,4.934000492095947,-6.570691108703613,3.8524444103240967
1772881626268383000,4.484383056640625,4.515256404876709,-5.283352375030518,3.4791641235351562
1772881626285728000,4.50172802734375,3.8907296657562256,-5.254638671875,3.5222349166870117
1772881626303073000,4.519072998046875,3.895515203475952,-5.410171985626221,3.6442689895629883
1772881626320418000,4.53641796875,3.830909013748169,-5.388636589050293,3.304488182067871
1772881626337763000,4.55376318359375,4.2281174659729,-5.78345251083374,3.029313564300537
1772881626355108000,4.571108154296875,4.8813581466674805,-6.120840549468994,3.239881753921509
1772881626372453000,4.588453125,5.319244861602783,-6.3122663497924805,3.596412420272827
1772881626389798100,4.605798095703125,5.412564754486084,-6.563512325286865,3.8021950721740723
1772881626407143200,4.62314306640625,5.61116886138916,-7.03489875793457,3.9625144004821777
1772881626424488200,4.64048828125,5.86002254486084,-7.575676441192627,4.175475597381592
1772881626441833200,4.657833251953125,6.446264266967773,-7.953742504119873,4.689932346343994
1772881626459178200,4.67517822265625,6.671189308166504,-7.767102241516113,4.790431022644043
1772881626476523300,4.692523193359375,6.620940208435059,-7.314858913421631,4.225724697113037
1772881626493868300,4.709868408203125,5.886343479156494,-7.025327205657959,3.964907169342041
1772881626511213300,4.72721337890625,4.972285270690918,-6.577869415283203,3.3882367610931396
1772881626528558300,4.744558349609375,4.1659040451049805,-6.400800704956055,2.761317253112793
1772881626545903400,4.7619033203125,3.7663028240203857,-6.1710896492004395,2.225325107574463
1772881626563248400,4.779248291015625,4.015156269073486,-6.223731517791748,2.093719720840454
1772881626580593400,4.796593505859375,4.070191383361816,-6.766902446746826,2.455035924911499
1772881626597938400,4.8139384765625,4.838287353515625,-8.4562349319458,2.7182464599609375
1772881626615283500,4.831283447265625,5.7619171142578125,-9.439684867858887,2.2396819591522217
1772881626632628500,4.84862841796875,6.44387149810791,-10.126425743103027,2.196611166000366
1772881626649973500,4.865973388671875,6.290730953216553,-10.198209762573242,2.6632115840911865
1772881626667318500,4.883318603515625,7.657032489776611,-10.533205032348633,4.000799655914307
1772881626684663600,4.90066357421875,8.530412673950195,-11.696117401123047,5.5106706619262695
1772881626702008600,4.918008544921875,7.434499740600586,-12.246466636657715,3.7399818897247314
1772881626719353600,4.935353515625,6.6352972984313965,-12.258430480957031,2.847458839416504
1772881626736698600,4.95269873046875,6.149554252624512,-10.861021995544434,2.943171739578247
1772881626754043600,4.970043701171875,4.620540618896484,-8.834300994873047,2.7565317153930664
1772881626771388700,4.987388671875,3.524627685546875,-8.118846893310547,1.6414763927459717
1772881626788733700,5.004733642578125,2.706282377243042,-7.8388872146606445,1.1102696657180786
1772881626806078700,5.02207861328125,2.8666014671325684,-7.929814338684082,0.9810572862625122
1772881626823423700,5.039423828125,3.9864425659179688,-7.04207706451416,1.0049854516983032
1772881626840768800,5.056768798828125,4.924428939819336,-7.085147857666016,1.4069796800613403
1772881626858113800,5.07411376953125,5.3455657958984375,-8.044670104980469,2.0578274726867676
1772881626875458800,5.091458740234375,5.8097734451293945,-9.133403778076172,1.9357935190200806
1772881626892803600,5.108803466796875,5.953342914581299,-10.107282638549805,2.256431818008423
1772881626910148900,5.12614892578125,6.3601226806640625,-10.990234375,2.806781053543091
1772881626927493600,5.14349365234375,7.128218650817871,-12.358928680419922,3.541377544403076
1772881626944838700,5.160838623046875,7.044469833374023,-13.737195014953613,4.00319242477417
1772881626962183700,5.17818359375,6.154339790344238,-12.746565818786621,4.01037073135376
1772881626979528700,5.19552880859375,4.802394866943359,-10.200602531433105,2.9934210777282715
1772881626996873700,5.212873779296875,3.81655216217041,-7.549355506896973,1.7467604875564575
1772881627014218800,5.23021875,3.1824541091918945,-5.759523868560791,1.4500504732131958
1772881627031563800,5.247563720703125,3.2279176712036133,-5.79063081741333,1.6462619304656982
1772881627048908800,5.26490869140625,3.5605201721191406,-7.085147857666016,1.9692929983139038
1772881627066253800,5.28225390625,3.8333017826080322,-7.850851058959961,2.0195422172546387
1772881627083598800,5.299598876953125,3.94097900390625,-7.6474609375,2.5387847423553467
1772881627100944000,5.31694384765625,5.584847927093506,-9.379864692687988,3.744767427444458
1772881627118289000,5.334288818359375,8.09970474243164,-10.408778190612793,5.429314613342285
1772881627135634000,5.351634033203125,9.571290969848633,-8.276773452758789,6.527620315551758
1772881627152979000,5.36897900390625,9.276973724365234,-7.487142086029053,6.144768714904785
1772881627170324000,5.386323974609375,7.128218650817871,-6.573083877563477,4.9052863121032715
1772881627187669000,5.4036689453125,6.123233318328857,-5.72841739654541,4.874179840087891
1772881627205014000,5.421013916015625,5.769095420837402,-4.7234320640563965,5.745167255401611
1772881627222359000,5.438359130859375,4.5583271980285645,-4.651647090911865,4.926821708679199
1772881627239704000,5.4557041015625,2.9694929122924805,-4.42193603515625,3.4265220165252686
1772881627257049000,5.473049072265625,1.490728497505188,-4.309473514556885,2.3569302558898926
1772881627274394000,5.49039404296875,1.8664016723632812,-5.230710506439209,2.0721843242645264
1772881627291739100,5.5077392578125,2.706282377243042,-5.0703911781311035,2.1822543144226074
1772881627309084200,5.525084228515625,2.7326035499572754,-4.7473602294921875,2.4023938179016113
1772881627326429200,5.54242919921875,3.022135019302368,-6.013163089752197,2.620140790939331
1772881627343774200,5.559774169921875,4.182653903961182,-9.186046600341797,2.5196423530578613
1772881627361119200,5.577119140625,5.7786664962768555,-11.590832710266113,2.7589244842529297
1772881627378464300,5.59446435546875,7.8388872146606445,-11.006983757019043,3.4169507026672363
1772881627395809300,5.611809326171875,9.119047164916992,-9.736394882202148,4.264009952545166
1772881627413154300,5.629154296875,9.052047729492188,-9.305686950683594,5.103890895843506
1772881627430499300,5.646499267578125,9.439684867858887,-10.293923377990723,5.580062389373779
1772881627447844400,5.66384423828125,9.142974853515625,-10.212567329406738,5.467599868774414
1772881627465189400,5.681189453125,7.2095746994018555,-9.164510726928711,4.541577339172363
1772881627482534400,5.698534423828125,5.6446685791015625,-7.7216386795043945,3.019742250442505
1772881627499879400,5.71587939453125,4.811966419219971,-7.085147857666016,1.825723648071289
1772881627517224400,5.733224365234375,4.015156269073486,-6.350551128387451,1.1748759746551514
1772881627534569500,5.750569580078125,3.5988051891326904,-5.8337016105651855,0.9044869542121887
1772881627551914500,5.76791455078125,3.610769271850586,-5.9198431968688965,0.8111668825149536
1772881627569259500,5.785259521484375,3.1920254230499268,-5.934200286865234,0.9116654396057129
1772881627586604500,5.8026044921875,3.7734813690185547,-6.168696880340576,0.916451096534729
1772881627603949600,5.819949462890625,5.776273727416992,-7.700103282928467,1.8496519327163696
1772881627621294600,5.837294677734375,7.917850017547607,-8.154739379882812,2.3617160320281982
1772881627638639600,5.8546396484375,9.650253295898438,-8.042277336120605,3.2159535884857178
1772881627655984600,5.871984619140625,8.030312538146973,-8.941978454589844,4.053441524505615
1772881627673329700,5.88932958984375,6.544369697570801,-10.60977554321289,3.4983067512512207
1772881627690674700,5.9066748046875,7.671389579772949,-12.284751892089844,2.7326035499572754
1772881627708019700,5.924019775390625,8.324629783630371,-13.643875122070312,3.184846878051758
1772881627725364700,5.94136474609375,7.288537979125977,-12.772887229919434,3.4241292476654053
1772881627742709800,5.958709716796875,6.235695838928223,-10.231709480285645,3.3332018852233887
1772881627760054800,5.9760546875,5.123033046722412,-8.365307807922363,2.713460922241211
1772881627777399800,5.99339990234375,5.3694939613342285,-7.716853141784668,1.397408366203308
1772881627794744800,6.010744873046875,5.740381717681885,-7.451249599456787,0.9284151792526245
1772881627812089900,6.02808984375,6.03948450088501,-7.369893550872803,1.5720844268798828
1772881627829435000,6.045434814453125,6.113661766052246,-7.18086051940918,2.352144718170166
1772881627846780000,6.06277978515625,6.015556335449219,-6.941578388214111,2.2468605041503906
1772881627864125000,6.080125,6.350551128387451,-7.362715244293213,1.8711873292922974
1772881627881470000,6.097469970703125,6.601797580718994,-9.174081802368164,2.3952155113220215
1772881627898815000,6.11481494140625,5.623133182525635,-10.076175689697266,3.572484254837036
1772881627916160000,6.132159912109375,3.067598581314087,-9.245866775512695,3.3714871406555176
1772881627933505000,6.149505126953125,2.59621262550354,-8.38684368133545,3.0101709365844727
1772881627950850000,6.16685009765625,3.390629768371582,-8.250452041625977,2.861815929412842
1772881627968195000,6.184195068359375,4.027120590209961,-6.809973239898682,2.5363919734954834
1772881627985540000,6.2015400390625,5.388636589050293,-7.936992645263672,3.783052682876587
1772881628002885000,6.218885009765625,8.049455642700195,-7.767102241516113,5.237888813018799
1772881628020230100,6.236230224609375,9.233902931213379,-5.711667537689209,6.214160442352295
1772881628037575200,6.2535751953125,8.666803359985352,-5.84566593170166,5.639883041381836
1772881628054920200,6.270920166015625,8.432307243347168,-7.1234331130981445,6.008377552032471
1772881628072265200,6.28826513671875,8.982656478881836,-6.953542709350586,6.240481376647949
1772881628089610200,6.3056103515625,7.4464640617370605,-4.615755081176758,5.78345251083374
1772881628106955300,6.322955322265625,5.218746185302734,-2.6321048736572266,4.646861553192139
1772881628124300300,6.34030029296875,3.404986619949341,-2.5770699977874756,3.570091485977173
1772881628141645300,6.357645263671875,2.885744094848633,-3.728017568588257,2.8809585571289062
1772881628158990300,6.374990234375,1.9716858863830566,-4.01754903793335,2.423929452896118
1772881628176335400,6.39233544921875,2.122433662414551,-4.4650068283081055,2.108076810836792
1772881628193680400,6.409680419921875,2.6273193359375,-6.941578388214111,2.5770699977874756
1772881628211025400,6.427025390625,5.13021183013916,-9.506684303283691,4.084548473358154
1772881628228370400,6.444370361328125,6.786045074462891,-7.936992645263672,4.797609329223633
1772881628245715500,6.461715576171875,7.549355506896973,-4.567898273468018,3.0077781677246094
1772881628263060500,6.479060546875,7.458428382873535,-6.422336101531982,2.1200408935546875
1772881628280405500,6.496405517578125,8.640482902526855,-8.48734188079834,3.9625144004821777
1772881628297750500,6.51375048828125,10.547562599182129,-8.62612533569336,6.429514408111572
1772881628315095600,6.531095458984375,9.67657470703125,-7.264609336853027,6.819544315338135
1772881628332440600,6.548440673828125,7.685746192932129,-6.97986364364624,4.883750915527344
1772881628349785600,6.56578564453125,5.175675392150879,-7.0923261642456055,3.2039895057678223
1772881628367130600,6.583130615234375,3.926621913909912,-6.735795974731445,1.1198409795761108
1772881628384475600,6.6004755859375,3.9625144004821777,-5.979663848876953,-0.16031911969184875
1772881628401820700,6.617820556640625,4.098905086517334,-5.2283172607421875,0.24406790733337402
1772881628419165700,6.635165771484375,5.553741455078125,-5.242674350738525,1.4428720474243164
1772881628436510700,6.6525107421875,7.817351341247559,-5.905486106872559,2.4287149906158447
1772881628453855700,6.669855712890625,9.506684303283691,-7.168896675109863,3.555734395980835
1772881628471200800,6.68720068359375,10.557133674621582,-9.18843936920166,4.9531426429748535
1772881628488545800,6.7045458984375,10.336994171142578,-10.109675407409668,4.697110652923584
1772881628505890800,6.721890869140625,10.908878326416016,-10.473384857177734,3.304488182067871
1772881628523235800,6.73923583984375,11.47119140625,-10.528419494628906,4.680361270904541
1772881628540580900,6.756580810546875,10.408778190612793,-10.054640769958496,6.197410583496094
1772881628557926000,6.77392578125,9.116654396057129,-6.984649181365967,4.9986066818237305
1772881628575271000,6.79127099609375,7.511070251464844,-4.910071849822998,3.201596736907959
1772881628592616000,6.808615966796875,5.127819061279297,-5.302495002746582,1.581655740737915
1772881628609961000,6.8259609375,3.9290146827697754,-6.821937561035156,0.9619147181510925
1772881628627306000,6.843305908203125,4.118047714233398,-8.544769287109375,0.8925228714942932
1772881628644651000,6.860651123046875,5.2977094650268555,-7.779066562652588,1.4931213855743408
1772881628661996000,6.87799609375,6.965506553649902,-6.675975322723389,1.3112667798995972
1772881628679341000,6.895341064453125,8.159524917602539,-7.267002582550049,1.34476637840271
1772881628696686000,6.91268603515625,9.142974853515625,-8.93958568572998,3.2542388439178467
1772881628714031000,6.930031005859375,10.001998901367188,-10.40638542175293,5.726024627685547
1772881628731376000,6.947376220703125,10.124032974243164,-9.044869422912598,6.486942291259766
1772881628748721200,6.96472119140625,8.331808090209961,-7.434499740600586,5.637490272521973
1772881628766066200,6.982066162109375,6.766902446746826,-6.994220733642578,4.749752998352051
1772881628783411200,6.9994111328125,6.283552169799805,-7.159325122833252,3.830909013748169
1772881628800756200,7.016756103515625,5.714060306549072,-6.491727828979492,3.6945180892944336
1772881628818101200,7.034101318359375,4.993820667266846,-5.096712112426758,3.2303106784820557
1772881628835446300,7.0514462890625,4.639683246612549,-4.211368083953857,3.187239646911621
1772881628852791300,7.068791259765625,5.682953834533691,-4.4410786628723145,3.6849467754364014
1772881628870136300,7.08613623046875,6.592226505279541,-4.704289436340332,4.907679080963135
1772881628887481300,7.1034814453125,7.960920810699463,-5.340780258178711,5.149354457855225
1772881628904826400,7.120826416015625,8.02791976928711,-5.718846321105957,4.335794448852539
1772881628922171400,7.13817138671875,6.563512325286865,-5.06799840927124,3.500699520111084
1772881628939516400,7.155516357421875,5.955735683441162,-4.711467742919922,3.7112679481506348
1772881628956861400,7.172861328125,6.6113691329956055,-4.634897232055664,4.792823791503906
1772881628974206500,7.19020654296875,7.518248558044434,-3.060420274734497,5.828916072845459
1772881628991551500,7.207551513671875,6.419943332672119,-1.710868239402771,5.759523868560791
1772881629008896500,7.224896484375,4.374079704284668,-2.60339093208313,5.029713153839111
1772881629026241500,7.242241455078125,4.070191383361816,-4.893322467803955,4.60139799118042
1772881629043586600,7.259586669921875,3.864408493041992,-6.214160442352295,3.893122434616089
1772881629060931600,7.276931640625,4.522434711456299,-7.357929706573486,3.2135608196258545
1772881629078276600,7.294276611328125,6.3840508460998535,-6.747759819030762,3.5748770236968994
1772881629095621600,7.31162158203125,6.932007312774658,-4.036691665649414,4.070191383361816
1772881629112966700,7.328966552734375,6.503692150115967,-3.383451223373413,3.759124279022217
1772881629130311700,7.346311767578125,5.824130535125732,-3.579662561416626,3.7806596755981445
1772881629147656700,7.36365673828125,5.79063081741333,-3.4241292476654053,4.242474555969238
1772881629165001700,7.381001708984375,6.417550563812256,-4.07258415222168,3.9864425659179688
1772881629182346800,7.3983466796875,7.1234331130981445,-5.264209747314453,3.5844483375549316
1772881629199691800,7.41569189453125,7.501499176025391,-6.427121639251709,3.201596736907959
1772881629217036800,7.433036865234375,8.389236450195312,-6.989434719085693,2.9288148880004883
1772881629234381800,7.4503818359375,9.604789733886719,-7.058826923370361,3.328416347503662
1772881629251726800,7.467726806640625,10.356136322021484,-6.422336101531982,3.6466617584228516
1772881629269072000,7.48507177734375,9.896714210510254,-5.960521221160889,3.7160534858703613
1772881629286417000,7.5024169921875,8.09252643585205,-5.840879917144775,3.7806596755981445
1772881629303762000,7.519761962890625,6.771687984466553,-5.907878875732422,3.1561331748962402
1772881629321107000,7.53710693359375,7.314858913421631,-7.195217609405518,1.6582261323928833
1772881629338452000,7.554451904296875,9.992427825927734,-8.748159408569336,1.0193424224853516
1772881629355797000,7.571796875,16.007984161376953,-8.451449394226074,2.282752752304077
1772881629373142000,7.58914208984375,16.85743522644043,-5.821737289428711,5.058426856994629
1772881629390487000,7.606487060546875,9.91107177734375,-4.42193603515625,4.517649173736572
1772881629407832000,7.62383203125,7.590033531188965,-4.766502857208252,2.572284460067749
1772881629425177000,7.641177001953125,6.69990348815918,-4.890929698944092,1.7252250909805298
1772881629442522000,7.658522216796875,6.20219612121582,-4.54636287689209,1.3399807214736938
1772881629459867100,7.6758671875,4.972285270690918,-4.156332969665527,1.8975083827972412
1772881629477212200,7.693212158203125,4.369294166564941,-4.706682205200195,2.0315065383911133
1772881629494557200,7.71055712890625,4.692325115203857,-5.1565327644348145,1.3280165195465088
1772881629511902200,7.727902099609375,5.527420520782471,-5.630311489105225,0.2225325107574463
1772881629529247200,7.745247314453125,7.812565803527832,-7.869993686676025,1.031306505203247
1772881629546592300,7.76259228515625,10.313065528869629,-10.06421184539795,2.864208698272705
1772881629563937300,7.779937255859375,12.861421585083008,-10.380064964294434,5.347958564758301
1772881629581282300,7.7972822265625,14.349757194519043,-9.147761344909668,7.817351341247559
1772881629598627300,7.81462744140625,12.957134246826172,-7.676175117492676,8.417949676513672
1772881629615972400,7.831972412109375,9.7938232421875,-5.4173502922058105,7.621140003204346
1772881629633317400,7.8493173828125,8.315058708190918,-3.838087558746338,5.907878875732422
1772881629650662400,7.866662353515625,8.4562349319458,-3.988835334777832,4.500899314880371
1772881629668007400,7.88400732421875,5.850451469421387,-3.5198421478271484,3.871587038040161
1772881629685352400,7.9013525390625,3.4480574131011963,-3.3786656856536865,2.9838497638702393
1772881629702697500,7.918697509765625,4.4721856117248535,-2.8139593601226807,2.3162522315979004
1772881629720042500,7.93604248046875,3.3643085956573486,-2.9934210777282715,1.672582983970642
1772881629737387500,7.953387451171875,3.761517286300659,-3.5365917682647705,2.486142635345459
1772881629754732500,7.970732666015625,5.749952793121338,-5.027320384979248,3.6873397827148438
1772881629772077600,7.98807763671875,7.089933395385742,-4.965106964111328,4.163511276245117
1772881629789422600,8.005422607421876,8.965906143188477,-4.000799655914307,4.5822553634643555
1772881629806767600,8.022767578125,9.245866775512695,-3.5461630821228027,5.589633464813232
1772881629824112600,8.040112548828125,8.863015174865723,-4.046263217926025,6.4701924324035645
1772881629841457700,8.057457763671875,8.066205024719238,-4.304687976837158,6.125626087188721
1772881629858802700,8.074802734375,6.623332977294922,-3.314059257507324,5.300102233886719
1772881629876148000,8.09214794921875,5.111069202423096,-2.4095723628997803,4.292723655700684
1772881629893493000,8.109492919921875,4.06540584564209,-2.562713146209717,3.1896326541900635
1772881629910838000,8.126838134765626,3.3547372817993164,-3.3714871406555176,2.335394859313965
1772881629928183000,8.14418310546875,3.1417760848999023,-4.438685894012451,2.589034080505371
1772881629945528000,8.161528076171875,3.9840497970581055,-5.493920803070068,3.160918712615967
1772881629962873000,8.178873046875,4.744967460632324,-5.733202934265137,3.7423746585845947
1772881629980218000,8.196218017578126,5.551348686218262,-5.111069202423096,3.7950167655944824
1772881629997563100,8.213563232421874,6.245266914367676,-4.627718925476074,3.28773832321167
1772881630014908200,8.230908203125,6.726224422454834,-5.405386447906494,3.0412776470184326
1772881630032253200,8.248253173828125,6.98704195022583,-6.888936519622803,2.4598217010498047
1772881630049598200,8.26559814453125,7.429714202880859,-7.307680130004883,2.5435705184936523
1772881630066943200,8.282943115234374,7.81974458694458,-7.267002582550049,3.34995174407959
1772881630084288300,8.300288330078125,8.322237014770508,-7.1473612785339355,3.9314076900482178
1772881630101633300,8.31763330078125,7.860422611236572,-6.884150981903076,3.404986619949341
1772881630118978300,8.334978271484376,7.645068168640137,-7.020541667938232,2.63449764251709
1772881630136323300,8.3523232421875,7.365108013153076,-7.345965385437012,2.541177749633789
1772881630153668400,8.36966845703125,7.458428382873535,-8.066205024719238,2.3162522315979004
1772881630171013400,8.387013427734376,9.678967475891113,-9.473184585571289,2.7804598808288574
1772881630188358400,8.4043583984375,12.401999473571777,-9.66221809387207,2.273181438446045
1772881630205703400,8.421703369140625,13.907085418701172,-8.542376518249512,2.4430718421936035
1772881630223048400,8.43904833984375,10.320243835449219,-8.305487632751465,2.895315408706665
1772881630240393500,8.4563935546875,5.965306758880615,-8.178668022155762,2.2540390491485596
1772881630257738500,8.473738525390624,5.266602516174316,-6.305087566375732,1.4739787578582764
1772881630275083500,8.49108349609375,6.664011001586914,-5.450850009918213,0.9379864931106567
1772881630292428500,8.508428466796875,7.324429988861084,-6.082555294036865,1.5002998113632202
1772881630309773600,8.525773681640626,6.147161483764648,-6.620940208435059,2.493321180343628
1772881630327118600,8.54311865234375,5.26181697845459,-6.97986364364624,2.5603201389312744
1772881630344463600,8.560463623046875,4.986642360687256,-6.920042991638184,1.9980069398880005
1772881630361808600,8.57780859375,5.599205017089844,-6.6592254638671875,0.5120640397071838
1772881630379153700,8.595153564453126,6.97986364364624,-8.173882484436035,0.21774685382843018
1772881630396498700,8.612498779296875,8.788837432861328,-10.210174560546875,1.7180466651916504
1772881630413843700,8.62984375,9.339186668395996,-10.626524925231934,3.507878065109253
1772881630431188700,8.647188720703125,8.228917121887207,-9.927821159362793,4.177868366241455
1772881630448533800,8.66453369140625,6.752545356750488,-9.176474571228027,3.4241292476654053
1772881630465878800,8.681878662109375,6.556334018707275,-8.204988479614258,2.5986053943634033
1772881630483223800,8.699223876953125,7.566105365753174,-6.441478729248047,2.359323024749756
1772881630500568800,8.71656884765625,7.142575740814209,-5.563312530517578,2.641676187515259
1772881630517913900,8.733913818359374,5.685346603393555,-5.044070243835449,2.768495798110962
1772881630535259000,8.7512587890625,3.8500516414642334,-5.07517671585083,2.7493531703948975
1772881630552604000,8.76860400390625,3.0412776470184326,-4.907679080963135,2.768495798110962
1772881630569949000,8.785948974609376,2.9718856811523438,-5.166104316711426,2.909672260284424
1772881630587294000,8.8032939453125,4.3549370765686035,-6.965506553649902,3.3547372817993164
1772881630604639000,8.820638916015625,6.125626087188721,-8.056633949279785,3.649054527282715
1772881630621984000,8.83798388671875,9.006584167480469,-5.663811206817627,4.388436794281006
1772881630639329000,8.8553291015625,9.032905578613281,-3.8285162448883057,5.240281581878662
1772881630656674000,8.872674072265625,6.4319071769714355,-4.962714195251465,5.003392219543457
1772881630674019000,8.89001904296875,5.886343479156494,-7.087540626525879,5.0943193435668945
1772881630691364000,8.907364013671875,7.269395351409912,-6.331408500671387,5.429314613342285
1772881630708709000,8.924709228515624,6.52044153213501,-4.359723091125488,4.66361141204834
1772881630726054100,8.94205419921875,4.790431022644043,-3.6442689895629883,3.4719855785369873
1772881630743399200,8.959399169921875,4.185046672821045,-3.7734813690185547,2.9168508052825928
1772881630760744200,8.976744140625,3.90987229347229,-4.3549370765686035,2.9455647468566895
1772881630778089200,8.994089111328124,3.672982692718506,-4.158725738525391,2.801995277404785
1772881630795434200,9.011434326171875,4.015156269073486,-4.599005222320557,2.7804598808288574
1772881630812779300,9.028779296875,4.584648132324219,-5.570491313934326,3.1920254230499268
1772881630830124300,9.046124267578126,5.089533805847168,-5.838487148284912,3.326023578643799
1772881630847469300,9.06346923828125,5.352744102478027,-5.438885688781738,3.500699520111084
1772881630864814300,9.080814453125,5.508277893066406,-5.6590256690979,3.507878065109253
1772881630882159400,9.098159423828125,5.663811206817627,-6.1328043937683105,3.617947816848755
1772881630899504400,9.11550439453125,6.455835342407227,-6.759724140167236,4.091726779937744
1772881630916849400,9.132849365234375,7.3292155265808105,-7.061219692230225,4.443471431732178
1772881630934194400,9.1501943359375,8.2695951461792,-6.783652305603027,4.168296813964844
1772881630951539500,9.16753955078125,7.860422611236572,-7.013363361358643,3.5844483375549316
1772881630968884500,9.184884521484374,6.963113784790039,-7.518248558044434,2.6153552532196045
1772881630986229800,9.202229736328125,6.089733600616455,-8.051848411560059,1.832902193069458
1772881631003574500,9.219574462890625,5.60399055480957,-7.501499176025391,2.0171494483947754
1772881631020919800,9.236919921875,6.491727828979492,-7.0061845779418945,2.4598217010498047
1772881631038264600,9.2542646484375,8.980263710021973,-8.011170387268066,3.538984775543213
1772881631055609900,9.27160986328125,12.981062889099121,-9.525827407836914,4.7952165603637695
1772881631072955000,9.288954833984375,8.274380683898926,-9.628718376159668,2.6464617252349854
1772881631090300000,9.3062998046875,4.7401814460754395,-9.214759826660156,1.674975872039795
1772881631107644700,9.323644775390624,6.728617191314697,-8.556734085083008,1.7324036359786987
1772881631124990000,9.340989990234375,9.456435203552246,-6.759724140167236,1.820937991142273
1772881631142335000,9.3583349609375,10.047462463378906,-5.20678186416626,1.5672988891601562
1772881631159680000,9.375679931640626,7.843672752380371,-5.8337016105651855,1.3519448041915894
1772881631177025000,9.39302490234375,5.508277893066406,-7.066005229949951,1.9956140518188477
1772881631194370000,9.4103701171875,5.266602516174316,-7.044469833374023,2.517249345779419
1772881631211715000,9.427715087890626,5.862415313720703,-6.398407936096191,1.7371892929077148
1772881631229060000,9.44506005859375,6.551548480987549,-7.506284713745117,1.184447169303894
1772881631246405000,9.462405029296875,7.6977105140686035,-9.154939651489258,2.4358935356140137
1772881631263750100,9.479750244140625,7.817351341247559,-8.800801277160645,3.469592809677124
1772881631281095200,9.49709521484375,7.17368221282959,-8.21695327758789,2.2923240661621094
1772881631298440200,9.514440185546874,6.580262184143066,-8.95394229888916,1.6510475873947144
1772881631315785200,9.53178515625,6.735795974731445,-9.731609344482422,1.6773686408996582
1772881631333130200,9.549130126953125,7.207181930541992,-9.049654960632324,1.9046868085861206
1772881631350475300,9.566475341796876,7.537391185760498,-7.69531774520874,2.9240293502807617
1772881631367820300,9.5838203125,7.9728851318359375,-6.752545356750488,3.90987229347229
1772881631385165300,9.601165283203125,7.061219692230225,-5.831308841705322,3.830909013748169
1772881631402510300,9.61851025390625,5.115854740142822,-4.453042984008789,3.053241729736328
1772881631419855400,9.63585546875,3.555734395980835,-4.95074987411499,2.366501569747925
1772881631437200400,9.653200439453125,3.0723843574523926,-6.106483459472656,2.6943182945251465
1772881631454545400,9.67054541015625,3.507878065109253,-5.91505765914917,3.1489546298980713
1772881631471890400,9.687890380859375,5.010570526123047,-6.087340831756592,4.395615100860596
1772881631489235500,9.7052353515625,6.553941249847412,-6.446264266967773,4.893322467803955
1772881631506580500,9.72258056640625,8.200202941894531,-7.133004188537598,4.7952165603637695
1772881631523925500,9.739925537109375,9.779465675354004,-6.288337707519531,4.706682205200195
1772881631541270500,9.7572705078125,9.76989459991455,-6.5252275466918945,6.03948450088501
1772881631558615600,9.774615478515624,9.21715259552002,-7.908278942108154,5.972485542297363
1772881631575960600,9.791960693359375,7.970492362976074,-7.714460372924805,5.008177757263184
1772881631593305600,9.8093056640625,7.5086774826049805,-5.8959150314331055,4.687539577484131
1772881631610650600,9.826650634765626,4.780859470367432,-4.292723655700684,3.902693748474121
1772881631627995600,9.84399560546875,3.1752755641937256,-3.170490026473999,3.0795626640319824
1772881631645340700,9.861340576171875,1.9932212829589844,-1.9286150932312012,2.352144718170166
1772881631662685700,9.878685791015625,1.8975083827972412,-1.7922241687774658,2.029113531112671
1772881631680030700,9.89603076171875,2.5052852630615234,-4.60139799118042,2.909672260284424
1772881631697375700,9.913375732421875,4.240081787109375,-6.563512325286865,3.672982692718506
1772881631714720800,9.930720703125,5.38624382019043,-6.4510498046875,3.6777684688568115
1772881631732065800,9.948065673828125,6.149554252624512,-4.773681163787842,3.4648072719573975
1772881631749410800,9.965410888671874,7.219145774841309,-4.890929698944092,3.4097721576690674
1772881631766756000,9.982756103515625,7.654639720916748,-6.829115867614746,4.130012035369873
1772881631784100900,10.000100830078125,7.886743545532227,-7.506284713745117,5.065605640411377
1772881631801446100,10.017446044921876,7.82692289352417,-5.941378593444824,5.508277893066406
1772881631818791200,10.034791259765624,7.302894592285156,-4.431507587432861,5.642275810241699
1772881631836136200,10.05213623046875,6.221338748931885,-4.718646049499512,4.620540618896484
1772881631853481200,10.069481201171875,5.747560024261475,-5.7619171142578125,3.3068809509277344
1772881631870826200,10.086826171875,5.266602516174316,-6.776473522186279,2.392822742462158
1772881631888171300,10.104171142578124,4.6061835289001465,-7.037291526794434,1.495514154434204
1772881631905516300,10.121516357421875,4.737788677215576,-7.04207706451416,0.6867401003837585
1772881631922861300,10.138861328125,5.431707382202148,-7.738388538360596,0.21296121180057526
1772881631940206300,10.156206298828126,7.039684295654297,-9.083154678344727,0.8949156403541565
1772881631957551400,10.17355126953125,10.238887786865234,-11.877971649169922,2.981456995010376
1772881631974896400,10.190896484375,14.500505447387695,-12.940384864807129,5.941378593444824
1772881631992241400,10.208241455078126,10.375279426574707,-10.262816429138184,4.417150497436523
1772881632009586400,10.22558642578125,6.69990348815918,-8.819944381713867,1.9525432586669922
1772881632026931500,10.242931396484375,6.836294174194336,-8.848658561706543,0.7537391185760498
1772881632044276500,10.2602763671875,6.297909259796143,-8.417949676513672,0.8781659007072449
1772881632061621500,10.27762158203125,5.474778175354004,-6.350551128387451,2.641676187515259
1772881632078966500,10.294966552734374,5.335994720458984,-4.493721008300781,2.3569302558898926
1772881632096311600,10.3123115234375,6.10169792175293,-3.9146578311920166,1.6654045581817627
1772881632113656600,10.329656494140625,5.816951751708984,-5.2977094650268555,1.0504491329193115
1772881632131001600,10.347001708984376,5.814558982849121,-7.027719974517822,1.7874385118484497
1772881632148346600,10.3643466796875,6.565905570983887,-8.085348129272461,2.076970100402832
1772881632165691600,10.381691650390625,5.836094379425049,-8.616554260253906,2.2229323387145996
1772881632183036700,10.39903662109375,4.591826438903809,-8.628518104553223,1.007378339767456
1772881632200381700,10.416381591796876,4.661218643188477,-7.934599876403809,0.8542376756668091
1772881632217726700,10.433726806640625,5.532206058502197,-8.602197647094727,1.4644074440002441
1772881632235071700,10.45107177734375,7.800601959228516,-9.43489933013916,2.3234307765960693
1772881632252416800,10.468416748046875,9.17886734008789,-10.05703353881836,3.5820555686950684
1772881632269761800,10.48576171875,9.140582084655762,-10.04985523223877,4.589433670043945
1772881632287106800,10.50310693359375,7.250252723693848,-9.186046600341797,4.646861553192139
1772881632304451800,10.520451904296875,4.40757942199707,-7.891529083251953,3.7710886001586914
1772881632321796900,10.537796875,3.768695592880249,-7.106683254241943,2.469393014907837
1772881632339142000,10.555141845703124,4.086941242218018,-7.089933395385742,2.6488547325134277
1772881632356487000,10.57248681640625,4.106083869934082,-7.618747234344482,3.5198421478271484
1772881632373832000,10.58983203125,4.402793884277344,-6.850651264190674,3.830909013748169
1772881632391177000,10.607177001953126,5.340780258178711,-4.893322467803955,3.8356947898864746
1772881632408522000,10.62452197265625,6.010770320892334,-4.098905086517334,3.376272678375244
1772881632425867300,10.6418671875,5.855237007141113,-3.728017568588257,3.2781670093536377
1772881632443212300,10.65921240234375,4.867001056671143,-5.2283172607421875,3.902693748474121
1772881632460557300,10.676557373046874,5.893522262573242,-7.898707389831543,5.053641319274902
1772881632477902300,10.69390234375,7.728816986083984,-9.633503913879395,6.5252275466918945
1772881632495247400,10.711247314453125,9.286544799804688,-8.628518104553223,7.70967435836792
1772881632512592400,10.72859228515625,8.891729354858398,-5.594419479370117,6.752545356750488
1772881632529937400,10.7459375,6.6592254638671875,-3.9672999382019043,4.969892501831055
1772881632547282400,10.763282470703125,5.079962253570557,-3.680161237716675,4.199403762817383
1772881632564627500,10.78062744140625,3.8333017826080322,-3.445664644241333,4.211368083953857
1772881632581972500,10.797972412109376,3.0173492431640625,-3.0101709365844727,3.366701364517212
1772881632599317500,10.8153173828125,2.1607189178466797,-2.926422119140625,2.4406790733337402
1772881632616662500,10.83266259765625,1.9812572002410889,-3.9864425659179688,1.7682958841323853
1772881632634007600,10.850007568359375,2.6560330390930176,-5.85284423828125,2.210968017578125
1772881632651352600,10.8673525390625,3.6705899238586426,-6.766902446746826,3.1106693744659424
1772881632668697600,10.884697509765624,4.948357105255127,-6.130411624908447,4.60139799118042
1772881632686042600,10.902042724609375,6.592226505279541,-4.409972190856934,5.577669620513916
1772881632703387600,10.9193876953125,7.70249605178833,-5.496313571929932,5.388636589050293
1772881632720732700,10.936732666015626,7.377072334289551,-6.776473522186279,5.357530117034912
1772881632738077700,10.95407763671875,7.192824840545654,-7.204789161682129,6.0370917320251465
1772881632755422700,10.971422607421875,7.262216567993164,-7.594819068908691,5.924628734588623
1772881632772767700,10.988767822265626,6.951149940490723,-7.963313579559326,5.233103275299072
1772881632790112800,11.00611279296875,5.924628734588623,-7.082755088806152,3.6777684688568115
1772881632807457800,11.023457763671875,4.4410786628723145,-6.640082836151123,2.117648124694824
1772881632824802800,11.040802734375,3.649054527282715,-7.044469833374023,1.2610175609588623
1772881632842147800,11.05814794921875,4.115654945373535,-7.456035137176514,0.8350951075553894
1772881632859492900,11.075492919921874,4.977071285247803,-7.724031448364258,0.7800601720809937
1772881632876838000,11.092837890625,5.862415313720703,-8.796015739440918,1.6223337650299072
1772881632894183000,11.110182861328125,8.810373306274414,-11.985648155212402,3.7471601963043213
1772881632911528200,11.127528076171876,14.124832153320312,-15.046069145202637,6.10169792175293
1772881632928873000,11.144873046875,17.115859985351562,-14.67518138885498,7.36032247543335
1772881632946218200,11.16221826171875,8.726624488830566,-12.636496543884277,5.958128452301025
1772881632963563000,11.17956298828125,2.981456995010376,-9.820143699645996,1.8783657550811768
1772881632980908300,11.196908203125,3.022135019302368,-7.133004188537598,0.6269195079803467
1772881632998253000,11.214253173828125,3.5916268825531006,-4.560719966888428,0.4713860750198364
1772881633015598300,11.231598388671875,4.462614059448242,-3.6394832134246826,2.012363910675049
1772881633032943000,11.248943115234376,5.718846321105957,-3.314059257507324,3.2063822746276855
1772881633050288400,11.266288330078124,5.292923450469971,-3.5605201721191406,2.5674986839294434
1772881633067633400,11.28363330078125,4.503292083740234,-4.156332969665527,1.7395820617675781
1772881633084978400,11.300978515625,4.701896667480469,-5.37906551361084,1.31365966796875
1772881633102323500,11.318323486328126,5.589633464813232,-6.230910301208496,1.3878371715545654
1772881633119668500,11.33566845703125,6.183053493499756,-6.4510498046875,1.4404792785644531
1772881633137013500,11.353013427734375,6.996613502502441,-7.908278942108154,1.4261223077774048
1772881633154358500,11.370358642578125,7.331608772277832,-9.468399047851562,1.2179467678070068
1772881633171703600,11.38770361328125,7.893921852111816,-12.468998908996582,3.4815568923950195
1772881633189048600,11.405048583984374,7.922635555267334,-14.493327140808105,4.88853645324707
1772881633206393600,11.4223935546875,6.527620315551758,-13.390235900878906,3.0556344985961914
1772881633223738600,11.439738525390625,4.613361835479736,-9.492327690124512,2.5148565769195557
1772881633241083600,11.457083740234374,4.455435752868652,-6.271588325500488,2.792423963546753
1772881633258428700,11.4744287109375,5.592026710510254,-6.491727828979492,3.2063822746276855
1772881633275773700,11.491773681640625,5.812166213989258,-7.130611419677734,3.390629768371582
1772881633293118700,11.50911865234375,5.477170944213867,-6.106483459472656,3.460021495819092
1772881633310463700,11.526463623046874,3.9840497970581055,-5.60399055480957,4.218546390533447
1772881633327808800,11.543808837890625,3.6538400650024414,-6.1399827003479,4.649254322052002
1772881633345153800,11.56115380859375,4.567898273468018,-6.872186660766602,4.3549370765686035
1772881633362498800,11.578498779296876,5.7619171142578125,-7.29093074798584,4.632504463195801
1772881633379843800,11.59584375,7.015756130218506,-7.255038261413574,5.520241737365723
1772881633397188900,11.61318896484375,7.429714202880859,-6.465406894683838,5.340780258178711
1772881633414534000,11.630533935546875,6.826723098754883,-5.568098068237305,4.089334011077881
1772881633431879000,11.64787890625,6.415157318115234,-5.998806476593018,4.199403762817383
1772881633449224000,11.665223876953124,5.61116886138916,-5.328815937042236,3.981656789779663
1772881633466569000,11.68256884765625,5.254638671875,-5.237888813018799,4.163511276245117
1772881633483914200,11.699914306640625,5.3694939613342285,-4.833501815795898,4.240081787109375
1772881633501259000,11.717259033203124,4.319045066833496,-5.084748268127441,4.091726779937744
1772881633518604300,11.734604248046875,4.4410786628723145,-5.465207099914551,3.981656789779663
1772881633535949300,11.75194921875,3.972085475921631,-4.9363932609558105,3.7734813690185547
1772881633553294300,11.76929443359375,3.4983067512512207,-4.919643402099609,3.3547372817993164
1772881633570639400,11.786639404296874,3.359523057937622,-6.252445697784424,3.139383316040039
1772881633587984400,11.803984375,3.82373046875,-7.8819580078125,3.6227335929870605
1772881633605329400,11.821329345703125,4.443471431732178,-7.652246952056885,4.1347975730896
1772881633622674400,11.83867431640625,5.3455657958984375,-6.687939167022705,3.9840497970581055
1772881633640019500,11.85601953125,5.881557941436768,-6.1399827003479,3.0484559535980225
1772881633657364500,11.873364501953125,5.577669620513916,-5.912664890289307,2.4670002460479736
1772881633674709500,11.89070947265625,4.991427898406982,-6.728617191314697,2.744567632675171
1772881633692054500,11.908054443359376,4.486542224884033,-7.300501823425293,3.115455150604248
1772881633709399600,11.925399658203125,4.855037212371826,-7.128218650817871,2.5938198566436768
1772881633726744600,11.94274462890625,5.931807518005371,-6.738188743591309,1.801795482635498
1772881633744089600,11.960089599609375,7.381857872009277,-7.410571575164795,1.8999011516571045
1772881633761434600,11.9774345703125,8.214560508728027,-8.496912956237793,2.3330020904541016
1772881633778779600,11.994779541015625,8.544769287109375,-9.4061861038208,2.768495798110962
1772881633796124700,12.012124755859375,7.314858913421631,-10.767702102661133,2.799602508544922
1772881633813469700,12.0294697265625,7.635497093200684,-12.727423667907715,3.720839262008667
1772881633830814700,12.046814697265624,8.018348693847656,-12.15793228149414,3.548556089401245
1772881633848159700,12.06415966796875,9.853643417358398,-10.100104331970215,2.579462766647339
1772881633865504800,12.0815048828125,10.444670677185059,-8.094919204711914,2.4526431560516357
1772881633882849800,12.098849853515626,7.018148899078369,-6.618547439575195,1.210768222808838
1772881633900194800,12.11619482421875,5.242674350738525,-5.843272686004639,0.05503492057323456
1772881633917539800,12.133539794921875,4.730610370635986,-6.058627128601074,0.30149564146995544
1772881633934884900,12.150884765625,4.1419758796691895,-6.288337707519531,0.5814558863639832
1772881633952230000,12.16822998046875,3.9194436073303223,-6.556334018707275,1.0839486122131348
1772881633969575000,12.185574951171875,4.754538536071777,-7.539783954620361,1.9357935190200806
1772881633986920000,12.202919921875,6.104090690612793,-8.449056625366211,2.562713146209717
1772881634004265000,12.220264892578125,6.38883638381958,-7.982456207275391,2.5052852630615234
1772881634021610000,12.23760986328125,6.771687984466553,-8.008777618408203,1.950150489807129
1772881634038955300,12.254955322265625,6.597012042999268,-9.042476654052734,1.4452649354934692
1772881634056300000,12.272300048828125,6.664011001586914,-10.1216402053833,1.179661512374878
1772881634073645300,12.289645263671876,6.893722057342529,-11.047661781311035,1.5050854682922363
1772881634090990300,12.306990234375,7.221538543701172,-10.590633392333984,2.3880369663238525
1772881634108335400,12.32433544921875,7.396214962005615,-9.858428955078125,3.462414264678955
1772881634125680400,12.341680419921875,5.958128452301025,-8.525627136230469,3.6299118995666504
1772881634143025400,12.359025390625,5.091926574707031,-7.853243827819824,3.0963125228881836
1772881634160370400,12.376370361328124,4.962714195251465,-7.774280548095703,3.129812002182007
1772881634177715500,12.393715576171875,5.362315654754639,-6.999006271362305,3.1585259437561035
1772881634195060500,12.411060546875,5.338387489318848,-5.682953834533691,3.2039895057678223
1772881634212405500,12.428405517578126,4.493721008300781,-4.591826438903809,3.036491870880127
1772881634229750500,12.44575048828125,5.044070243835449,-5.06082010269165,3.335594654083252
1772881634247095600,12.463095458984375,5.84566593170166,-5.467599868774414,3.2470602989196777
1772881634264440600,12.480440673828125,6.544369697570801,-5.630311489105225,3.9433717727661133
1772881634281785600,12.49778564453125,7.324429988861084,-5.082355499267578,4.381258487701416
1772881634299130600,12.515130615234375,6.238088607788086,-4.855037212371826,3.9050865173339844
1772881634316475600,12.5324755859375,4.807180881500244,-5.709274768829346,3.601198196411133
1772881634333820700,12.549820556640626,4.965106964111328,-5.8959150314331055,3.9122650623321533
1772881634351165700,12.567165771484374,4.584648132324219,-5.560919761657715,3.4672000408172607
1772881634368510700,12.5845107421875,3.9290146827697754,-5.082355499267578,2.9359934329986572
1772881634385855700,12.601855712890625,3.696911096572876,-5.216353416442871,3.1106693744659424
1772881634403200800,12.61920068359375,3.2159535884857178,-5.501099109649658,3.177668571472168
1772881634420545800,12.6365458984375,2.9168508052825928,-5.946164131164551,3.074777126312256
1772881634437890800,12.653890869140625,3.139383316040039,-7.1856465339660645,3.4959139823913574
1772881634455236000,12.671236083984375,4.053441524505615,-7.544569969177246,3.414557933807373
1772881634472581000,12.6885810546875,5.477170944213867,-6.97986364364624,3.8189449310302734
1772881634489926100,12.705926025390625,5.680561065673828,-6.355337142944336,3.8979079723358154
1772881634507271200,12.723271240234375,6.099305152893066,-7.1473612785339355,4.381258487701416
1772881634524616200,12.7406162109375,6.4701924324035645,-7.506284713745117,4.3788652420043945
1772881634541961200,12.757961181640624,6.654439926147461,-7.805387496948242,3.5270206928253174
1772881634559306200,12.77530615234375,6.369693756103516,-8.183453559875488,2.234896421432495
1772881634576651300,12.7926513671875,5.804987907409668,-8.128418922424316,0.97148597240448
1772881634593996300,12.809996337890626,5.436492919921875,-8.305487632751465,0.17228323221206665
1772881634611341300,12.82734130859375,5.221138954162598,-8.824729919433594,0.43549370765686035
1772881634628686300,12.844686279296875,6.013163089752197,-9.375079154968262,1.454836130142212
1772881634646031400,12.86203125,10.669595718383789,-11.614761352539062,4.304687976837158
1772881634663376400,12.87937646484375,10.767702102661133,-9.399007797241211,2.3952155113220215
1772881634680721400,12.896721435546874,7.448856830596924,-7.994420528411865,0.5910272002220154
1772881634698066400,12.91406640625,6.321837425231934,-7.843672752380371,-0.2679961323738098
1772881634715411500,12.931411376953125,7.568498134613037,-8.164310455322266,-0.11724831163883209
1772881634732756500,12.948756591796876,8.38684368133545,-7.874779224395752,2.1104695796966553
1772881634750101500,12.9661015625,7.204789161682129,-7.594819068908691,3.610769271850586
1772881634767446500,12.983446533203125,6.206982135772705,-7.276573657989502,2.641676187515259
1772881634784791600,13.00079150390625,5.642275810241699,-7.412964344024658,0.4953143000602722
1772881634802136600,13.018136474609374,6.027520179748535,-8.93240737915039,0.7345965504646301
1772881634819481600,13.035481689453125,5.412564754486084,-9.269794464111328,1.1222338676452637
1772881634836826600,13.05282666015625,6.391229152679443,-9.075976371765137,1.5864413976669312
1772881634854171600,13.070171630859376,5.816951751708984,-7.240681171417236,1.8975083827972412
1772881634871516700,13.0875166015625,5.682953834533691,-8.00638484954834,1.3902299404144287
1772881634888861700,13.10486181640625,6.52044153213501,-9.657432556152344,1.0001999139785767
1772881634906206700,13.122206787109375,6.9104719161987305,-10.04985523223877,1.7874385118484497
1772881634923551700,13.1395517578125,7.676175117492676,-10.198209762573242,3.3308091163635254
1772881634940896800,13.156896728515624,7.202396392822266,-9.659825325012207,4.541577339172363
1772881634958242000,13.174241943359375,6.233303070068359,-8.834300994873047,4.094119548797607
1772881634975586800,13.1915869140625,4.170690059661865,-7.714460372924805,2.8929226398468018
1772881634992932000,13.20893212890625,3.0723843574523926,-6.845865726470947,2.122433662414551
1772881635010276900,13.22627685546875,3.2853455543518066,-7.460821151733398,2.1583259105682373
1772881635027622100,13.2436220703125,4.730610370635986,-7.762316703796387,2.912065267562866
1772881635044967200,13.26096728515625,6.005984783172607,-6.874579429626465,3.4265220165252686
1772881635062312200,13.278312255859374,6.309873104095459,-5.168497085571289,2.981456995010376
1772881635079657200,13.2956572265625,5.410171985626221,-4.764110088348389,2.3808584213256836
1772881635097002200,13.313002197265625,4.869394302368164,-5.498706340789795,2.6368906497955322
1772881635114347300,13.33034716796875,5.434100151062012,-5.678168296813965,3.462414264678955
1772881635131692300,13.3476923828125,5.209175109863281,-5.989234924316406,4.048655986785889
1772881635149037300,13.365037353515625,4.922036170959473,-6.573083877563477,4.718646049499512
1772881635166382300,13.38238232421875,5.063212871551514,-6.56829833984375,4.979464054107666
1772881635183727400,13.399727294921876,4.802394866943359,-5.309673309326172,3.232703447341919
1772881635201072400,13.417072265625,4.074976921081543,-4.386044025421143,1.978864312171936
1772881635218417400,13.43441748046875,3.098705291748047,-4.7952165603637695,2.7278177738189697
1772881635235762400,13.451762451171875,3.2829527854919434,-6.0466628074646,3.902693748474121
1772881635253107500,13.469107421875,3.82373046875,-7.058826923370361,4.067798614501953
1772881635270452500,13.486452392578125,3.9529430866241455,-7.020541667938232,3.8739798069000244
1772881635287797500,13.503797607421875,4.048655986785889,-6.259624004364014,3.438486099243164
1772881635305142500,13.521142578125,4.735395908355713,-6.159125328063965,3.352344512939453
1772881635322487600,13.538487548828124,5.560919761657715,-6.740581512451172,3.0963125228881836
1772881635339832800,13.555832763671875,5.704489231109619,-7.326822757720947,2.998206853866577
1772881635357177600,13.573177490234375,5.467599868774414,-7.9728851318359375,3.4241292476654053
1772881635374523000,13.59052294921875,5.115854740142822,-8.200202941894531,3.981656789779663
1772881635391867600,13.60786767578125,5.7164530754089355,-8.322237014770508,3.397808074951172
1772881635409213000,13.625212890625,6.254838466644287,-8.623732566833496,2.809173822402954
1772881635426557700,13.6425576171875,6.412764549255371,-8.60459041595459,2.1104695796966553
1772881635443903000,13.659903076171876,6.570691108703613,-8.391629219055176,2.148754835128784
1772881635461248000,13.677248046875,6.69990348815918,-8.477770805358887,2.56510591506958
1772881635478593000,13.694593017578125,9.107083320617676,-10.26042366027832,4.261617183685303
1772881635495938000,13.71193798828125,7.9728851318359375,-10.53799057006836,3.5365917682647705
1772881635513283000,13.729282958984374,6.429514408111572,-10.449456214904785,2.076970100402832
1772881635530628000,13.746628173828125,7.781459331512451,-9.846465110778809,1.3519448041915894
1772881635547973000,13.76397314453125,8.484949111938477,-8.571090698242188,1.3902299404144287
1772881635565318100,13.781318115234376,8.434700012207031,-6.781259536743164,1.8711873292922974
1772881635582663200,13.7986630859375,8.461020469665527,-5.333601474761963,1.404586911201477
1772881635600008200,13.81600830078125,7.154539585113525,-5.735595703125,1.734796404838562
1772881635617353200,13.833353271484375,5.465207099914551,-6.764509677886963,2.1511476039886475
1772881635634698200,13.8506982421875,4.910071849822998,-7.434499740600586,1.9381862878799438
1772881635652043300,13.868043212890624,4.342973232269287,-8.12123966217041,2.256431818008423
1772881635669388300,13.88538818359375,4.139583110809326,-7.685746192932129,1.8089739084243774
1772881635686733300,13.9027333984375,4.2592244148254395,-7.0683979988098145,1.7419748306274414
1772881635704078300,13.920078369140626,5.213960647583008,-7.420143127441406,1.5936198234558105
1772881635721423400,13.93742333984375,7.551748275756836,-9.884750366210938,1.3663017749786377
1772881635738768400,13.954768310546875,8.200202941894531,-12.002398490905762,1.0169496536254883
1772881635756113400,13.972113525390625,7.7838521003723145,-12.052647590637207,0.914058268070221
1772881635773458400,13.98945849609375,5.505885124206543,-10.15753173828125,1.8759729862213135
1772881635790803500,14.006803466796875,4.388436794281006,-9.186046600341797,2.7349963188171387
1772881635808148500,14.0241484375,5.570491313934326,-9.650253295898438,4.039084434509277
1772881635825493500,14.041493408203126,6.293123722076416,-10.528419494628906,5.146961688995361
1772881635842838500,14.058838623046874,6.57547664642334,-10.037891387939453,5.185246467590332
1772881635860183600,14.07618359375,5.72841739654541,-7.436892986297607,4.7952165603637695
1772881635877528600,14.093528564453125,5.974878311157227,-5.309673309326172,4.175475597381592
1772881635894873600,14.11087353515625,5.3694939613342285,-3.689732551574707,4.022335052490234
1772881635912218600,14.128218505859374,3.9433717727661133,-3.170490026473999,3.9433717727661133
1772881635929563600,14.145563720703125,2.8283164501190186,-4.024727821350098,3.2063822746276855
1772881635946908700,14.16290869140625,2.7421748638153076,-4.709074974060059,2.9001009464263916
1772881635964253700,14.180253662109376,3.4887354373931885,-4.522434711456299,3.050848960876465
1772881635981599000,14.197598876953125,3.431307554244995,-3.1800613403320312,3.1992039680480957
1772881635998943700,14.21494384765625,3.845266103744507,-3.428914785385132,3.4265220165252686
1772881636016289000,14.2322890625,2.9048867225646973,-4.685146808624268,3.294916868209839
1772881636033634000,14.249634033203124,3.9625144004821777,-7.625925540924072,3.5437703132629395
1772881636050979000,14.26697900390625,6.008377552032471,-9.944570541381836,3.737588882446289
1772881636068324000,14.284323974609375,6.3122663497924805,-8.803194046020508,3.783052682876587
1772881636085669000,14.301669189453126,5.213960647583008,-6.159125328063965,4.1730828285217285
1772881636103014100,14.31901416015625,4.153940200805664,-5.876772403717041,4.661218643188477
1772881636120359200,14.336359130859375,4.225724697113037,-6.374479293823242,4.66361141204834
1772881636137704200,14.3537041015625,5.051248550415039,-6.8554368019104,4.098905086517334
1772881636155049200,14.37104931640625,4.993820667266846,-6.539584159851074,3.232703447341919
1772881636172394200,14.388394287109374,4.4721856117248535,-5.879165172576904,2.651247501373291
1772881636189739300,14.4057392578125,4.06540584564209,-6.0777692794799805,3.239881753921509
1772881636207084300,14.423084228515625,4.244867324829102,-6.175875186920166,3.290131092071533
1772881636224429300,14.44042919921875,4.991427898406982,-6.728617191314697,2.287538528442383
1772881636241774300,14.4577744140625,6.025127410888672,-7.841279983520508,1.3471591472625732
1772881636259119400,14.475119384765625,6.809973239898682,-9.19561767578125,1.3567304611206055
1772881636276464400,14.49246435546875,7.534998416900635,-9.667003631591797,2.0482561588287354
1772881636293809400,14.509809326171874,7.743174076080322,-9.657432556152344,2.895315408706665
1772881636311154400,14.527154541015625,7.70249605178833,-10.418350219726562,3.720839262008667
1772881636328499500,14.54449951171875,8.793622970581055,-11.645867347717285,5.876772403717041
1772881636345844500,14.561844482421876,7.6977105140686035,-10.526026725769043,3.6059837341308594
1772881636363189500,14.579189453125,6.845865726470947,-10.14317512512207,1.730010747909546
1772881636380534500,14.596534423828125,6.996613502502441,-8.95394229888916,1.0863415002822876
1772881636397879600,14.613879638671875,6.226124286651611,-6.350551128387451,1.196411371231079
1772881636415224600,14.631224609375,5.711667537689209,-4.680361270904541,2.557927370071411
1772881636432569600,14.648569580078124,6.759724140167236,-4.60139799118042,1.8113667964935303
1772881636449914600,14.66591455078125,6.3601226806640625,-6.4079790115356445,1.7515461444854736
1772881636467259600,14.683259765625,5.556134223937988,-7.89631462097168,3.0005996227264404
1772881636484604700,14.700604736328126,4.843072891235352,-9.030512809753418,3.4241292476654053
1772881636501949700,14.71794970703125,3.6466617584228516,-8.23130989074707,2.2325034141540527
1772881636519294700,14.735294677734375,4.287938117980957,-8.190631866455078,1.6582261323928833
1772881636536639700,14.7526396484375,6.558726787567139,-8.755337715148926,1.459621787071228
1772881636553985000,14.769985107421874,8.889336585998535,-10.478170394897461,1.3639088869094849
1772881636571329800,14.787329833984375,9.4660062789917,-11.990434646606445,2.493321180343628
1772881636588675000,14.804675048828125,7.9250288009643555,-11.655439376831055,3.720839262008667
1772881636606020000,14.82202001953125,5.958128452301025,-10.363314628601074,3.5365917682647705
1772881636623365000,14.839365234375,4.417150497436523,-8.104490280151367,2.65842604637146
1772881636640710100,14.856710205078125,4.634897232055664,-6.594619274139404,1.892722725868225
1772881636658055200,14.87405517578125,5.257031440734863,-7.343572616577148,2.6943182945251465
1772881636675400200,14.891400146484376,5.637490272521973,-7.458428382873535,3.8021950721740723
1772881636692745200,14.9087451171875,5.67338228225708,-6.821937561035156,4.955535888671875
1772881636710090200,14.92609033203125,5.635097503662109,-5.843272686004639,4.804787635803223
1772881636727435300,14.943435302734375,5.245067119598389,-4.922036170959473,4.027120590209961
1772881636744780300,14.9607802734375,5.091926574707031,-4.460221290588379,3.376272678375244
1772881636762125300,14.978125244140625,4.883750915527344,-4.728217601776123,3.012563705444336
1772881636779470300,14.99547021484375,5.903093338012695,-6.070590972900391,3.675375461578369
1772881636796815400,15.0128154296875,5.970092296600342,-5.898307800292969,4.374079704284668
1772881636814160400,15.030160400390624,5.453242778778076,-5.718846321105957,4.615755081176758
1772881636831505400,15.04750537109375,4.510470867156982,-5.350351333618164,4.321437835693359
1772881636848850400,15.064850341796875,4.048655986785889,-5.26899528503418,3.792623996734619
1772881636866195500,15.082195556640626,4.034298896789551,-5.450850009918213,3.1489546298980713
1772881636883540500,15.09954052734375,4.211368083953857,-6.082555294036865,3.1728827953338623
1772881636900885500,15.116885498046875,4.177868366241455,-6.843472957611084,3.1680972576141357
1772881636918230500,15.13423046875,4.168296813964844,-6.788437843322754,2.4430718421936035
1772881636935575600,15.151575439453126,4.555934429168701,-7.247859954833984,2.7972097396850586
1772881636952920600,15.168920654296874,5.505885124206543,-7.207181930541992,3.046063184738159
1772881636970265900,15.186265869140625,5.402993679046631,-6.503692150115967,3.184846878051758
1772881636987610600,15.203610595703125,5.362315654754639,-6.867401123046875,3.373879909515381
1772881637004955600,15.22095556640625,5.185246467590332,-7.9489569664001465,3.3475589752197266
1772881637022300700,15.23830078125,5.78345251083374,-8.614161491394043,3.5150563716888428
1772881637039646000,15.25564599609375,6.240481376647949,-8.303094863891602,3.6681971549987793
1772881637056990700,15.27299072265625,6.671189308166504,-7.798209190368652,3.5581271648406982
1772881637074336000,15.2903359375,6.159125328063965,-7.456035137176514,2.667997360229492
1772881637091680800,15.3076806640625,5.663811206817627,-7.901100158691406,1.950150489807129
1772881637109026000,15.325026123046875,4.938786029815674,-7.755138397216797,1.1820544004440308
1772881637126371000,15.34237109375,4.405186653137207,-7.405786037445068,1.0839486122131348
1772881637143716000,15.359716064453124,5.1565327644348145,-7.932207107543945,1.9022940397262573
1772881637161061000,15.37706103515625,8.58066177368164,-10.494919776916504,4.5822553634643555
1772881637178406100,15.39440625,7.314858913421631,-10.528419494628906,3.94097900390625
1772881637195751200,15.411751220703126,5.426921844482422,-10.329814910888672,2.5674986839294434
1772881637213096200,15.42909619140625,6.951149940490723,-9.975677490234375,1.5170495510101318
1772881637230441200,15.446441162109375,9.363115310668945,-8.769695281982422,1.5672988891601562
1772881637247786200,15.4637861328125,8.14516830444336,-6.357729911804199,1.4404792785644531
1772881637265131300,15.48113134765625,6.0777692794799805,-5.431707382202148,1.1102696657180786
1772881637282476300,15.498476318359375,5.934200286865234,-6.235695838928223,0.3326023519039154
1772881637299821300,15.5158212890625,6.041877269744873,-8.250452041625977,1.5601203441619873
1772881637317166300,15.533166259765625,5.891129493713379,-8.123632431030273,4.433900356292725
1772881637334511400,15.550511474609374,5.434100151062012,-7.956135272979736,2.63449764251709
1772881637351856400,15.5678564453125,4.319045066833496,-8.669196128845215,1.100698471069336
1772881637369201400,15.585201416015625,4.390829563140869,-8.48734188079834,1.5744773149490356
1772881637386546400,15.60254638671875,5.84566593170166,-6.872186660766602,1.0001999139785767
1772881637403891500,15.619891357421874,7.506284713745117,-7.802994728088379,1.5122638940811157
1772881637421236500,15.637236572265625,7.582854747772217,-9.300901412963867,2.3617160320281982
1772881637438581500,15.65458154296875,6.558726787567139,-10.169496536254883,2.392822742462158
1772881637455926500,15.671926513671876,5.326423168182373,-10.214960098266602,2.799602508544922
1772881637473271600,15.689271484375,4.72582483291626,-8.774480819702148,3.077169895172119
1772881637490616600,15.706616455078125,4.620540618896484,-8.10688304901123,2.8594231605529785
1772881637507961600,15.723961669921875,4.967499732971191,-7.551748275756836,2.9694929122924805
1772881637525306600,15.741306640625,4.809573650360107,-8.025527000427246,3.2925238609313965
1772881637542651600,15.758651611328125,5.144568920135498,-7.652246952056885,4.242474555969238
1772881637559996700,15.77599658203125,5.86002254486084,-6.577869415283203,4.7712883949279785
1772881637577341700,15.793341796875,6.680760860443115,-6.063412666320801,5.034498691558838
1772881637594686700,15.810686767578124,5.996413707733154,-5.804987907409668,4.9363932609558105
1772881637612031700,15.82803173828125,6.034698486328125,-6.7692952156066895,4.922036170959473
1772881637629376800,15.845376708984375,5.826523303985596,-6.63769006729126,4.960321426391602
1772881637646721800,15.8627216796875,5.37906551361084,-5.493920803070068,5.017749309539795
1772881637664066800,15.88006689453125,4.898108005523682,-4.204189300537109,4.335794448852539
1772881637681411800,15.897411865234375,4.314259052276611,-3.7184464931488037,3.7734813690185547
1772881637698756900,15.9147568359375,4.981856822967529,-4.299902439117432,3.9122650623321533
1772881637716102000,15.932101806640626,5.697310924530029,-4.48414945602417,4.06540584564209
1772881637733447000,15.949447021484374,5.292923450469971,-5.264209747314453,4.077369689941406
1772881637750792200,15.966792236328125,4.185046672821045,-5.3455657958984375,3.6849467754364014
1772881637768137000,15.984136962890625,4.244867324829102,-5.838487148284912,3.3332018852233887
1772881637785482200,16.001482177734374,4.218546390533447,-6.223731517791748,2.940778970718384
1772881637802827300,16.0188271484375,5.056034088134766,-7.379465103149414,3.414557933807373
1772881637820172300,16.03617236328125,5.982056617736816,-7.41535758972168,4.005585193634033
1772881637837517300,16.053517333984374,6.238088607788086,-5.168497085571289,3.78544545173645
1772881637854862300,16.0708623046875,5.85284423828125,-4.316651821136475,3.4983067512512207
1772881637872207400,16.088207275390626,4.95074987411499,-4.809573650360107,3.9290146827697754
1772881637889552400,16.105552490234373,5.111069202423096,-6.092126369476318,3.8500516414642334
1772881637906897400,16.1228974609375,5.278566837310791,-7.4847493171691895,3.077169895172119
1772881637924242400,16.140242431640626,5.513063430786133,-8.061419486999512,2.0817556381225586
1772881637941587500,16.15758740234375,6.900900363922119,-8.49452018737793,1.9597218036651611
1772881637958932500,16.174932373046875,8.001599311828613,-9.870393753051758,2.4526431560516357
1772881637976277500,16.192277587890626,9.619147300720215,-10.782058715820312,2.723032236099243
1772881637993622500,16.20962255859375,10.894521713256836,-10.856236457824707,3.6299118995666504
1772881638010967600,16.226967529296875,9.219545364379883,-9.760323524475098,4.869394302368164
1772881638028312600,16.2443125,6.128018856048584,-8.025527000427246,3.8596229553222656
1772881638045657600,16.26165771484375,4.78803825378418,-7.637889862060547,1.3639088869094849
1772881638063002600,16.279002685546875,5.091926574707031,-7.178467750549316,-0.6125625967979431
1772881638080347600,16.29634765625,6.656832695007324,-7.089933395385742,-0.7800601720809937
1772881638097692700,16.313692626953124,7.389036178588867,-7.010970115661621,2.0721843242645264
1772881638115037700,16.33103759765625,7.582854747772217,-5.6685967445373535,3.1561331748962402
1772881638132382700,16.3483828125,7.956135272979736,-5.5345988273620605,2.801995277404785
1772881638149727700,16.365727783203123,7.355536937713623,-6.790830612182617,2.280359983444214
1772881638167072800,16.38307275390625,6.771687984466553,-8.193024635314941,2.196611166000366
1772881638184417800,16.400417724609376,6.874579429626465,-9.745966911315918,1.9525432586669922
1772881638201762800,16.4177626953125,5.752345561981201,-9.611968994140625,1.0552347898483276
1772881638219107800,16.43510791015625,5.450850009918213,-9.20997428894043,0.35413774847984314
1772881638236452900,16.452452880859376,6.601797580718994,-8.662017822265625,0.13878370821475983
1772881638253798000,16.4697978515625,8.02074146270752,-8.97787094116211,1.0815558433532715
1772881638271143000,16.487142822265625,8.37727165222168,-9.145368576049805,2.1678972244262695
1772881638288488000,16.504488037109375,7.326822757720947,-9.401400566101074,3.0628130435943604
1772881638305833000,16.5218330078125,6.156732559204102,-8.72901725769043,2.9216363430023193
1772881638323178000,16.539177978515625,3.8572301864624023,-7.389036178588867,2.6632115840911865
1772881638340523000,16.55652294921875,3.5126636028289795,-6.8482584953308105,2.266003131866455
1772881638357868000,16.573867919921874,4.398007869720459,-7.17368221282959,2.273181438446045
1772881638375213000,16.591213134765624,6.183053493499756,-7.336394309997559,3.414557933807373
1772881638392558000,16.60855810546875,7.080362319946289,-7.152146816253662,4.4721856117248535
1772881638409903000,16.625903076171873,6.951149940490723,-6.546762943267822,5.108676433563232
1772881638427248000,16.643248046875,6.685546398162842,-5.3312087059021,4.491328239440918
1772881638444593200,16.66059326171875,5.536991596221924,-4.680361270904541,2.9479575157165527
1772881638461938200,16.677938232421877,5.599205017089844,-5.326423168182373,2.4837498664855957
1772881638479283200,16.695283203125,5.481956481933594,-5.8337016105651855,2.885744094848633
1772881638496628200,16.712628173828126,6.192625045776367,-5.718846321105957,4.06540584564209
1772881638513973200,16.72997314453125,6.362515449523926,-4.015156269073486,4.433900356292725
1772881638531318300,16.747318359375,4.871787071228027,-3.1968109607696533,4.481756687164307
1772881638548663300,16.764663330078125,3.704089403152466,-3.273381471633911,4.338187217712402
1772881638566008300,16.78200830078125,3.5605201721191406,-4.833501815795898,4.0319061279296875
1772881638583353300,16.799353271484375,4.12761926651001,-6.063412666320801,3.460021495819092
1772881638600698400,16.816698486328125,4.9986066818237305,-7.190432071685791,3.445664644241333
1772881638618043400,16.83404345703125,5.474778175354004,-7.860422611236572,3.2303106784820557
1772881638635388400,16.851388427734374,6.063412666320801,-6.400800704956055,3.4337005615234375
1772881638652733700,16.868733642578125,6.367300987243652,-5.213960647583008,3.555734395980835
1772881638670078700,16.88607861328125,5.848058700561523,-4.9052863121032715,3.31884503364563
1772881638687423500,16.903423583984374,5.26181697845459,-5.314459323883057,3.838087558746338
1772881638704768800,16.920768798828124,5.139782905578613,-5.98444938659668,4.512863636016846
1772881638722113800,16.93811376953125,5.560919761657715,-6.589833736419678,4.280759811401367
1772881638739458800,16.955458740234373,6.4079790115356445,-7.278966426849365,3.4959139823913574
1772881638756803800,16.972803955078124,7.22871732711792,-7.685746192932129,2.885744094848633
1772881638774148900,16.99014892578125,7.432106971740723,-7.568498134613037,2.5363919734954834
1772881638791494000,17.007493896484377,7.501499176025391,-7.594819068908691,2.4646072387695312
1772881638808839000,17.0248388671875,7.616354465484619,-8.437092781066895,2.902493953704834
1772881638826184000,17.042183837890626,8.432307243347168,-8.894122123718262,2.8498518466949463
1772881638843529000,17.059529052734376,7.960920810699463,-9.157332420349121,2.6967110633850098
1772881638860874000,17.0768740234375,6.156732559204102,-9.052047729492188,2.5603201389312744
1772881638878219000,17.094218994140626,6.929614543914795,-9.549755096435547,2.770888566970825
1772881638895564000,17.11156396484375,7.5804619789123535,-8.913264274597168,2.5196423530578613
1772881638912909000,17.128908935546875,8.671588897705078,-8.025527000427246,1.7778671979904175
1772881638930254000,17.146254150390625,9.55214786529541,-7.63310432434082,1.550549030303955
1772881638947599000,17.16359912109375,9.896714210510254,-7.0995049476623535,2.122433662414551
1772881638964944100,17.180944091796874,8.482556343078613,-6.482156753540039,2.746960401535034
1772881638982289200,17.1982890625,7.125825881958008,-6.5874409675598145,2.280359983444214
1772881638999634200,17.21563427734375,5.661418437957764,-6.597012042999268,2.148754835128784
1772881639016979200,17.232979248046874,5.446064472198486,-6.546762943267822,1.94297194480896
1772881639034324200,17.25032421875,6.367300987243652,-7.286144733428955,1.5481562614440918
1772881639051669200,17.267669189453127,7.523034572601318,-8.717052459716797,1.490728497505188
1772881639069014300,17.28501416015625,7.140182971954346,-8.82951545715332,1.3878371715545654
1772881639086359300,17.302359375,7.293323516845703,-8.793622970581055,1.552941918373108
1772881639103704300,17.319704345703126,7.101897716522217,-8.506484031677246,1.6510475873947144
1772881639121049300,17.33704931640625,6.721438884735107,-8.762516975402832,1.25144624710083
1772881639138394400,17.354394287109375,6.3122663497924805,-7.659425258636475,1.2801600694656372
1772881639155739400,17.371739501953126,5.630311489105225,-7.436892986297607,2.342573404312134
1772881639173084400,17.38908447265625,5.352744102478027,-7.8795647621154785,3.208775281906128
1772881639190429400,17.406429443359375,5.766702651977539,-8.073383331298828,2.9551360607147217
1772881639207774500,17.4237744140625,4.993820667266846,-7.719245910644531,3.328416347503662
1772881639225119500,17.441119384765624,4.706682205200195,-7.70249605178833,3.610769271850586
1772881639242464500,17.458464599609375,4.744967460632324,-7.247859954833984,3.720839262008667
1772881639259809500,17.4758095703125,5.108676433563232,-7.109076023101807,3.273381471633911
1772881639277154600,17.493154541015624,6.467799663543701,-7.317251682281494,3.696911096572876
1772881639294499600,17.51049951171875,7.219145774841309,-6.245266914367676,3.900300979614258
1772881639311844600,17.5278447265625,7.149754047393799,-4.800002098083496,3.5222349166870117
1772881639329189600,17.545189697265624,7.630711555480957,-4.948357105255127,3.94815731048584
1772881639346534700,17.56253466796875,6.391229152679443,-4.613361835479736,4.244867324829102
1772881639363879700,17.579879638671876,5.460421085357666,-4.34536600112915,4.039084434509277
1772881639381224700,17.597224609375,4.835894584655762,-3.7471601963043213,4.096512317657471
1772881639398569700,17.61456982421875,4.177868366241455,-3.8428730964660645,4.3549370765686035
1772881639415914800,17.631914794921876,4.443471431732178,-4.711467742919922,3.768695592880249
1772881639433259800,17.649259765625,4.599005222320557,-5.288137912750244,3.2470602989196777
1772881639450604800,17.666604736328125,4.216153621673584,-5.288137912750244,3.0173492431640625
1772881639467949800,17.68394970703125,3.893122434616089,-5.283352375030518,3.28773832321167
1772881639485294800,17.701294921875,3.7328033447265625,-5.446064472198486,3.5270206928253174
1772881639502639900,17.718639892578125,4.137190341949463,-5.78345251083374,3.3236305713653564
1772881639519985000,17.73598486328125,4.73300313949585,-6.309873104095459,2.943171739578247
1772881639537330000,17.753329833984374,5.450850009918213,-6.556334018707275,2.809173822402954
1772881639554675000,17.770675048828124,6.491727828979492,-6.802794933319092,3.486342668533325
1772881639572020000,17.78802001953125,7.551748275756836,-6.1328043937683105,3.8333017826080322
1772881639589365000,17.805364990234374,7.913064479827881,-5.883950710296631,3.7495529651641846
1772881639606710000,17.8227099609375,7.623532772064209,-6.403193473815918,3.737588882446289
1772881639624055000,17.840054931640626,7.645068168640137,-7.369893550872803,3.924229145050049
1772881639641400000,17.857400146484373,7.434499740600586,-8.207381248474121,3.438486099243164
1772881639658745000,17.8747451171875,7.456035137176514,-8.97787094116211,2.8737800121307373
1772881639676090000,17.892090087890626,8.23848819732666,-8.788837432861328,2.4023938179016113
1772881639693435100,17.90943505859375,8.439485549926758,-8.030312538146973,2.3569302558898926
1772881639710780200,17.9267802734375,8.877371788024902,-7.369893550872803,2.6321048736572266
1772881639728125200,17.944125244140626,8.2695951461792,-7.032505512237549,3.105883836746216
1772881639745470200,17.96147021484375,7.3292155265808105,-7.853243827819824,2.770888566970825
1772881639762815200,17.978815185546875,6.044270038604736,-8.556734085083008,2.4406790733337402
1772881639780160300,17.99616015625,6.439085960388184,-8.212167739868164,1.832902193069458
1772881639797505300,18.01350537109375,8.504091262817383,-7.128218650817871,1.8041882514953613
1772881639814850300,18.030850341796874,9.705288887023926,-6.953542709350586,2.455035924911499
1772881639832195300,18.0481953125,8.657232284545898,-6.573083877563477,3.0101709365844727
1772881639849540400,18.065540283203124,7.0995049476623535,-6.0370917320251465,2.4717857837677
1772881639866885400,18.082885498046874,6.606583118438721,-5.4628143310546875,1.789831280708313
1772881639884230400,18.10023046875,6.45822811126709,-5.759523868560791,1.7850457429885864
1772881639901575400,18.117575439453127,6.7070817947387695,-6.070590972900391,2.146361827850342
1772881639918920400,18.13492041015625,6.685546398162842,-6.532405853271484,2.1846470832824707
1772881639936265500,18.152265380859376,6.879364967346191,-8.133204460144043,1.4691931009292603
1772881639953610500,18.169610595703126,6.821937561035156,-7.582854747772217,0.7034898400306702
1772881639970955500,18.18695556640625,7.6043901443481445,-7.477570533752441,0.6269195079803467
1772881639988300500,18.204300537109376,8.477770805358887,-8.374878883361816,1.612762451171875
1772881640005645600,18.2216455078125,8.350951194763184,-8.590232849121094,2.651247501373291
1772881640022990600,18.238990478515625,7.16650390625,-8.21695327758789,2.548356056213379
1772881640040335600,18.256335693359375,5.20678186416626,-7.984848976135254,2.6177480220794678
1772881640057680600,18.2736806640625,4.328616142272949,-7.389036178588867,2.2851455211639404
1772881640075025700,18.291025634765624,4.826323509216309,-5.67338228225708,2.5220351219177246
1772881640092370700,18.30837060546875,6.106483459472656,-5.670989513397217,3.6466617584228516
1772881640109715700,18.3257158203125,6.307480335235596,-6.355337142944336,4.479363918304443
1772881640127060700,18.343060791015624,5.900700569152832,-6.640082836151123,4.627718925476074
1772881640144405800,18.36040576171875,5.558526992797852,-6.697510719299316,4.177868366241455
1772881640161750800,18.377750732421877,6.960721015930176,-6.58265495300293,3.8596229553222656
1772881640179095800,18.395095703125,7.475177764892578,-6.338587284088135,3.8261234760284424
1772881640196440800,18.41244091796875,7.848458290100098,-5.170889854431152,3.8524444103240967
1772881640213785900,18.429785888671876,8.22413158416748,-4.926821708679199,4.118047714233398
1772881640231131000,18.447130859375,8.204988479614258,-5.352744102478027,4.8574299812316895
1772881640248476000,18.464475830078126,7.549355506896973,-4.871787071228027,4.895715236663818
1772881640265821000,18.481821044921876,6.618547439575195,-4.046263217926025,4.2831525802612305
1772881640283166000,18.499166015625,4.981856822967529,-4.005585193634033,3.656233072280884
1772881640300511000,18.516510986328125,4.366901397705078,-4.213760852813721,3.462414264678955
1772881640317856000,18.53385595703125,3.88594388961792,-4.230510234832764,3.570091485977173
1772881640335201000,18.551200927734374,4.347758769989014,-4.639683246612549,3.2997024059295654
1772881640352546000,18.568546142578125,4.2592244148254395,-4.9292144775390625,3.34995174407959
1772881640369891000,18.58589111328125,4.804787635803223,-5.493920803070068,3.4408788681030273
1772881640387236000,18.603236083984374,5.632704734802246,-5.78345251083374,3.900300979614258
1772881640404581000,18.6205810546875,5.938985824584961,-5.493920803070068,3.9218363761901855
1772881640421926100,18.637926025390627,5.690132141113281,-4.8813581466674805,3.507878065109253
1772881640439271200,18.655271240234374,6.116054534912109,-5.424529075622559,3.562912940979004
1772881640456616200,18.6726162109375,6.44387149810791,-6.104090690612793,3.8979079723358154
1772881640473961200,18.689961181640626,6.781259536743164,-6.436692714691162,3.9050865173339844
1772881640491306200,18.70730615234375,7.247859954833984,-6.695117950439453,3.579662561416626
1772881640508651300,18.7246513671875,7.625925540924072,-6.393621921539307,3.029313564300537
1772881640525996300,18.741996337890626,7.537391185760498,-6.69990348815918,2.7804598808288574
1772881640543341300,18.75934130859375,7.776673793792725,-7.09711217880249,2.9240293502807617
1772881640560686300,18.776686279296875,8.0350980758667,-7.869993686676025,3.046063184738159
1772881640578031400,18.79403125,7.898707389831543,-8.13081169128418,2.9958138465881348
1772881640595376400,18.81137646484375,7.161718368530273,-8.073383331298828,2.746960401535034
1772881640612721400,18.828721435546875,6.369693756103516,-7.554141044616699,2.5531418323516846
1772881640630066400,18.84606640625,5.881557941436768,-7.054041385650635,2.3976082801818848
1772881640647411500,18.863411376953124,7.628318786621094,-7.623532772064209,3.0101709365844727
1772881640664756500,18.880756591796874,8.863015174865723,-7.477570533752441,3.170490026473999
1772881640682101500,18.8981015625,8.204988479614258,-7.144968509674072,1.6773686408996582
1772881640699446500,18.915446533203124,8.250452041625977,-7.70967435836792,0.882951557636261
1772881640716791600,18.93279150390625,8.434700012207031,-8.042277336120605,1.3710874319076538
1772881640734136600,18.950136474609376,8.688339233398438,-7.307680130004883,3.0652058124542236
1772881640751481600,18.967481689453123,9.013762474060059,-6.0538411140441895,2.8187451362609863
1772881640768826600,18.98482666015625,9.080761909484863,-6.3840508460998535,1.6390835046768188
1772881640786171600,19.002171630859376,7.475177764892578,-7.389036178588867,2.313859462738037
1772881640803516700,19.0195166015625,5.821737289428711,-7.188039302825928,2.794816732406616
1772881640820861700,19.03686181640625,5.173282623291016,-6.340980052947998,1.97407865524292
1772881640838206700,19.054206787109376,5.864808082580566,-7.405786037445068,1.5314065217971802
1772881640855551700,19.0715517578125,5.891129493713379,-6.9583282470703125,0.550349235534668
1772881640872896800,19.088896728515625,6.97268533706665,-8.0350980758667,0.8877372145652771
1772881640890241800,19.10624169921875,7.037291526794434,-9.06401252746582,2.0099709033966064
1772881640907586800,19.1235869140625,7.207181930541992,-9.7005033493042,3.129812002182007
1772881640924931800,19.140931884765624,7.451249599456787,-9.868000984191895,3.682554006576538
1772881640942276900,19.15827685546875,7.2430739402771,-8.73619556427002,3.294916868209839
1772881640959622000,19.175621826171874,5.8337016105651855,-7.893921852111816,2.337787628173828
1772881640976967000,19.192966796875,5.802595138549805,-7.109076023101807,1.9286150932312012
1772881640994312000,19.21031201171875,6.226124286651611,-6.776473522186279,2.251646041870117
1772881641011657000,19.227656982421873,6.123233318328857,-7.317251682281494,3.6227335929870605
1772881641029002000,19.245001953125,5.986842155456543,-7.140182971954346,4.015156269073486
1772881641046347000,19.262346923828126,6.429514408111572,-6.283552169799805,4.235296249389648
1772881641063692000,19.279692138671876,6.1399827003479,-5.410171985626221,4.237689018249512
1772881641081037000,19.297037109375,5.096712112426758,-5.120640277862549,3.7016966342926025
1772881641098382000,19.314382080078126,5.618347644805908,-5.1565327644348145,3.4743785858154297
1772881641115727000,19.33172705078125,5.7164530754089355,-5.091926574707031,3.7495529651641846
1772881641133072100,19.349072021484375,6.4319071769714355,-4.773681163787842,4.132404804229736
1772881641150417200,19.366417236328125,6.833901405334473,-4.47697114944458,4.438685894012451
1772881641167762200,19.38376220703125,6.029912948608398,-4.175475597381592,4.536791801452637
1772881641185107200,19.401107177734374,5.826523303985596,-4.527220249176025,4.752145767211914
1772881641202452200,19.4184521484375,5.304887771606445,-4.59421968460083,4.4410786628723145
1772881641219797200,19.43579736328125,4.491328239440918,-4.0319061279296875,3.7782669067382812
1772881641237142300,19.453142333984374,4.457828521728516,-3.7950167655944824,3.5916268825531006
1772881641254487300,19.4704873046875,4.709074974060059,-4.48414945602417,3.91705060005188
1772881641271832300,19.487832275390623,4.642076015472412,-5.3934221267700195,4.034298896789551
1772881641289177300,19.50517724609375,4.993820667266846,-5.465207099914551,4.462614059448242
1772881641306522400,19.5225224609375,5.283352375030518,-5.06799840927124,4.42193603515625
1772881641323867400,19.539867431640626,6.20219612121582,-5.276174068450928,4.2281174659729
1772881641341212400,19.55721240234375,6.7932233810424805,-5.450850009918213,3.1441688537597656
1772881641358557400,19.574557373046876,6.527620315551758,-5.824130535125732,3.170490026473999
1772881641375902500,19.59190234375,6.496513366699219,-6.094519138336182,3.579662561416626
1772881641393247500,19.60924755859375,6.589833736419678,-6.252445697784424,3.82373046875
1772881641410592500,19.626592529296875,6.52044153213501,-7.307680130004883,3.6131622791290283
1772881641427937500,19.6439375,7.176074981689453,-7.554141044616699,3.596412420272827
1772881641445282600,19.661282470703124,8.039883613586426,-7.262216567993164,3.7710886001586914
1772881641462627600,19.678627685546875,8.592626571655273,-6.704689025878906,3.9696927070617676
1772881641479972600,19.69597265625,8.422736167907715,-6.50608491897583,3.5820555686950684
1772881641497317600,19.713317626953124,7.704888820648193,-6.642475605010986,2.746960401535034
1772881641514662700,19.73066259765625,6.553941249847412,-7.04207706451416,2.0554347038269043
1772881641532007700,19.748007568359377,6.001199245452881,-7.255038261413574,1.5625132322311401
1772881641549352700,19.765352783203124,6.104090690612793,-7.0683979988098145,1.5672988891601562
1772881641566697700,19.78269775390625,6.580262184143066,-6.97268533706665,2.117648124694824
1772881641584042800,19.800042724609376,9.415757179260254,-7.5708909034729,3.081955671310425
1772881641601387800,19.8173876953125,10.784451484680176,-7.4847493171691895,3.242274761199951
1772881641618732800,19.83473291015625,10.454241752624512,-7.393822193145752,2.4981069564819336
1772881641636077800,19.852077880859376,10.8969144821167,-7.762316703796387,2.4263222217559814
1772881641653422800,19.8694228515625,10.147960662841797,-8.054241180419922,2.4574289321899414
1772881641670767900,19.886767822265625,8.226524353027344,-7.312466144561768,2.289931297302246
1772881641688113000,19.90411279296875,7.066005229949951,-6.197410583496094,2.289931297302246
1772881641705458000,19.9214580078125,6.197410583496094,-4.945964336395264,2.4287149906158447
1772881641722802700,19.938802734375,5.962913990020752,-4.429114818572998,1.6893328428268433
1772881641740147700,19.956147705078124,5.907878875732422,-5.544169902801514,0.7226324677467346
1772881641757493000,19.973492919921874,6.50608491897583,-6.283552169799805,1.0049854516983032
1772881641774837800,19.990837646484376,6.833901405334473,-6.329015731811523,1.5672988891601562
1772881641792182800,20.008182861328127,6.56829833984375,-6.9104719161987305,1.545763373374939
1772881641809527800,20.02552783203125,5.857629776000977,-7.003791809082031,1.5625132322311401
1772881641826872800,20.042872802734376,6.472585201263428,-8.001599311828613,1.5242279767990112
1772881641844217900,20.0602177734375,7.2813591957092285,-9.123832702636719,1.7563318014144897
1772881641861563000,20.07756298828125,7.869993686676025,-8.870193481445312,2.155933141708374
1772881641878908000,20.094907958984376,7.350750923156738,-7.884350776672363,3.407379388809204
1772881641896253000,20.1122529296875,6.771687984466553,-7.810173034667969,4.359723091125488
1772881641913598000,20.129597900390625,6.003592014312744,-6.845865726470947,4.919643402099609
1772881641930943000,20.14694287109375,7.530212879180908,-7.133004188537598,5.436492919921875
1772881641948288000,20.1642880859375,7.934599876403809,-7.008577346801758,5.816951751708984
1772881641965633000,20.181633056640624,7.312466144561768,-6.460621356964111,5.300102233886719
1772881641982978000,20.19897802734375,6.216553211212158,-5.61116886138916,4.555934429168701
1772881642000323000,20.216322998046873,5.86002254486084,-5.613562107086182,4.0319061279296875
1772881642017668000,20.233668212890624,5.096712112426758,-4.460221290588379,3.6227335929870605
1772881642035013000,20.25101318359375,5.546562671661377,-4.1036906242370605,3.579662561416626
1772881642052358100,20.268358154296877,5.38624382019043,-3.6873397827148438,3.6538400650024414
1772881642069703200,20.285703125,5.139782905578613,-4.113262176513672,4.039084434509277
1772881642087048200,20.303048095703126,5.319244861602783,-4.347758769989014,3.8572301864624023
1772881642104393200,20.320393310546876,5.367101192474365,-4.364508628845215,4.158725738525391
1772881642121738200,20.33773828125,5.517848968505859,-4.493721008300781,4.570291042327881
1772881642139083300,20.355083251953126,5.467599868774414,-5.032105922698975,5.2115678787231445
1772881642156428300,20.37242822265625,6.072983741760254,-5.496313571929932,5.3694939613342285
1772881642173773300,20.389773193359375,6.154339790344238,-4.883750915527344,4.895715236663818
1772881642191118300,20.407118408203125,6.240481376647949,-4.486542224884033,4.783252239227295
1772881642208463400,20.42446337890625,6.300302028656006,-4.73300313949585,4.811966419219971
1772881642225808400,20.441808349609374,6.16391134262085,-5.072783946990967,5.178068161010742
1772881642243153400,20.4591533203125,5.8719868659973145,-4.761716842651367,5.101497650146484
1772881642260498400,20.47649853515625,5.381458282470703,-4.18983268737793,4.386044025421143
1772881642277843500,20.493843505859374,5.233103275299072,-4.1419758796691895,3.541377544403076
1772881642295188500,20.5111884765625,5.063212871551514,-4.649254322052002,2.940778970718384
1772881642312533500,20.528533447265627,4.8813581466674805,-5.302495002746582,2.857030153274536
1772881642329878500,20.54587841796875,5.276174068450928,-5.855237007141113,2.9862427711486816
1772881642347223600,20.5632236328125,5.78345251083374,-6.094519138336182,2.8283164501190186
1772881642364568600,20.580568603515626,5.759523868560791,-6.0370917320251465,2.572284460067749
1772881642381913600,20.59791357421875,6.403193473815918,-6.400800704956055,2.713460922241211
1772881642399258600,20.615258544921875,7.2574310302734375,-6.948757171630859,3.1250264644622803
1772881642416603600,20.632603759765626,7.805387496948242,-7.846065521240234,3.3858439922332764
1772881642433948700,20.64994873046875,8.73619556427002,-8.635697364807129,3.524627685546875
1772881642451293700,20.667293701171875,8.630910873413086,-8.80798053741455,3.249453067779541
1772881642468638700,20.684638671875,8.104490280151367,-8.693124771118164,2.5603201389312744
1772881642485983700,20.701983642578124,7.798209190368652,-8.422736167907715,2.0673987865448
1772881642503328800,20.719328857421875,7.410571575164795,-8.257631301879883,1.8759729862213135
1772881642520673800,20.736673828125,9.013762474060059,-8.700303077697754,2.5052852630615234
1772881642538018800,20.754018798828124,9.236295700073242,-8.276773452758789,2.335394859313965
1772881642555363800,20.77136376953125,7.692924976348877,-7.621140003204346,1.373480200767517
1772881642572708900,20.788708984375,7.1162543296813965,-6.853044033050537,1.7395820617675781
1772881642590054000,20.806053955078124,7.637889862060547,-5.649454116821289,1.7443677186965942
1772881642607399000,20.82339892578125,8.96829891204834,-4.8191447257995605,1.8592232465744019
1772881642624743700,20.84074365234375,10.207781791687012,-4.6301116943359375,1.6654045581817627
1772881642642088700,20.858088623046875,7.652246952056885,-5.917450428009033,2.2444677352905273
1772881642659433700,20.875433837890625,5.185246467590332,-6.8554368019104,2.4574289321899414
1772881642676778800,20.89277880859375,4.88853645324707,-6.561119556427002,2.3617160320281982
1772881642694123800,20.910123779296875,6.013163089752197,-5.965306758880615,2.225325107574463
1772881642711468800,20.92746875,7.293323516845703,-5.79780912399292,1.5337992906570435
1772881642728813800,20.944813720703124,7.319644451141357,-5.958128452301025,1.6031911373138428
1772881642746158800,20.962158935546874,6.597012042999268,-6.10169792175293,1.3423734903335571
1772881642763503900,20.97950390625,4.125226020812988,-5.560919761657715,0.8925228714942932
1772881642780849000,20.996848876953123,4.374079704284668,-7.525427341461182,0.9858429431915283
1772881642798194000,21.01419384765625,6.089733600616455,-9.597611427307129,1.2729816436767578
1772881642815539000,21.0315390625,7.982456207275391,-10.305887222290039,1.6821542978286743
1772881642832884000,21.048884033203127,7.82692289352417,-9.463613510131836,2.6273193359375
1772881642850229000,21.06622900390625,6.898507595062256,-8.401200294494629,2.421536445617676
1772881642867574000,21.083573974609376,6.015556335449219,-8.882157325744629,2.4287149906158447
1772881642884919000,21.1009189453125,6.6592254638671875,-10.947163581848145,2.9766714572906494
1772881642902264000,21.11826416015625,9.257830619812012,-11.306086540222168,4.656432628631592
1772881642919609000,21.135609130859375,9.044869422912598,-7.2813591957092285,5.7619171142578125
1772881642936954000,21.1529541015625,8.09970474243164,-4.488935470581055,4.878965377807617
1772881642954299100,21.170299072265625,6.262016773223877,-4.613361835479736,3.7543387413024902
1772881642971644200,21.18764404296875,5.426921844482422,-4.989035129547119,3.706482172012329
1772881642988989200,21.2049892578125,5.539384365081787,-4.338187217712402,3.893122434616089
1772881643006334200,21.222334228515624,5.024927616119385,-3.5365917682647705,3.5270206928253174
1772881643023679200,21.23967919921875,5.424529075622559,-3.476771354675293,3.3164522647857666
1772881643041024300,21.257024169921873,5.742774486541748,-4.436293125152588,3.6155550479888916
1772881643058369300,21.274369384765624,6.123233318328857,-5.608776092529297,4.1970109939575195
1772881643075714300,21.29171435546875,6.527620315551758,-5.247459888458252,4.2592244148254395
1772881643093059300,21.309059326171877,5.92223596572876,-4.730610370635986,4.261617183685303
1772881643110404400,21.326404296875,5.352744102478027,-5.290530681610107,3.8572301864624023
1772881643127749400,21.343749267578126,5.072783946990967,-5.72123908996582,3.28773832321167
1772881643145094400,21.361094482421876,4.67078971862793,-5.352744102478027,3.122633457183838
1772881643162439400,21.378439453125,4.027120590209961,-5.5345988273620605,2.9958138465881348
1772881643179784400,21.395784423828125,3.737588882446289,-6.309873104095459,2.792423963546753
1772881643197129500,21.41312939453125,4.584648132324219,-7.671389579772949,2.4717857837677
1772881643214474500,21.430474609375,5.259424209594727,-7.463213920593262,1.9836499691009521
1772881643231819500,21.447819580078125,6.295516490936279,-7.250252723693848,2.117648124694824
1772881643249164500,21.46516455078125,7.314858913421631,-6.903293132781982,2.7900311946868896
1772881643266509300,21.48250927734375,7.513463020324707,-6.149554252624512,3.682554006576538
1772881643283854300,21.499854248046876,7.865208148956299,-5.888736724853516,4.622933387756348
1772881643301199400,21.517199462890623,7.35314416885376,-5.802595138549805,4.977071285247803
1772881643318544400,21.53454443359375,7.264609336853027,-6.116054534912109,4.955535888671875
1772881643335889400,21.551889404296876,6.585047721862793,-6.484549522399902,4.721039295196533
1772881643353234400,21.569234375,6.714260101318359,-6.778866767883301,3.5341989994049072
1772881643370579500,21.586579345703125,6.20219612121582,-7.479963779449463,2.2540390491485596
1772881643387924500,21.603924560546876,6.455835342407227,-7.482356548309326,1.4093725681304932
1772881643405269500,21.62126953125,6.436692714691162,-7.585247993469238,1.1365907192230225
1772881643422614500,21.638614501953125,6.2428741455078125,-7.5326056480407715,1.4452649354934692
1772881643439959600,21.65595947265625,6.254838466644287,-6.893722057342529,2.0267207622528076
1772881643457304600,21.6733046875,5.953342914581299,-6.556334018707275,2.4981069564819336
1772881643474649600,21.690649658203125,5.522634506225586,-6.711867332458496,2.730210542678833
1772881643491994600,21.70799462890625,6.393621921539307,-7.420143127441406,2.4095723628997803
1772881643509339600,21.725339599609374,7.8317084312438965,-8.420342445373535,1.404586911201477
1772881643526684700,21.7426845703125,10.478170394897461,-10.207781791687012,1.1150553226470947
1772881643544029700,21.76002978515625,11.82293701171875,-11.509476661682129,0.672383189201355
1772881643561374700,21.777374755859373,9.623932838439941,-10.916056632995605,0.605384111404419
1772881643578719700,21.7947197265625,7.867600917816162,-8.858229637145996,1.5122638940811157
1772881643596064800,21.812064697265626,6.7310099601745605,-7.302894592285156,1.612762451171875
1772881643613409800,21.829409912109377,5.824130535125732,-7.11146879196167,1.3902299404144287
1772881643630754800,21.8467548828125,4.938786029815674,-7.133004188537598,1.2658032178878784
1772881643648099800,21.864099853515626,4.381258487701416,-6.671189308166504,1.0839486122131348
1772881643665444900,21.88144482421875,3.8189449310302734,-5.98444938659668,0.5479564070701599
1772881643682790000,21.898789794921875,3.4121651649475098,-5.7547383308410645,0.9379864931106567
1772881643700135000,21.916135009765625,3.431307554244995,-5.079962253570557,0.24885354936122894
1772881643717479700,21.933479736328124,5.7547383308410645,-5.5345988273620605,-1.179661512374878
1772881643734824700,21.95082470703125,9.882357597351074,-8.47298526763916,0.47617170214653015
1772881643752169700,21.968169677734377,12.339786529541016,-10.84427261352539,2.950350284576416
1772881643769514800,21.9855146484375,11.296515464782715,-11.169695854187012,4.249652862548828
1772881643786859800,22.00285986328125,7.843672752380371,-11.097911834716797,4.063013076782227
1772881643804204800,22.020204833984376,5.5968122482299805,-10.6025972366333,3.431307554244995
1772881643821549800,22.0375498046875,7.113861560821533,-9.506684303283691,2.9359934329986572
1772881643838894800,22.054894775390625,7.6666035652160645,-8.018348693847656,3.022135019302368
1772881643856239900,22.072239990234376,6.434299945831299,-6.955935478210449,2.6632115840911865
1772881643873585000,22.0895849609375,5.769095420837402,-6.6113691329956055,2.2851455211639404
1772881643890930000,22.106929931640625,6.235695838928223,-6.960721015930176,2.7732813358306885
1772881643908275000,22.12427490234375,7.319644451141357,-7.350750923156738,3.428914785385132
1772881643925620000,22.141619873046874,6.814758777618408,-5.941378593444824,2.981456995010376
1772881643942965000,22.158965087890625,5.9676995277404785,-3.538984775543213,1.8999011516571045
1772881643960310000,22.17631005859375,4.35254430770874,-2.4981069564819336,1.2562319040298462
1772881643977655000,22.193655029296874,3.5676984786987305,-6.508477687835693,1.9070796966552734
1772881643995000000,22.211,6.005984783172607,-12.308679580688477,2.8498518466949463
1772881644012345000,22.228344970703127,9.286544799804688,-12.15793228149414,3.996013879776001
1772881644029690000,22.245690185546874,10.39920711517334,-4.6061835289001465,5.61116886138916
1772881644047035100,22.26303515625,7.814958572387695,-3.0652058124542236,4.807180881500244
1772881644064380200,22.280380126953126,4.977071285247803,-6.065805435180664,4.4961137771606445
1772881644081725200,22.29772509765625,4.0558342933654785,-5.4867424964904785,4.429114818572998
1772881644099070200,22.3150703125,4.960321426391602,-4.302295207977295,3.5270206928253174
1772881644116415200,22.332415283203126,3.8596229553222656,-3.957728624343872,2.376072883605957
1772881644133760300,22.34976025390625,3.383451223373413,-4.429114818572998,1.832902193069458
