time,seconds_elapsed,z,y,x
1773163142550533400,0.109533447265625,0,0,0
1773163142575533300,0.134533203125,1.036971092224121,0.12195885181427002,-0.11940646171569824
1773163142588033300,0.147033203125,-0.4785165786743164,-0.43751001358032227,-0.28727149963378906
1773163142600533200,0.159533203125,-1.362318992614746,-0.38100671768188477,-0.30558109283447266
1773163142613033200,0.172033203125,-1.1830711364746094,-0.11025279760360718,-0.25257349014282227
1773163142625533200,0.184533203125,-0.7993354797363281,-0.048020362854003906,-0.2947225570678711
1773163142638033400,0.197033447265625,-0.5730915069580078,-0.0448228120803833,-0.5396041870117188
1773163142650533400,0.209533447265625,-0.8695459365844727,-0.22633767127990723,-0.9055376052856445
1773163142663033300,0.222033447265625,-0.4971961975097656,-0.22501307725906372,-0.8438165187835693
1773163142675533300,0.234533203125,-0.011980056762695312,-0.10479897260665894,-0.4175302982330322
1773163142688033300,0.247033203125,0.14799785614013672,0.00384521484375,-0.306804895401001
1773163142700533200,0.259533203125,0.03723335266113281,-0.24502837657928467,-0.6396656036376953
1773163142713033200,0.272033203125,-0.16587352752685547,-0.5748111605644226,-0.7504513263702393
1773163142725533200,0.284533203125,0.2216339111328125,-0.48433536291122437,-0.5674649477005005
1773163142738033400,0.297033447265625,0.5735855102539062,-0.7182853817939758,-0.23522531986236572
1773163142750533400,0.309533447265625,-0.00478363037109375,-1.0254099369049072,0.06289660930633545
1773163142763033300,0.322033447265625,0.3239555358886719,-0.24184417724609375,0.20071017742156982
1773163142775533300,0.334533203125,0.3865041732788086,0.25319650769233704,-0.5735050439834595
1773163142788033300,0.347033203125,0.5565061569213867,0.8819341063499451,-1.4694277048110962
1773163142800533200,0.359533203125,0.5903081893920898,1.1887410879135132,-2.0479111671447754
1773163142813033200,0.372033203125,0.26822471618652344,1.0469658374786377,-1.8318302631378174
1773163142825533200,0.384533203125,0.34943294525146484,0.8078585863113403,-1.4463245868682861
1773163142838033400,0.397033447265625,0.6525812149047852,0.18726211786270142,-0.49430322647094727
1773163142850533400,0.409533447265625,0.886566162109375,0.011020839214324951,0.0610048770904541
1773163142863033300,0.422033447265625,0.8402576446533203,0.3748835325241089,-0.01556849479675293
1773163142875533300,0.434533203125,0.5217552185058594,0.5600910186767578,-0.342201828956604
1773163142888033300,0.447033203125,0.22447490692138672,0.4527745246887207,-0.6144623756408691
1773163142900533200,0.459533203125,0.20331096649169922,0.08946400880813599,-0.8002954125404358
1773163142913033200,0.472033203125,0.2756633758544922,-0.0017342567443847656,-0.9997474551200867
1773163142925533200,0.484533203125,0.1451425552368164,0.3687247037887573,-1.0852478742599487
1773163142938033400,0.497033447265625,-0.08726119995117188,0.5751025676727295,-1.0756776332855225
1773163142950533400,0.509533447265625,-0.04062366485595703,0.5893848538398743,-0.8444830775260925
1773163142963033300,0.522033447265625,0.04068183898925781,0.5652775764465332,-0.5889824032783508
1773163142975533300,0.534533203125,-0.22539043426513672,0.23382264375686646,-0.2500392198562622
1773163142988033300,0.547033203125,-0.36832332611083984,0.1459493637084961,-0.2533794641494751
1773163143000533200,0.559533203125,-0.3319387435913086,0.10626155138015747,-0.36449098587036133
1773163143013033200,0.572033203125,-0.3162412643432617,-0.0718681812286377,-0.4677504301071167
1773163143025533200,0.584533203125,-0.4410667419433594,-0.13545799255371094,-0.4767552614212036
1773163143038033400,0.597033447265625,-0.4365425109863281,0.05078017711639404,-0.43066489696502686
1773163143050533400,0.609533447265625,-0.1489105224609375,0.38982105255126953,-0.11206573247909546
1773163143063033300,0.622033447265625,0.22867965698242188,0.6474874019622803,0.09290015697479248
1773163143075533300,0.634533203125,0.7132072448730469,0.8447668552398682,0.2484210729598999
1773163143088033300,0.647033203125,0.7494773864746094,0.8670376539230347,0.19356858730316162
1773163143100533200,0.659533203125,1.163762092590332,-0.47676411271095276,1.020073652267456
1773163143113033200,0.672033203125,2.4158058166503906,-0.0111599862575531,-0.8899492025375366
1773163143125533200,0.684533203125,0.6594705581665039,0.3209483027458191,-1.4075015783309937
1773163143138033400,0.697033447265625,-0.24127864837646484,-0.002447664737701416,-1.1902074813842773
1773163143150533400,0.709533447265625,-0.4528360366821289,-0.0536494255065918,-0.8423610329627991
1773163143163033300,0.722033447265625,0.1486978530883789,0.16868358850479126,-0.551001250743866
1773163143175533300,0.734533203125,0.12569618225097656,0.23054784536361694,-0.6544478535652161
1773163143188033300,0.747033203125,0.20736980438232422,0.10257047414779663,-0.9266922473907471
1773163143200533200,0.759533203125,-0.04030418395996094,0.08019685745239258,-0.6241486072540283
1773163143213033200,0.772033203125,-0.14478302001953125,0.3058260679244995,-0.0672762393951416
1773163143225533200,0.784533203125,-0.8795232772827148,1.1912355422973633,1.2410659790039062
1773163143238033400,0.797033447265625,-0.7350339889526367,0.8412778973579407,0.9015951156616211
1773163143250533400,0.809533447265625,-0.4244880676269531,0.2781040072441101,0.5972698926925659
1773163143263033300,0.822033447265625,-0.1864309310913086,-0.36219221353530884,0.08665955066680908
1773163143275533300,0.834533203125,-0.25711727142333984,-0.41750410199165344,-0.15649724006652832
1773163143288033300,0.847033203125,-0.36899471282958984,0.1063266396522522,-0.07752776145935059
1773163143300533200,0.859533203125,-0.7412796020507812,0.2530914545059204,0.4998159408569336
1773163143313033200,0.872033203125,-1.234074592590332,0.4682798385620117,0.6156870126724243
1773163143325533200,0.884533203125,-1.751302719116211,0.739650547504425,0.5032267570495605
1773163143338033400,0.897033447265625,-1.9639472961425781,0.844437301158905,0.5250812768936157
1773163143350533400,0.909533447265625,-1.6273822784423828,0.6751485466957092,0.4621051549911499
1773163143363033300,0.922033447265625,-0.9344482421875,0.30049049854278564,0.3273872137069702
1773163143375533300,0.934533203125,-0.25991058349609375,-0.1314154863357544,0.08755135536193848
1773163143388033300,0.947033203125,0.12513256072998047,0.10476019978523254,0.11978590488433838
1773163143400533200,0.959533203125,0.09710693359375,0.22333192825317383,0.11198210716247559
1773163143413033200,0.972033203125,-0.20093631744384766,-0.16801750659942627,-0.20303285121917725
1773163143425533200,0.984533203125,-0.4731407165527344,-0.4826999306678772,-0.5498990416526794
1773163143438033400,0.997033447265625,-0.5587873458862305,-0.572303295135498,-0.8235077857971191
1773163143450533400,1.009533447265625,-0.37221431732177734,-0.5010514259338379,-0.6190013289451599
1773163143463033300,1.022033447265625,-0.02717304229736328,-0.3516905903816223,-0.35917747020721436
1773163143475533300,1.034533203125,0.3118934631347656,-0.4234353303909302,-0.2970327138900757
1773163143488033300,1.047033203125,0.7353439331054688,-0.5698493123054504,-0.4456826448440552
1773163143500533200,1.059533203125,0.7135181427001953,-0.4677688777446747,-0.48016083240509033
1773163143513033200,1.072033203125,0.45169830322265625,-0.35960453748703003,-0.25133955478668213
1773163143525533200,1.084533203125,0.18877315521240234,-0.04034571349620819,-0.08114314079284668
1773163143538033400,1.097033447265625,-0.09352684020996094,-0.03554271161556244,-0.18728017807006836
1773163143550533400,1.109533447265625,0.15490055084228516,-0.028859391808509827,-0.31563234329223633
1773163143563033300,1.122033447265625,0.6843595504760742,-0.18563085794448853,-0.2544710636138916
1773163143575533300,1.134533203125,0.9900979995727539,-0.2758200764656067,-0.373834490776062
1773163143588033300,1.147033203125,0.9352216720581055,-0.21820887923240662,-0.2871365547180176
1773163143600533200,1.159533203125,0.8816766738891602,-0.3216199278831482,-0.2638601064682007
1773163143613033200,1.172033203125,0.7218055725097656,-0.40672245621681213,-0.4303116798400879
1773163143625533200,1.184533203125,0.7266969680786133,-0.5913081765174866,-0.6570925712585449
1773163143638033400,1.197033447265625,0.6032733917236328,-0.632738471031189,-0.8577710390090942
1773163143650533400,1.209533447265625,0.43520545959472656,-0.15196388959884644,-0.39570939540863037
1773163143663033300,1.222033447265625,0.4244213104248047,0.038043200969696045,0.008593320846557617
1773163143675533300,1.234533203125,0.7409820556640625,-0.33950507640838623,-0.0370638370513916
1773163143688033300,1.247033203125,1.1039676666259766,-0.5825868248939514,-0.3072052001953125
1773163143700533200,1.259533203125,0.7783489227294922,-0.4067612886428833,-0.22309374809265137
1773163143713033200,1.272033203125,0.3565225601196289,-0.1612861156463623,-0.17590713500976562
1773163143725533200,1.284533203125,-0.26833248138427734,0.03705191612243652,0.036980628967285156
1773163143738033400,1.297033447265625,-0.8968381881713867,-0.050027549266815186,0.07368993759155273
1773163143750533400,1.309533447265625,-1.2413787841796875,-0.26374149322509766,0.10691714286804199
1773163143763033300,1.322033447265625,-1.3083152770996094,-0.6084149479866028,0.12331485748291016
1773163143775533300,1.334533203125,-1.068465232849121,-1.0606602430343628,0.1367321014404297
1773163143788033300,1.347033203125,-0.7898721694946289,-1.3796741962432861,0.14207053184509277
1773163143800533200,1.359533203125,-0.8612060546875,-1.5728726387023926,0.1376945972442627
1773163143813033200,1.372033203125,-1.6546869277954102,-1.6716814041137695,-0.07924222946166992
1773163143825533200,1.384533203125,-3.024301528930664,-1.6783779859542847,-0.2692997455596924
1773163143838033400,1.397033447265625,-4.01981782913208,-2.0809507369995117,-0.5754191875457764
1773163143850533400,1.409533447265625,-3.976306438446045,-2.8037147521972656,-0.7476444244384766
1773163143863033300,1.422033447265625,-3.0368595123291016,-3.4035611152648926,-0.9926395416259766
1773163143875533300,1.434533203125,-2.359762668609619,-4.172883033752441,-1.6906049251556396
1773163143888033300,1.447033203125,-2.628744125366211,-4.644494533538818,-2.1756558418273926
1773163143900533200,1.459533203125,-3.2108376026153564,-4.946980953216553,-2.290142059326172
1773163143913033200,1.472033203125,-3.7055509090423584,-4.903378486633301,-2.074131965637207
1773163143925533200,1.484533203125,-3.9673562049865723,-4.885246753692627,-1.8715481758117676
1773163143938033400,1.497033447265625,-3.3551855087280273,-5.027400016784668,-1.4115920066833496
1773163143950533400,1.509533447265625,-1.554000973701477,-4.826523780822754,-0.1412038803100586
1773163143963033300,1.522033447265625,0.8223485946655273,-4.220987796783447,1.591421127319336
1773163143975533300,1.534533203125,1.4605731964111328,-3.1534106731414795,2.8953866958618164
1773163143988033300,1.547033203125,1.388000726699829,-1.928868293762207,4.103122711181641
1773163144000533200,1.559533203125,0.7249153852462769,-1.0089290142059326,4.78537654876709
1773163144013033200,1.572033203125,0.3271026611328125,-0.021999120712280273,5.8363237380981445
1773163144025533200,1.584533203125,0.7938590049743652,0.4919164180755615,6.858179092407227
1773163144038033400,1.597033447265625,1.7194360494613647,1.4230589866638184,7.710539817810059
1773163144050533400,1.609533447265625,1.8828632831573486,2.344627857208252,8.417787551879883
1773163144063033300,1.622033447265625,2.0325896739959717,2.9212803840637207,8.33288288116455
1773163144075533300,1.634533203125,1.6101477146148682,3.107301712036133,7.473596572875977
1773163144088033300,1.647033203125,0.7187938690185547,3.1845006942749023,6.6301679611206055
1773163144100533200,1.659533203125,-0.49595773220062256,3.930354595184326,6.630434036254883
1773163144113033200,1.672033203125,-1.0299803018569946,4.655178070068359,6.914682388305664
1773163144125533200,1.684533203125,-0.5815444588661194,4.847445011138916,6.414216995239258
1773163144138033400,1.697033447265625,-5.60808801651001,4.595274448394775,4.376757621765137
1773163144150533400,1.709533447265625,-12.792705535888672,4.369801998138428,1.1271171569824219
1773163144163033300,1.722033447265625,-7.149297714233398,4.553493022918701,1.4601163864135742
1773163144175533300,1.734533203125,-4.9812235832214355,5.423459053039551,3.0735836029052734
1773163144188033300,1.747033203125,-4.893305778503418,4.845859050750732,1.878046989440918
1773163144200533200,1.759533203125,-4.017251014709473,3.606982469558716,0.14780044555664062
1773163144213033200,1.772033203125,-2.954927444458008,2.1869544982910156,-1.081709861755371
1773163144225533200,1.784533203125,-1.3682434558868408,-0.1941990852355957,-3.0990915298461914
1773163144238033400,1.797033447265625,-1.5630980730056763,-0.7677431106567383,-4.398813724517822
1773163144250533400,1.809533447265625,-2.3703346252441406,0.2162775993347168,-3.805067539215088
1773163144263033300,1.822033447265625,-1.1848390102386475,1.7749643325805664,-2.0378313064575195
1773163144288033300,1.847033203125,2.6515793800354004,1.7046468257904053,-0.7891206741333008
1773163144353658400,1.912658447265625,-0.6603076457977295,0.5482649803161621,0.6363801956176758
1773163144366158300,1.925158447265625,-1.5205717086791992,-0.6600937843322754,-0.10348892211914062
1773163144378658300,1.937658203125,-0.47911348938941956,-1.5287442207336426,-0.43439149856567383
1773163144391158300,1.950158203125,-1.2474985122680664,-2.6033172607421875,-0.625359058380127
1773163144403658200,1.962658203125,-0.15448874235153198,-3.693965435028076,-2.4211678504943848
1773163144416158200,1.975158203125,0.4591320753097534,-3.2206950187683105,-3.0570602416992188
1773163144428658400,1.987658447265625,1.1412477493286133,-0.5961790084838867,-3.038297653198242
1773163144441158400,2.000158447265625,-0.3237403929233551,-0.15683507919311523,-1.2880163192749023
1773163144453658400,2.012658447265625,0.26169323921203613,-1.1609296798706055,0.34493255615234375
1773163144466158300,2.025158447265625,-0.4419398009777069,-1.8667783737182617,0.791313648223877
1773163144478658300,2.037658203125,0.013557389378547668,-2.4229331016540527,-0.12082052230834961
1773163144491158300,2.050158203125,0.27545520663261414,-1.9980583190917969,-0.893012523651123
1773163144503658200,2.062658203125,0.002300769090652466,-2.080197811126709,-0.45012474060058594
1773163144516158200,2.075158203125,-0.09495130181312561,-1.5230207443237305,0.088714599609375
1773163144528658400,2.087658447265625,-0.050645262002944946,-1.2955803871154785,0.7456979751586914
1773163144541158400,2.100158447265625,-0.014262229204177856,-0.2889080047607422,-0.8195295333862305
1773163144553658400,2.112658447265625,-0.4839782118797302,0.7355237007141113,-1.5514979362487793
1773163144566158300,2.125158447265625,-0.1500493884086609,0.71881103515625,-1.3305673599243164
1773163144578658300,2.137658203125,-0.5881088376045227,0.8334426879882812,-0.8383855819702148
1773163144591158300,2.150158203125,-0.9241282939910889,1.1849937438964844,-0.14709997177124023
1773163144603658200,2.162658203125,-1.3244438171386719,0.6027979850769043,-0.3630533218383789
1773163144616158200,2.175158203125,-2.4292120933532715,-1.8382692337036133,-1.4566190242767334
1773163144628658400,2.187658447265625,-1.3768984079360962,-2.7540197372436523,-1.1368114948272705
1773163144641158400,2.200158447265625,-1.0727026462554932,-1.5001792907714844,1.1609091758728027
1773163144653658400,2.212658447265625,-0.2045612335205078,0.4271059036254883,4.46435546875
1773163144666158300,2.225158447265625,0.059652507305145264,-1.2466716766357422,6.057808876037598
1773163144678658300,2.237658203125,-0.48337799310684204,-4.728972434997559,2.5064780712127686
1773163144691158300,2.250158203125,2.191589117050171,-5.408237457275391,1.8858163356781006
1773163144703658200,2.262658203125,2.3842101097106934,-0.5941686630249023,2.683702230453491
1773163144716158200,2.275158203125,0.6131818890571594,1.3492555618286133,1.6955208778381348
1773163144728658400,2.287658447265625,-0.0943666398525238,1.416818618774414,1.1034715175628662
1773163144741158400,2.300158447265625,0.21070623397827148,-0.008333206176757812,0.4452095031738281
1773163144753658400,2.312658447265625,0.8990309834480286,-2.4178466796875,0.03680586814880371
1773163144766158300,2.325158447265625,1.4360783100128174,-2.6942310333251953,0.5613298416137695
1773163144778658300,2.337658203125,0.025536715984344482,-1.7231616973876953,0.00644993782043457
1773163144791158300,2.350158203125,-0.6510908007621765,-0.5075674057006836,-0.6922791004180908
1773163144803658200,2.362658203125,-0.9891247749328613,0.33270263671875,-1.9069136381149292
1773163144816158200,2.375158203125,-0.9003422856330872,0.9880638122558594,-1.0077855587005615
1773163144828658400,2.387658447265625,-0.45292091369628906,-0.025068283081054688,-0.9480888843536377
1773163144841158400,2.400158447265625,-0.0007537007331848145,-1.416428565979004,-0.9087443351745605
1773163144853658400,2.412658447265625,-0.001348048448562622,-1.8003292083740234,-0.7299990653991699
1773163144866158300,2.425158447265625,-0.2081885039806366,-1.5827808380126953,-1.0019609928131104
1773163144878658300,2.437658203125,0.29470428824424744,-0.37138843536376953,-0.6966981887817383
1773163144891158300,2.450158203125,0.11335718631744385,0.6711959838867188,-0.41144776344299316
1773163144903658200,2.462658203125,-0.24653565883636475,0.7837457656860352,-0.47577524185180664
1773163144916158200,2.475158203125,-1.1778721809387207,5.797661304473877,-1.784895420074463
1773163144928658400,2.487658447265625,-0.5243290662765503,9.026694297790527,-5.853884696960449
1773163144941158400,2.500158447265625,1.1666593551635742,6.087503433227539,-3.972595691680908
1773163144953658400,2.512658447265625,-1.7021276950836182,4.09871768951416,-3.7791664600372314
1773163144966158300,2.525158447265625,-1.2080142498016357,3.270155906677246,-2.909217357635498
1773163144978658300,2.537658203125,-0.6752109527587891,2.211276054382324,-1.9184943437576294
1773163144991158300,2.550158203125,-2.0934319496154785,0.2832679748535156,-1.2632049322128296
1773163145003658200,2.562658203125,-2.420340061187744,-3.6490306854248047,-1.5973455905914307
1773163145016158200,2.575158203125,-2.2736563682556152,-6.110532760620117,-1.3464045524597168
1773163145028658400,2.587658447265625,1.4247140884399414,-5.835312843322754,0.8366600275039673
1773163145041158400,2.600158447265625,1.534117341041565,-5.326041221618652,2.066699266433716
1773163145053658400,2.612658447265625,-2.0703303813934326,-6.523322105407715,2.192607879638672
1773163145066158300,2.625158447265625,-6.8770246505737305,-7.937065124511719,2.4631943702697754
1773163145078658300,2.637658203125,-7.733014106750488,-7.298920631408691,5.130617141723633
1773163145091158300,2.650158203125,-6.2418389320373535,-4.987756729125977,9.023935317993164
1773163145103658200,2.662658203125,-2.401967763900757,-3.8727569580078125,8.91049575805664
1773163145116158200,2.675158203125,3.462367534637451,-3.728884696960449,4.058942794799805
1773163145128658400,2.687658447265625,6.427486419677734,-1.7844533920288086,-1.8672242164611816
1773163145141158400,2.700158447265625,7.1463751792907715,1.7972173690795898,-6.509475231170654
1773163145153658400,2.712658447265625,3.3972504138946533,4.075378894805908,-7.534674644470215
1773163145166158300,2.725158447265625,-0.8425425291061401,3.524843215942383,-4.880899906158447
1773163145178658300,2.737658203125,-0.7176824808120728,1.9489645957946777,-3.0345611572265625
1773163145191158300,2.750158203125,1.240173101425171,1.7017741203308105,-1.5543417930603027
1773163145203658200,2.762658203125,2.1260640621185303,1.091886043548584,-0.4351077079772949
1773163145216158200,2.775158203125,2.4302849769592285,0.15985584259033203,-0.37403416633605957
1773163145228658400,2.787658447265625,2.22133469581604,-0.7628898620605469,-0.7945346832275391
1773163145241158400,2.800158447265625,1.366395115852356,-1.6229925155639648,-1.0200526714324951
1773163145253658400,2.812658447265625,0.1212608814239502,-2.0066776275634766,-0.4885549545288086
1773163145266158300,2.825158447265625,-0.7412958145141602,-1.505807876586914,0.5531673431396484
1773163145278658300,2.837658203125,-1.0416276454925537,-1.0469732284545898,1.1242105960845947
1773163145291158300,2.850158203125,-1.2936534881591797,-0.6969108581542969,0.9214742183685303
1773163145303658200,2.862658203125,-1.095580816268921,-0.23761940002441406,-0.0016236305236816406
1773163145316158200,2.875158203125,-0.9036157131195068,0.4188098907470703,-0.7616517543792725
1773163145328658400,2.887658447265625,-0.46529173851013184,0.9382514953613281,-1.6746296882629395
1773163145341158400,2.900158447265625,-0.23885369300842285,1.5045232772827148,-1.7904472351074219
1773163145353658400,2.912658447265625,-0.025843143463134766,2.037343978881836,-1.5589418411254883
1773163145366158300,2.925158447265625,0.1577916145324707,2.3188157081604004,-1.3222780227661133
1773163145378658300,2.937658203125,0.06870174407958984,2.4762911796569824,-0.8357639312744141
1773163145391158300,2.950158203125,-0.10184812545776367,2.2015175819396973,-0.6399099826812744
1773163145403658200,2.962658203125,-0.20288443565368652,2.0123543739318848,-0.2767908573150635
1773163145416158200,2.975158203125,-0.26209521293640137,1.7296667098999023,-0.09444904327392578
1773163145428658400,2.987658447265625,-0.3983469009399414,1.5289945602416992,0.06517386436462402
1773163145441158400,3.000158447265625,-0.7124989032745361,1.457442283630371,0.3133413791656494
1773163145453658400,3.012658447265625,-1.4557456970214844,1.278824806213379,0.40079689025878906
1773163145466158300,3.025158447265625,-2.297571897506714,0.8687381744384766,0.19466948509216309
1773163145478658300,3.037658203125,-3.1695849895477295,0.5793170928955078,0.04463481903076172
1773163145491158300,3.050158203125,-3.473531484603882,-0.022363662719726562,0.09630465507507324
1773163145503658200,3.062658203125,-3.207456111907959,-0.7255897521972656,0.49009084701538086
1773163145516158200,3.075158203125,-2.529123306274414,-1.3226871490478516,1.2781751155853271
1773163145528658400,3.087658447265625,-1.9298138618469238,-1.7094001770019531,2.3543994426727295
1773163145541158400,3.100158447265625,-1.5807816982269287,-1.853987693786621,2.902750015258789
1773163145553658400,3.112658447265625,-1.7758896350860596,-1.5623350143432617,3.0805294513702393
1773163145566158300,3.125158447265625,-2.4020256996154785,-1.056166648864746,2.645763874053955
1773163145591158300,3.150158203125,-1.6002402305603027,-0.023041725158691406,1.472391128540039
1773163145603658200,3.162658203125,0.024107933044433594,0.24960899353027344,0.6378154754638672
1773163145616158200,3.175158203125,0.4633924961090088,-0.06048393249511719,-0.6420416831970215
1773163145628658400,3.187658447265625,0.4491913318634033,-0.40111255645751953,-1.4608063697814941
1773163145641158400,3.200158447265625,0.12979841232299805,-0.3978385925292969,-1.8875646591186523
1773163145653658400,3.212658447265625,-0.47461867332458496,-0.4072256088256836,-2.2241454124450684
1773163145666158300,3.225158447265625,-0.4924435615539551,-0.9837551116943359,-2.7404427528381348
1773163145678658300,3.237658203125,0.8422987461090088,-0.9099454879760742,-2.809966564178467
1773163145691158300,3.250158203125,2.766479969024658,-0.2332763671875,-2.975273370742798
1773163145703658200,3.262658203125,3.9967830181121826,0.5886402130126953,-2.941617965698242
1773163145716158200,3.275158203125,4.20842981338501,1.0783262252807617,-2.8683841228485107
1773163145728658400,3.287658447265625,4.345356464385986,1.3004727363586426,-2.675767183303833
1773163145741158400,3.300158447265625,4.419894218444824,1.4596433639526367,-2.151388645172119
1773163145753658400,3.312658447265625,3.8355743885040283,1.25164794921875,-1.7627885341644287
1773163145766158300,3.325158447265625,3.0692992210388184,0.7984228134155273,-1.5023002624511719
1773163145778658300,3.337658203125,2.4275684356689453,0.26660919189453125,-1.2481999397277832
1773163145791158300,3.350158203125,2.1660118103027344,-0.22237110137939453,-0.7653293609619141
1773163145803658200,3.362658203125,2.052341938018799,-0.7862300872802734,-0.3383321762084961
1773163145816158200,3.375158203125,1.8435237407684326,-1.2278289794921875,0.23784422874450684
1773163145828658400,3.387658447265625,1.5470569133758545,-1.5698261260986328,0.5316150188446045
1773163145841158400,3.400158447265625,0.9597504138946533,-1.830179214477539,0.6499755382537842
1773163145853658400,3.412658447265625,0.2123926877975464,-1.6861724853515625,0.7844724655151367
1773163145866158300,3.425158447265625,-0.29438936710357666,-0.9415254592895508,0.8044533729553223
1773163145878658300,3.437658203125,-0.34029483795166016,-0.24291229248046875,0.5272576808929443
1773163145891158300,3.450158203125,0.10322093963623047,0.14945411682128906,0.01638627052307129
1773163145903658200,3.462658203125,0.411965012550354,0.47538185119628906,-0.39226722717285156
1773163145916158200,3.475158203125,0.5258893370628357,0.7376737594604492,-0.6284575462341309
1773163145928658400,3.487658447265625,0.41135215759277344,0.8721656799316406,-0.8046391010284424
1773163145941158400,3.500158447265625,0.29559099674224854,0.7777185440063477,-0.8913059234619141
1773163145953658400,3.512658447265625,0.2842305302619934,0.7011613845825195,-0.7876935005187988
1773163145966158300,3.525158447265625,0.4025256633758545,0.5898189544677734,-0.5000758171081543
1773163145978658300,3.537658203125,0.3660935163497925,0.3308067321777344,0.10463261604309082
1773163145991158300,3.550158203125,0.23216180503368378,-0.06506061553955078,0.5932581424713135
1773163146003658200,3.562658203125,0.1598009169101715,-0.3037900924682617,1.073523998260498
1773163146016158200,3.575158203125,0.02781468629837036,-0.4781503677368164,1.5005544424057007
1773163146028658400,3.587658447265625,-0.0367429219186306,-0.46600341796875,1.9274375438690186
1773163146041158400,3.600158447265625,-0.06711700558662415,-0.4179859161376953,2.282168388366699
1773163146053658400,3.612658447265625,-0.08944089710712433,-0.3469562530517578,2.509782075881958
1773163146066158300,3.625158447265625,-0.028820186853408813,-0.2717599868774414,2.620915412902832
1773163146078658300,3.637658203125,0.16660767793655396,-0.15678787231445312,2.4828426837921143
1773163146091158300,3.650158203125,0.21861696243286133,-0.2392139434814453,2.092299461364746
1773163146103658200,3.662658203125,0.14956021308898926,-0.35227298736572266,1.3960301876068115
1773163146116158200,3.675158203125,-0.06063932180404663,-0.49324607849121094,0.8283090591430664
1773163146128658400,3.687658447265625,-0.35093992948532104,-0.6294031143188477,0.39485764503479004
1773163146141158400,3.700158447265625,-1.1870203018188477,-0.7571897506713867,0.05990862846374512
1773163146153658400,3.712658447265625,-1.913661241531372,-0.7170076370239258,-0.4416203498840332
1773163146166158300,3.725158447265625,-2.758945941925049,-0.6226186752319336,-1.2336819171905518
1773163146178658300,3.737658203125,-3.2092361450195312,-0.5830068588256836,-1.969196081161499
1773163146191158300,3.750158203125,-3.0795724391937256,-0.5125894546508789,-2.2114651203155518
1773163146203658200,3.762658203125,-2.251927375793457,-0.38933563232421875,-1.6496946811676025
1773163146216158200,3.775158203125,-1.4965949058532715,-0.29986572265625,-0.5890755653381348
1773163146228658400,3.787658447265625,-0.9264975190162659,-0.3350353240966797,0.5634093284606934
1773163146241158400,3.800158447265625,-0.441028892993927,-0.43233394622802734,1.305729627609253
1773163146253658400,3.812658447265625,-0.28948867321014404,-0.5527420043945312,1.60476815700531
1773163146266158300,3.825158447265625,-0.6441070437431335,-0.7450752258300781,1.7731026411056519
1773163146278658300,3.837658203125,-0.6719170212745667,-0.8000717163085938,1.7706218957901
1773163146291158300,3.850158203125,-0.30649638175964355,-0.6692352294921875,1.6442549228668213
1773163146303658200,3.862658203125,0.12968337535858154,-0.6578569412231445,1.4497284889221191
1773163146316158200,3.875158203125,0.4602787494659424,-0.9036035537719727,1.0967414379119873
1773163146328658400,3.887658447265625,0.5440733432769775,-1.3617305755615234,0.8308060169219971
1773163146341158400,3.900158447265625,-0.05350935459136963,-2.087460517883301,0.8434157371520996
1773163146353658400,3.912658447265625,-0.2836873531341553,-2.340890884399414,0.8964648246765137
1773163146366158300,3.925158447265625,-0.5579707026481628,-2.27547550201416,0.8102564811706543
1773163146378658300,3.937658203125,-0.9703810214996338,-2.26165771484375,0.42316246032714844
1773163146391158300,3.950158203125,-1.3786687850952148,-2.3174266815185547,-0.0764923095703125
1773163146403658200,3.962658203125,-1.4974472522735596,-2.4319515228271484,-0.6651005744934082
1773163146416158200,3.975158203125,-1.8715485334396362,-2.4775781631469727,-0.6450350284576416
1773163146428658400,3.987658447265625,-1.8737190961837769,-2.251042366027832,-0.23981094360351562
1773163146441158400,4.000158447265625,-1.916288137435913,-1.9789237976074219,0.5115089416503906
1773163146453658400,4.012658447265625,-1.9598560333251953,-1.8077478408813477,1.3939077854156494
1773163146466158300,4.025158447265625,-2.0715112686157227,-1.7184524536132812,1.9078145027160645
1773163146478658300,4.037658203125,-2.297050952911377,-1.3675260543823242,1.9913222789764404
1773163146491158300,4.050158203125,-2.5556108951568604,-0.9134063720703125,1.6464793682098389
1773163146503658200,4.062658203125,-2.9177021980285645,-0.5675277709960938,1.1239404678344727
1773163146516158200,4.075158203125,-3.176952838897705,-0.34220027923583984,0.43213653564453125
1773163146528658400,4.087658447265625,-3.3178937435150146,0.00159454345703125,-0.192002534866333
1773163146541158400,4.100158447265625,-2.8498010635375977,0.5285768508911133,-0.6534836292266846
1773163146553658400,4.112658447265625,-2.032122850418091,1.170149803161621,-0.7136178016662598
1773163146566158300,4.125158447265625,-0.718124270439148,1.7212214469909668,-0.6939573287963867
1773163146578658300,4.137658203125,0.8721069097518921,1.2087373733520508,-1.4496879577636719
1773163146591158300,4.150158203125,2.62838077545166,-0.6437158584594727,-3.2466323375701904
1773163146603658200,4.162658203125,4.635793685913086,-2.6855783462524414,-5.139497756958008
1773163146616158200,4.175158203125,6.210822105407715,-3.842562675476074,-6.148873329162598
1773163146628658400,4.187658447265625,5.700165748596191,-3.6863317489624023,-5.466054916381836
1773163146641158400,4.200158447265625,3.434387683868408,-2.000711441040039,-3.465458393096924
1773163146653658400,4.212658447265625,1.5557656288146973,-0.3869924545288086,-1.9081685543060303
1773163146666158300,4.225158447265625,1.1640812158584595,0.37531280517578125,-1.3315811157226562
1773163146678658300,4.237658203125,1.3727644681930542,0.8477392196655273,-0.8768119812011719
1773163146691158300,4.250158203125,1.7902143001556396,1.2170047760009766,-0.3316633701324463
1773163146703658200,4.262658203125,2.04345965385437,1.256392002105713,-0.1897120475769043
1773163146716158200,4.275158203125,1.989755392074585,1.1122980117797852,-0.38006579875946045
1773163146728658400,4.287658447265625,2.004484176635742,1.1419258117675781,-0.5764963626861572
1773163146741158400,4.300158447265625,1.402661919593811,1.3064327239990234,-0.4058431386947632
1773163146753658400,4.312658447265625,0.6237552165985107,1.5559983253479004,-0.27318859100341797
1773163146766158300,4.325158447265625,0.8765590190887451,1.9723973274230957,-0.08237266540527344
1773163146778658300,4.337658203125,1.1448380947113037,2.342977523803711,0.28915250301361084
1773163146791158300,4.350158203125,0.9123181104660034,2.5241212844848633,0.48806989192962646
1773163146803658200,4.362658203125,1.0439479351043701,2.738022804260254,0.6284369826316833
1773163146816158200,4.375158203125,1.3557324409484863,3.0183534622192383,0.609555721282959
1773163146828658400,4.387658447265625,1.5271483659744263,3.246636390686035,0.5026777982711792
1773163146841158400,4.400158447265625,1.6809165477752686,3.321575164794922,0.18842315673828125
1773163146853658400,4.412658447265625,1.4994444847106934,3.2980728149414062,0.08494818210601807
1773163146866158300,4.425158447265625,0.969928503036499,2.8765430450439453,0.22294723987579346
1773163146878658300,4.437658203125,0.1647777557373047,1.9527549743652344,0.4744225740432739
1773163146891158300,4.450158203125,-1.0219035148620605,0.5958480834960938,0.6784942150115967
1773163146903658200,4.462658203125,-2.309725284576416,-1.1247730255126953,1.2471296787261963
1773163146916158200,4.475158203125,-2.9546520709991455,-3.713428497314453,1.6578166484832764
1773163146928658400,4.487658447265625,-2.8186912536621094,-5.20408821105957,1.7710777521133423
1773163146941158400,4.500158447265625,-4.227733612060547,-5.227795600891113,2.1418612003326416
1773163146953658400,4.512658447265625,-5.743530750274658,-4.306434631347656,2.3537936210632324
1773163146966158300,4.525158447265625,-5.087418556213379,-3.058176040649414,2.4061455726623535
1773163146978658300,4.537658203125,-3.7834835052490234,-1.79449462890625,1.7858009338378906
1773163146991158300,4.550158203125,-4.1474609375,-0.4448356628417969,0.7467224597930908
1773163147003658200,4.562658203125,-4.386451244354248,-0.02682209014892578,-0.5480355024337769
1773163147016158200,4.575158203125,-1.6037287712097168,-0.8495388031005859,-2.500664710998535
1773163147028658400,4.587658447265625,2.9093875885009766,-1.39404296875,-3.114136219024658
1773163147041158400,4.600158447265625,5.901302337646484,-0.7161531448364258,-2.774019241333008
1773163147053658400,4.612658447265625,5.538888454437256,0.7841558456420898,-1.8661185503005981
1773163147066158300,4.625158447265625,3.983797550201416,2.4140381813049316,-1.374100685119629
1773163147078658300,4.637658203125,3.271512031555176,3.5243349075317383,-1.3242762088775635
1773163147091158300,4.650158203125,2.5657477378845215,2.962085723876953,-1.9896091222763062
1773163147103658200,4.662658203125,1.486767053604126,0.7866897583007812,-3.210414171218872
1773163147116158200,4.675158203125,0.6110756397247314,-1.1052522659301758,-4.407269477844238
1773163147128658400,4.687658447265625,0.21558785438537598,-1.9688720703125,-5.098447322845459
1773163147141158400,4.700158447265625,0.5007766485214233,-1.3559284210205078,-4.939323425292969
1773163147153658400,4.712658447265625,1.0036684274673462,-0.14551448822021484,-4.179394245147705
1773163147166158300,4.725158447265625,1.0911498069763184,0.8463468551635742,-3.2675044536590576
1773163147178658300,4.737658203125,1.1139867305755615,1.281402587890625,-2.427187204360962
1773163147191158300,4.750158203125,1.2537317276000977,1.3063592910766602,-1.4958927631378174
1773163147203658200,4.762658203125,1.4712496995925903,1.054356575012207,-0.44481921195983887
1773163147216158200,4.775158203125,1.7204192876815796,0.6519174575805664,0.712303876876831
1773163147228658400,4.787658447265625,2.2750935554504395,0.23676490783691406,2.0228536128997803
1773163147241158400,4.800158447265625,2.4721055030822754,-0.26987552642822266,2.920043468475342
1773163147253658400,4.812658447265625,2.636223316192627,-0.5425224304199219,3.440814971923828
1773163147266158300,4.825158447265625,2.2662272453308105,-0.7473421096801758,3.4668586254119873
1773163147278658300,4.837658203125,1.2757904529571533,-1.0475311279296875,3.1210923194885254
1773163147291158300,4.850158203125,0.3458179831504822,-1.1266088485717773,2.6393465995788574
1773163147303658200,4.862658203125,-0.14706319570541382,-0.8384523391723633,1.8750742673873901
1773163147316158200,4.875158203125,0.03572440147399902,-0.710444450378418,0.5243403911590576
1773163147328658400,4.887658447265625,0.5073684453964233,-0.4041585922241211,-0.5547230243682861
1773163147341158400,4.900158447265625,0.6840234994888306,0.20562267303466797,-1.014402151107788
1773163147353658400,4.912658447265625,1.1237576007843018,0.8210649490356445,-1.2446603775024414
1773163147366158300,4.925158447265625,1.4772487878799438,1.2166290283203125,-1.5807216167449951
1773163147378658300,4.937658203125,1.6131207942962646,1.4726495742797852,-1.757978916168213
1773163147391158300,4.950158203125,0.9885071516036987,1.3353385925292969,-1.9840764999389648
1773163147403658200,4.962658203125,0.48028481006622314,0.9777917861938477,-1.866246223449707
1773163147416158200,4.975158203125,0.26908189058303833,0.5470504760742188,-1.5425686836242676
1773163147428658400,4.987658447265625,0.015790939331054688,0.193756103515625,-1.048797369003296
1773163147441158400,5.000158447265625,-0.10824242234230042,-0.015366554260253906,-0.6028516292572021
1773163147453658400,5.012658447265625,-0.000979006290435791,0.008358001708984375,-0.22248554229736328
1773163147466158300,5.025158447265625,0.3697410225868225,0.015172004699707031,0.031063079833984375
1773163147478658300,5.037658203125,0.8326008319854736,-0.10114288330078125,0.12542390823364258
1773163147491158300,5.050158203125,1.1992192268371582,-0.2762784957885742,0.16213512420654297
1773163147503658200,5.062658203125,1.263110637664795,-0.43179798126220703,0.09882903099060059
1773163147516158200,5.075158203125,0.9030327796936035,-0.5727224349975586,-0.047342777252197266
1773163147528658400,5.087658447265625,0.18146085739135742,-0.5283784866333008,-0.2955284118652344
1773163147541158400,5.100158447265625,-0.6966071724891663,-0.39281368255615234,-0.6161890029907227
1773163147553658400,5.112658447265625,-1.3097290992736816,-0.2810487747192383,-0.8002772331237793
1773163147566158300,5.125158447265625,-1.5235103368759155,-0.25023365020751953,-1.0184409618377686
1773163147578658300,5.137658203125,-1.712702989578247,-0.4206428527832031,-0.9603054523468018
1773163147591158300,5.150158203125,-1.7821979522705078,-0.6704158782958984,-0.5212578773498535
1773163147603658200,5.162658203125,-1.2741492986679077,-0.9701557159423828,0.12963485717773438
1773163147616158200,5.175158203125,-0.8139413595199585,-1.238326072692871,0.9574236869812012
1773163147628658400,5.187658447265625,-0.8168489336967468,-1.618250846862793,1.7740567922592163
1773163147641158400,5.200158447265625,-0.861752450466156,-2.0336294174194336,2.212772846221924
1773163147653658400,5.212658447265625,-1.2382761240005493,-2.385319709777832,2.5560925006866455
1773163147666158300,5.225158447265625,-1.4285147190093994,-2.4572219848632812,2.692948341369629
1773163147678658300,5.237658203125,-1.3526314496994019,-2.308119773864746,2.682138442993164
1773163147691158300,5.250158203125,-1.399945616722107,-2.0962018966674805,2.6656370162963867
1773163147703658200,5.262658203125,-1.4408371448516846,-1.936248779296875,2.7435200214385986
1773163147716158200,5.275158203125,-1.523462176322937,-2.1311721801757812,2.6510419845581055
1773163147728658400,5.287658447265625,-1.558580756187439,-2.6562862396240234,2.4207680225372314
1773163147741158400,5.300158447265625,-1.5407676696777344,-2.885268211364746,2.1950883865356445
1773163147766158300,5.325158447265625,-2.1437666416168213,-1.9718198776245117,1.467238426208496
1773163147778658300,5.337658203125,-2.7037711143493652,-1.6027793884277344,0.7697844505310059
1773163147791158300,5.350158203125,-3.352935314178467,-1.457901954650879,0.0069048404693603516
1773163147803658200,5.362658203125,-3.6360089778900146,-1.6619482040405273,-0.4891045093536377
1773163147816158200,5.375158203125,-3.3185760974884033,-1.5660552978515625,-0.4231905937194824
1773163147828658400,5.387658447265625,-2.6750235557556152,-0.8681812286376953,0.007917404174804688
1773163147841158400,5.400158447265625,-2.156482696533203,-0.02379608154296875,0.2805027961730957
1773163147853658400,5.412658447265625,-1.8781375885009766,0.7955560684204102,0.29984521865844727
1773163147866158300,5.425158447265625,-1.6786515712738037,1.5208311080932617,0.1926412582397461
1773163147878658300,5.437658203125,-1.5734091997146606,2.04079008102417,0.07533669471740723
1773163147891158300,5.450158203125,-1.1451771259307861,1.5668845176696777,-0.5144710540771484
1773163147903658200,5.462658203125,-0.14971983432769775,-0.7436494827270508,-2.027376413345337
1773163147916158200,5.475158203125,2.0976197719573975,-3.275205612182617,-3.873610496520996
1773163147928658400,5.487658447265625,4.754116058349609,-4.319126129150391,-4.8550310134887695
1773163147941158400,5.500158447265625,6.179356098175049,-4.112576484680176,-4.46523380279541
1773163147953658400,5.512658447265625,5.210235595703125,-2.509799003601074,-2.47404146194458
1773163147966158300,5.525158447265625,2.2316277027130127,-0.6161708831787109,-0.43969297409057617
1773163147978658300,5.537658203125,0.7288399934768677,-0.021988868713378906,0.12644433975219727
1773163147991158300,5.550158203125,0.7047739028930664,0.07720088958740234,0.034889936447143555
1773163148003658200,5.562658203125,0.9099349975585938,0.4305410385131836,0.10634708404541016
1773163148016158200,5.575158203125,0.8553735017776489,0.8191976547241211,0.3726104497909546
1773163148028658400,5.587658447265625,0.8565857410430908,1.0002946853637695,0.19016730785369873
1773163148041158400,5.600158447265625,1.1013474464416504,1.024322509765625,0.05053973197937012
1773163148053658400,5.612658447265625,1.8448622226715088,1.1351556777954102,0.07447171211242676
1773163148066158300,5.625158447265625,2.607525587081909,1.1744403839111328,0.06439471244812012
1773163148078658300,5.637658203125,2.6953699588775635,1.173661231994629,0.19740581512451172
1773163148091158300,5.650158203125,2.53941011428833,1.1206684112548828,0.3132781982421875
1773163148103658200,5.662658203125,2.3172688484191895,1.1357545852661133,0.5706915855407715
1773163148116158200,5.675158203125,1.8630973100662231,1.1091203689575195,0.6621994972229004
1773163148128658400,5.687658447265625,1.7506674528121948,1.2284793853759766,0.6943228840827942
1773163148141158400,5.700158447265625,1.7187836170196533,1.3883662223815918,0.5399369597434998
1773163148153658400,5.712658447265625,1.7644850015640259,1.578995704650879,0.2082744836807251
1773163148166158300,5.725158447265625,1.859631061553955,1.7922182083129883,-0.22052252292633057
1773163148178658300,5.737658203125,1.9715957641601562,2.064897060394287,-0.6467190980911255
1773163148191158300,5.750158203125,1.8886816501617432,2.2663826942443848,-0.9807643890380859
1773163148203658200,5.762658203125,1.647889256477356,2.355480194091797,-1.19203782081604
1773163148216158200,5.775158203125,1.2907192707061768,2.2104969024658203,-1.2673815488815308
1773163148228658400,5.787658447265625,1.3755935430526733,1.8679962158203125,-1.616287112236023
1773163148241158400,5.800158447265625,0.6016287803649902,1.1942758560180664,-1.4267542362213135
1773163148253658400,5.812658447265625,-0.6013290882110596,0.16792678833007812,-1.1853505373001099
1773163148266158300,5.825158447265625,-2.030910015106201,-1.1721868515014648,-1.1913726329803467
1773163148278658300,5.837658203125,-3.291282892227173,-2.393800735473633,-1.377424955368042
1773163148291158300,5.850158203125,-4.702197074890137,-2.9448442459106445,-1.2388612031936646
1773163148303658200,5.862658203125,-5.756832122802734,-2.8258628845214844,-0.43542754650115967
1773163148316158200,5.875158203125,-5.322174072265625,-2.3943662643432617,0.5670418739318848
1773163148328658400,5.887658447265625,-4.0375471115112305,-1.7932195663452148,1.0889742374420166
1773163148341158400,5.900158447265625,-2.8420798778533936,-1.0185546875,1.4081578254699707
1773163148366158300,5.925158447265625,-0.10577917098999023,0.32175445556640625,1.343739628791809
1773163148378658300,5.937658203125,1.4330273866653442,0.7839241027832031,0.8174530863761902
1773163148391158300,5.950158203125,1.7705614566802979,0.954014778137207,0.05388140678405762
1773163148403658200,5.962658203125,1.5153403282165527,0.6215744018554688,-0.5993517637252808
1773163148416158200,5.975158203125,1.5097897052764893,0.05285072326660156,-0.7713629007339478
1773163148428658400,5.987658447265625,1.5827765464782715,-0.8939733505249023,-1.1394164562225342
1773163148441158400,6.000158447265625,1.594708800315857,-1.6132707595825195,-1.359236717224121
1773163148466158300,6.025158447265625,1.0167299509048462,-1.9563884735107422,-0.9457414150238037
1773163148478658300,6.037658203125,0.323100209236145,-1.7504634857177734,0.4627983570098877
1773163148491158300,6.050158203125,-0.7484023571014404,-1.7616100311279297,0.7794676423072815
1773163148503658200,6.062658203125,-1.1531611680984497,-0.8157806396484375,0.39205437898635864
1773163148516158200,6.075158203125,-0.9860748052597046,0.46546363830566406,0.021085381507873535
1773163148528658400,6.087658447265625,0.29983389377593994,1.4218425750732422,-0.7535353899002075
1773163148541158400,6.100158447265625,2.019042491912842,2.1338396072387695,-1.3544882535934448
1773163148553658400,6.112658447265625,3.291024684906006,2.6674184799194336,-1.4965227842330933
1773163148566158300,6.125158447265625,4.100066661834717,2.7301511764526367,-1.4700156450271606
1773163148591158300,6.150158203125,4.7934417724609375,1.3702011108398438,-1.9985604286193848
1773163148603658200,6.162658203125,4.285412788391113,0.6889142990112305,-2.027242660522461
1773163148616158200,6.175158203125,3.1403496265411377,0.1408071517944336,-2.0700106620788574
1773163148628658400,6.187658447265625,1.3330565690994263,-0.21062374114990234,-1.8893181085586548
1773163148641158400,6.200158447265625,-0.12673896551132202,-0.3025398254394531,-1.5001462697982788
1773163148653658400,6.212658447265625,-0.7686835527420044,-0.34981346130371094,-0.8860816955566406
1773163148666158300,6.225158447265625,-0.056673526763916016,-0.3533334732055664,-0.505997896194458
1773163148678658300,6.237658203125,0.841834545135498,-0.2744264602661133,-0.3100755214691162
1773163148691158300,6.250158203125,1.864376425743103,-0.09337997436523438,-0.49459028244018555
1773163148703658200,6.262658203125,2.568687915802002,0.19822311401367188,-0.7958290576934814
1773163148716158200,6.275158203125,2.6612672805786133,0.43669605255126953,-1.0993680953979492
1773163148728658400,6.287658447265625,2.28389835357666,0.5368633270263672,-1.4799275398254395
1773163148741158400,6.300158447265625,1.4993212223052979,0.5645771026611328,-1.8280003070831299
1773163148753658400,6.312658447265625,0.9782140851020813,0.6244773864746094,-1.918302059173584
1773163148766158300,6.325158447265625,0.5880612134933472,0.46917247772216797,-1.8654882907867432
1773163148778658300,6.337658203125,0.3636956810951233,0.09801864624023438,-1.2973129749298096
1773163148791158300,6.350158203125,0.272864431142807,-0.30939483642578125,-0.34954142570495605
1773163148803658200,6.362658203125,0.2925305962562561,-0.5907754898071289,0.05596494674682617
1773163148816158200,6.375158203125,0.27166521549224854,-0.7588825225830078,0.34667980670928955
1773163148828658400,6.387658447265625,0.05921328067779541,-0.6576042175292969,0.7562110424041748
1773163148841158400,6.400158447265625,-0.34338223934173584,-0.3204765319824219,0.9435250759124756
1773163148853658400,6.412658447265625,-0.424447238445282,-0.16914749145507812,0.6152734756469727
1773163148866158300,6.425158447265625,-0.13740205764770508,-0.17601394653320312,-0.027863264083862305
1773163148878658300,6.437658203125,-0.3709723949432373,-0.031538963317871094,-0.378643274307251
1773163148891158300,6.450158203125,-0.6505340337753296,0.12898635864257812,-0.5931887626647949
1773163148903658200,6.462658203125,-1.1708751916885376,0.06979846954345703,-0.7313365936279297
1773163148916158200,6.475158203125,-1.3565824031829834,0.06302070617675781,-0.6186819076538086
1773163148928658400,6.487658447265625,-1.5454126596450806,-0.19418907165527344,-0.30020737648010254
1773163148941158400,6.500158447265625,-1.449992060661316,-0.3901653289794922,0.2774925231933594
1773163148953658400,6.512658447265625,-1.3941168785095215,-0.6388568878173828,1.0071873664855957
1773163148966158300,6.525158447265625,-1.388094186782837,-0.8386945724487305,1.688683032989502
1773163148978658300,6.537658203125,-1.3314104080200195,-1.129786491394043,2.0908491611480713
1773163148991158300,6.550158203125,-1.441152811050415,-1.4427480697631836,2.456728935241699
1773163149003658200,6.562658203125,-1.3396222591400146,-1.6245489120483398,2.7006051540374756
1773163149016158200,6.575158203125,-1.2238788604736328,-1.7690162658691406,2.7791545391082764
1773163149028658400,6.587658447265625,-0.9970470666885376,-1.6853208541870117,2.5297088623046875
1773163149041158400,6.600158447265625,-1.0724111795425415,-1.5535354614257812,2.0414724349975586
1773163149053658400,6.612658447265625,-1.3735603094100952,-1.4969635009765625,1.3821558952331543
1773163149066158300,6.625158447265625,-1.4416556358337402,-1.580775260925293,0.8825933933258057
1773163149078658300,6.637658203125,-1.3796651363372803,-1.700577735900879,0.4698050022125244
1773163149091158300,6.650158203125,-1.5750292539596558,-1.7210197448730469,0.33963584899902344
1773163149103658200,6.662658203125,-1.7925790548324585,-2.319149971008301,0.31032538414001465
1773163149116158200,6.675158203125,-2.051201105117798,-2.989193916320801,0.45696377754211426
1773163149128658400,6.687658447265625,-2.215188503265381,-2.9209508895874023,0.8246705532073975
1773163149141158400,6.700158447265625,-2.221050262451172,-1.9700288772583008,0.9168288707733154
1773163149153658400,6.712658447265625,-2.5850367546081543,-0.9137105941772461,0.6447207927703857
1773163149166158300,6.725158447265625,-2.866234540939331,0.1345977783203125,0.03231215476989746
1773163149178658300,6.737658203125,-2.866234064102173,0.968876838684082,-0.6073892116546631
1773163149191158300,6.750158203125,-2.7903051376342773,1.5496745109558105,-1.2561094760894775
1773163149203658200,6.762658203125,-2.60385799407959,1.7112798690795898,-1.733271598815918
1773163149216158200,6.775158203125,-2.154940605163574,1.081085205078125,-2.4239799976348877
1773163149228658400,6.787658447265625,-1.4497411251068115,-0.5990762710571289,-3.6209704875946045
1773163149241158400,6.800158447265625,0.2748664617538452,-2.683098793029785,-5.148675918579102
1773163149253658400,6.812658447265625,3.0968832969665527,-3.747878074645996,-6.0983076095581055
1773163149266158300,6.825158447265625,5.338703155517578,-4.139758110046387,-6.442134380340576
1773163149278658300,6.837658203125,6.2249250411987305,-3.577094078063965,-5.868070125579834
1773163149291158300,6.850158203125,4.507256031036377,-1.5280256271362305,-4.003747940063477
1773163149303658200,6.862658203125,2.1821417808532715,0.13710689544677734,-2.452303409576416
1773163149316158200,6.875158203125,0.9244167804718018,0.8757047653198242,-1.4180266857147217
1773163149328658400,6.887658447265625,0.5720465183258057,0.9209794998168945,-0.7518677711486816
1773163149341158400,6.900158447265625,0.7930161952972412,0.9338417053222656,0.18153738975524902
1773163149353658400,6.912658447265625,1.3239940404891968,0.9687595367431641,1.1177644729614258
1773163149366158300,6.925158447265625,1.7226147651672363,0.7650594711303711,1.0926533937454224
1773163149378658300,6.937658203125,2.3436732292175293,0.8148365020751953,0.6186679601669312
1773163149391158300,6.950158203125,2.050675868988037,0.7756357192993164,0.09092092514038086
1773163149403658200,6.962658203125,1.9727246761322021,1.115727424621582,-0.491302490234375
1773163149416158200,6.975158203125,2.0972647666931152,1.6253304481506348,-0.8884226083755493
1773163149428658400,6.987658447265625,2.186587333679199,2.1133437156677246,-1.0134533643722534
1773163149441158400,7.000158447265625,1.9920175075531006,2.534705638885498,-0.84391188621521
1773163149453658400,7.012658447265625,1.7871543169021606,2.911562919616699,-0.5167456865310669
1773163149466158300,7.025158447265625,1.8288898468017578,3.072042465209961,-0.6736494302749634
1773163149478658300,7.037658203125,1.8101816177368164,3.159651279449463,-0.7090249061584473
1773163149491158300,7.050158203125,1.8230066299438477,3.271355152130127,-0.6622105836868286
1773163149503658200,7.062658203125,1.7140930891036987,3.2998199462890625,-0.8248975276947021
1773163149516158200,7.075158203125,1.1770401000976562,3.248898983001709,-0.8177499771118164
1773163149528658400,7.087658447265625,0.9032667875289917,3.0148234367370605,-0.711074709892273
1773163149541158400,7.100158447265625,0.9201371669769287,2.639759063720703,-0.4457969665527344
1773163149553658400,7.112658447265625,0.5817252397537231,1.8545646667480469,-0.15950345993041992
1773163149566158300,7.125158447265625,-0.1122732162475586,0.7946586608886719,0.23992550373077393
1773163149578658300,7.137658203125,-1.1773316860198975,-0.6652498245239258,0.5508995056152344
1773163149591158300,7.150158203125,-2.216541290283203,-2.3712472915649414,0.5722486972808838
1773163149603658200,7.162658203125,-2.770275592803955,-3.812258720397949,-0.28544867038726807
1773163149616158200,7.175158203125,-3.9996705055236816,-3.8133926391601562,-1.130056381225586
1773163149628658400,7.187658447265625,-4.719254016876221,-2.9732894897460938,-1.4197402000427246
1773163149641158400,7.200158447265625,-5.019845008850098,-1.8045082092285156,-0.6775716543197632
1773163149653658400,7.212658447265625,-4.757476806640625,-0.8346757888793945,-0.01936030387878418
1773163149666158300,7.225158447265625,-4.447869300842285,-0.24925518035888672,-0.10674381256103516
1773163149678658300,7.237658203125,-4.185412406921387,0.030406951904296875,-0.44622695446014404
1773163149691158300,7.250158203125,-3.180710792541504,-0.17973041534423828,-1.3936045169830322
1773163149703658200,7.262658203125,-2.8680953979492188,-0.26506614685058594,-1.8911718130111694
1773163149716158200,7.275158203125,-2.708486318588257,0.037689208984375,-2.273092746734619
1773163149728658400,7.287658447265625,-1.2573521137237549,0.6501321792602539,-2.0282466411590576
1773163149741158400,7.300158447265625,-0.3482375144958496,0.530975341796875,-1.7598999738693237
1773163149753658400,7.312658447265625,0.9882893562316895,0.4240989685058594,-1.069877028465271
1773163149766158300,7.325158447265625,2.162060260772705,0.13573932647705078,-0.24847626686096191
1773163149778658300,7.337658203125,3.527902603149414,-0.2065725326538086,0.5769345760345459
1773163149791158300,7.350158203125,4.956803321838379,-0.9227972030639648,1.2594592571258545
1773163149803658200,7.362658203125,5.445450782775879,-2.077094078063965,1.4860354661941528
1773163149816158200,7.375158203125,5.681031227111816,-3.1097335815429688,0.9146655201911926
1773163149828658400,7.387658447265625,5.619001388549805,-3.1261520385742188,-0.052446603775024414
1773163149841158400,7.400158447265625,3.329467296600342,-2.0646352767944336,-1.3747634887695312
1773163149853658400,7.412658447265625,-1.042499303817749,-1.0237398147583008,-2.56272029876709
1773163149866158300,7.425158447265625,-4.489943504333496,-0.18703746795654297,-3.6906914710998535
1773163149878658300,7.437658203125,-4.577055931091309,1.155714988708496,-4.351420879364014
1773163149891158300,7.450158203125,-2.513392925262451,2.6086063385009766,-4.821562767028809
1773163149903658200,7.462658203125,-1.1726560592651367,3.926069736480713,-4.795372009277344
1773163149916158200,7.475158203125,-0.006082057952880859,4.349369525909424,-4.873737335205078
1773163149928658400,7.487658447265625,1.9350961446762085,4.0771403312683105,-5.512112617492676
1773163149941158400,7.500158447265625,3.4116501808166504,3.7963638305664062,-5.501997470855713
1773163149953658400,7.512658447265625,4.355986595153809,3.208005905151367,-5.28693151473999
1773163149966158300,7.525158447265625,4.418990135192871,2.265798568725586,-4.570335865020752
1773163149978658300,7.537658203125,4.32115364074707,0.8745317459106445,-3.549440860748291
1773163149991158300,7.550158203125,4.681109428405762,-0.6570024490356445,-1.682020664215088
1773163150003658200,7.562658203125,4.8909173011779785,-1.6781387329101562,0.5830161571502686
1773163150016158200,7.575158203125,3.44311261177063,-2.7326297760009766,2.3083324432373047
1773163150028658400,7.587658447265625,1.4172143936157227,-3.328035354614258,2.9861278533935547
1773163150041158400,7.600158447265625,-0.6498739719390869,-2.901564598083496,2.5029056072235107
1773163150053658400,7.612658447265625,-1.952252984046936,-1.761113166809082,2.6468393802642822
1773163150066158300,7.625158447265625,-2.046222448348999,-0.9273262023925781,2.6319687366485596
1773163150078658300,7.637658203125,-0.9759736061096191,-0.6044340133666992,2.1984148025512695
1773163150091158300,7.650158203125,0.890927255153656,-0.6774768829345703,1.473313570022583
1773163150103658200,7.662658203125,2.752873420715332,-0.3953886032104492,0.4042320251464844
1773163150116158200,7.675158203125,3.6101582050323486,0.2857036590576172,-0.6925190687179565
1773163150128658400,7.687658447265625,3.500105142593384,0.6740388870239258,-1.7156041860580444
1773163150141158400,7.700158447265625,2.3261775970458984,0.6012086868286133,-2.7634308338165283
1773163150153658400,7.712658447265625,0.6506408452987671,0.5067329406738281,-3.4561171531677246
1773163150166158300,7.725158447265625,-0.630885899066925,0.4826202392578125,-3.4222540855407715
1773163150178658300,7.737658203125,-0.8732918500900269,-0.042789459228515625,-2.966620922088623
1773163150191158300,7.750158203125,-0.6167038679122925,-0.5832548141479492,-2.2524211406707764
1773163150203658200,7.762658203125,-0.32499217987060547,-0.5986127853393555,-1.2405554056167603
1773163150216158200,7.775158203125,0.029711008071899414,-0.4276418685913086,-0.3384232521057129
1773163150228658400,7.787658447265625,0.38068056106567383,-0.24672985076904297,0.40465855598449707
1773163150241158400,7.800158447265625,0.6326519250869751,-0.042324066162109375,1.381232500076294
1773163150253658400,7.812658447265625,0.913975715637207,0.08237552642822266,2.202568531036377
1773163150266158300,7.825158447265625,0.7512688636779785,0.06853103637695312,2.7285244464874268
1773163150278658300,7.837658203125,-0.04905831813812256,-0.13293933868408203,3.027020215988159
1773163150291158300,7.850158203125,-1.1950762271881104,-0.29732227325439453,3.070589780807495
1773163150303658200,7.862658203125,-1.9550143480300903,-0.4450674057006836,3.040106773376465
1773163150316158200,7.875158203125,-2.547792911529541,-0.6174392700195312,2.8348050117492676
1773163150328658400,7.887658447265625,-2.9745845794677734,-0.7035417556762695,2.7065367698669434
1773163150341158400,7.900158447265625,-2.8870744705200195,-0.8157081604003906,2.5903480052948
1773163150353658400,7.912658447265625,-2.5916080474853516,-0.9415245056152344,2.5289013385772705
1773163150366158300,7.925158447265625,-2.03248929977417,-0.9180622100830078,2.5268397331237793
1773163150378658300,7.937658203125,-1.6841540336608887,-0.8762540817260742,2.433267593383789
1773163150391158300,7.950158203125,-1.5392615795135498,-0.7861442565917969,2.1959104537963867
1773163150403658200,7.962658203125,-1.949124813079834,-0.8307418823242188,1.670141577720642
1773163150416158200,7.975158203125,-2.6923835277557373,-1.1948719024658203,0.7881526947021484
1773163150428658400,7.987658447265625,-3.089353084564209,-1.5291194915771484,-0.15204787254333496
1773163150441158400,8.000158447265624,-3.110713481903076,-1.6978530883789062,-0.8147978782653809
1773163150453658400,8.012658447265625,-3.015796422958374,-1.7078924179077148,-0.8084123134613037
1773163150466158300,8.025158447265625,-2.805525064468384,-1.6203107833862305,-0.5490078926086426
1773163150478658300,8.037658203125,-2.481461763381958,-1.606119155883789,-0.16527271270751953
1773163150491158300,8.050158203125,-2.0232787132263184,-1.6376771926879883,0.2143080234527588
1773163150503658200,8.062658203125,-1.9766250848770142,-2.0110244750976562,0.5772576332092285
1773163150516158200,8.075158203125,-2.225025177001953,-2.5560503005981445,0.8891696929931641
1773163150528658400,8.087658447265625,-2.432050943374634,-2.7182397842407227,1.4047242403030396
1773163150541158400,8.100158447265626,-2.5245463848114014,-2.5520334243774414,2.1923913955688477
1773163150553658400,8.112658447265625,-2.551339864730835,-2.5075197219848633,3.0220065116882324
1773163150566158300,8.125158447265624,-1.776964783668518,-2.13881778717041,3.4255409240722656
1773163150578658300,8.137658203125,-2.1248855590820312,-1.9743385314941406,3.705430746078491
1773163150591158300,8.150158203125,-2.126932144165039,-1.3097000122070312,3.15624737739563
1773163150603658200,8.162658203125,-2.355135679244995,-0.3939781188964844,1.774712085723877
1773163150616158200,8.175158203125,-2.5649642944335938,0.8775348663330078,0.3753044605255127
1773163150628658400,8.187658447265624,-2.6681201457977295,2.0536184310913086,-0.4510610103607178
1773163150641158400,8.200158447265625,-2.6856319904327393,2.1467432975769043,-1.0049023628234863
1773163150653658400,8.212658447265625,-2.1039390563964844,0.5154457092285156,-2.018632650375366
1773163150666158300,8.225158447265626,-0.2441484034061432,-2.4402236938476562,-3.7704641819000244
1773163150678658300,8.237658203125,2.547205686569214,-4.111818313598633,-4.959270477294922
1773163150691158300,8.250158203125,4.618305206298828,-3.9863290786743164,-4.704929351806641
1773163150703658200,8.262658203125,5.208282947540283,-2.983365058898926,-3.5924904346466064
1773163150716158200,8.275158203125,4.420958995819092,-1.703054428100586,-2.5202040672302246
1773163150728658400,8.287658447265626,3.0816893577575684,-0.9806413650512695,-1.7605011463165283
1773163150741158400,8.300158447265625,1.456948161125183,-0.669703483581543,-1.3129855394363403
1773163150753658400,8.312658447265624,-0.16402697563171387,-0.8842277526855469,-1.444249153137207
1773163150766158300,8.325158447265625,-1.300325870513916,-1.041299819946289,-1.7648611068725586
1773163150778658300,8.337658203125,-1.4605430364608765,-0.7725248336791992,-2.1243579387664795
1773163150791158300,8.350158203125,-0.8085004091262817,0.035141944885253906,-2.2472410202026367
1773163150803658200,8.362658203125,0.0926516056060791,0.9598722457885742,-2.2666311264038086
1773163150816158200,8.375158203125,1.366386890411377,1.5394401550292969,-2.189352035522461
1773163150828658400,8.387658447265625,2.3861992359161377,1.9489898681640625,-1.606387734413147
1773163150841158400,8.400158447265625,2.20436692237854,2.095283031463623,-0.8072677850723267
1773163150853658400,8.412658447265626,1.2960584163665771,1.906069278717041,-0.3938319683074951
1773163150866158300,8.425158447265625,0.9211912155151367,1.6721711158752441,-0.168265700340271
1773163150878658300,8.437658203125,0.9177607297897339,1.5338025093078613,0.20295244455337524
1773163150891158300,8.450158203125,1.0731582641601562,1.4110260009765625,0.4301995635032654
1773163150903658200,8.462658203125,1.1455744504928589,1.3599739074707031,0.6829556226730347
1773163150916158200,8.475158203125,1.0252799987792969,1.4745235443115234,0.613739550113678
1773163150928658400,8.487658447265625,0.9427533149719238,1.794097900390625,0.7216120958328247
1773163150941158400,8.500158447265624,1.0121347904205322,2.165505886077881,0.7757362127304077
1773163150953658400,8.512658447265625,1.1250182390213013,2.445476531982422,0.9108628034591675
1773163150966158300,8.525158447265625,1.5151135921478271,2.687168598175049,1.2652337551116943
1773163150978658300,8.537658203125,1.7814247608184814,2.5190281867980957,1.6874353885650635
1773163150991158300,8.550158203125,1.8201053142547607,1.9646544456481934,1.9707980155944824
1773163151003658200,8.562658203125,1.6750705242156982,1.3099327087402344,2.0451464653015137
1773163151016158200,8.575158203125,1.0544581413269043,0.21994781494140625,1.6671395301818848
1773163151028658400,8.587658447265625,-0.15932655334472656,-0.9873189926147461,1.5364328622817993
1773163151041158400,8.600158447265626,-1.6664531230926514,-2.0904035568237305,1.2998957633972168
1773163151053658400,8.612658447265625,-3.127594232559204,-2.6406469345092773,0.977043867111206
1773163151066158300,8.625158447265624,-3.919673442840576,-2.463587760925293,0.6387880444526672
1773163151078658300,8.637658203125,-4.036153316497803,-1.7047882080078125,0.6646018624305725
1773163151091158300,8.650158203125,-3.5492584705352783,-1.0896406173706055,0.46023857593536377
1773163151103658200,8.662658203125,-2.9892284870147705,-0.40791988372802734,0.3077394962310791
1773163151116158200,8.675158203125,-2.419879913330078,0.013178825378417969,0.08243775367736816
1773163151128658400,8.687658447265624,-1.5138416290283203,0.17821216583251953,-0.21022474765777588
1773163151141158400,8.700158447265625,-0.6456706523895264,0.14693927764892578,-0.9300832748413086
1773163151153658400,8.712658447265625,-0.005641937255859375,0.1151885986328125,-1.3672378063201904
1773163151166158300,8.725158447265626,0.4122273921966553,-0.17339229583740234,-1.7853161096572876
1773163151178658300,8.737658203125,0.3584095239639282,-0.6359062194824219,-1.8802374601364136
1773163151191158300,8.750158203125,0.8654395341873169,-0.8629617691040039,-1.3772066831588745
1773163151203658200,8.762658203125,1.9748238325119019,-1.1521530151367188,-1.0893710851669312
1773163151216158200,8.775158203125,3.1697568893432617,-0.7638769149780273,-0.6817148923873901
1773163151228658400,8.787658447265626,4.4325971603393555,0.10014629364013672,-0.06395840644836426
1773163151241158400,8.800158447265625,4.510435104370117,0.6000699996948242,-0.16838812828063965
1773163151253658400,8.812658447265624,2.8299131393432617,0.5381755828857422,-1.2359868288040161
1773163151266158300,8.825158447265625,-0.17297911643981934,0.3627138137817383,-2.418422222137451
1773163151278658300,8.837658203125,-2.6561970710754395,0.4651784896850586,-2.872997283935547
1773163151291158300,8.850158203125,-2.5487935543060303,0.5634965896606445,-3.1114325523376465
1773163151303658200,8.862658203125,-1.267319917678833,0.48256969451904297,-3.4456377029418945
1773163151316158200,8.875158203125,0.5342558026313782,0.6847524642944336,-3.512238025665283
1773163151328658400,8.887658447265625,2.481118679046631,1.2927885055541992,-3.0696258544921875
1773163151341158400,8.900158447265625,4.119569778442383,1.8117752075195312,-2.143455982208252
1773163151353658400,8.912658447265626,5.0480546951293945,1.7963275909423828,-0.9183328151702881
1773163151366158300,8.925158447265625,5.062295436859131,1.0950183868408203,0.05001819133758545
1773163151378658300,8.937658203125,4.38246488571167,-0.03682899475097656,0.7037839889526367
1773163151391158300,8.950158203125,3.2008056640625,-0.9808197021484375,1.121866226196289
1773163151403658200,8.962658203125,1.6295911073684692,-1.383554458618164,1.7189571857452393
1773163151416158200,8.975158203125,-0.25259482860565186,-1.1433258056640625,1.9070490598678589
1773163151428658400,8.987658447265625,-1.9031814336776733,-0.7381114959716797,1.2220046520233154
1773163151441158400,9.000158447265624,-1.7789924144744873,-0.39835166931152344,0.2590562105178833
1773163151453658400,9.012658447265625,-0.3579888939857483,-0.11696243286132812,-0.5172256231307983
1773163151466158300,9.025158447265625,1.0109715461730957,0.23725318908691406,-0.9249272346496582
1773163151478658300,9.037658203125,2.1478633880615234,0.5122108459472656,-1.3789644241333008
1773163151491158300,9.050158203125,2.5563557147979736,0.6090707778930664,-1.5777596235275269
1773163151503658200,9.062658203125,2.606930732727051,0.7044544219970703,-1.5853276252746582
1773163151516158200,9.075158203125,2.027477979660034,0.9491128921508789,-1.5045610666275024
1773163151528658400,9.087658447265625,0.8771125078201294,0.7984504699707031,-1.510772466659546
1773163151541158400,9.100158447265626,-0.18193092942237854,0.3446474075317383,-1.445447564125061
1773163151553658400,9.112658447265625,-0.4681333899497986,-0.1316995620727539,-0.7525248527526855
1773163151566158300,9.125158447265624,-0.25397318601608276,-0.3623361587524414,-0.04256439208984375
1773163151578658300,9.137658203125,0.19840317964553833,-0.2232074737548828,0.3522515296936035
1773163151591158300,9.150158203125,0.46309423446655273,0.007823944091796875,0.5641332864761353
1773163151603658200,9.162658203125,0.5824581980705261,0.17658615112304688,0.6785356998443604
1773163151616158200,9.175158203125,0.4887494444847107,0.19720840454101562,0.649335503578186
1773163151628658400,9.187658447265624,0.17987442016601562,0.157928466796875,0.6377317905426025
1773163151641158400,9.200158447265625,-0.2681766748428345,0.0644378662109375,0.39981722831726074
1773163151653658400,9.212658447265625,-0.9397909641265869,-0.11156272888183594,0.11755657196044922
1773163151666158300,9.225158447265626,-1.2150514125823975,-0.3594331741333008,-0.041188955307006836
1773163151678658300,9.237658203125,-1.2919340133666992,-0.4592933654785156,-0.05305671691894531
1773163151691158300,9.250158203125,-1.100272297859192,-0.44016551971435547,-0.015474081039428711
1773163151703658200,9.262658203125,-1.1018297672271729,-0.5742073059082031,0.2901279926300049
1773163151716158200,9.275158203125,-1.3743081092834473,-0.6145467758178711,0.6544878482818604
1773163151728658400,9.287658447265626,-1.5667613744735718,-0.671992301940918,1.061112403869629
1773163151741158400,9.300158447265625,-1.460949420928955,-0.7329616546630859,1.4230679273605347
1773163151753658400,9.312658447265624,-0.9158834218978882,-0.8351535797119141,1.5999865531921387
1773163151766158300,9.325158447265625,-0.8999766111373901,-1.2077741622924805,1.7169629335403442
1773163151778658300,9.337658203125,-0.6747157573699951,-1.2130117416381836,1.692063331604004
1773163151791158300,9.350158203125,-0.6851531267166138,-1.1953067779541016,1.461312174797058
1773163151803658200,9.362658203125,-0.9670412540435791,-1.1822996139526367,1.0315489768981934
1773163151816158200,9.375158203125,-1.271801471710205,-1.1179733276367188,0.6273953914642334
1773163151828658400,9.387658447265625,-1.3827365636825562,-0.9878406524658203,0.5070366859436035
1773163151841158400,9.400158447265625,-1.2201393842697144,-0.9479990005493164,0.6524531841278076
1773163151853658400,9.412658447265626,-0.9749951362609863,-0.9908161163330078,1.0758163928985596
1773163151866158300,9.425158447265625,-0.9557867050170898,-1.128549575805664,1.6602206230163574
1773163151878658300,9.437658203125,-0.6178672313690186,-1.2376070022583008,2.0541250705718994
1773163151891158300,9.450158203125,-1.042966365814209,-1.4950580596923828,2.281954765319824
1773163151903658200,9.462658203125,-1.3525280952453613,-1.8179340362548828,2.368530750274658
1773163151916158200,9.475158203125,-1.8491597175598145,-2.2241334915161133,2.334479570388794
1773163151928658400,9.487658447265625,-1.3986798524856567,-2.3813610076904297,2.1189708709716797
1773163151941158400,9.500158447265624,-1.2488460540771484,-2.3775758743286133,1.9606350660324097
1773163151953658400,9.512658447265625,-1.2896173000335693,-2.4621849060058594,1.5885616540908813
1773163151966158300,9.525158447265625,-1.6154088973999023,-2.450922966003418,1.0203615427017212
1773163151978658300,9.537658203125,-1.763556718826294,-1.9062271118164062,0.3498704433441162
1773163151991158300,9.550158203125,-2.2656898498535156,-1.0507049560546875,-0.09556818008422852
1773163152003658200,9.562658203125,-2.4873287677764893,-0.3147249221801758,-0.4599475860595703
1773163152016158200,9.575158203125,-2.4105024337768555,0.4329099655151367,-0.792412519454956
1773163152028658400,9.587658447265625,-2.007117748260498,1.2551250457763672,-1.063725471496582
1773163152041158400,9.600158447265626,-1.1861010789871216,1.8591270446777344,-1.1805822849273682
1773163152053658400,9.612658447265625,-0.11026021838188171,2.1454858779907227,-1.388044834136963
1773163152066158300,9.625158447265624,0.8254411220550537,1.3520402908325195,-2.163276433944702
1773163152078658300,9.637658203125,2.003368854522705,-0.5204067230224609,-3.4107298851013184
1773163152091158300,9.650158203125,3.443796157836914,-1.9856748580932617,-4.257754325866699
1773163152103658200,9.662658203125,4.63247013092041,-2.6109018325805664,-4.421699523925781
1773163152116158200,9.675158203125,4.977999210357666,-2.4439878463745117,-3.899991750717163
1773163152128658400,9.687658447265624,4.027801036834717,-1.4324359893798828,-2.769196033477783
1773163152141158400,9.700158447265625,2.5845530033111572,-0.3605976104736328,-1.4673802852630615
1773163152153658400,9.712658447265625,1.0252145528793335,0.06304168701171875,-0.44595396518707275
1773163152166158300,9.725158447265626,0.29479825496673584,0.03213310241699219,0.06854438781738281
1773163152178658300,9.737658203125,0.43639683723449707,0.030084609985351562,0.24003887176513672
1773163152191158300,9.750158203125,0.9497159719467163,0.29961681365966797,0.38262003660202026
1773163152203658200,9.762658203125,1.3300526142120361,0.6168546676635742,0.22925269603729248
1773163152216158200,9.775158203125,1.1324108839035034,0.8073520660400391,-0.1754053831100464
1773163152228658400,9.787658447265626,1.1652377843856812,0.8845052719116211,-0.6309381723403931
1773163152241158400,9.800158447265625,1.303094506263733,1.097304344177246,-0.9596365094184875
1773163152253658400,9.812658447265624,1.575948715209961,1.395895004272461,-1.1645431518554688
1773163152266158300,9.825158447265625,1.749780297279358,1.7057828903198242,-1.168420433998108
1773163152278658300,9.837658203125,1.7100591659545898,1.848052978515625,-1.1633076667785645
1773163152303658200,9.862658203125,1.7374188899993896,1.8739590644836426,-0.9556885361671448
1773163152316158200,9.875158203125,1.39094877243042,1.6844120025634766,-1.123314619064331
1773163152328658400,9.887658447265625,1.0007574558258057,1.6947779655456543,-1.1895194053649902
1773163152341158400,9.900158447265625,0.8260998725891113,1.7262907028198242,-1.2851998805999756
1773163152353658400,9.912658447265626,0.45957744121551514,1.699549674987793,-1.3509021997451782
1773163152366158300,9.925158447265625,0.32346415519714355,1.7547669410705566,-1.3671715259552002
1773163152378658300,9.937658203125,0.16524791717529297,1.7645320892333984,-0.8072543740272522
1773163152391158300,9.950158203125,0.24175596237182617,1.4524545669555664,-0.2325584888458252
1773163152403658200,9.962658203125,0.1238553524017334,0.6935625076293945,0.1831931471824646
1773163152416158200,9.975158203125,-0.25381994247436523,-0.16761016845703125,0.6548473834991455
1773163152428658400,9.987658447265625,-0.8418011665344238,-0.8074979782104492,1.0384794473648071
1773163152441158400,10.000158447265624,-1.5212373733520508,-1.1832380294799805,1.1848818063735962
1773163152453658400,10.012658447265625,-1.9554851055145264,-1.212752342224121,1.0672582387924194
1773163152466158300,10.025158447265625,-2.6957595348358154,-1.2147655487060547,0.9772076606750488
1773163152478658300,10.037658203125,-2.9724788665771484,-1.003422737121582,1.0028626918792725
1773163152491158300,10.050158203125,-3.0982775688171387,-0.928126335144043,1.0432003736495972
1773163152503658200,10.062658203125,-3.0227136611938477,-0.9470529556274414,1.0640232563018799
1773163152516158200,10.075158203125,-2.5026683807373047,-0.9140081405639648,0.9591565132141113
1773163152528658400,10.087658447265625,-1.5583174228668213,-0.6447610855102539,0.7771751880645752
1773163152541158400,10.100158447265626,-0.6920809745788574,-0.4664745330810547,0.19814372062683105
1773163152553658400,10.112658447265625,-0.3130967617034912,-0.19952678680419922,-0.23938286304473877
1773163152566158300,10.125158447265624,-0.2656257152557373,0.006350517272949219,-0.4267178773880005
1773163152578658300,10.137658203125,-0.2763068675994873,0.09394645690917969,-0.44986599683761597
1773163152591158300,10.150158203125,-0.12093162536621094,-0.100830078125,-0.4861990213394165
1773163152603658200,10.162658203125,0.1375744342803955,-0.26900291442871094,-0.4919208288192749
1773163152616158200,10.175158203125,0.3275737762451172,-0.3562612533569336,-0.5377628803253174
1773163152628658400,10.187658447265624,0.3950040340423584,-0.44573402404785156,-0.6333969235420227
1773163152641158400,10.200158447265625,0.41816866397857666,-0.5406131744384766,-0.7335821390151978
1773163152653658400,10.212658447265625,0.6136505603790283,-0.7557773590087891,-1.0503381490707397
1773163152666158300,10.225158447265626,1.152999758720398,-1.2829818725585938,-1.4705002307891846
1773163152678658300,10.237658203125,1.8956538438796997,-1.7552213668823242,-1.6628226041793823
1773163152691158300,10.250158203125,1.8202470541000366,-1.7627677917480469,-1.9729191064834595
1773163152703658200,10.262658203125,0.4056558609008789,-0.7635335922241211,-2.518322706222534
1773163152716158200,10.275158203125,-0.6496334075927734,0.7811412811279297,-2.916865348815918
1773163152728658400,10.287658447265626,-0.4797945022583008,1.8278851509094238,-3.271993398666382
1773163152741158400,10.300158447265625,0.07495689392089844,2.105441093444824,-3.3409547805786133
1773163152753658400,10.312658447265624,0.4104658365249634,1.6798968315124512,-3.2214035987854004
1773163152766158300,10.325158447265625,0.8081878423690796,1.0575284957885742,-3.293750286102295
1773163152778658300,10.337658203125,1.3358368873596191,0.8414688110351562,-3.168982982635498
1773163152791158300,10.350158203125,2.0001368522644043,0.8644733428955078,-2.660073757171631
1773163152803658200,10.362658203125,2.430351972579956,0.8212471008300781,-2.0562992095947266
1773163152816158200,10.375158203125,2.2894768714904785,0.4601125717163086,-1.6126718521118164
1773163152828658400,10.387658447265625,2.0426483154296875,0.04530048370361328,-1.1024729013442993
1773163152841158400,10.400158447265625,1.5038175582885742,-0.20707225799560547,-0.3344838619232178
1773163152853658400,10.412658447265626,0.8579868078231812,-0.3447885513305664,0.3122943639755249
1773163152866158300,10.425158447265625,0.5197628140449524,-0.35276222229003906,0.7819563746452332
1773163152878658300,10.437658203125,1.0085194110870361,-0.25324153900146484,1.145254373550415
1773163152891158300,10.450158203125,1.5762555599212646,-0.2792549133300781,1.2145625352859497
1773163152903658200,10.462658203125,2.1255757808685303,-0.3855476379394531,0.8046507835388184
1773163152916158200,10.475158203125,2.2342936992645264,-0.3668994903564453,0.39956021308898926
1773163152928658400,10.487658447265625,2.120053291320801,-0.3083486557006836,0.02335953712463379
1773163152941158400,10.500158447265624,1.6224302053451538,-0.2656974792480469,-0.469379186630249
1773163152953658400,10.512658447265625,1.03217351436615,-0.17038917541503906,-1.1429877281188965
1773163152966158300,10.525158447265625,0.560190737247467,0.01567363739013672,-1.7563186883926392
1773163152978658300,10.537658203125,0.45707088708877563,0.17054080963134766,-2.2900547981262207
1773163152991158300,10.550158203125,0.5238709449768066,0.32012176513671875,-2.621647357940674
1773163153003658200,10.562658203125,0.6154218912124634,0.39569091796875,-2.641427516937256
1773163153016158200,10.575158203125,0.7709027528762817,0.5797052383422852,-2.393721103668213
1773163153028658400,10.587658447265625,0.7520085573196411,0.7151155471801758,-2.0443334579467773
1773163153041158400,10.600158447265626,1.0121737718582153,0.7913246154785156,-1.5943108797073364
1773163153053658400,10.612658447265625,0.90547776222229,0.6123390197753906,-1.2298086881637573
1773163153066158300,10.625158447265624,0.7906748056411743,0.4526100158691406,-0.7921282052993774
1773163153078658300,10.637658203125,0.7381232976913452,0.3067741394042969,-0.24814200401306152
1773163153091158300,10.650158203125,0.7036274671554565,-0.14033126831054688,0.49645793437957764
1773163153103658200,10.662658203125,0.6926578283309937,-0.4873819351196289,1.2931666374206543
1773163153116158200,10.675158203125,0.4812980890274048,-0.7975873947143555,1.9203464984893799
1773163153128658400,10.687658447265624,-0.08719658851623535,-0.9074325561523438,2.5091562271118164
1773163153141158400,10.700158447265625,-0.8363394737243652,-0.9236135482788086,2.4823195934295654
1773163153153658400,10.712658447265625,-1.6411361694335938,-0.9549245834350586,2.0538299083709717
1773163153166158300,10.725158447265626,-1.7859394550323486,-1.0607528686523438,1.6868115663528442
1773163153178658300,10.737658203125,-1.820451021194458,-1.1821365356445312,1.5000431537628174
1773163153191158300,10.750158203125,-2.0003390312194824,-1.1895818710327148,1.450636386871338
1773163153203658200,10.762658203125,-1.6908854246139526,-0.9448585510253906,1.5541694164276123
1773163153216158200,10.775158203125,-1.3022557497024536,-0.6597347259521484,1.6195783615112305
1773163153228658400,10.787658447265626,-0.9482306241989136,-0.37006664276123047,1.5807503461837769
1773163153241158400,10.800158447265625,-0.7140184044837952,-0.1062479019165039,1.2575112581253052
1773163153253658400,10.812658447265624,-0.6921239495277405,0.2257251739501953,0.7534750699996948
1773163153266158300,10.825158447265625,-1.0292243957519531,0.4515104293823242,0.15163207054138184
1773163153278658300,10.837658203125,-1.1661864519119263,0.4258909225463867,-0.21747708320617676
1773163153291158300,10.850158203125,-1.0638766288757324,0.28292179107666016,-0.13821625709533691
1773163153303658200,10.862658203125,-0.7585124373435974,0.1612701416015625,0.4184994697570801
1773163153316158200,10.875158203125,-0.4959421157836914,-0.09502506256103516,1.143599271774292
1773163153328658400,10.887658447265625,-0.37643980979919434,-0.3825225830078125,1.812035083770752
1773163153341158400,10.900158447265625,-0.36925554275512695,-0.7070350646972656,2.246483325958252
1773163153353658400,10.912658447265626,-0.4047276973724365,-0.7638006210327148,2.3170664310455322
1773163153366158300,10.925158447265625,-0.3635149598121643,-0.8155860900878906,2.1418466567993164
1773163153378658300,10.937658203125,-0.09781140089035034,-0.9788599014282227,1.705803394317627
1773163153391158300,10.950158203125,0.037465453147888184,-1.3031234741210938,1.0472979545593262
1773163153403658200,10.962658203125,-0.19017702341079712,-1.5727109909057617,0.3206167221069336
1773163153416158200,10.975158203125,-0.6715313196182251,-1.7617359161376953,-0.3652275800704956
1773163153428658400,10.987658447265625,-1.2159229516983032,-2.0640459060668945,-0.9407562017440796
1773163153441158400,11.000158447265624,-1.5652871131896973,-2.287944793701172,-1.278334617614746
1773163153453658400,11.012658447265625,-1.705186367034912,-2.1592273712158203,-1.3423932790756226
1773163153466158300,11.025158447265625,-1.7131271362304688,-1.6715316772460938,-1.0498331785202026
1773163153491158300,11.050158203125,-1.6371814012527466,-0.5691862106323242,-0.4248661994934082
1773163153503658200,11.062658203125,-2.0610086917877197,-0.24779415130615234,-0.3718099594116211
1773163153516158200,11.075158203125,-2.9510374069213867,-0.3549051284790039,-1.4799224138259888
1773163153528658400,11.087658447265625,-3.480717658996582,-0.37631702423095703,-2.8788950443267822
1773163153541158400,11.100158447265626,-2.471358060836792,-0.20917606353759766,-3.194342613220215
1773163153553658400,11.112658447265625,-0.624563455581665,-0.5838050842285156,-3.8545114994049072
1773163153566158300,11.125158447265624,1.4207481145858765,-1.07275390625,-4.453271865844727
1773163153578658300,11.137658203125,3.1641652584075928,-1.1734094619750977,-4.684586524963379
1773163153591158300,11.150158203125,4.589219093322754,-0.8223037719726562,-4.430148124694824
1773163153603658200,11.162658203125,4.587782859802246,-0.2189168930053711,-3.68975830078125
1773163153616158200,11.175158203125,3.867417573928833,0.3248872756958008,-3.0916175842285156
1773163153628658400,11.187658447265624,2.983128309249878,0.9346656799316406,-2.346574544906616
1773163153641158400,11.200158447265625,2.589993476867676,1.2036161422729492,-1.58890962600708
1773163153653658400,11.212658447265625,2.1549534797668457,1.0858831405639648,-0.930510401725769
1773163153666158300,11.225158447265626,2.2088465690612793,0.7791643142700195,-0.4304553270339966
1773163153678658300,11.237658203125,2.241212844848633,0.5161056518554688,0.43863123655319214
1773163153691158300,11.250158203125,2.711996555328369,0.40508365631103516,0.9307809472084045
1773163153703658200,11.262658203125,2.6217730045318604,0.541691780090332,1.230095624923706
1773163153716158200,11.275158203125,2.134371757507324,0.8780002593994141,1.2405955791473389
1773163153728658400,11.287658447265626,1.6218090057373047,1.271759033203125,0.9140079021453857
1773163153741158400,11.300158447265625,1.8294123411178589,2.137080192565918,0.475139856338501
1773163153753658400,11.312658447265624,2.127227783203125,3.1097030639648438,0.1684827208518982
1773163153766158300,11.325158447265625,2.2343125343322754,3.4657349586486816,-0.3809792995452881
1773163153778658300,11.337658203125,1.8768434524536133,3.3577399253845215,-0.4347841739654541
1773163153791158300,11.350158203125,1.7482820749282837,2.998404026031494,-0.02902352809906006
1773163153803658200,11.362658203125,1.7434295415878296,2.295095920562744,0.4063984751701355
1773163153816158200,11.375158203125,1.2267961502075195,1.51334810256958,0.7289451956748962
1773163153828658400,11.387658447265625,0.6828546524047852,0.6317129135131836,0.9518485069274902
1773163153841158400,11.400158447265625,0.007833003997802734,-0.48851871490478516,0.9936602115631104
1773163153853658400,11.412658447265626,-0.24114084243774414,-1.464982032775879,1.1801538467407227
1773163153866158300,11.425158447265625,-0.46329545974731445,-2.1858692169189453,1.2607455253601074
1773163153878658300,11.437658203125,-1.0074610710144043,-2.363560676574707,1.2217576503753662
1773163153891158300,11.450158203125,-1.1009793281555176,-2.0795297622680664,1.5300538539886475
1773163153903658200,11.462658203125,-1.5248973369598389,-1.8766698837280273,1.1861121654510498
1773163153916158200,11.475158203125,-1.8418757915496826,-1.3958587646484375,0.9021515846252441
1773163153928658400,11.487658447265625,-2.197218418121338,-1.1906261444091797,0.7725589275360107
1773163153941158400,11.500158447265624,-2.5277600288391113,-1.1146488189697266,0.792128324508667
1773163153953658400,11.512658447265625,-2.8698782920837402,-0.9894895553588867,0.9236572980880737
1773163153966158300,11.525158447265625,-3.319091558456421,-0.7424869537353516,1.0688908100128174
1773163153978658300,11.537658203125,-3.572340965270996,-0.46915149688720703,1.224812388420105
1773163153991158300,11.550158203125,-3.894036293029785,-0.4281015396118164,1.4520881175994873
1773163154003658200,11.562658203125,-3.9973654747009277,-0.43221569061279297,1.5064771175384521
1773163154016158200,11.575158203125,-3.8790218830108643,-0.4857902526855469,1.4066451787948608
1773163154028658400,11.587658447265625,-2.92421555519104,-0.6209983825683594,1.2140636444091797
1773163154041158400,11.600158447265626,-1.4046175479888916,-0.9369573593139648,1.1689207553863525
1773163154053658400,11.612658447265625,0.350002646446228,-1.256821632385254,1.2168396711349487
1773163154066158300,11.625158447265624,2.080495834350586,-0.9377202987670898,1.2538068294525146
1773163154078658300,11.637658203125,3.515070915222168,0.08429241180419922,1.105130910873413
1773163154091158300,11.650158203125,3.9840102195739746,1.1708145141601562,0.4750210642814636
1773163154103658200,11.662658203125,3.0477354526519775,1.946211338043213,-0.6128932237625122
1773163154116158200,11.675158203125,1.4425923824310303,2.1174449920654297,-1.9094648361206055
1773163154128658400,11.687658447265624,-0.5833218097686768,1.5226240158081055,-3.330592632293701
1773163154141158400,11.700158447265625,-2.035773754119873,0.5164585113525391,-4.179801940917969
1773163154153658400,11.712658447265625,-2.096489906311035,-0.4842691421508789,-3.836015224456787
1773163154166158300,11.725158447265626,-0.9703274965286255,-0.840397834777832,-2.815246105194092
1773163154178658300,11.737658203125,0.35015690326690674,-0.8120145797729492,-2.2910447120666504
1773163154191158300,11.750158203125,1.0897116661071777,-0.6642417907714844,-2.2975635528564453
1773163154203658200,11.762658203125,1.3041728734970093,-0.36015987396240234,-2.319167137145996
1773163154216158200,11.775158203125,1.4359667301177979,0.043595314025878906,-2.2518041133880615
1773163154228658400,11.787658447265626,1.7779712677001953,0.5206050872802734,-2.1229541301727295
1773163154241158400,11.800158447265625,2.188777208328247,0.9083366394042969,-1.9127840995788574
1773163154253658400,11.812658447265624,2.3257389068603516,1.104257583618164,-1.7830181121826172
1773163154266158300,11.825158447265625,2.005527973175049,0.960291862487793,-1.7924104928970337
1773163154278658300,11.837658203125,1.242073655128479,0.6425886154174805,-1.9509731531143188
1773163154291158300,11.850158203125,0.5397260785102844,0.3970670700073242,-2.0410070419311523
1773163154303658200,11.862658203125,0.3513156771659851,0.2523479461669922,-1.9331127405166626
1773163154316158200,11.875158203125,0.5712487697601318,0.1719503402709961,-1.529802918434143
1773163154328658400,11.887658447265625,0.9088850617408752,0.014627456665039062,-1.0958638191223145
1773163154341158400,11.900158447265625,1.3160603046417236,-0.17796611785888672,-0.721136212348938
1773163154353658400,11.912658447265626,1.798018217086792,-0.3132438659667969,-0.234968900680542
1773163154366158300,11.925158447265625,2.14224910736084,-0.3260068893432617,0.2615621089935303
1773163154378658300,11.937658203125,2.135554313659668,-0.33972644805908203,0.37552666664123535
1773163154391158300,11.950158203125,1.7008421421051025,-0.11927127838134766,0.298450231552124
1773163154403658200,11.962658203125,1.0188554525375366,-0.13733863830566406,-0.06793391704559326
1773163154416158200,11.975158203125,0.5075697302818298,-0.16544055938720703,-0.39125311374664307
1773163154428658400,11.987658447265625,0.32984328269958496,-0.06768035888671875,-0.46251559257507324
1773163154441158400,12.000158447265624,0.6250108480453491,0.01922607421875,-0.45912325382232666
1773163154453658400,12.012658447265625,0.9310846924781799,0.009905815124511719,-0.6731657981872559
1773163154466158300,12.025158447265625,0.807934582233429,0.07553291320800781,-0.7797003984451294
1773163154478658300,12.037658203125,0.4221495985984802,0.3072042465209961,-0.9061222076416016
1773163154491158300,12.050158203125,0.28456205129623413,0.36620616912841797,-1.127022385597229
1773163154503658200,12.062658203125,0.25700610876083374,0.3649473190307617,-1.2039393186569214
1773163154516158200,12.075158203125,0.4575108289718628,0.39684295654296875,-1.0327788591384888
1773163154528658400,12.087658447265625,0.5032060742378235,0.29883289337158203,-0.8033785820007324
1773163154541158400,12.100158447265626,0.6370601654052734,0.1118011474609375,-0.5664654970169067
1773163154553658400,12.112658447265625,0.6597068309783936,-0.11034488677978516,0.06269252300262451
1773163154566158300,12.125158447265624,0.6403177380561829,-0.22408676147460938,0.7242504358291626
1773163154578658300,12.137658203125,0.359775185585022,-0.3725748062133789,1.2407742738723755
1773163154591158300,12.150158203125,-0.07741373777389526,-0.48973560333251953,1.8217570781707764
1773163154603658200,12.162658203125,-0.32951974868774414,-0.6800642013549805,2.1108806133270264
1773163154616158200,12.175158203125,-0.6649808883666992,-0.847381591796875,2.0293893814086914
1773163154628658400,12.187658447265624,-0.8544615507125854,-0.4618358612060547,1.8354415893554688
1773163154641158400,12.200158447265625,-0.8313578963279724,-0.14393043518066406,1.3068454265594482
1773163154653658400,12.212658447265625,-0.4949660301208496,0.04563426971435547,0.7925395369529724
1773163154666158300,12.225158447265626,-0.3405422568321228,0.1418628692626953,0.6997562646865845
1773163154678658300,12.237658203125,-0.4764288663864136,-0.023710250854492188,0.7391607761383057
1773163154691158300,12.250158203125,-0.9556196331977844,-0.3650245666503906,0.8649150133132935
1773163154703658200,12.262658203125,-1.377106785774231,-0.8653469085693359,1.1997791528701782
1773163154716158200,12.275158203125,-1.5229572057724,-1.3101625442504883,1.701189637184143
1773163154728658400,12.287658447265626,-1.305412769317627,-1.239480972290039,2.2923150062561035
1773163154741158400,12.300158447265625,-1.2250860929489136,-0.9047470092773438,2.766692638397217
1773163154753658400,12.312658447265624,-1.2860925197601318,-0.5026493072509766,3.0370566844940186
1773163154766158300,12.325158447265625,-1.3249883651733398,-0.3115673065185547,2.820500373840332
1773163154778658300,12.337658203125,-1.477699875831604,-0.3855924606323242,2.1093971729278564
1773163154791158300,12.350158203125,-1.7484993934631348,-0.3207120895385742,1.6664472818374634
1773163154803658200,12.362658203125,-2.058990478515625,-0.27753353118896484,1.2448457479476929
1773163154816158200,12.375158203125,-2.0520827770233154,-0.09827232360839844,1.1576964855194092
1773163154828658400,12.387658447265625,-1.6494555473327637,0.08722686767578125,1.244720220565796
1773163154841158400,12.400158447265625,-1.0683643817901611,0.17125797271728516,1.4857017993927002
1773163154853658400,12.412658447265626,-0.4344707727432251,0.10809898376464844,1.680246353149414
1773163154866158300,12.425158447265625,0.1065683364868164,0.16878890991210938,1.6614093780517578
1773163154878658300,12.437658203125,0.34679388999938965,0.19097042083740234,1.460909128189087
1773163154891158300,12.450158203125,0.35935044288635254,-0.08954334259033203,0.7511091232299805
1773163154903658200,12.462658203125,-0.023326575756072998,-0.563873291015625,-0.42534399032592773
1773163154916158200,12.475158203125,-0.6297745704650879,-1.1158342361450195,-1.570731282234192
1773163154928658400,12.487658447265625,-0.8713889122009277,-1.9318656921386719,-2.9421980381011963
1773163154941158400,12.500158447265624,-1.0430314540863037,-2.5750722885131836,-3.8976261615753174
1773163154953658400,12.512658447265625,-1.1423720121383667,-2.812769889831543,-4.082581043243408
1773163154966158300,12.525158447265625,-1.2239136695861816,-2.543271064758301,-3.2469472885131836
1773163154978658300,12.537658203125,-1.197448968887329,-2.227536201477051,-2.1738123893737793
1773163154991158300,12.550158203125,-1.1071140766143799,-1.7110319137573242,-1.2432819604873657
1773163155003658200,12.562658203125,-0.95660400390625,-1.0604934692382812,-0.6412566900253296
1773163155016158200,12.575158203125,-0.9630845189094543,-0.4791116714477539,-0.3455439805984497
1773163155028658400,12.587658447265625,-1.2240378856658936,-0.05919837951660156,-0.5518926382064819
1773163155041158400,12.600158447265626,-1.2215676307678223,0.2484121322631836,-0.9825825691223145
1773163155053658400,12.612658447265625,-1.0613398551940918,0.4345111846923828,-1.7333513498306274
1773163155066158300,12.625158447265624,-0.533210039138794,0.4921712875366211,-2.1997766494750977
1773163155078658300,12.637658203125,0.5525431632995605,0.3042316436767578,-2.879819393157959
1773163155091158300,12.650158203125,1.6673614978790283,-0.013476371765136719,-3.594789505004883
1773163155103658200,12.662658203125,2.3748655319213867,0.049345970153808594,-3.7341678142547607
1773163155116158200,12.675158203125,2.5368282794952393,0.4572591781616211,-3.056046724319458
1773163155128658400,12.687658447265624,2.456873655319214,0.4806795120239258,-2.612592935562134
1773163155141158400,12.700158447265625,2.5426065921783447,0.7205953598022461,-1.8852272033691406
1773163155153658400,12.712658447265625,2.6213600635528564,0.9885358810424805,-1.0102592706680298
1773163155166158300,12.725158447265626,2.277071952819824,1.0134296417236328,-0.16949546337127686
1773163155178658300,12.737658203125,2.2353014945983887,0.6404886245727539,0.36410990357398987
1773163155191158300,12.750158203125,2.5570783615112305,0.37106800079345703,0.9864552021026611
1773163155203658200,12.762658203125,2.8707566261291504,0.28690242767333984,1.520024299621582
1773163155216158200,12.775158203125,2.470212459564209,0.19108295440673828,1.5444979667663574
1773163155228658400,12.787658447265626,1.5667850971221924,0.288665771484375,1.7770640850067139
1773163155241158400,12.800158447265625,0.9714785814285278,0.8301582336425781,1.7885478734970093
1773163155253658400,12.812658447265624,0.9781663417816162,1.4586858749389648,1.5752665996551514
1773163155266158300,12.825158447265625,0.6745327711105347,1.644263744354248,0.9270331263542175
1773163155278658300,12.837658203125,0.15041494369506836,1.8496603965759277,0.5897581577301025
1773163155291158300,12.850158203125,0.06883907318115234,1.988783836364746,0.5136044025421143
1773163155303658200,12.862658203125,0.2241814136505127,1.969675064086914,0.49049484729766846
1773163155316158200,12.875158203125,0.390067458152771,1.8333306312561035,0.4741465151309967
1773163155328658400,12.887658447265625,0.40514588356018066,1.672607421875,0.4561006426811218
1773163155341158400,12.900158447265625,0.1698371171951294,1.2869224548339844,0.5223627090454102
1773163155366158300,12.925158447265625,-0.08929944038391113,0.19230365753173828,0.5708082318305969
1773163155378658300,12.937658203125,-0.45226824283599854,-0.532867431640625,0.7045145034790039
1773163155391158300,12.950158203125,-0.8815668821334839,-1.1885128021240234,0.8735174536705017
1773163155403658200,12.962658203125,-1.3796285390853882,-1.3598251342773438,1.176161289215088
1773163155416158200,12.975158203125,-2.4097561836242676,-1.1242437362670898,1.5596511363983154
1773163155428658400,12.987658447265625,-3.1943857669830322,-0.8980121612548828,1.6798021793365479
1773163155441158400,13.000158447265624,-3.543686628341675,-0.8787803649902344,1.7373403310775757
1773163155453658400,13.012658447265625,-3.5846846103668213,-1.1947498321533203,1.6150033473968506
1773163155466158300,13.025158447265625,-3.225555419921875,-1.3900346755981445,1.6514843702316284
1773163155478658300,13.037658203125,-2.9460978507995605,-1.3974733352661133,1.790083885192871
1773163155491158300,13.050158203125,-3.3173868656158447,-1.3222055435180664,1.799821138381958
1773163155503658200,13.062658203125,-4.008440017700195,-1.4484481811523438,1.3223322629928589
1773163155516158200,13.075158203125,-4.477044105529785,-1.7936267852783203,0.521416187286377
1773163155528658400,13.087658447265625,-4.519598960876465,-2.104583740234375,-0.13765573501586914
1773163155541158400,13.100158447265626,-3.751769542694092,-2.116929054260254,-0.4658554196357727
1773163155553658400,13.112658447265625,-2.1214962005615234,-1.678964614868164,-0.434329092502594
1773163155566158300,13.125158447265624,-0.3120536804199219,-0.9459781646728516,-0.16446733474731445
1773163155578658300,13.137658203125,1.289550542831421,-0.014332771301269531,0.2893367409706116
1773163155591158300,13.150158203125,2.8197953701019287,0.81036376953125,0.742764949798584
1773163155603658200,13.162658203125,4.555730819702148,1.5531768798828125,1.20160710811615
1773163155616158200,13.175158203125,5.469849586486816,2.1039414405822754,1.6499059200286865
1773163155628658400,13.187658447265624,5.264220237731934,2.33853816986084,1.5442308187484741
1773163155641158400,13.200158447265625,3.236276626586914,2.1493921279907227,-0.3604182004928589
1773163155653658400,13.212658447265625,-0.42398059368133545,1.9098639488220215,-2.3174819946289062
1773163155666158300,13.225158447265626,-3.455491065979004,1.4580392837524414,-3.676994800567627
1773163155678658300,13.237658203125,-4.057384490966797,0.3462963104248047,-4.557422161102295
1773163155691158300,13.250158203125,-2.395118236541748,-0.5680274963378906,-4.802983283996582
1773163155703658200,13.262658203125,-0.004958987236022949,-0.4287528991699219,-3.823453426361084
1773163155716158200,13.275158203125,2.203490972518921,-0.05048084259033203,-3.017514705657959
1773163155728658400,13.287658447265626,3.0319108963012695,0.12201786041259766,-2.53643798828125
1773163155741158400,13.300158447265625,2.966033697128296,0.3302907943725586,-1.9448562860488892
1773163155753658400,13.312658447265624,2.8806354999542236,0.3341550827026367,-1.526181697845459
1773163155778658300,13.337658203125,1.930558204650879,-0.12363624572753906,-0.9012914299964905
1773163155791158300,13.350158203125,1.4186208248138428,-0.33325767517089844,-0.42232662439346313
1773163155803658200,13.362658203125,1.1389198303222656,-0.42628955841064453,-0.08129370212554932
1773163155816158200,13.375158203125,0.8881438374519348,-0.40871620178222656,0.09950733184814453
1773163155828658400,13.387658447265625,0.6034961938858032,-0.2314777374267578,0.190260648727417
1773163155841158400,13.400158447265625,0.322648823261261,0.025930404663085938,0.2595372796058655
1773163155853658400,13.412658447265626,0.22141426801681519,0.2267141342163086,0.3400426506996155
1773163155866158300,13.425158447265625,0.32064133882522583,0.3526172637939453,0.39264047145843506
1773163155878658300,13.437658203125,0.49243468046188354,0.17742156982421875,0.5021485686302185
1773163155891158300,13.450158203125,0.8256195783615112,-0.07231521606445312,0.6530440449714661
1773163155903658200,13.462658203125,1.0384389162063599,-0.13782405853271484,0.5420899987220764
1773163155916158200,13.475158203125,1.0801059007644653,-0.005028724670410156,0.8136119842529297
1773163155928658400,13.487658447265625,0.912880539894104,0.025933265686035156,0.823841392993927
1773163155941158400,13.500158447265624,0.44664597511291504,-0.14065170288085938,0.6415724158287048
1773163155953658400,13.512658447265625,-0.057274848222732544,-0.15223407745361328,0.3654322624206543
1773163155966158300,13.525158447265625,-0.14284256100654602,-0.3377208709716797,0.31326937675476074
1773163155978658300,13.537658203125,0.008660003542900085,-0.19422626495361328,0.1494150161743164
1773163155991158300,13.550158203125,0.38884568214416504,0.026190757751464844,-0.057868242263793945
1773163156003658200,13.562658203125,0.6178355813026428,0.14120197296142578,-0.23782801628112793
1773163156016158200,13.575158203125,0.6938107013702393,0.1647796630859375,-0.25532829761505127
1773163156028658400,13.587658447265625,0.3485157787799835,0.14078330993652344,-0.21418452262878418
1773163156041158400,13.600158447265626,-0.04782448709011078,0.0968008041381836,-0.0894080400466919
1773163156053658400,13.612658447265625,-0.38709795475006104,0.0543365478515625,0.1735907793045044
1773163156066158300,13.625158447265624,-0.5253375172615051,-0.01275634765625,0.36830878257751465
1773163156078658300,13.637658203125,-0.5875437259674072,-0.14054489135742188,0.4623490571975708
1773163156091158300,13.650158203125,-0.5316988229751587,-0.1672191619873047,0.6081885099411011
1773163156103658200,13.662658203125,-0.5860986709594727,-0.2614459991455078,0.7785769701004028
1773163156116158200,13.675158203125,-0.6614693403244019,-0.2879648208618164,0.9545633792877197
1773163156128658400,13.687658447265624,-0.741696834564209,-0.19122028350830078,1.2242155075073242
1773163156141158400,13.700158447265625,-0.8274127244949341,-0.09791851043701172,1.416902780532837
1773163156153658400,13.712658447265625,-0.7826046943664551,-0.09292793273925781,1.5004348754882812
1773163156166158300,13.725158447265626,-0.8441373109817505,-0.087249755859375,1.495914340019226
1773163156178658300,13.737658203125,-0.8086305260658264,-0.12091922760009766,1.44740891456604
1773163156191158300,13.750158203125,-0.7218880653381348,-0.13791370391845703,1.4303761720657349
1773163156203658200,13.762658203125,-0.4984542727470398,-0.11783504486083984,1.4062469005584717
1773163156216158200,13.775158203125,-0.30620038509368896,-0.13022708892822266,1.3650544881820679
1773163156228658400,13.787658447265626,-0.05517446994781494,-0.14755535125732422,1.2915829420089722
1773163156241158400,13.800158447265625,-0.07817459106445312,-0.23062515258789062,1.1620019674301147
1773163156253658400,13.812658447265624,-0.2563362717628479,-0.30081653594970703,1.0716723203659058
1773163156266158300,13.825158447265625,-0.386657178401947,-0.5172739028930664,1.1565250158309937
1773163156278658300,13.837658203125,-0.11241394281387329,-0.8497180938720703,1.2204952239990234
1773163156303658200,13.862658203125,0.3320435881614685,-1.506667137145996,1.0920774936676025
1773163156316158200,13.875158203125,-0.022704780101776123,-1.9258537292480469,0.39744842052459717
1773163156328658400,13.887658447265625,-1.2326698303222656,-2.724262237548828,-0.07178211212158203
1773163156341158400,13.900158447265625,-2.25607967376709,-3.2889604568481445,-0.5406885147094727
1773163156353658400,13.912658447265626,-2.950329303741455,-3.298685073852539,-0.6935076713562012
1773163156366158300,13.925158447265625,-3.100351333618164,-2.4704818725585938,-0.29253435134887695
1773163156378658300,13.937658203125,-3.0149035453796387,-1.585280418395996,0.25741374492645264
1773163156391158300,13.950158203125,-2.5151100158691406,-0.9982318878173828,0.5063014030456543
1773163156403658200,13.962658203125,-2.1244328022003174,-0.5510492324829102,0.6765561103820801
1773163156416158200,13.975158203125,-1.5907554626464844,-0.1741943359375,0.6668543815612793
1773163156428658400,13.987658447265625,-0.9972182512283325,0.2185840606689453,0.5887346267700195
1773163156441158400,14.000158447265624,-0.8319481015205383,0.6374549865722656,0.670917272567749
1773163156453658400,14.012658447265625,-0.4543713331222534,0.952479362487793,0.5764832496643066
1773163156466158300,14.025158447265625,-0.0648348331451416,0.9451847076416016,0.32674646377563477
1773163156478658300,14.037658203125,0.2281501293182373,0.6559314727783203,-0.08120465278625488
1773163156491158300,14.050158203125,0.7954186201095581,0.01916217803955078,-0.839465856552124
1773163156516158200,14.075158203125,2.646754026412964,-0.8208656311035156,-1.7593443393707275
1773163156528658400,14.087658447265625,2.2732386589050293,-0.6221961975097656,-1.1364188194274902
1773163156541158400,14.100158447265626,0.9051666259765625,-0.3838062286376953,0.08140939474105835
1773163156553658400,14.112658447265625,0.5247353315353394,-0.7276134490966797,0.42588239908218384
1773163156566158300,14.125158447265624,0.4160197973251343,-0.7692546844482422,0.5641368627548218
1773163156578658300,14.137658203125,0.3948690891265869,-0.3686542510986328,0.23530028760433197
1773163156591158300,14.150158203125,0.7276701927185059,0.2290668487548828,-0.04621446132659912
1773163156603658200,14.162658203125,1.0755550861358643,0.5868721008300781,-0.15813922882080078
1773163156616158200,14.175158203125,1.351959228515625,0.7972326278686523,-0.21322880685329437
1773163156628658400,14.187658447265624,1.3823189735412598,0.8349637985229492,-0.5346187949180603
1773163156641158400,14.200158447265625,1.1332546472549438,1.0044660568237305,-0.9741235971450806
1773163156653658400,14.212658447265625,0.5904483795166016,1.3472375869750977,-1.3622561693191528
1773163156666158300,14.225158447265626,0.29928088188171387,1.7733259201049805,-1.458142638206482
1773163156678658300,14.237658203125,0.4035954475402832,2.005002498626709,-1.5814802646636963
1773163156691158300,14.250158203125,0.5068973302841187,2.1163992881774902,-1.8749113082885742
1773163156703658200,14.262658203125,0.6400316953659058,2.4631900787353516,-1.3754699230194092
1773163156716158200,14.275158203125,0.6116683483123779,2.5414953231811523,-1.1899477243423462
1773163156728658400,14.287658447265626,0.732447624206543,2.4050698280334473,-1.2853630781173706
1773163156741158400,14.300158447265625,0.7459421157836914,2.107861042022705,-1.6256238222122192
1773163156753658400,14.312658447265624,0.7360669374465942,1.8761835098266602,-1.5233500003814697
1773163156766158300,14.325158447265625,0.6190550327301025,1.534402847290039,-1.423114538192749
1773163156778658300,14.337658203125,0.34008824825286865,1.3237485885620117,-1.1011285781860352
1773163156791158300,14.350158203125,0.1783130168914795,1.1266679763793945,-0.6912754774093628
1773163156803658200,14.362658203125,-0.01982402801513672,0.7328691482543945,-0.056447722017765045
1773163156816158200,14.375158203125,-0.13936054706573486,-0.0497894287109375,0.8991605043411255
1773163156828658400,14.387658447265625,-0.43678534030914307,-1.0646600723266602,1.990552544593811
1773163156841158400,14.400158447265625,-0.9999749660491943,-2.023334503173828,3.124415636062622
1773163156853658400,14.412658447265626,-2.0150327682495117,-2.5582714080810547,3.8562252521514893
1773163156866158300,14.425158447265625,-3.187692642211914,-2.8666563034057617,4.229433536529541
1773163156878658300,14.437658203125,-3.7332875728607178,-3.003108024597168,3.935802459716797
1773163156891158300,14.450158203125,-3.8334126472473145,-2.4509506225585938,2.750155448913574
1773163156903658200,14.462658203125,-3.8650097846984863,-1.8911981582641602,1.3097162246704102
1773163156916158200,14.475158203125,-3.884502410888672,-1.2199592590332031,0.38869282603263855
1773163156928658400,14.487658447265625,-3.2338271141052246,-0.6311359405517578,-0.07935437560081482
1773163156941158400,14.500158447265624,-1.6059170961380005,-0.33293724060058594,-0.6708076000213623
1773163156953658400,14.512658447265625,0.23878920078277588,-0.7048568725585938,-1.1262212991714478
1773163156966158300,14.525158447265625,1.3550397157669067,-1.575901985168457,-1.114985704421997
1773163156978658300,14.537658203125,1.8537195920944214,-2.023862838745117,-0.9083749055862427
1773163156991158300,14.550158203125,2.3598685264587402,-1.5736160278320312,-0.5988011360168457
1773163157003658200,14.562658203125,3.7305140495300293,-0.9226016998291016,-0.7356373071670532
1773163157016158200,14.575158203125,4.530706405639648,-0.16741085052490234,-0.9534274339675903
1773163157028658400,14.587658447265625,2.814741373062134,0.3046293258666992,-2.1303787231445312
1773163157041158400,14.600158447265626,-0.6270363330841064,0.8738822937011719,-4.454381942749023
1773163157053658400,14.612658447265625,-2.410102128982544,1.4733505249023438,-6.310837745666504
1773163157066158300,14.625158447265624,-1.7621886730194092,1.7553911209106445,-7.034155368804932
1773163157078658300,14.637658203125,-1.0358781814575195,1.2063674926757812,-6.68569803237915
1773163157091158300,14.650158203125,0.3217639923095703,0.7036027908325195,-5.6486287117004395
1773163157103658200,14.662658203125,2.3811087608337402,0.589268684387207,-3.8310952186584473
1773163157116158200,14.675158203125,3.7921226024627686,0.1484699249267578,-2.142530918121338
1773163157128658400,14.687658447265624,4.212252616882324,-0.6799726486206055,-0.8795580863952637
1773163157141158400,14.700158447265625,3.971531867980957,-1.489588737487793,0.12163922190666199
1773163157153658400,14.712658447265625,3.2323949337005615,-1.665022850036621,0.8411116600036621
1773163157166158300,14.725158447265626,2.075131416320801,-1.2556371688842773,1.1871113777160645
1773163157178658300,14.737658203125,0.8838882446289062,-0.31366729736328125,1.5431993007659912
1773163157191158300,14.750158203125,0.2091219425201416,0.5968112945556641,2.158663749694824
1773163157203658200,14.762658203125,-0.1872704029083252,0.7075948715209961,2.436805486679077
1773163157216158200,14.775158203125,-0.16627919673919678,0.3218708038330078,2.2224135398864746
1773163157228658400,14.787658447265626,0.12668168544769287,0.08713150024414062,1.6302404403686523
1773163157241158400,14.800158447265625,0.5810351967811584,0.11871337890625,1.1976289749145508
1773163157253658400,14.812658447265624,1.0630348920822144,0.24026012420654297,0.9954140782356262
1773163157266158300,14.825158447265625,1.5459680557250977,0.46096038818359375,0.8623218536376953
1773163157278658300,14.837658203125,1.9647231101989746,0.5429391860961914,0.6349657773971558
1773163157291158300,14.850158203125,2.0389087200164795,0.45156002044677734,0.22973418235778809
1773163157303658200,14.862658203125,1.697709083557129,0.38729190826416016,-0.17035412788391113
1773163157316158200,14.875158203125,1.1331183910369873,0.3881521224975586,-0.686332106590271
1773163157328658400,14.887658447265625,0.54407799243927,0.48542213439941406,-1.032762050628662
1773163157341158400,14.900158447265625,0.06290759146213531,0.5924758911132812,-1.2192509174346924
1773163157353658400,14.912658447265626,0.08199124038219452,0.7484903335571289,-1.186464786529541
1773163157366158300,14.925158447265625,0.5781581997871399,0.9129533767700195,-1.3107109069824219
1773163157378658300,14.937658203125,1.0586081743240356,0.8736419677734375,-1.3616187572479248
1773163157391158300,14.950158203125,1.111541748046875,0.6531906127929688,-1.4800902605056763
1773163157403658200,14.962658203125,0.5857058763504028,0.31259822845458984,-1.6843184232711792
1773163157416158200,14.975158203125,-0.32673802971839905,0.09916210174560547,-1.5430821180343628
1773163157428658400,14.987658447265625,-0.68770432472229,-0.00026416778564453125,-1.2470358610153198
1773163157441158400,15.000158447265624,-0.5602371692657471,-0.053436279296875,-0.7160583734512329
1773163157453658400,15.012658447265625,-0.003535062074661255,-0.015234947204589844,0.19322311878204346
1773163157466158300,15.025158447265625,0.3531239628791809,-0.09469795227050781,0.8924932479858398
1773163157478658300,15.037658203125,0.39018428325653076,-0.1962575912475586,1.1339653730392456
1773163157491158300,15.050158203125,0.15001815557479858,-0.16318607330322266,1.1489622592926025
1773163157503658200,15.062658203125,-0.18147099018096924,-0.18734264373779297,0.8280379772186279
1773163157516158200,15.075158203125,-0.4529704451560974,-0.180938720703125,0.3629108667373657
1773163157528658400,15.087658447265625,-0.5592107772827148,-0.14890575408935547,0.0058209896087646484
1773163157541158400,15.100158447265626,-0.6035931706428528,-0.16428565979003906,-0.026178598403930664
1773163157553658400,15.112658447265625,-0.351352334022522,-0.15389060974121094,0.1280961036682129
1773163157566158300,15.125158447265624,-0.6437804102897644,-0.1786956787109375,0.3865041732788086
1773163157578658300,15.137658203125,-0.46562135219573975,-0.21692752838134766,0.6285916566848755
1773163157591158300,15.150158203125,-0.5150684118270874,-0.30762481689453125,0.8710118532180786
1773163157603658200,15.162658203125,-0.5405457615852356,-0.34285831451416016,1.1067156791687012
1773163157616158200,15.175158203125,-0.5245277881622314,-0.25434112548828125,1.3101661205291748
1773163157628658400,15.187658447265624,-0.6215424537658691,-0.13646793365478516,1.3931249380111694
1773163157641158400,15.200158447265625,-0.5961081981658936,-0.1427450180053711,1.327427864074707
1773163157653658400,15.212658447265625,-0.5763095617294312,-0.295501708984375,1.285779356956482
1773163157666158300,15.225158447265626,-0.558846652507782,-0.4384946823120117,1.4180172681808472
1773163157678658300,15.237658203125,-0.30939674377441406,-0.4470558166503906,1.7376396656036377
1773163157691158300,15.250158203125,0.12063980102539062,-0.5281162261962891,1.9574538469314575
1773163157703658200,15.262658203125,-0.4219106435775757,-1.4469375610351562,2.2257025241851807
1773163157716158200,15.275158203125,-0.076943039894104,-1.9994611740112305,2.2908902168273926
1773163157728658400,15.287658447265626,-0.1712510585784912,-2.1768617630004883,2.4853663444519043
1773163157741158400,15.300158447265625,-0.4949679374694824,-1.884293556213379,2.541344165802002
1773163157753658400,15.312658447265624,-1.0593953132629395,-2.2985754013061523,2.188488006591797
1773163157766158300,15.325158447265625,-1.5320919752120972,-3.0132856369018555,1.7920165061950684
1773163157778658300,15.337658203125,-1.6952478885650635,-3.1583194732666016,1.7383332252502441
1773163157791158300,15.350158203125,-1.845308542251587,-2.759319305419922,2.0016026496887207
1773163157803658200,15.362658203125,-1.9546924829483032,-2.188913345336914,2.2576780319213867
1773163157816158200,15.375158203125,-2.063577890396118,-1.8488845825195312,2.3017334938049316
1773163157828658400,15.387658447265625,-2.2601163387298584,-1.395059585571289,2.1750168800354004
1773163157841158400,15.400158447265625,-2.6424622535705566,-0.8521413803100586,1.882561206817627
1773163157853658400,15.412658447265626,-3.1852033138275146,-0.3192462921142578,1.554229974746704
1773163157866158300,15.425158447265625,-3.1920430660247803,0.060011863708496094,1.139307975769043
1773163157878658300,15.437658203125,-2.782594680786133,0.3189859390258789,0.7799685001373291
1773163157891158300,15.450158203125,-1.515209436416626,0.5047836303710938,0.6797492504119873
1773163157903658200,15.462658203125,0.31648707389831543,0.2642393112182617,0.4260883331298828
1773163157916158200,15.475158203125,2.1277832984924316,-0.4542198181152344,-0.025645136833190918
1773163157928658400,15.487658447265625,3.7900826930999756,-1.7931346893310547,-0.75420081615448
1773163157941158400,15.500158447265624,5.358612060546875,-2.7664527893066406,-1.3008551597595215
1773163157953658400,15.512658447265625,6.7286376953125,-3.3707427978515625,-1.695180892944336
1773163157966158300,15.525158447265625,6.888585090637207,-3.306467056274414,-1.4342613220214844
1773163157978658300,15.537658203125,5.252626419067383,-2.1256494522094727,-0.23910224437713623
1773163157991158300,15.550158203125,3.1878414154052734,-0.630950927734375,0.9569078683853149
1773163158003658200,15.562658203125,2.185518264770508,0.3750143051147461,1.6475329399108887
1773163158016158200,15.575158203125,2.340925455093384,0.4441719055175781,1.4511749744415283
1773163158028658400,15.587658447265625,3.2252135276794434,0.5866899490356445,1.6360301971435547
1773163158041158400,15.600158447265626,3.639860153198242,0.6524295806884766,1.6822105646133423
1773163158053658400,15.612658447265625,3.14701247215271,0.5100440979003906,1.4230320453643799
1773163158066158300,15.625158447265624,2.5323452949523926,0.42189502716064453,0.9987966418266296
1773163158078658300,15.637658203125,2.0748367309570312,0.33735179901123047,0.43584224581718445
1773163158091158300,15.650158203125,1.752052664756775,0.4861335754394531,0.3812068998813629
1773163158103658200,15.662658203125,1.4367012977600098,0.6458835601806641,0.06860613822937012
1773163158116158200,15.675158203125,1.3700790405273438,1.0580673217773438,-0.03874339163303375
1773163158128658400,15.687658447265624,1.3409712314605713,1.4663972854614258,-0.09091413021087646
1773163158141158400,15.700158447265625,1.819844365119934,1.698310375213623,-0.32600972056388855
1773163158153658400,15.712658447265625,2.2272183895111084,1.6776490211486816,-0.851041316986084
1773163158166158300,15.725158447265626,2.3653931617736816,1.6354103088378906,-1.2050927877426147
1773163158178658300,15.737658203125,2.210010290145874,1.4443359375,-1.2796095609664917
1773163158191158300,15.750158203125,1.9764370918273926,1.172694206237793,-1.4314625263214111
1773163158203658200,15.762658203125,1.6055119037628174,0.6965761184692383,-1.4295387268066406
1773163158216158200,15.775158203125,0.9868700504302979,0.3507099151611328,-1.41580069065094
1773163158228658400,15.787658447265626,0.4783741235733032,-0.04361438751220703,-1.2555886507034302
1773163158241158400,15.800158447265625,0.351620078086853,-0.5400114059448242,-0.9397000670433044
1773163158253658400,15.812658447265624,0.10177946090698242,-1.1815500259399414,-0.6288704872131348
1773163158266158300,15.825158447265625,-0.567126989364624,-1.4825859069824219,-0.22140765190124512
1773163158278658300,15.837658203125,-1.2837305068969727,-1.327540397644043,0.0022312402725219727
1773163158291158300,15.850158203125,-1.5309782028198242,-0.8572235107421875,0.39660897850990295
1773163158303658200,15.862658203125,-1.321120262145996,-0.21663761138916016,0.5981200933456421
1773163158316158200,15.875158203125,-1.2596027851104736,0.3130197525024414,0.5968097448348999
1773163158328658400,15.887658447265625,-1.0828754901885986,0.7508630752563477,0.521151602268219
1773163158341158400,15.900158447265625,-0.6714920997619629,0.948455810546875,0.492206871509552
1773163158353658400,15.912658447265626,0.034719228744506836,0.9368820190429688,0.6087320446968079
1773163158366158300,15.925158447265625,0.9964685440063477,0.7597570419311523,0.8061226606369019
1773163158378658300,15.937658203125,1.9223462343215942,0.5366792678833008,1.1119811534881592
1773163158391158300,15.950158203125,2.5922608375549316,0.47685718536376953,1.5293669700622559
1773163158403658200,15.962658203125,2.9298768043518066,0.4359769821166992,1.9654936790466309
1773163158416158200,15.975158203125,2.987398624420166,-0.1097879409790039,2.3295483589172363
1773163158428658400,15.987658447265625,2.698092460632324,-2.0066633224487305,2.762646198272705
1773163158441158400,16.000158447265626,2.4371397495269775,-4.352884292602539,3.8480215072631836
1773163158453658400,16.012658447265625,1.5654172897338867,-6.129389762878418,4.053866386413574
1773163158466158300,16.025158447265625,-0.4013251066207886,-6.563772201538086,1.7217175960540771
1773163158478658300,16.037658203125,-2.6852669715881348,-4.214333534240723,-0.8049236536026001
1773163158491158300,16.050158203125,-2.807650089263916,-0.8142995834350586,-3.342299699783325
1773163158503658200,16.062658203125,-1.6201034784317017,1.407815933227539,-5.758219242095947
