time,seconds_elapsed,z,y,x
1773163142550533400,0.109533447265625,9.290702819824219,1.0037055015563965,2.974187135696411
1773163142575533300,0.134533203125,9.328158378601074,1.2545579671859741,2.7535297870635986
1773163142588033300,0.147033203125,9.313727378845215,1.1509939432144165,2.846064329147339
1773163142600533200,0.159533203125,9.28269100189209,1.0910513401031494,2.968441963195801
1773163142613033200,0.172033203125,9.257556915283203,1.081083059310913,3.0494704246520996
1773163142625533200,0.184533203125,9.259535789489746,1.0736768245697021,3.0460801124572754
1773163142638033400,0.197033447265625,9.294939994812012,1.0623269081115723,2.9403984546661377
1773163142650533400,0.209533447265625,9.346054077148438,1.0246238708496094,2.787794589996338
1773163142663033300,0.222033447265625,9.390769958496094,0.974761426448822,2.6521048545837402
1773163142675533300,0.234533203125,9.421026229858398,0.931506335735321,2.5587003231048584
1773163142688033300,0.247033203125,9.44896125793457,0.902039647102356,2.4645168781280518
1773163142700533200,0.259533203125,9.487823486328125,0.8467214107513428,2.331237316131592
1773163142713033200,0.272033203125,9.527430534362793,0.7530657649040222,2.198033571243286
1773163142725533200,0.284533203125,9.557196617126465,0.6661786437034607,2.0944128036499023
1773163142738033400,0.297033447265625,9.581450462341309,0.5728954672813416,2.0094759464263916
1773163142750533400,0.309533447265625,9.596354484558105,0.473004549741745,1.9638323783874512
1773163142763033300,0.322033447265625,9.605276107788086,0.4312320351600647,1.9295339584350586
1773163142775533300,0.334533203125,9.620421409606934,0.42133110761642456,1.8548190593719482
1773163142788033300,0.347033203125,9.64168643951416,0.4492019712924957,1.7339229583740234
1773163142800533200,0.359533203125,9.665562629699707,0.4933299124240875,1.5823787450790405
1773163142813033200,0.372033203125,9.68335247039795,0.5282596945762634,1.457395076751709
1773163142825533200,0.384533203125,9.693673133850098,0.5533900856971741,1.377259373664856
1773163142838033400,0.397033447265625,9.695114135742188,0.5574942231178284,1.3654147386550903
1773163142850533400,0.409533447265625,9.691579818725586,0.5616996884346008,1.38857901096344
1773163142863033300,0.422033447265625,9.6884183883667,0.580231785774231,1.4029541015625
1773163142875533300,0.434533203125,9.687433242797852,0.6019059419631958,1.4006198644638062
1773163142888033300,0.447033203125,9.6879301071167,0.61644446849823,1.3908320665359497
1773163142900533200,0.459533203125,9.691424369812012,0.6120176911354065,1.36825692653656
1773163142913033200,0.472033203125,9.697670936584473,0.6007835268974304,1.3283880949020386
1773163142925533200,0.484533203125,9.704371452331543,0.5994540452957153,1.2791467905044556
1773163142938033400,0.497033447265625,9.710148811340332,0.6007858514785767,1.2338794469833374
1773163142950533400,0.509533447265625,9.713361740112305,0.6039516925811768,1.2067358493804932
1773163142963033300,0.522033447265625,9.714147567749023,0.6113238334655762,1.1966650485992432
1773163142975533300,0.534533203125,9.71279239654541,0.6134869456291199,1.2065215110778809
1773163142988033300,0.547033203125,9.710851669311523,0.6168109774589539,1.2203667163848877
1773163143000533200,0.559533203125,9.710184097290039,0.6187101602554321,1.2247084379196167
1773163143013033200,0.572033203125,9.711869239807129,0.6115718483924866,1.2148947715759277
1773163143025533200,0.584533203125,9.715568542480469,0.5943983197212219,1.1936503648757935
1773163143038033400,0.597033447265625,9.721009254455566,0.568053662776947,1.1617531776428223
1773163143050533400,0.609533447265625,9.72743034362793,0.5368188619613647,1.1221842765808105
1773163143063033300,0.622033447265625,9.734691619873047,0.5027264952659607,1.0739772319793701
1773163143075533300,0.634533203125,9.741045951843262,0.47738125920295715,1.0268949270248413
1773163143088033300,0.647033203125,9.744953155517578,0.46630531549453735,0.9943993091583252
1773163143100533200,0.659533203125,9.742162704467773,0.45291510224342346,1.0273815393447876
1773163143113033200,0.672033203125,9.740588188171387,0.49563851952552795,1.0225868225097656
1773163143125533200,0.684533203125,9.738627433776855,0.5526028871536255,1.0120019912719727
1773163143138033400,0.697033447265625,9.737375259399414,0.5859290361404419,1.0052882432937622
1773163143150533400,0.709533447265625,9.736906051635742,0.5986632704734802,1.0023200511932373
1773163143163033300,0.722033447265625,9.738546371459961,0.6048315167427063,0.9824866652488708
1773163143175533300,0.734533203125,9.741875648498535,0.6040014028549194,0.9494420289993286
1773163143188033300,0.747033203125,9.745579719543457,0.5990082025527954,0.9139151573181152
1773163143200533200,0.759533203125,9.746763229370117,0.5984464287757874,0.9015808701515198
1773163143213033200,0.772033203125,9.74335765838623,0.6119310259819031,0.9289216995239258
1773163143225533200,0.784533203125,9.733929634094238,0.6470239758491516,1.0011839866638184
1773163143238033400,0.797033447265625,9.725834846496582,0.6702603697776794,1.0626721382141113
1773163143250533400,0.809533447265625,9.72178840637207,0.672081708908081,1.097960114479065
1773163143263033300,0.822033447265625,9.72265338897705,0.6537157297134399,1.1013879776000977
1773163143275533300,0.834533203125,9.7260103225708,0.6279348731040955,1.0866436958312988
1773163143288033300,0.847033203125,9.728626251220703,0.6133012175559998,1.071484923362732
1773163143300533200,0.859533203125,9.728597640991211,0.6090661287307739,1.074160099029541
1773163143313033200,0.872033203125,9.726259231567383,0.6124770641326904,1.0932246446609497
1773163143325533200,0.884533203125,9.721139907836914,0.6199503540992737,1.1337890625
1773163143338033400,0.897033447265625,9.7136812210083,0.6233711838722229,1.1942356824874878
1773163143350533400,0.909533447265625,9.706812858581543,0.6101258993148804,1.2553600072860718
1773163143363033300,0.922033447265625,9.70351791381836,0.5721147656440735,1.2980042695999146
1773163143375533300,0.934533203125,9.704540252685547,0.5135210156440735,1.3147488832473755
1773163143388033300,0.947033203125,9.707664489746094,0.45262202620506287,1.3140654563903809
1773163143400533200,0.959533203125,9.711426734924316,0.3911263644695282,1.3059836626052856
1773163143413033200,0.972033203125,9.713099479675293,0.33053746819496155,1.3102785348892212
1773163143425533200,0.984533203125,9.7115478515625,0.27410271763801575,1.33457612991333
1773163143438033400,0.997033447265625,9.705774307250977,0.22412964701652527,1.384950041770935
1773163143450533400,1.009533447265625,9.695574760437012,0.18055109679698944,1.4606870412826538
1773163143463033300,1.022033447265625,9.682928085327148,0.1392778754234314,1.5465762615203857
1773163143475533300,1.034533203125,9.67114543914795,0.09175284951925278,1.6220064163208008
1773163143488033300,1.047033203125,9.663226127624512,0.03517477586865425,1.6706922054290771
1773163143500533200,1.059533203125,9.656855583190918,-0.021003082394599915,1.7073616981506348
1773163143513033200,1.072033203125,9.648030281066895,-0.06967335939407349,1.7552906274795532
1773163143525533200,1.084533203125,9.635974884033203,-0.11042114347219467,1.8182915449142456
1773163143538033400,1.097033447265625,9.621849060058594,-0.15827423334121704,1.888214111328125
1773163143550533400,1.109533447265625,9.607501983642578,-0.2165296971797943,1.9543297290802002
1773163143563033300,1.122033447265625,9.59414005279541,-0.28248438239097595,2.0107357501983643
1773163143575533300,1.134533203125,9.58043384552002,-0.34527844190597534,2.0655369758605957
1773163143588033300,1.147033203125,9.56507682800293,-0.40036699175834656,2.1258926391601562
1773163143600533200,1.159533203125,9.549552917480469,-0.45219042897224426,2.184481620788574
1773163143613033200,1.172033203125,9.533486366271973,-0.5002997517585754,2.2433719635009766
1773163143625533200,1.184533203125,9.516929626464844,-0.5444713830947876,2.3026010990142822
1773163143638033400,1.197033447265625,9.497631072998047,-0.5814865231513977,2.3721864223480225
1773163143650533400,1.209533447265625,9.47356128692627,-0.6094173192977905,2.459803819656372
1773163143663033300,1.222033447265625,9.446653366088867,-0.6375404596328735,2.5543441772460938
1773163143675533300,1.234533203125,9.422895431518555,-0.6754902601242065,2.6311867237091064
1773163143688033300,1.247033203125,9.407227516174316,-0.7240749597549438,2.673980236053467
1773163143700533200,1.259533203125,9.395968437194824,-0.7778847217559814,2.6983447074890137
1773163143713033200,1.272033203125,9.383614540100098,-0.8280476331710815,2.7262632846832275
1773163143725533200,1.284533203125,9.363484382629395,-0.8689777255058289,2.7821640968322754
1773163143738033400,1.297033447265625,9.332460403442383,-0.9071983695030212,2.8727262020111084
1773163143750533400,1.309533447265625,9.290264129638672,-0.9517335891723633,2.992589235305786
1773163143763033300,1.322033447265625,9.238733291625977,-1.0099834203720093,3.129875659942627
1773163143775533300,1.334533203125,9.180217742919922,-1.0831471681594849,3.2742607593536377
1773163143788033300,1.347033203125,9.113865852355957,-1.1611948013305664,3.4292068481445312
1773163143800533200,1.359533203125,9.035250663757324,-1.2339060306549072,3.6072301864624023
1773163143813033200,1.372033203125,8.936348915100098,-1.2986514568328857,3.82433819770813
1773163143825533200,1.384533203125,8.802704811096191,-1.3589527606964111,4.103171348571777
1773163143838033400,1.397033447265625,8.619244575500488,-1.4209016561508179,4.456461429595947
1773163143850533400,1.409533447265625,8.375710487365723,-1.4801219701766968,4.881302356719971
1773163143863033300,1.422033447265625,8.070873260498047,-1.5271052122116089,5.357175350189209
1773163143875533300,1.434533203125,7.699584484100342,-1.568116545677185,5.867519855499268
1773163143888033300,1.447033203125,7.248690605163574,-1.6147946119308472,6.404631614685059
1773163143900533200,1.459533203125,6.706476211547852,-1.683537244796753,6.954083442687988
1773163143913033200,1.472033203125,6.069858074188232,-1.7828763723373413,7.493234634399414
1773163143925533200,1.484533203125,5.338759899139404,-1.9269218444824219,7.997187614440918
1773163143938033400,1.497033447265625,4.530233860015869,-2.128652334213257,8.433042526245117
1773163143950533400,1.509533447265625,3.6908371448516846,-2.384490489959717,8.767115592956543
1773163143963033300,1.522033447265625,2.901258945465088,-2.678105354309082,8.976683616638184
1773163143975533300,1.534533203125,2.2042019367218018,-2.9913077354431152,9.075459480285645
1773163143988033300,1.547033203125,1.6261194944381714,-3.306295394897461,9.088153839111328
1773163144000533200,1.559533203125,1.16843843460083,-3.6158130168914795,9.040520668029785
1773163144013033200,1.572033203125,0.8215351700782776,-3.9031436443328857,8.958847999572754
1773163144025533200,1.584533203125,0.5789850354194641,-4.161496639251709,8.86098861694336
1773163144038033400,1.597033447265625,0.4344415068626404,-4.378329753875732,8.764238357543945
1773163144050533400,1.609533447265625,0.35930970311164856,-4.542769908905029,8.683577537536621
1773163144063033300,1.622033447265625,0.3338800072669983,-4.657787322998047,8.623452186584473
1773163144075533300,1.634533203125,0.3408068120479584,-4.734886169433594,8.58108901977539
1773163144088033300,1.647033203125,0.3556700646877289,-4.77996826171875,8.55545425415039
1773163144100533200,1.659533203125,0.34143003821372986,-4.779470443725586,8.556312561035156
1773163144113033200,1.672033203125,0.2804870009422302,-4.726147174835205,8.58808708190918
1773163144125533200,1.684533203125,0.20571646094322205,-4.638314723968506,8.637945175170898
1773163144138033400,1.697033447265625,0.13160787522792816,-4.557940483093262,8.682064056396484
1773163144150533400,1.709533447265625,0.06929030269384384,-4.5391082763671875,8.692646026611328
1773163144163033300,1.722033447265625,0.13090075552463531,-4.538535118103027,8.69223403930664
1773163144175533300,1.734533203125,0.20517714321613312,-4.494638919830322,8.713582038879395
1773163144188033300,1.747033203125,0.22001685202121735,-4.423723220825195,8.74943733215332
1773163144200533200,1.759533203125,0.2087540179491043,-4.354626178741455,8.784305572509766
1773163144213033200,1.772033203125,0.19509631395339966,-4.307559967041016,8.807795524597168
1773163144225533200,1.784533203125,0.190019428730011,-4.311609268188477,8.805924415588379
1773163144238033400,1.797033447265625,0.1640620082616806,-4.354467391967773,8.785332679748535
1773163144250533400,1.809533447265625,0.10427626967430115,-4.405268669128418,8.760886192321777
1773163144263033300,1.822033447265625,0.046999264508485794,-4.443614959716797,8.741994857788086
1773163144288033300,1.847033203125,0.0719636082649231,-4.537347793579102,8.69354248046875
1773163144353658400,1.912658447265625,0.18444673717021942,-4.698296546936035,8.605950355529785
1773163144366158300,1.925158447265625,0.19001169502735138,-4.73230504989624,8.587175369262695
1773163144378658300,1.937658203125,0.20862865447998047,-4.774957656860352,8.563098907470703
1773163144391158300,1.950158203125,0.21561093628406525,-4.828700065612793,8.532734870910645
1773163144403658200,1.962658203125,0.22560280561447144,-4.915780067443848,8.482605934143066
1773163144416158200,1.975158203125,0.24118752777576447,-5.036669731140137,8.410956382751465
1773163144428658400,1.987658447265625,0.2592889070510864,-5.172086238861084,8.327825546264648
1773163144441158400,2.000158447265625,0.23202544450759888,-5.3100481033325195,8.241354942321777
1773163144453658400,2.012658447265625,0.22642561793327332,-5.4374542236328125,8.158015251159668
1773163144466158300,2.025158447265625,0.23138608038425446,-5.553323268890381,8.079445838928223
1773163144478658300,2.037658203125,0.24629294872283936,-5.674725532531738,7.994197845458984
1773163144491158300,2.050158203125,0.2746420204639435,-5.817068099975586,7.890289306640625
1773163144503658200,2.062658203125,0.304473876953125,-5.9732184410095215,7.771636962890625
1773163144516158200,2.075158203125,0.321440726518631,-6.129881858825684,7.6479811668396
1773163144528658400,2.087658447265625,0.35547319054603577,-6.275459289550781,7.527459144592285
1773163144541158400,2.100158447265625,0.40720292925834656,-6.429446220397949,7.393699645996094
1773163144553658400,2.112658447265625,0.45533931255340576,-6.631747722625732,7.209921836853027
1773163144566158300,2.125158447265625,0.5142642259597778,-6.882685661315918,6.966674327850342
1773163144578658300,2.137658203125,0.5816987752914429,-7.173731327056885,6.661050319671631
1773163144591158300,2.150158203125,0.6439099311828613,-7.4853901863098145,6.302752494812012
1773163144603658200,2.162658203125,0.6851756572723389,-7.82042121887207,5.877239227294922
1773163144616158200,2.175158203125,0.665697455406189,-8.194960594177246,5.3450775146484375
1773163144628658400,2.187658447265625,0.6071130633354187,-8.579389572143555,4.711249351501465
1773163144641158400,2.200158447265625,0.5464697480201721,-8.892060279846191,4.099149227142334
1773163144653658400,2.212658447265625,0.50759357213974,-9.070149421691895,3.6939303874969482
1773163144666158300,2.225158447265625,0.5199559330940247,-9.107622146606445,3.598785638809204
1773163144678658300,2.237658203125,0.5172622203826904,-9.103675842285156,3.6091439723968506
1773163144691158300,2.250158203125,0.5266287326812744,-9.108612060546875,3.595306873321533
1773163144703658200,2.262658203125,0.5542229413986206,-9.11068344116211,3.5858988761901855
1773163144716158200,2.275158203125,0.5736461281776428,-9.106606483459473,3.5931925773620605
1773163144728658400,2.287658447265625,0.5826769471168518,-9.098464012145996,3.6123173236846924
1773163144741158400,2.300158447265625,0.5847666263580322,-9.093132972717285,3.6253793239593506
1773163144753658400,2.312658447265625,0.5902529954910278,-9.100122451782227,3.6069014072418213
1773163144766158300,2.325158447265625,0.6083501577377319,-9.11385440826416,3.569023370742798
1773163144778658300,2.337658203125,0.6222955584526062,-9.12900447845459,3.527665853500366
1773163144791158300,2.350158203125,0.6271752119064331,-9.142773628234863,3.4909496307373047
1773163144803658200,2.362658203125,0.6200302243232727,-9.154829025268555,3.4604992866516113
1773163144816158200,2.375158203125,0.5979344844818115,-9.1602783203125,3.449949026107788
1773163144828658400,2.387658447265625,0.5661126375198364,-9.162887573242188,3.448394298553467
1773163144841158400,2.400158447265625,0.5321120619773865,-9.166234970092773,3.444906234741211
1773163144853658400,2.412658447265625,0.49684539437294006,-9.17037582397461,3.4391489028930664
1773163144866158300,2.425158447265625,0.4612303078174591,-9.173579216003418,3.4355640411376953
1773163144878658300,2.437658203125,0.4283028244972229,-9.17216682434082,3.4435908794403076
1773163144891158300,2.450158203125,0.3900328278541565,-9.162318229675293,3.4742164611816406
1773163144903658200,2.462658203125,0.3437359929084778,-9.145349502563477,3.5234649181365967
1773163144916158200,2.475158203125,0.27180081605911255,-9.130898475646973,3.5669593811035156
1773163144928658400,2.487658447265625,0.17435592412948608,-9.16635513305664,3.4810798168182373
1773163144941158400,2.500158447265625,0.13659879565238953,-9.224638938903809,3.3253235816955566
1773163144953658400,2.512658447265625,0.09611029177904129,-9.29788875579834,3.1161539554595947
1773163144966158300,2.525158447265625,0.07177015393972397,-9.379563331604004,2.8616487979888916
1773163144978658300,2.537658203125,0.0845104306936264,-9.456122398376465,2.597111463546753
1773163144991158300,2.550158203125,0.10215670615434647,-9.524524688720703,2.333106756210327
1773163145003658200,2.562658203125,0.08221221715211868,-9.596592903137207,2.0171828269958496
1773163145016158200,2.575158203125,-0.0030988785438239574,-9.675471305847168,1.5986392498016357
1773163145028658400,2.587658447265625,-0.14969342947006226,-9.750200271606445,1.0399900674819946
1773163145041158400,2.600158447265625,-0.32526153326034546,-9.795873641967773,0.3247346580028534
1773163145053658400,2.612658447265625,-0.5000593662261963,-9.778605461120605,-0.5470060706138611
1773163145066158300,2.625158447265625,-0.635352373123169,-9.66254997253418,-1.549782156944275
1773163145078658300,2.637658203125,-0.702159583568573,-9.439353942871094,-2.5643606185913086
1773163145091158300,2.650158203125,-0.7367818355560303,-9.166975021362305,-3.405012369155884
1773163145103658200,2.662658203125,-0.797095000743866,-8.929994583129883,-3.973691701889038
1773163145116158200,2.675158203125,-0.9244402050971985,-8.775639533996582,-4.278312683105469
1773163145128658400,2.687658447265625,-1.116040825843811,-8.69689655303955,-4.391904830932617
1773163145141158400,2.700158447265625,-1.3062903881072998,-8.679241180419922,-4.374330997467041
1773163145153658400,2.712658447265625,-1.4574168920516968,-8.70181655883789,-4.280736446380615
1773163145166158300,2.725158447265625,-1.587015151977539,-8.740082740783691,-4.15484094619751
1773163145178658300,2.737658203125,-1.7032215595245361,-8.776372909545898,-4.030471324920654
1773163145191158300,2.750158203125,-1.8212571144104004,-8.80726432800293,-3.909668207168579
1773163145203658200,2.762658203125,-1.9446136951446533,-8.835182189941406,-3.7852916717529297
1773163145216158200,2.775158203125,-2.054859161376953,-8.864233016967773,-3.656954765319824
1773163145228658400,2.787658447265625,-2.128822088241577,-8.894939422607422,-3.538156509399414
1773163145241158400,2.800158447265625,-2.1658284664154053,-8.924534797668457,-3.4398036003112793
1773163145253658400,2.812658447265625,-2.180934429168701,-8.951281547546387,-3.3598318099975586
1773163145266158300,2.825158447265625,-2.1957578659057617,-8.976515769958496,-3.281949996948242
1773163145278658300,2.837658203125,-2.219806671142578,-9.001848220825195,-3.1952412128448486
1773163145291158300,2.850158203125,-2.2507545948028564,-9.025138854980469,-3.1066603660583496
1773163145303658200,2.862658203125,-2.2820217609405518,-9.042479515075684,-3.0325424671173096
1773163145316158200,2.875158203125,-2.3114969730377197,-9.05440902709961,-2.97406268119812
1773163145328658400,2.887658447265625,-2.338850975036621,-9.060676574707031,-2.9333064556121826
1773163145341158400,2.900158447265625,-2.3663156032562256,-9.061341285705566,-2.9091310501098633
1773163145353658400,2.912658447265625,-2.3938064575195312,-9.057588577270508,-2.898305892944336
1773163145366158300,2.925158447265625,-2.4193201065063477,-9.049140930175781,-2.9035027027130127
1773163145378658300,2.937658203125,-2.441603899002075,-9.038402557373047,-2.9182629585266113
1773163145391158300,2.950158203125,-2.4558584690093994,-9.025701522827148,-2.945481538772583
1773163145403658200,2.962658203125,-2.4606270790100098,-9.012399673461914,-2.982003927230835
1773163145416158200,2.975158203125,-2.4547293186187744,-8.999935150146484,-3.024214267730713
1773163145428658400,2.987658447265625,-2.4381167888641357,-8.989072799682617,-3.0696146488189697
1773163145441158400,3.000158447265625,-2.4126458168029785,-8.980472564697266,-3.1145873069763184
1773163145453658400,3.012658447265625,-2.3877112865448,-8.97329044342041,-3.154247760772705
1773163145466158300,3.025158447265625,-2.3725199699401855,-8.962911605834961,-3.1949586868286133
1773163145478658300,3.037658203125,-2.377093553543091,-8.947236061096191,-3.2352418899536133
1773163145491158300,3.050158203125,-2.4067330360412598,-8.928154945373535,-3.2658939361572266
1773163145503658200,3.062658203125,-2.4599807262420654,-8.909421920776367,-3.277360200881958
1773163145516158200,3.075158203125,-2.5268521308898926,-8.894803047180176,-3.266173839569092
1773163145528658400,3.087658447265625,-2.595471143722534,-8.890122413635254,-3.224846124649048
1773163145541158400,3.100158447265625,-2.6574223041534424,-8.896546363830566,-3.155937671661377
1773163145553658400,3.112658447265625,-2.711930274963379,-8.910771369934082,-3.0682215690612793
1773163145566158300,3.125158447265625,-2.762195587158203,-8.924765586853027,-2.9814815521240234
1773163145578658300,3.137658203125,-2.8124489784240723,-8.933079719543457,-2.9087131023406982
1773163145591158300,3.150158203125,-2.8604466915130615,-8.937872886657715,-2.8465182781219482
1773163145603658200,3.162658203125,-2.899500608444214,-8.946670532226562,-2.778555154800415
1773163145616158200,3.175158203125,-2.9237003326416016,-8.958853721618652,-2.7131752967834473
1773163145628658400,3.187658447265625,-2.930121898651123,-8.970182418823242,-2.6684465408325195
1773163145641158400,3.200158447265625,-2.925826072692871,-8.973785400390625,-2.6610376834869385
1773163145653658400,3.212658447265625,-2.9233601093292236,-8.966156005859375,-2.6893138885498047
1773163145666158300,3.225158447265625,-2.9242656230926514,-8.949019432067871,-2.7448322772979736
1773163145678658300,3.237658203125,-2.9118359088897705,-8.929217338562012,-2.8214662075042725
1773163145691158300,3.250158203125,-2.8786568641662598,-8.912334442138672,-2.907576560974121
1773163145703658200,3.262658203125,-2.831418514251709,-8.9008150100708,-2.988135814666748
1773163145716158200,3.275158203125,-2.772202968597412,-8.895013809204102,-3.060065984725952
1773163145728658400,3.287658447265625,-2.6986913681030273,-8.89445686340332,-3.126673698425293
1773163145741158400,3.300158447265625,-2.6114704608917236,-8.899803161621094,-3.1849796772003174
1773163145753658400,3.312658447265625,-2.5110509395599365,-8.911749839782715,-3.2319812774658203
1773163145766158300,3.325158447265625,-2.395703077316284,-8.929842948913574,-3.2693891525268555
1773163145778658300,3.337658203125,-2.2670140266418457,-8.952779769897461,-3.298297643661499
1773163145791158300,3.350158203125,-2.1303534507751465,-8.980452537536621,-3.314131498336792
1773163145803658200,3.362658203125,-1.9917484521865845,-9.011109352111816,-3.317112922668457
1773163145816158200,3.375158203125,-1.8555526733398438,-9.04256820678711,-3.3104805946350098
1773163145828658400,3.387658447265625,-1.7250149250030518,-9.071687698364258,-3.3013925552368164
1773163145841158400,3.400158447265625,-1.6041117906570435,-9.095335960388184,-3.297283411026001
1773163145853658400,3.412658447265625,-1.4944524765014648,-9.112506866455078,-3.3013978004455566
1773163145866158300,3.425158447265625,-1.392474889755249,-9.125337600708008,-3.3105297088623047
1773163145891158300,3.450158203125,-1.1848323345184326,-9.151911735534668,-3.317990779876709
1773163145903658200,3.462658203125,-1.072229027748108,-9.165912628173828,-3.3176448345184326
1773163145916158200,3.475158203125,-0.9552521109580994,-9.179433822631836,-3.3160042762756348
1773163145928658400,3.487658447265625,-0.8386552333831787,-9.191254615783691,-3.3147976398468018
1773163145941158400,3.500158447265625,-0.7253246307373047,-9.199466705322266,-3.31874942779541
1773163145953658400,3.512658447265625,-0.6133289933204651,-9.202746391296387,-3.332214117050171
1773163145966158300,3.525158447265625,-0.5035018920898438,-9.201395988464355,-3.3542768955230713
1773163145978658300,3.537658203125,-0.3971741199493408,-9.198282241821289,-3.377014398574829
1773163145991158300,3.550158203125,-0.2934674918651581,-9.19450569152832,-3.397841691970825
1773163146003658200,3.562658203125,-0.19290398061275482,-9.190001487731934,-3.4171698093414307
1773163146016158200,3.575158203125,-0.09422221034765244,-9.18499755859375,-3.4347238540649414
1773163146028658400,3.587658447265625,0.004464494530111551,-9.179329872131348,-3.4511258602142334
1773163146041158400,3.600158447265625,0.10383941978216171,-9.173026084899902,-3.466294288635254
1773163146053658400,3.612658447265625,0.20474715530872345,-9.166316032409668,-3.4795284271240234
1773163146066158300,3.625158447265625,0.30922117829322815,-9.159686088562012,-3.4892561435699463
1773163146078658300,3.637658203125,0.42050689458847046,-9.153639793395996,-3.4934873580932617
1773163146091158300,3.650158203125,0.5388866662979126,-9.148706436157227,-3.4901516437530518
1773163146103658200,3.662658203125,0.6595413088798523,-9.1441068649292,-3.4814798831939697
1773163146116158200,3.675158203125,0.7779816389083862,-9.13925552368164,-3.469748020172119
1773163146128658400,3.687658447265625,0.8920940160751343,-9.132685661315918,-3.4595680236816406
1773163146141158400,3.700158447265625,0.9980706572532654,-9.124618530273438,-3.4518940448760986
1773163146153658400,3.712658447265625,1.094613790512085,-9.115434646606445,-3.446892499923706
1773163146166158300,3.725158447265625,1.1794625520706177,-9.104931831359863,-3.446660041809082
1773163146178658300,3.737658203125,1.2489628791809082,-9.09202766418457,-3.4562275409698486
1773163146191158300,3.750158203125,1.299485683441162,-9.077225685119629,-3.4764480590820312
1773163146203658200,3.762658203125,1.3320730924606323,-9.062479019165039,-3.5024919509887695
1773163146216158200,3.775158203125,1.3512470722198486,-9.050309181213379,-3.526531457901001
1773163146228658400,3.787658447265625,1.3622546195983887,-9.04239273071289,-3.542569637298584
1773163146241158400,3.800158447265625,1.3676048517227173,-9.037853240966797,-3.5520787239074707
1773163146253658400,3.812658447265625,1.36528480052948,-9.034806251525879,-3.5607128143310547
1773163146266158300,3.825158447265625,1.3562722206115723,-9.032718658447266,-3.56943941116333
1773163146278658300,3.837658203125,1.3481342792510986,-9.031198501586914,-3.5763604640960693
1773163146303658200,3.862658203125,1.3586738109588623,-9.027406692504883,-3.581943988800049
1773163146316158200,3.875158203125,1.3765740394592285,-9.023198127746582,-3.5857107639312744
1773163146328658400,3.887658447265625,1.399307370185852,-9.016092300415039,-3.594775915145874
1773163146341158400,3.900158447265625,1.4187266826629639,-9.00776195526123,-3.6080234050750732
1773163146353658400,3.912658447265625,1.432431697845459,-8.998784065246582,-3.6249704360961914
1773163146366158300,3.925158447265625,1.4398648738861084,-8.990059852600098,-3.6436233520507812
1773163146378658300,3.937658203125,1.4405384063720703,-8.981852531433105,-3.663546085357666
1773163146391158300,3.950158203125,1.4326673746109009,-8.975476264953613,-3.682209014892578
1773163146403658200,3.962658203125,1.4171743392944336,-8.968873023986816,-3.704230546951294
1773163146416158200,3.975158203125,1.39118492603302,-8.963223457336426,-3.727684497833252
1773163146428658400,3.987658447265625,1.352378249168396,-8.961116790771484,-3.746978521347046
1773163146441158400,4.000158447265625,1.2979241609573364,-8.964605331420898,-3.7578773498535156
1773163146453658400,4.012658447265625,1.2249926328659058,-8.976114273071289,-3.7548837661743164
1773163146466158300,4.025158447265625,1.132382869720459,-8.996000289916992,-3.736316442489624
1773163146478658300,4.037658203125,1.0173521041870117,-9.02441692352295,-3.7007150650024414
1773163146491158300,4.050158203125,0.8760504722595215,-9.059420585632324,-3.6510024070739746
1773163146503658200,4.062658203125,0.703037679195404,-9.098771095275879,-3.590055465698242
1773163146516158200,4.075158203125,0.49022138118743896,-9.139142036437988,-3.52223801612854
1773163146528658400,4.087658447265625,0.22973528504371643,-9.176688194274902,-3.4505069255828857
1773163146541158400,4.100158447265625,-0.07667233049869537,-9.206676483154297,-3.376627206802368
1773163146553658400,4.112658447265625,-0.4130338132381439,-9.225274085998535,-3.3006207942962646
1773163146566158300,4.125158447265625,-0.7543342113494873,-9.232379913330078,-3.2193989753723145
1773163146578658300,4.137658203125,-1.0741751194000244,-9.230596542358398,-3.1325109004974365
1773163146591158300,4.150158203125,-1.350601077079773,-9.223090171813965,-3.046452283859253
1773163146603658200,4.162658203125,-1.5763758420944214,-9.212607383728027,-2.968719482421875
1773163146616158200,4.175158203125,-1.7641990184783936,-9.201656341552734,-2.896120071411133
1773163146628658400,4.187658447265625,-1.9404356479644775,-9.19190788269043,-2.8131680488586426
1773163146641158400,4.200158447265625,-2.1215837001800537,-9.184901237487793,-2.703120231628418
1773163146653658400,4.212658447265625,-2.30342435836792,-9.178654670715332,-2.5723376274108887
1773163146666158300,4.225158447265625,-2.4730536937713623,-9.1701078414917,-2.442030429840088
1773163146678658300,4.237658203125,-2.62280011177063,-9.159966468811035,-2.3208460807800293
1773163146691158300,4.250158203125,-2.742302417755127,-9.153403282165527,-2.2057576179504395
1773163146703658200,4.262658203125,-2.825460195541382,-9.154523849487305,-2.093287467956543
1773163146716158200,4.275158203125,-2.8776166439056396,-9.16295337677002,-1.982423186302185
1773163146728658400,4.287658447265625,-2.9052910804748535,-9.177340507507324,-1.87245512008667
1773163146741158400,4.300158447265625,-2.9175171852111816,-9.19484806060791,-1.7644401788711548
1773163146753658400,4.312658447265625,-2.923004627227783,-9.210742950439453,-1.6699222326278687
1773163146766158300,4.325158447265625,-2.923112154006958,-9.224138259887695,-1.5940725803375244
1773163146778658300,4.337658203125,-2.9161696434020996,-9.236658096313477,-1.5331262350082397
1773163146791158300,4.350158203125,-2.905453681945801,-9.246928215026855,-1.4909818172454834
1773163146803658200,4.362658203125,-2.892566442489624,-9.254175186157227,-1.4709415435791016
1773163146816158200,4.375158203125,-2.8735220432281494,-9.259818077087402,-1.4727638959884644
1773163146828658400,4.387658447265625,-2.8431098461151123,-9.265345573425293,-1.4968242645263672
1773163146841158400,4.400158447265625,-2.7960078716278076,-9.27184772491455,-1.5445281267166138
1773163146853658400,4.412658447265625,-2.7291910648345947,-9.280045509338379,-1.6132785081863403
1773163146866158300,4.425158447265625,-2.644775152206421,-9.289825439453125,-1.6954983472824097
1773163146878658300,4.437658203125,-2.5493252277374268,-9.299798965454102,-1.7846752405166626
1773163146891158300,4.450158203125,-2.4555885791778564,-9.307347297668457,-1.8745038509368896
1773163146903658200,4.462658203125,-2.3731510639190674,-9.312966346740723,-1.9512003660202026
1773163146916158200,4.475158203125,-2.30403470993042,-9.321317672729492,-1.993698239326477
1773163146928658400,4.487658447265625,-2.238469123840332,-9.338919639587402,-1.9860085248947144
1773163146941158400,4.500158447265625,-2.1948585510253906,-9.36144733428955,-1.9277645349502563
1773163146953658400,4.512658447265625,-2.200493574142456,-9.380182266235352,-1.8276721239089966
1773163146966158300,4.525158447265625,-2.242029905319214,-9.395682334899902,-1.692583441734314
1773163146978658300,4.537658203125,-2.2932772636413574,-9.409255981445312,-1.5418065786361694
1773163146991158300,4.550158203125,-2.359065294265747,-9.41361141204834,-1.4103600978851318
1773163147003658200,4.562658203125,-2.4579098224639893,-9.400651931762695,-1.3254470825195312
1773163147016158200,4.575158203125,-2.5802602767944336,-9.371246337890625,-1.3009181022644043
1773163147028658400,4.587658447265625,-2.702852487564087,-9.334433555603027,-1.3165581226348877
1773163147041158400,4.600158447265625,-2.788687229156494,-9.305126190185547,-1.3447060585021973
1773163147053658400,4.612658447265625,-2.8219077587127686,-9.290324211120605,-1.377350091934204
1773163147066158300,4.625158447265625,-2.8138608932495117,-9.287010192871094,-1.4156359434127808
1773163147078658300,4.637658203125,-2.7730712890625,-9.293158531188965,-1.4552217721939087
1773163147091158300,4.650158203125,-2.698798418045044,-9.308602333068848,-1.495596170425415
1773163147103658200,4.662658203125,-2.5970304012298584,-9.330785751342773,-1.5369596481323242
1773163147116158200,4.675158203125,-2.4852516651153564,-9.353343963623047,-1.583939552307129
1773163147128658400,4.687658447265625,-2.3703222274780273,-9.372623443603516,-1.6449568271636963
1773163147141158400,4.700158447265625,-2.251382827758789,-9.388187408447266,-1.7215105295181274
1773163147153658400,4.712658447265625,-2.1277573108673096,-9.40054702758789,-1.8090752363204956
1773163147166158300,4.725158447265625,-2.002013683319092,-9.409170150756836,-1.9052146673202515
1773163147178658300,4.737658203125,-1.8804534673690796,-9.41295051574707,-2.0076489448547363
1773163147191158300,4.750158203125,-1.7701427936553955,-9.411587715148926,-2.111636161804199
1773163147203658200,4.762658203125,-1.6702021360397339,-9.406328201293945,-2.214000701904297
1773163147216158200,4.775158203125,-1.5745179653167725,-9.398666381835938,-2.3143811225891113
1773163147228658400,4.787658447265625,-1.472872018814087,-9.392215728759766,-2.4056849479675293
1773163147241158400,4.800158447265625,-1.3637046813964844,-9.389702796936035,-2.4787445068359375
1773163147253658400,4.812658447265625,-1.2489572763442993,-9.392704010009766,-2.527371406555176
1773163147266158300,4.825158447265625,-1.1317349672317505,-9.40039348602295,-2.553858757019043
1773163147278658300,4.837658203125,-1.0124948024749756,-9.409525871276855,-2.5702261924743652
1773163147291158300,4.850158203125,-0.8869074583053589,-9.418070793151855,-2.5852880477905273
1773163147303658200,4.862658203125,-0.7529637217521667,-9.42989444732666,-2.5846729278564453
1773163147316158200,4.875158203125,-0.6143808960914612,-9.443737983703613,-2.5707473754882812
1773163147328658400,4.887658447265625,-0.4766230881214142,-9.45565414428711,-2.55613374710083
1773163147341158400,4.900158447265625,-0.34396398067474365,-9.463534355163574,-2.5482499599456787
1773163147353658400,4.912658447265625,-0.2156076580286026,-9.46807861328125,-2.545464038848877
1773163147366158300,4.925158447265625,-0.08961663395166397,-9.468133926391602,-2.5528006553649902
1773163147378658300,4.937658203125,0.032272759824991226,-9.463329315185547,-2.5719106197357178
1773163147391158300,4.950158203125,0.1430189609527588,-9.453350067138672,-2.604632616043091
1773163147403658200,4.962658203125,0.24219095706939697,-9.438408851623535,-2.651069164276123
1773163147416158200,4.975158203125,0.3350748121738434,-9.420117378234863,-2.705460786819458
1773163147428658400,4.987658447265625,0.42361748218536377,-9.400148391723633,-2.761913299560547
1773163147441158400,5.000158447265625,0.5107636451721191,-9.379327774047852,-2.8173940181732178
1773163147453658400,5.012658447265625,0.6000745296478271,-9.358089447021484,-2.8699231147766113
1773163147466158300,5.025158447265625,0.6942341327667236,-9.336633682250977,-2.9181628227233887
1773163147478658300,5.037658203125,0.7943549156188965,-9.31480598449707,-2.9620537757873535
1773163147491158300,5.050158203125,0.9010422825813293,-9.292089462280273,-3.0025951862335205
1773163147503658200,5.062658203125,1.010894536972046,-9.268115997314453,-3.0414674282073975
1773163147516158200,5.075158203125,1.119189977645874,-9.242774963378906,-3.0804080963134766
1773163147528658400,5.087658447265625,1.2231636047363281,-9.215655326843262,-3.1218507289886475
1773163147541158400,5.100158447265625,1.3198820352554321,-9.186548233032227,-3.1679065227508545
1773163147553658400,5.112658447265625,1.407044768333435,-9.155983924865723,-3.2184736728668213
1773163147566158300,5.125158447265625,1.4819315671920776,-9.124024391174316,-3.275125503540039
1773163147578658300,5.137658203125,1.5436302423477173,-9.091451644897461,-3.336629629135132
1773163147591158300,5.150158203125,1.5921348333358765,-9.060287475585938,-3.3980398178100586
1773163147603658200,5.162658203125,1.6308706998825073,-9.031161308288574,-3.4566996097564697
1773163147616158200,5.175158203125,1.6611372232437134,-9.004632949829102,-3.5110695362091064
1773163147628658400,5.187658447265625,1.6809359788894653,-8.981754302978516,-3.5599029064178467
1773163147641158400,5.200158447265625,1.691415548324585,-8.96180248260498,-3.6049399375915527
1773163147653658400,5.212658447265625,1.6964068412780762,-8.94415283203125,-3.6461920738220215
1773163147666158300,5.225158447265625,1.7005845308303833,-8.928864479064941,-3.6815452575683594
1773163147678658300,5.237658203125,1.705965280532837,-8.915217399597168,-3.712003707885742
1773163147691158300,5.250158203125,1.710256814956665,-8.903295516967773,-3.7385454177856445
1773163147703658200,5.262658203125,1.7118394374847412,-8.893600463867188,-3.760831356048584
1773163147716158200,5.275158203125,1.7088350057601929,-8.886920928955078,-3.777947187423706
1773163147728658400,5.287658447265625,1.699040412902832,-8.884332656860352,-3.788439989089966
1773163147753658400,5.312658447265625,1.655679702758789,-8.896808624267578,-3.7783467769622803
1773163147766158300,5.325158447265625,1.6152600049972534,-8.913543701171875,-3.7563343048095703
1773163147778658300,5.337658203125,1.5532957315444946,-8.93716049194336,-3.7262344360351562
1773163147791158300,5.350158203125,1.4612441062927246,-8.967354774475098,-3.6907572746276855
1773163147803658200,5.362658203125,1.3347134590148926,-9.003680229187012,-3.6500229835510254
1773163147816158200,5.375158203125,1.1730238199234009,-9.044852256774902,-3.6034767627716064
1773163147828658400,5.387658447265625,0.9784388542175293,-9.089054107666016,-3.549949884414673
1773163147841158400,5.400158447265625,0.7499484419822693,-9.134167671203613,-3.489260673522949
1773163147853658400,5.412658447265625,0.4848933219909668,-9.17706298828125,-3.422978162765503
1773163147866158300,5.425158447265625,0.18541578948497772,-9.2146577835083,-3.3505349159240723
1773163147878658300,5.437658203125,-0.13696201145648956,-9.2444429397583,-3.2698495388031006
1773163147891158300,5.450158203125,-0.4586958885192871,-9.265393257141113,-3.1800100803375244
1773163147903658200,5.462658203125,-0.7471122145652771,-9.277141571044922,-3.089796781539917
1773163147916158200,5.475158203125,-0.9902073740959167,-9.279059410095215,-3.014787197113037
1773163147928658400,5.487658447265625,-1.1998988389968872,-9.272964477539062,-2.9568119049072266
1773163147941158400,5.500158447265625,-1.4003711938858032,-9.2633695602417,-2.8981618881225586
1773163147953658400,5.512658447265625,-1.6034764051437378,-9.255888938903809,-2.815631151199341
1773163147966158300,5.525158447265625,-1.8087260723114014,-9.251897811889648,-2.7020909786224365
1773163147978658300,5.537658203125,-2.004312753677368,-9.246944427490234,-2.5782017707824707
1773163147991158300,5.550158203125,-2.1859967708587646,-9.238547325134277,-2.457857847213745
1773163148003658200,5.562658203125,-2.3535752296447754,-9.227424621582031,-2.3421552181243896
1773163148016158200,5.575158203125,-2.502784252166748,-9.216535568237305,-2.22753643989563
1773163148028658400,5.587658447265625,-2.6309523582458496,-9.206271171569824,-2.119677782058716
1773163148041158400,5.600158447265625,-2.7392234802246094,-9.196208953857422,-2.024052619934082
1773163148053658400,5.612658447265625,-2.8295376300811768,-9.18802547454834,-1.9350178241729736
1773163148066158300,5.625158447265625,-2.90146541595459,-9.183690071105957,-1.8470878601074219
1773163148078658300,5.637658203125,-2.9543440341949463,-9.183984756469727,-1.759727954864502
1773163148091158300,5.650158203125,-2.986616611480713,-9.18880558013916,-1.6782056093215942
1773163148103658200,5.662658203125,-2.99782133102417,-9.198594093322754,-1.602908968925476
1773163148116158200,5.675158203125,-2.9909520149230957,-9.21260929107666,-1.533760666847229
1773163148128658400,5.687658447265625,-2.970097780227661,-9.229930877685547,-1.4687660932540894
1773163148141158400,5.700158447265625,-2.936978816986084,-9.250082015991211,-1.4073083400726318
1773163148153658400,5.712658447265625,-2.8918356895446777,-9.272595405578613,-1.3515410423278809
1773163148166158300,5.725158447265625,-2.8350911140441895,-9.296570777893066,-1.3062965869903564
1773163148178658300,5.737658203125,-2.7668190002441406,-9.321468353271484,-1.2748860120773315
1773163148191158300,5.750158203125,-2.6870667934417725,-9.346834182739258,-1.2596664428710938
1773163148203658200,5.762658203125,-2.5982344150543213,-9.371973991394043,-1.2592288255691528
1773163148216158200,5.775158203125,-2.50655460357666,-9.395700454711914,-1.2682267427444458
1773163148228658400,5.787658447265625,-2.41170597076416,-9.418785095214844,-1.2808383703231812
1773163148241158400,5.800158447265625,-2.3125646114349365,-9.442354202270508,-1.2901036739349365
1773163148253658400,5.812658447265625,-2.210752487182617,-9.466144561767578,-1.2942487001419067
1773163148266158300,5.825158447265625,-2.112647294998169,-9.488476753234863,-1.294564127922058
1773163148278658300,5.837658203125,-2.0326664447784424,-9.505948066711426,-1.2944555282592773
1773163148291158300,5.850158203125,-1.987986445426941,-9.515417098999023,-1.2942699193954468
1773163148303658200,5.862658203125,-1.98844575881958,-9.516009330749512,-1.2892025709152222
1773163148316158200,5.875158203125,-2.02204966545105,-9.51167106628418,-1.2687808275222778
1773163148328658400,5.887658447265625,-2.0674965381622314,-9.506211280822754,-1.2360377311706543
1773163148341158400,5.900158447265625,-2.113584518432617,-9.5004301071167,-1.2020673751831055
1773163148366158300,5.925158447265625,-2.205371856689453,-9.482840538024902,-1.175779104232788
1773163148378658300,5.937658203125,-2.2454190254211426,-9.473994255065918,-1.1712830066680908
1773163148391158300,5.950158203125,-2.2677483558654785,-9.46850872039795,-1.1726257801055908
1773163148403658200,5.962658203125,-2.26702880859375,-9.467555046081543,-1.1816856861114502
1773163148416158200,5.975158203125,-2.2423408031463623,-9.472559928894043,-1.1886546611785889
1773163148428658400,5.987658447265625,-2.1957340240478516,-9.483317375183105,-1.1898939609527588
1773163148441158400,6.000158447265625,-2.1270365715026855,-9.499225616455078,-1.1877720355987549
1773163148453658400,6.012658447265625,-2.033376932144165,-9.518996238708496,-1.1935207843780518
1773163148466158300,6.025158447265625,-1.9296845197677612,-9.538321495056152,-1.2112504243850708
1773163148478658300,6.037658203125,-1.8365603685379028,-9.554449081420898,-1.2287929058074951
1773163148491158300,6.050158203125,-1.7672297954559326,-9.564530372619629,-1.2518212795257568
1773163148503658200,6.062658203125,-1.7178934812545776,-9.568985939025879,-1.285979986190796
1773163148516158200,6.075158203125,-1.6748043298721313,-9.571677207946777,-1.3222737312316895
1773163148528658400,6.087658447265625,-1.62324059009552,-9.574285507202148,-1.3669408559799194
1773163148541158400,6.100158447265625,-1.5575515031814575,-9.576208114624023,-1.4285128116607666
1773163148553658400,6.112658447265625,-1.482146143913269,-9.576863288879395,-1.5024394989013672
1773163148566158300,6.125158447265625,-1.4017466306686401,-9.576260566711426,-1.5813674926757812
1773163148591158300,6.150158203125,-1.2318533658981323,-9.571887969970703,-1.7412338256835938
1773163148603658200,6.162658203125,-1.1390397548675537,-9.570050239562988,-1.813037395477295
1773163148616158200,6.175158203125,-1.0405762195587158,-9.5686674118042,-1.8783459663391113
1773163148628658400,6.187658447265625,-0.9416024088859558,-9.567230224609375,-1.936979055404663
1773163148641158400,6.200158447265625,-0.8451873064041138,-9.566390991210938,-1.9850013256072998
1773163148653658400,6.212658447265625,-0.7517048716545105,-9.567440032958984,-2.0172786712646484
1773163148666158300,6.225158447265625,-0.6545534729957581,-9.570755958557129,-2.0353333950042725
1773163148678658300,6.237658203125,-0.5499240756034851,-9.575398445129395,-2.044433832168579
1773163148691158300,6.250158203125,-0.4377277195453644,-9.58036994934082,-2.0482449531555176
1773163148703658200,6.262658203125,-0.32115447521209717,-9.585249900817871,-2.0470099449157715
1773163148716158200,6.275158203125,-0.20162515342235565,-9.58895206451416,-2.0449271202087402
1773163148728658400,6.287658447265625,-0.08149761706590652,-9.58957576751709,-2.0503153800964355
1773163148741158400,6.300158447265625,0.03352326527237892,-9.585868835449219,-2.0689125061035156
1773163148753658400,6.312658447265625,0.14178766310214996,-9.577794075012207,-2.1014626026153564
1773163148766158300,6.325158447265625,0.24343827366828918,-9.565706253051758,-2.146718740463257
1773163148778658300,6.337658203125,0.33963388204574585,-9.55086898803711,-2.1990773677825928
1773163148791158300,6.350158203125,0.4353380799293518,-9.53596305847168,-2.246392011642456
1773163148803658200,6.362658203125,0.5351535677909851,-9.521122932434082,-2.2874062061309814
1773163148816158200,6.375158203125,0.6380710601806641,-9.504612922668457,-2.329289674758911
1773163148828658400,6.387658447265625,0.7404386401176453,-9.486145973205566,-2.373850107192993
1773163148841158400,6.400158447265625,0.8387464284896851,-9.466853141784668,-2.417766809463501
1773163148853658400,6.412658447265625,0.9322352409362793,-9.447226524353027,-2.4599268436431885
1773163148866158300,6.425158447265625,1.0236573219299316,-9.425674438476562,-2.505831241607666
1773163148878658300,6.437658203125,1.1159391403198242,-9.401043891906738,-2.558406352996826
1773163148891158300,6.450158203125,1.2116117477416992,-9.372715950012207,-2.618124485015869
1773163148903658200,6.462658203125,1.308416485786438,-9.340351104736328,-2.6863138675689697
1773163148916158200,6.475158203125,1.4036675691604614,-9.304397583007812,-2.761934280395508
1773163148928658400,6.487658447265625,1.4948810338974,-9.265337944030762,-2.844158887863159
1773163148941158400,6.500158447265625,1.579066514968872,-9.225229263305664,-2.9278106689453125
1773163148953658400,6.512658447265625,1.6530905961990356,-9.187165260314941,-3.0056092739105225
1773163148966158300,6.525158447265625,1.7175875902175903,-9.152937889099121,-3.0731089115142822
1773163148978658300,6.537658203125,1.7735692262649536,-9.122823715209961,-3.1303226947784424
1773163148991158300,6.550158203125,1.8193068504333496,-9.097174644470215,-3.1783547401428223
1773163149003658200,6.562658203125,1.8562684059143066,-9.075278282165527,-3.219313859939575
1773163149016158200,6.575158203125,1.8839476108551025,-9.057308197021484,-3.253659963607788
1773163149028658400,6.587658447265625,1.9048961400985718,-9.042587280273438,-3.2822797298431396
1773163149041158400,6.600158447265625,1.9222006797790527,-9.030405044555664,-3.305647850036621
1773163149053658400,6.612658447265625,1.935691237449646,-9.020331382751465,-3.3252246379852295
1773163149066158300,6.625158447265625,1.9437661170959473,-9.012683868408203,-3.3412117958068848
1773163149078658300,6.637658203125,1.9443519115447998,-9.007476806640625,-3.3548858165740967
1773163149091158300,6.650158203125,1.9309417009353638,-9.007170677185059,-3.3634393215179443
1773163149103658200,6.662658203125,1.8958595991134644,-9.015446662902832,-3.3612236976623535
1773163149116158200,6.675158203125,1.836161732673645,-9.034892082214355,-3.342097520828247
1773163149128658400,6.687658447265625,1.7489633560180664,-9.06811237335205,-3.298611879348755
1773163149141158400,6.700158447265625,1.6299077272415161,-9.113495826721191,-3.233879804611206
1773163149153658400,6.712658447265625,1.4697307348251343,-9.1676664352417,-3.156606435775757
1773163149166158300,6.725158447265625,1.2631672620773315,-9.22617244720459,-3.0744969844818115
1773163149178658300,6.737658203125,1.0140537023544312,-9.283863067626953,-2.9919819831848145
1773163149191158300,6.750158203125,0.7310034036636353,-9.336060523986816,-2.9110114574432373
1773163149203658200,6.762658203125,0.4228091835975647,-9.379643440246582,-2.830888032913208
1773163149216158200,6.775158203125,0.10366147756576538,-9.412257194519043,-2.7511911392211914
1773163149228658400,6.787658447265625,-0.21000687777996063,-9.431357383728027,-2.6787655353546143
1773163149241158400,6.800158447265625,-0.5018994212150574,-9.437055587768555,-2.619251012802124
1773163149253658400,6.812658447265625,-0.7622852325439453,-9.43242073059082,-2.5726935863494873
1773163149266158300,6.825158447265625,-0.9981997609138489,-9.421979904174805,-2.529876470565796
1773163149278658300,6.837658203125,-1.220299482345581,-9.41032600402832,-2.475280284881592
1773163149291158300,6.850158203125,-1.435276746749878,-9.40056324005127,-2.3957855701446533
1773163149303658200,6.862658203125,-1.6426900625228882,-9.39111042022705,-2.29761004447937
1773163149316158200,6.875158203125,-1.8415827751159668,-9.377994537353516,-2.1982243061065674
1773163149328658400,6.887658447265625,-2.0329582691192627,-9.358224868774414,-2.112133026123047
1773163149341158400,6.900158447265625,-2.212590456008911,-9.33432388305664,-2.035983085632324
1773163149353658400,6.912658447265625,-2.371673583984375,-9.311882019042969,-1.958163857460022
1773163149366158300,6.925158447265625,-2.504331588745117,-9.29447078704834,-1.873907446861267
1773163149378658300,6.937658203125,-2.6110355854034424,-9.282942771911621,-1.7832163572311401
1773163149391158300,6.950158203125,-2.6956777572631836,-9.276575088500977,-1.6878533363342285
1773163149403658200,6.962658203125,-2.7613871097564697,-9.273541450500488,-1.5957881212234497
1773163149416158200,6.975158203125,-2.8062498569488525,-9.274155616760254,-1.511755347251892
1773163149428658400,6.987658447265625,-2.8287978172302246,-9.279125213623047,-1.4374045133590698
1773163149441158400,7.000158447265625,-2.8318512439727783,-9.288065910339355,-1.3721646070480347
1773163149453658400,7.012658447265625,-2.819730281829834,-9.300174713134766,-1.313869595527649
1773163149466158300,7.025158447265625,-2.793778419494629,-9.314574241638184,-1.2664525508880615
1773163149478658300,7.037658203125,-2.753084182739258,-9.330489158630371,-1.2380951642990112
1773163149491158300,7.050158203125,-2.6967313289642334,-9.34785270690918,-1.2311303615570068
1773163149503658200,7.062658203125,-2.627192258834839,-9.366082191467285,-1.2428752183914185
1773163149516158200,7.075158203125,-2.551283121109009,-9.382978439331055,-1.2732068300247192
1773163149528658400,7.087658447265625,-2.473686695098877,-9.397146224975586,-1.3209506273269653
1773163149541158400,7.100158447265625,-2.3968021869659424,-9.408503532409668,-1.3804981708526611
1773163149553658400,7.112658447265625,-2.3229973316192627,-9.417391777038574,-1.444577932357788
1773163149566158300,7.125158447265625,-2.2564423084259033,-9.424331665039062,-1.5036051273345947
1773163149578658300,7.137658203125,-2.2005510330200195,-9.429754257202148,-1.5516737699508667
1773163149591158300,7.150158203125,-2.149695634841919,-9.436275482177734,-1.5830049514770508
1773163149603658200,7.162658203125,-2.096651554107666,-9.446269989013672,-1.5945026874542236
1773163149616158200,7.175158203125,-2.056797981262207,-9.457354545593262,-1.5806318521499634
1773163149628658400,7.187658447265625,-2.0466017723083496,-9.466206550598145,-1.5403724908828735
1773163149641158400,7.200158447265625,-2.066931962966919,-9.471670150756836,-1.4783997535705566
1773163149653658400,7.212658447265625,-2.1120595932006836,-9.472826957702637,-1.405400276184082
1773163149666158300,7.225158447265625,-2.1740224361419678,-9.467818260192871,-1.3432906866073608
1773163149678658300,7.237658203125,-2.2484564781188965,-9.456070899963379,-1.3029062747955322
1773163149691158300,7.250158203125,-2.3278074264526367,-9.439826965332031,-1.2811579704284668
1773163149703658200,7.262658203125,-2.412090539932251,-9.419607162475586,-1.2740554809570312
1773163149716158200,7.275158203125,-2.5097439289093018,-9.39195442199707,-1.2894824743270874
1773163149728658400,7.287658447265625,-2.615532636642456,-9.358149528503418,-1.324541449546814
1773163149741158400,7.300158447265625,-2.7167935371398926,-9.322198867797852,-1.3733289241790771
1773163149753658400,7.312658447265625,-2.795703649520874,-9.290690422058105,-1.427412748336792
1773163149766158300,7.325158447265625,-2.8339946269989014,-9.271065711975098,-1.4785759449005127
1773163149778658300,7.337658203125,-2.8115322589874268,-9.271010398864746,-1.5211975574493408
1773163149791158300,7.350158203125,-2.714489459991455,-9.295809745788574,-1.5459086894989014
1773163149803658200,7.362658203125,-2.5509836673736572,-9.34226131439209,-1.5443565845489502
1773163149816158200,7.375158203125,-2.346635341644287,-9.400690078735352,-1.5135122537612915
1773163149828658400,7.387658447265625,-2.1333999633789062,-9.462357521057129,-1.4431856870651245
1773163149841158400,7.400158447265625,-1.9494097232818604,-9.517977714538574,-1.333522081375122
1773163149853658400,7.412658447265625,-1.8289356231689453,-9.55868148803711,-1.2070612907409668
1773163149866158300,7.425158447265625,-1.773352026939392,-9.582395553588867,-1.0969572067260742
1773163149878658300,7.437658203125,-1.7435473203659058,-9.596102714538574,-1.022373080253601
1773163149891158300,7.450158203125,-1.6880056858062744,-9.609265327453613,-0.9914884567260742
1773163149903658200,7.462658203125,-1.5853288173675537,-9.626424789428711,-0.9945189952850342
1773163149916158200,7.475158203125,-1.4419565200805664,-9.646212577819824,-1.020643711090088
1773163149928658400,7.487658447265625,-1.2733566761016846,-9.663994789123535,-1.0752501487731934
1773163149941158400,7.500158447265625,-1.0963717699050903,-9.676145553588867,-1.1578199863433838
1773163149953658400,7.512658447265625,-0.9242609739303589,-9.681297302246094,-1.260398030281067
1773163149966158300,7.525158447265625,-0.7748625874519348,-9.678746223449707,-1.3754440546035767
1773163149978658300,7.537658203125,-0.654411256313324,-9.669899940490723,-1.4950482845306396
1773163149991158300,7.550158203125,-0.5477524995803833,-9.658915519714355,-1.604895830154419
1773163150003658200,7.562658203125,-0.4307159185409546,-9.65124225616455,-1.6847481727600098
1773163150016158200,7.575158203125,-0.29022088646888733,-9.649662971496582,-1.7234165668487549
1773163150028658400,7.587658447265625,-0.12580767273902893,-9.65198040008545,-1.7302649021148682
1773163150041158400,7.600158447265625,0.04660492390394211,-9.652690887451172,-1.7302556037902832
1773163150053658400,7.612658447265625,0.2052532583475113,-9.650748252868652,-1.7295403480529785
1773163150066158300,7.625158447265625,0.3427078425884247,-9.647720336914062,-1.7246519327163696
1773163150078658300,7.637658203125,0.46440985798835754,-9.643757820129395,-1.7183269262313843
1773163150091158300,7.650158203125,0.5770548582077026,-9.638352394104004,-1.714510440826416
1773163150103658200,7.662658203125,0.6861535310745239,-9.631484031677246,-1.7129216194152832
1773163150116158200,7.675158203125,0.7971187829971313,-9.623278617858887,-1.711000919342041
1773163150128658400,7.687658447265625,0.9180817604064941,-9.613194465637207,-1.7070508003234863
1773163150141158400,7.700158447265625,1.0462133884429932,-9.599364280700684,-1.7111531496047974
1773163150153658400,7.712658447265625,1.1695494651794434,-9.580779075622559,-1.7352848052978516
1773163150166158300,7.725158447265625,1.2761359214782715,-9.559540748596191,-1.7768046855926514
1773163150178658300,7.737658203125,1.3646725416183472,-9.537152290344238,-1.830514669418335
1773163150191158300,7.750158203125,1.4360027313232422,-9.51379680633545,-1.8962997198104858
1773163150203658200,7.762658203125,1.4913791418075562,-9.490473747253418,-1.9690271615982056
1773163150216158200,7.775158203125,1.5373404026031494,-9.466924667358398,-2.045560598373413
1773163150228658400,7.787658447265625,1.5823924541473389,-9.442051887512207,-2.124635934829712
1773163150241158400,7.800158447265625,1.632449746131897,-9.415846824645996,-2.201664924621582
1773163150253658400,7.812658447265625,1.6903339624404907,-9.38864803314209,-2.272979736328125
1773163150266158300,7.825158447265625,1.752050518989563,-9.360572814941406,-2.341017723083496
1773163150278658300,7.837658203125,1.811888575553894,-9.332542419433594,-2.4064671993255615
1773163150291158300,7.850158203125,1.8679585456848145,-9.304917335510254,-2.469738483428955
1773163150303658200,7.862658203125,1.9210553169250488,-9.278191566467285,-2.52885103225708
1773163150316158200,7.875158203125,1.9712117910385132,-9.25235652923584,-2.584303855895996
1773163150328658400,7.887658447265625,2.020364999771118,-9.227461814880371,-2.6348540782928467
1773163150341158400,7.900158447265625,2.070333480834961,-9.203553199768066,-2.6793155670166016
1773163150353658400,7.912658447265625,2.122307300567627,-9.180840492248535,-2.7163124084472656
1773163150366158300,7.925158447265625,2.177276611328125,-9.159188270568848,-2.7457480430603027
1773163150378658300,7.937658203125,2.2326385974884033,-9.138630867004395,-2.769679546356201
1773163150391158300,7.950158203125,2.286351203918457,-9.118707656860352,-2.791444778442383
1773163150403658200,7.962658203125,2.335956335067749,-9.099527359008789,-2.812878131866455
1773163150416158200,7.975158203125,2.3781795501708984,-9.080968856811523,-2.837367057800293
1773163150428658400,7.987658447265625,2.412601947784424,-9.062100410461426,-2.868462324142456
1773163150441158400,8.000158447265624,2.4411234855651855,-9.041690826416016,-2.9084584712982178
1773163150453658400,8.012658447265625,2.467280387878418,-9.018921852111816,-2.956681489944458
1773163150466158300,8.025158447265625,2.4923415184020996,-8.993826866149902,-3.0115928649902344
1773163150478658300,8.037658203125,2.5133309364318848,-8.966835021972656,-3.0739905834198
1773163150491158300,8.050158203125,2.524630308151245,-8.939008712768555,-3.144954204559326
1773163150503658200,8.062658203125,2.5175278186798096,-8.913954734802246,-3.2208476066589355
1773163150516158200,8.075158203125,2.4898297786712646,-8.894463539123535,-3.295398235321045
1773163150528658400,8.087658447265625,2.4431474208831787,-8.884230613708496,-3.3573617935180664
1773163150541158400,8.100158447265626,2.376418113708496,-8.888343811035156,-3.3941662311553955
1773163150553658400,8.112658447265625,2.2873330116271973,-8.910490989685059,-3.397299289703369
1773163150566158300,8.125158447265624,2.1762566566467285,-8.949653625488281,-3.3671908378601074
1773163150578658300,8.137658203125,2.036693811416626,-9.005508422851562,-3.3050098419189453
1773163150591158300,8.150158203125,1.8652756214141846,-9.075323104858398,-3.2139761447906494
1773163150603658200,8.162658203125,1.6590263843536377,-9.153493881225586,-3.103477954864502
1773163150616158200,8.175158203125,1.416478157043457,-9.233646392822266,-2.983914852142334
1773163150628658400,8.187658447265624,1.1456568241119385,-9.310905456542969,-2.857424736022949
1773163150641158400,8.200158447265625,0.8632837533950806,-9.381878852844238,-2.721299409866333
1773163150653658400,8.212658447265625,0.5903443694114685,-9.442512512207031,-2.580857992172241
1773163150666158300,8.225158447265626,0.3400249183177948,-9.48788833618164,-2.456570625305176
1773163150678658300,8.237658203125,0.11502818763256073,-9.516839981079102,-2.36366605758667
1773163150691158300,8.250158203125,-0.09490945935249329,-9.534255981445312,-2.293321132659912
1773163150703658200,8.262658203125,-0.3021623492240906,-9.546503067016602,-2.2233669757843018
1773163150716158200,8.275158203125,-0.5103287696838379,-9.557243347167969,-2.1375350952148438
1773163150728658400,8.287658447265626,-0.7089457511901855,-9.568258285522461,-2.02884578704834
1773163150741158400,8.300158447265625,-0.8891467452049255,-9.579639434814453,-1.9000815153121948
1773163150753658400,8.312658447265624,-1.054380178451538,-9.58895206451416,-1.7637076377868652
1773163150766158300,8.325158447265625,-1.216988205909729,-9.592744827270508,-1.6335749626159668
1773163150778658300,8.337658203125,-1.3842592239379883,-9.589083671569824,-1.5177959203720093
1773163150791158300,8.350158203125,-1.556357979774475,-9.577596664428711,-1.4204894304275513
1773163150803658200,8.362658203125,-1.7277166843414307,-9.55941104888916,-1.342771291732788
1773163150816158200,8.375158203125,-1.8862648010253906,-9.537252426147461,-1.2857780456542969
1773163150828658400,8.387658447265625,-2.0186736583709717,-9.515948295593262,-1.2417975664138794
1773163150841158400,8.400158447265625,-2.124603033065796,-9.498637199401855,-1.1968051195144653
1773163150853658400,8.412658447265626,-2.2140307426452637,-9.483648300170898,-1.1527698040008545
1773163150866158300,8.425158447265625,-2.2920944690704346,-9.46932601928711,-1.1173819303512573
1773163150878658300,8.437658203125,-2.356323480606079,-9.456694602966309,-1.090437889099121
1773163150891158300,8.450158203125,-2.403799295425415,-9.447425842285156,-1.0669076442718506
1773163150903658200,8.462658203125,-2.434687376022339,-9.4425048828125,-1.0400888919830322
1773163150916158200,8.475158203125,-2.45329213142395,-9.439653396606445,-1.0220955610275269
1773163150928658400,8.487658447265625,-2.4647774696350098,-9.43652057647705,-1.0234017372131348
1773163150941158400,8.500158447265624,-2.4735066890716553,-9.43107795715332,-1.052108645439148
1773163150953658400,8.512658447265625,-2.481849193572998,-9.42180347442627,-1.1137385368347168
1773163150966158300,8.525158447265625,-2.48592472076416,-9.41024398803711,-1.199115514755249
1773163150978658300,8.537658203125,-2.4775214195251465,-9.400102615356445,-1.292418122291565
1773163150991158300,8.550158203125,-2.446495771408081,-9.395556449890137,-1.3815115690231323
1773163151003658200,8.562658203125,-2.389573097229004,-9.398286819458008,-1.460325002670288
1773163151016158200,8.575158203125,-2.315040349960327,-9.406417846679688,-1.526526689529419
1773163151028658400,8.587658447265625,-2.241079568862915,-9.416618347167969,-1.5732991695404053
1773163151041158400,8.600158447265626,-2.179932117462158,-9.427021026611328,-1.5967360734939575
1773163151053658400,8.612658447265625,-2.1388087272644043,-9.436342239379883,-1.5972869396209717
1773163151066158300,8.625158447265624,-2.1183202266693115,-9.443931579589844,-1.5796399116516113
1773163151078658300,8.637658203125,-2.115556240081787,-9.450089454650879,-1.5461639165878296
1773163151091158300,8.650158203125,-2.125082492828369,-9.454971313476562,-1.5026451349258423
1773163151103658200,8.662658203125,-2.14369797706604,-9.457901000976562,-1.4570707082748413
1773163151116158200,8.675158203125,-2.1676294803619385,-9.458885192871094,-1.4146555662155151
1773163151128658400,8.687658447265624,-2.189011573791504,-9.4595947265625,-1.3764753341674805
1773163151141158400,8.700158447265625,-2.198791265487671,-9.461390495300293,-1.3482550382614136
1773163151153658400,8.712658447265625,-2.1933443546295166,-9.465727806091309,-1.326511263847351
1773163151166158300,8.725158447265626,-2.1734070777893066,-9.473200798034668,-1.3058199882507324
1773163151178658300,8.737658203125,-2.1454646587371826,-9.481966972351074,-1.2882804870605469
1773163151191158300,8.750158203125,-2.112593412399292,-9.491174697875977,-1.2747352123260498
1773163151203658200,8.762658203125,-2.069631814956665,-9.502083778381348,-1.2638897895812988
1773163151216158200,8.775158203125,-2.0043907165527344,-9.515976905822754,-1.2645087242126465
1773163151228658400,8.787658447265626,-1.9102544784545898,-9.536027908325195,-1.2591652870178223
1773163151241158400,8.800158447265625,-1.791158676147461,-9.562459945678711,-1.2334908246994019
1773163151253658400,8.812658447265624,-1.6614289283752441,-9.590463638305664,-1.1971008777618408
1773163151266158300,8.825158447265625,-1.5432049036026,-9.613911628723145,-1.1668751239776611
1773163151278658300,8.837658203125,-1.457951307296753,-9.628837585449219,-1.1533750295639038
1773163151291158300,8.850158203125,-1.3987820148468018,-9.636334419250488,-1.1639822721481323
1773163151303658200,8.862658203125,-1.3441746234893799,-9.639128684997559,-1.2044824361801147
1773163151316158200,8.875158203125,-1.2834786176681519,-9.63849925994873,-1.2737377882003784
1773163151328658400,8.887658447265625,-1.2167202234268188,-9.634799003601074,-1.3640400171279907
1773163151341158400,8.900158447265625,-1.1430974006652832,-9.628888130187988,-1.4656838178634644
1773163151353658400,8.912658447265626,-1.0601589679718018,-9.622842788696289,-1.5643986463546753
1773163151366158300,8.925158447265625,-0.9660268425941467,-9.618902206420898,-1.6473859548568726
1773163151378658300,8.937658203125,-0.8631693124771118,-9.617650032043457,-1.710593819618225
1773163151391158300,8.950158203125,-0.7614603042602539,-9.61804485321045,-1.7560690641403198
1773163151403658200,8.962658203125,-0.6672144532203674,-9.619540214538574,-1.7859596014022827
1773163151416158200,8.975158203125,-0.5735975503921509,-9.623371124267578,-1.7978036403656006
1773163151428658400,8.987658447265625,-0.47978246212005615,-9.629076957702637,-1.794735074043274
1773163151441158400,9.000158447265624,-0.3909277021884918,-9.634415626525879,-1.7876214981079102
1773163151453658400,9.012658447265625,-0.30791524052619934,-9.638060569763184,-1.784194827079773
1773163151466158300,9.025158447265625,-0.22687532007694244,-9.639725685119629,-1.7873432636260986
1773163151478658300,9.037658203125,-0.13927392661571503,-9.639336585998535,-1.7983826398849487
1773163151491158300,9.050158203125,-0.04243670403957367,-9.63646411895752,-1.8185561895370483
1773163151503658200,9.062658203125,0.06329699605703354,-9.630498886108398,-1.8492915630340576
1773163151516158200,9.075158203125,0.16886253654956818,-9.621759414672852,-1.8877575397491455
1773163151528658400,9.087658447265625,0.2668093740940094,-9.610331535339355,-1.9340957403182983
1773163151541158400,9.100158447265626,0.35676154494285583,-9.596147537231445,-1.9892356395721436
1773163151553658400,9.112658447265625,0.4450048506259918,-9.580801010131836,-2.044658899307251
1773163151566158300,9.125158447265624,0.5352365374565125,-9.565095901489258,-2.0959131717681885
1773163151578658300,9.137658203125,0.6258630156517029,-9.548624992370605,-2.1453282833099365
1773163151591158300,9.150158203125,0.7145621180534363,-9.531457901000977,-2.19342303276062
1773163151603658200,9.162658203125,0.8041037917137146,-9.513355255126953,-2.240509033203125
1773163151616158200,9.175158203125,0.8972129821777344,-9.493605613708496,-2.288419246673584
1773163151628658400,9.187658447265624,0.9927946925163269,-9.47217082977295,-2.3372488021850586
1773163151641158400,9.200158447265625,1.087778925895691,-9.448843002319336,-2.3888261318206787
1773163151653658400,9.212658447265625,1.1793437004089355,-9.423722267150879,-2.4439706802368164
1773163151666158300,9.225158447265626,1.2667142152786255,-9.39700698852539,-2.502417802810669
1773163151678658300,9.237658203125,1.347275972366333,-9.369001388549805,-2.5645716190338135
1773163151691158300,9.250158203125,1.4190534353256226,-9.339868545532227,-2.631260871887207
1773163151703658200,9.262658203125,1.479496955871582,-9.310951232910156,-2.6995656490325928
1773163151716158200,9.275158203125,1.5287853479385376,-9.283819198608398,-2.7647621631622314
1773163151728658400,9.287658447265626,1.5703277587890625,-9.258830070495605,-2.824626922607422
1773163151741158400,9.300158447265625,1.6074451208114624,-9.236762046813965,-2.875539779663086
1773163151753658400,9.312658447265624,1.6427888870239258,-9.217208862304688,-2.917994737625122
1773163151766158300,9.325158447265625,1.672969937324524,-9.200757026672363,-2.952562093734741
1773163151778658300,9.337658203125,1.6972804069519043,-9.186967849731445,-2.981482982635498
1773163151791158300,9.350158203125,1.7172858715057373,-9.175443649291992,-3.005422830581665
1773163151803658200,9.362658203125,1.7336208820343018,-9.165475845336914,-3.0263864994049072
1773163151816158200,9.375158203125,1.7456048727035522,-9.15604305267334,-3.047969102859497
1773163151828658400,9.387658447265625,1.7513728141784668,-9.146882057189941,-3.072071075439453
1773163151841158400,9.400158447265625,1.7509292364120483,-9.137682914733887,-3.0995776653289795
1773163151853658400,9.412658447265626,1.746948480606079,-9.12834358215332,-3.1291990280151367
1773163151866158300,9.425158447265625,1.7385749816894531,-9.121179580688477,-3.1546506881713867
1773163151878658300,9.437658203125,1.729732871055603,-9.116161346435547,-3.1739585399627686
1773163151891158300,9.450158203125,1.716538906097412,-9.1151704788208,-3.1839497089385986
1773163151903658200,9.462658203125,1.6961013078689575,-9.11945915222168,-3.1826226711273193
1773163151916158200,9.475158203125,1.6610444784164429,-9.131465911865234,-3.1666486263275146
1773163151928658400,9.487658447265625,1.6113920211791992,-9.150785446166992,-3.136385202407837
1773163151941158400,9.500158447265624,1.5472700595855713,-9.177233695983887,-3.0910725593566895
1773163151953658400,9.512658447265625,1.4680222272872925,-9.209930419921875,-3.0319106578826904
1773163151966158300,9.525158447265625,1.3675631284713745,-9.247626304626465,-2.963369607925415
1773163151978658300,9.537658203125,1.237215518951416,-9.28843879699707,-2.892160177230835
1773163151991158300,9.550158203125,1.0652294158935547,-9.331633567810059,-2.8206911087036133
1773163152003658200,9.562658203125,0.8502794504165649,-9.37547492980957,-2.7473413944244385
1773163152016158200,9.575158203125,0.5990009307861328,-9.416899681091309,-2.67087721824646
1773163152028658400,9.587658447265625,0.319489061832428,-9.452865600585938,-2.5906872749328613
1773163152041158400,9.600158447265626,0.029273808002471924,-9.481739044189453,-2.5032260417938232
1773163152053658400,9.612658447265625,-0.25204914808273315,-9.503594398498535,-2.4059417247772217
1773163152066158300,9.625158447265624,-0.5108951926231384,-9.519695281982422,-2.2988648414611816
1773163152078658300,9.637658203125,-0.7434448599815369,-9.529854774475098,-2.190786123275757
1773163152091158300,9.650158203125,-0.9538136720657349,-9.533777236938477,-2.0899081230163574
1773163152103658200,9.662658203125,-1.1477869749069214,-9.533106803894043,-1.9931966066360474
1773163152116158200,9.675158203125,-1.3282078504562378,-9.53010082244873,-1.8929983377456665
1773163152128658400,9.687658447265624,-1.4981690645217896,-9.525125503540039,-1.7882604598999023
1773163152141158400,9.700158447265625,-1.6589291095733643,-9.518117904663086,-1.680406093597412
1773163152153658400,9.712658447265625,-1.8140655755996704,-9.508421897888184,-1.5714503526687622
1773163152166158300,9.725158447265626,-1.9648417234420776,-9.49555492401123,-1.4643150568008423
1773163152178658300,9.737658203125,-2.104799509048462,-9.480794906616211,-1.3618855476379395
1773163152191158300,9.750158203125,-2.222513437271118,-9.468114852905273,-1.2592099905014038
1773163152203658200,9.762658203125,-2.3131186962127686,-9.459866523742676,-1.1536052227020264
1773163152216158200,9.775158203125,-2.379279136657715,-9.455577850341797,-1.0495017766952515
1773163152228658400,9.787658447265626,-2.426098585128784,-9.453790664672852,-0.9540886878967285
1773163152241158400,9.800158447265625,-2.4581615924835205,-9.45365047454834,-0.8696671724319458
1773163152253658400,9.812658447265624,-2.4782721996307373,-9.45483112335205,-0.7967082858085632
1773163152266158300,9.825158447265625,-2.487842082977295,-9.457237243652344,-0.7359907627105713
1773163152278658300,9.837658203125,-2.489349603652954,-9.460431098937988,-0.6883097887039185
1773163152303658200,9.862658203125,-2.46960186958313,-9.469549179077148,-0.6317372918128967
1773163152316158200,9.875158203125,-2.445183753967285,-9.476889610290527,-0.6164641380310059
1773163152328658400,9.887658447265625,-2.412259340286255,-9.485466957092285,-0.614262580871582
1773163152341158400,9.900158447265625,-2.369558095932007,-9.495463371276855,-0.6259167790412903
1773163152353658400,9.912658447265626,-2.3210456371307373,-9.505704879760742,-0.65171217918396
1773163152366158300,9.925158447265625,-2.271535873413086,-9.514893531799316,-0.6908764243125916
1773163152378658300,9.937658203125,-2.22723126411438,-9.522004127502441,-0.7357058525085449
1773163152391158300,9.950158203125,-2.188532590866089,-9.527615547180176,-0.7779845595359802
1773163152403658200,9.962658203125,-2.154308795928955,-9.532487869262695,-0.8130234479904175
1773163152416158200,9.975158203125,-2.1234092712402344,-9.537190437316895,-0.8387588262557983
1773163152428658400,9.987658447265625,-2.095233678817749,-9.542009353637695,-0.85466068983078
1773163152441158400,10.000158447265624,-2.070084810256958,-9.546963691711426,-0.8605993390083313
1773163152453658400,10.012658447265625,-2.050264596939087,-9.551788330078125,-0.8544908165931702
1773163152466158300,10.025158447265625,-2.0411109924316406,-9.555183410644531,-0.838283896446228
1773163152478658300,10.037658203125,-2.044978618621826,-9.556194305419922,-0.8170636892318726
1773163152491158300,10.050158203125,-2.062919855117798,-9.55405330657959,-0.7967615127563477
1773163152503658200,10.062658203125,-2.0955703258514404,-9.547894477844238,-0.7852832674980164
1773163152516158200,10.075158203125,-2.1433932781219482,-9.536927223205566,-0.7894863486289978
1773163152528658400,10.087658447265625,-2.200646162033081,-9.522737503051758,-0.8031203746795654
1773163152541158400,10.100158447265626,-2.2583887577056885,-9.507482528686523,-0.8233115077018738
1773163152553658400,10.112658447265625,-2.3106870651245117,-9.492780685424805,-0.8474879860877991
1773163152566158300,10.125158447265624,-2.35465145111084,-9.479937553405762,-0.869939923286438
1773163152578658300,10.137658203125,-2.3879330158233643,-9.470019340515137,-0.8870713710784912
1773163152591158300,10.150158203125,-2.407013177871704,-9.464273452758789,-0.8967764377593994
1773163152603658200,10.162658203125,-2.411106586456299,-9.463177680969238,-0.8973496556282043
1773163152616158200,10.175158203125,-2.400599479675293,-9.466471672058105,-0.8907521963119507
1773163152628658400,10.187658447265624,-2.3761205673217773,-9.47370719909668,-0.8793731927871704
1773163152641158400,10.200158447265625,-2.340625762939453,-9.483996391296387,-0.8635255694389343
1773163152653658400,10.212658447265625,-2.2965567111968994,-9.496540069580078,-0.8437659740447998
1773163152666158300,10.225158447265626,-2.246196746826172,-9.510723114013672,-0.8192318677902222
1773163152678658300,10.237658203125,-2.1905155181884766,-9.526582717895508,-0.7850187420845032
1773163152691158300,10.250158203125,-2.131866216659546,-9.54327392578125,-0.7426012754440308
1773163152703658200,10.262658203125,-2.0780696868896484,-9.558296203613281,-0.7007077932357788
1773163152716158200,10.275158203125,-2.0332834720611572,-9.570023536682129,-0.6714085936546326
1773163152728658400,10.287658447265626,-1.9916000366210938,-9.579164505004883,-0.6659815311431885
1773163152741158400,10.300158447265625,-1.9443460702896118,-9.587352752685547,-0.6874329447746277
1773163152753658400,10.312658447265624,-1.8827488422393799,-9.596492767333984,-0.7300437688827515
1773163152766158300,10.325158447265625,-1.8019943237304688,-9.60690975189209,-0.7940231561660767
1773163152778658300,10.337658203125,-1.7044095993041992,-9.61747932434082,-0.8771994709968567
1773163152791158300,10.350158203125,-1.5969228744506836,-9.627086639404297,-0.9692386984825134
1773163152803658200,10.362658203125,-1.4849721193313599,-9.635499000549316,-1.059430718421936
1773163152816158200,10.375158203125,-1.3738900423049927,-9.642565727233887,-1.14181387424469
1773163152828658400,10.387658447265625,-1.2640929222106934,-9.648571014404297,-1.215531349182129
1773163152841158400,10.400158447265625,-1.156563639640808,-9.653926849365234,-1.2784485816955566
1773163152853658400,10.412658447265626,-1.05470871925354,-9.658720970153809,-1.3293172121047974
1773163152866158300,10.425158447265625,-0.9597193598747253,-9.662715911865234,-1.371577501296997
1773163152878658300,10.437658203125,-0.8654635548591614,-9.666616439819336,-1.4063799381256104
1773163152891158300,10.450158203125,-0.7689749598503113,-9.67093563079834,-1.432503581047058
1773163152903658200,10.462658203125,-0.6693745851516724,-9.675825119018555,-1.4493941068649292
1773163152916158200,10.475158203125,-0.5649399757385254,-9.68156623840332,-1.4555059671401978
1773163152928658400,10.487658447265625,-0.45217594504356384,-9.688206672668457,-1.4507145881652832
1773163152941158400,10.500158447265624,-0.3315696716308594,-9.694893836975098,-1.4385695457458496
1773163152953658400,10.512658447265625,-0.2076358050107956,-9.700457572937012,-1.4242193698883057
1773163152966158300,10.525158447265625,-0.08431310206651688,-9.704239845275879,-1.4110257625579834
1773163152978658300,10.537658203125,0.03687068074941635,-9.70572280883789,-1.4028443098068237
1773163152991158300,10.550158203125,0.15595532953739166,-9.704503059387207,-1.40309739112854
1773163153003658200,10.562658203125,0.2719702422618866,-9.70029067993164,-1.4144909381866455
1773163153016158200,10.575158203125,0.3810238838195801,-9.692814826965332,-1.4403302669525146
1773163153028658400,10.587658447265625,0.4798623323440552,-9.682202339172363,-1.4815813302993774
1773163153041158400,10.600158447265626,0.5693418383598328,-9.668789863586426,-1.5364705324172974
1773163153053658400,10.612658447265625,0.6507171988487244,-9.652774810791016,-1.6034027338027954
1773163153066158300,10.625158447265624,0.725984513759613,-9.63459587097168,-1.6786577701568604
1773163153078658300,10.637658203125,0.7987385392189026,-9.615312576293945,-1.75447416305542
1773163153091158300,10.650158203125,0.8710168600082397,-9.595823287963867,-1.8253459930419922
1773163153103658200,10.662658203125,0.9416170120239258,-9.576752662658691,-1.8893259763717651
1773163153116158200,10.675158203125,1.0046050548553467,-9.558919906616211,-1.9463276863098145
1773163153128658400,10.687658447265624,1.0567622184753418,-9.54306411743164,-1.9958866834640503
1773163153141158400,10.700158447265625,1.1025280952453613,-9.529170989990234,-2.0370850563049316
1773163153153658400,10.712658447265625,1.144517183303833,-9.517425537109375,-2.068596124649048
1773163153166158300,10.725158447265626,1.1846972703933716,-9.507566452026367,-2.091191291809082
1773163153178658300,10.737658203125,1.218413233757019,-9.499483108520508,-2.108480930328369
1773163153191158300,10.750158203125,1.2403995990753174,-9.493718147277832,-2.12158203125
1773163153203658200,10.762658203125,1.2522053718566895,-9.490426063537598,-2.129365921020508
1773163153216158200,10.775158203125,1.2572728395462036,-9.489288330078125,-2.131446361541748
1773163153228658400,10.787658447265626,1.2586179971694946,-9.490106582641602,-2.1270039081573486
1773163153241158400,10.800158447265625,1.2588070631027222,-9.492262840270996,-2.117246389389038
1773163153253658400,10.812658447265624,1.2586702108383179,-9.494818687438965,-2.105842351913452
1773163153266158300,10.825158447265625,1.2557780742645264,-9.49693775177002,-2.0980002880096436
1773163153278658300,10.837658203125,1.2484774589538574,-9.498186111450195,-2.0967023372650146
1773163153291158300,10.850158203125,1.2379686832427979,-9.498506546020508,-2.1014769077301025
1773163153303658200,10.862658203125,1.2268955707550049,-9.498398780822754,-2.1084439754486084
1773163153316158200,10.875158203125,1.2150765657424927,-9.498826026916504,-2.1133553981781006
1773163153328658400,10.887658447265625,1.1997352838516235,-9.500782012939453,-2.1133291721343994
1773163153341158400,10.900158447265625,1.1780201196670532,-9.504863739013672,-2.1071836948394775
1773163153353658400,10.912658447265626,1.1494702100753784,-9.511011123657227,-2.095179319381714
1773163153366158300,10.925158447265625,1.1151790618896484,-9.518987655639648,-2.0774123668670654
1773163153378658300,10.937658203125,1.07908296585083,-9.528459548950195,-2.0529074668884277
1773163153391158300,10.950158203125,1.0455336570739746,-9.538777351379395,-2.022123098373413
1773163153403658200,10.962658203125,1.0130574703216553,-9.549630165100098,-1.9871233701705933
1773163153416158200,10.975158203125,0.9751477241516113,-9.561097145080566,-1.9506157636642456
1773163153428658400,10.987658447265625,0.922468900680542,-9.573470115661621,-1.9152309894561768
1773163153441158400,11.000158447265624,0.8483494520187378,-9.587128639221191,-1.880866289138794
1773163153453658400,11.012658447265625,0.7490711212158203,-9.602459907531738,-1.8444604873657227
1773163153466158300,11.025158447265625,0.6209231019020081,-9.619863510131836,-1.8008487224578857
1773163153478658300,11.037658203125,0.4612761437892914,-9.63885498046875,-1.7464542388916016
1773163153491158300,11.050158203125,0.2679697573184967,-9.658079147338867,-1.6793104410171509
1773163153503658200,11.062658203125,0.04151131212711334,-9.675436973571777,-1.5983107089996338
1773163153516158200,11.075158203125,-0.22486642003059387,-9.686113357543945,-1.5162568092346191
1773163153528658400,11.087658447265625,-0.5327935814857483,-9.684884071350098,-1.4455218315124512
1773163153541158400,11.100158447265626,-0.8569307327270508,-9.671216011047363,-1.3797203302383423
1773163153553658400,11.112658447265625,-1.1708488464355469,-9.64629077911377,-1.322333812713623
1773163153566158300,11.125158447265624,-1.4614646434783936,-9.612086296081543,-1.2815182209014893
1773163153578658300,11.137658203125,-1.7215992212295532,-9.571763038635254,-1.2600916624069214
1773163153591158300,11.150158203125,-1.9457813501358032,-9.530202865600586,-1.2488235235214233
1773163153603658200,11.162658203125,-2.137937307357788,-9.49064826965332,-1.2358007431030273
1773163153616158200,11.175158203125,-2.304417371749878,-9.453532218933105,-1.220981478691101
1773163153628658400,11.187658447265624,-2.4518632888793945,-9.417460441589355,-1.2125139236450195
1773163153641158400,11.200158447265625,-2.58312726020813,-9.382843971252441,-1.20834219455719
1773163153653658400,11.212658447265625,-2.701603651046753,-9.350400924682617,-1.2007209062576294
1773163153666158300,11.225158447265626,-2.8053505420684814,-9.321491241455078,-1.1875154972076416
1773163153678658300,11.237658203125,-2.8914878368377686,-9.298004150390625,-1.16482412815094
1773163153691158300,11.250158203125,-2.9532840251922607,-9.282456398010254,-1.1333516836166382
1773163153703658200,11.262658203125,-2.9918923377990723,-9.274359703063965,-1.0978184938430786
1773163153716158200,11.275158203125,-3.0134377479553223,-9.271184921264648,-1.0652282238006592
1773163153728658400,11.287658447265626,-3.023350477218628,-9.269471168518066,-1.0519733428955078
1773163153741158400,11.300158447265625,-3.021787405014038,-9.268746376037598,-1.0627973079681396
1773163153753658400,11.312658447265624,-3.0053791999816895,-9.271992683410645,-1.0808475017547607
1773163153766158300,11.325158447265625,-2.9697935581207275,-9.280930519104004,-1.1022865772247314
1773163153778658300,11.337658203125,-2.916666269302368,-9.294114112854004,-1.1326487064361572
1773163153791158300,11.350158203125,-2.8476572036743164,-9.310626983642578,-1.171944499015808
1773163153803658200,11.362658203125,-2.765488386154175,-9.33043098449707,-1.2105859518051147
1773163153816158200,11.375158203125,-2.677739143371582,-9.351969718933105,-1.2412786483764648
1773163153828658400,11.387658447265625,-2.589266538619995,-9.37419319152832,-1.2611901760101318
1773163153841158400,11.400158447265625,-2.5034451484680176,-9.39586067199707,-1.2731635570526123
1773163153853658400,11.412658447265626,-2.4199090003967285,-9.417220115661621,-1.2768726348876953
1773163153866158300,11.425158447265625,-2.34031343460083,-9.438015937805176,-1.271680235862732
1773163153878658300,11.437658203125,-2.2700681686401367,-9.456635475158691,-1.2606450319290161
1773163153891158300,11.450158203125,-2.2029876708984375,-9.475184440612793,-1.240209937095642
1773163153903658200,11.462658203125,-2.1370797157287598,-9.493807792663574,-1.2128099203109741
1773163153916158200,11.475158203125,-2.0748794078826904,-9.51147747039795,-1.1819745302200317
1773163153928658400,11.487658447265625,-2.0195181369781494,-9.527433395385742,-1.148886799812317
1773163153941158400,11.500158447265624,-1.9739090204238892,-9.540999412536621,-1.1150721311569214
1773163153953658400,11.512658447265625,-1.9410537481307983,-9.551691055297852,-1.0806950330734253
1773163153966158300,11.525158447265625,-1.9239037036895752,-9.558892250061035,-1.0471655130386353
1773163153978658300,11.537658203125,-1.922348976135254,-9.562601089477539,-1.0156856775283813
1773163153991158300,11.550158203125,-1.9362108707427979,-9.562650680541992,-0.9885225296020508
1773163154003658200,11.562658203125,-1.965110182762146,-9.55872631072998,-0.9692646861076355
1773163154016158200,11.575158203125,-2.0086669921875,-9.550202369689941,-0.963996171951294
1773163154028658400,11.587658447265625,-2.059004545211792,-9.538643836975098,-0.9721928834915161
1773163154041158400,11.600158447265626,-2.104954957962036,-9.527348518371582,-0.9844732880592346
1773163154053658400,11.612658447265625,-2.140129566192627,-9.518916130065918,-0.9901881217956543
1773163154066158300,11.625158447265624,-2.160337448120117,-9.515266418457031,-0.9813414812088013
1773163154078658300,11.637658203125,-2.1589736938476562,-9.51833724975586,-0.9541849493980408
1773163154091158300,11.650158203125,-2.128484010696411,-9.529168128967285,-0.9137242436408997
1773163154103658200,11.662658203125,-2.0683064460754395,-9.546244621276855,-0.8727579116821289
1773163154116158200,11.675158203125,-1.991066336631775,-9.565582275390625,-0.8400426506996155
1773163154128658400,11.687658447265624,-1.9164376258850098,-9.582480430603027,-0.8208093047142029
1773163154141158400,11.700158447265625,-1.8610398769378662,-9.593667030334473,-0.8175957202911377
1773163154153658400,11.712658447265625,-1.8240777254104614,-9.599953651428223,-0.8270496726036072
1773163154166158300,11.725158447265626,-1.7878391742706299,-9.60526180267334,-0.8443730473518372
1773163154178658300,11.737658203125,-1.737741231918335,-9.612595558166504,-0.8652536869049072
1773163154191158300,11.750158203125,-1.6735068559646606,-9.622010231018066,-0.8869473934173584
1773163154203658200,11.762658203125,-1.600390911102295,-9.632536888122559,-0.9073919653892517
1773163154216158200,11.775158203125,-1.5208920240402222,-9.643403053283691,-0.9284653663635254
1773163154228658400,11.787658447265626,-1.434977650642395,-9.65414810180664,-0.9532309770584106
1773163154241158400,11.800158447265625,-1.3432914018630981,-9.664606094360352,-0.9804808497428894
1773163154253658400,11.812658447265624,-1.2470124959945679,-9.674874305725098,-1.0060503482818604
1773163154266158300,11.825158447265625,-1.146807312965393,-9.684882164001465,-1.0287240743637085
1773163154278658300,11.837658203125,-1.045051097869873,-9.694024085998535,-1.0507919788360596
1773163154291158300,11.850158203125,-0.944395899772644,-9.701786041259766,-1.0741701126098633
1773163154303658200,11.862658203125,-0.8467686772346497,-9.708078384399414,-1.0984432697296143
1773163154316158200,11.875158203125,-0.7532250881195068,-9.71310806274414,-1.1218655109405518
1773163154328658400,11.887658447265625,-0.6632391214370728,-9.717129707336426,-1.143631100654602
1773163154341158400,11.900158447265625,-0.5753251910209656,-9.7200927734375,-1.1658419370651245
1773163154353658400,11.912658447265626,-0.48588016629219055,-9.722517013549805,-1.1861579418182373
1773163154366158300,11.925158447265625,-0.39117053151130676,-9.72508430480957,-1.2000442743301392
1773163154378658300,11.937658203125,-0.29051217436790466,-9.7278413772583,-1.2062761783599854
1773163154391158300,11.950158203125,-0.18700021505355835,-9.730537414550781,-1.2050187587738037
1773163154403658200,11.962658203125,-0.08406431972980499,-9.732597351074219,-1.1999472379684448
1773163154416158200,11.975158203125,0.014111075550317764,-9.733359336853027,-1.1966197490692139
1773163154428658400,11.987658447265625,0.10444346815347672,-9.73287296295166,-1.1961075067520142
1773163154441158400,12.000158447265624,0.19285257160663605,-9.731595993041992,-1.1955050230026245
1773163154453658400,12.012658447265625,0.28358256816864014,-9.728897094726562,-1.1993919610977173
1773163154466158300,12.025158447265625,0.3704397976398468,-9.724501609802246,-1.2112916707992554
1773163154478658300,12.037658203125,0.44671908020973206,-9.719034194946289,-1.2293121814727783
1773163154491158300,12.050158203125,0.5152284502983093,-9.712589263916016,-1.2532098293304443
1773163154503658200,12.062658203125,0.5790931582450867,-9.70505428314209,-1.2833434343338013
1773163154516158200,12.075158203125,0.6417027115821838,-9.69640827178955,-1.3184298276901245
1773163154528658400,12.087658447265625,0.7049098610877991,-9.686779975891113,-1.3563873767852783
1773163154541158400,12.100158447265626,0.7708091139793396,-9.67648696899414,-1.3934955596923828
1773163154553658400,12.112658447265625,0.8398765921592712,-9.665674209594727,-1.428197979927063
1773163154566158300,12.125158447265624,0.908525824546814,-9.65480899810791,-1.4593249559402466
1773163154578658300,12.137658203125,0.9690888524055481,-9.644241333007812,-1.4899216890335083
1773163154591158300,12.150158203125,1.0197714567184448,-9.634613990783691,-1.5181130170822144
1773163154603658200,12.162658203125,1.0674529075622559,-9.625580787658691,-1.5424484014511108
1773163154616158200,12.175158203125,1.1126868724822998,-9.616121292114258,-1.5692486763000488
1773163154628658400,12.187658447265624,1.1518851518630981,-9.60643482208252,-1.5999895334243774
1773163154641158400,12.200158447265625,1.1828733682632446,-9.597325325012207,-1.6317304372787476
1773163154653658400,12.212658447265625,1.2081751823425293,-9.587759017944336,-1.669007420539856
1773163154666158300,12.225158447265626,1.230860710144043,-9.577248573303223,-1.7122137546539307
1773163154678658300,12.237658203125,1.2514463663101196,-9.566017150878906,-1.7594298124313354
1773163154691158300,12.250158203125,1.268187165260315,-9.55466365814209,-1.8084532022476196
1773163154703658200,12.262658203125,1.2827458381652832,-9.543953895568848,-1.8541616201400757
1773163154716158200,12.275158203125,1.2981730699539185,-9.53472900390625,-1.8905221223831177
1773163154728658400,12.287658447265626,1.3144980669021606,-9.527743339538574,-1.914313554763794
1773163154741158400,12.300158447265625,1.325736165046692,-9.523629188537598,-1.9269930124282837
1773163154753658400,12.312658447265624,1.3263639211654663,-9.522683143615723,-1.9312326908111572
1773163154766158300,12.325158447265625,1.318589448928833,-9.524523735046387,-1.9274702072143555
1773163154778658300,12.337658203125,1.3045904636383057,-9.527840614318848,-1.9205970764160156
1773163154791158300,12.350158203125,1.2847193479537964,-9.532185554504395,-1.9124149084091187
1773163154803658200,12.362658203125,1.2575467824935913,-9.537302017211914,-1.904953122138977
1773163154816158200,12.375158203125,1.2237061262130737,-9.543107986450195,-1.8979004621505737
1773163154828658400,12.387658447265625,1.1869900226593018,-9.549328804016113,-1.8899106979370117
1773163154841158400,12.400158447265625,1.1493362188339233,-9.556439399719238,-1.8771991729736328
1773163154853658400,12.412658447265626,1.110156774520874,-9.565452575683594,-1.8547414541244507
1773163154866158300,12.425158447265625,1.0711406469345093,-9.576801300048828,-1.8187681436538696
1773163154878658300,12.437658203125,1.0354472398757935,-9.590579986572266,-1.766074299812317
1773163154891158300,12.450158203125,1.0066838264465332,-9.605839729309082,-1.698472499847412
1773163154903658200,12.462658203125,0.9827386736869812,-9.621016502380371,-1.6250079870224
1773163154916158200,12.475158203125,0.955780565738678,-9.635602951049805,-1.5530682802200317
1773163154928658400,12.487658447265625,0.9180915355682373,-9.649005889892578,-1.4913702011108398
1773163154941158400,12.500158447265624,0.86170893907547,-9.660202026367188,-1.45200777053833
1773163154953658400,12.512658447265625,0.7805744409561157,-9.669331550598145,-1.4370524883270264
1773163154966158300,12.525158447265625,0.6719334721565247,-9.677865028381348,-1.4345124959945679
1773163154978658300,12.537658203125,0.5339947938919067,-9.686347961425781,-1.4352331161499023
1773163154991158300,12.550158203125,0.3646443784236908,-9.694522857666016,-1.4330580234527588
1773163155003658200,12.562658203125,0.16376246511936188,-9.701681137084961,-1.4216029644012451
1773163155016158200,12.575158203125,-0.065739206969738,-9.706692695617676,-1.3950541019439697
1773163155028658400,12.587658447265625,-0.32051214575767517,-9.707649230957031,-1.3524808883666992
1773163155041158400,12.600158447265626,-0.5931711196899414,-9.702588081359863,-1.2955001592636108
1773163155053658400,12.612658447265625,-0.8738309741020203,-9.689745903015137,-1.2311058044433594
1773163155066158300,12.625158447265624,-1.1496063470840454,-9.669779777526855,-1.1593799591064453
1773163155078658300,12.637658203125,-1.4029302597045898,-9.645218849182129,-1.0825541019439697
1773163155091158300,12.650158203125,-1.6191257238388062,-9.619258880615234,-1.0092958211898804
1773163155103658200,12.662658203125,-1.7968233823776245,-9.594230651855469,-0.944754421710968
1773163155116158200,12.675158203125,-1.9432743787765503,-9.571552276611328,-0.8828685879707336
1773163155128658400,12.687658447265624,-2.066734552383423,-9.550467491149902,-0.829190194606781
1773163155141158400,12.700158447265625,-2.17305326461792,-9.53028392791748,-0.7886260151863098
1773163155153658400,12.712658447265625,-2.2660460472106934,-9.511579513549805,-0.7518553137779236
1773163155166158300,12.725158447265626,-2.349865198135376,-9.49449348449707,-0.7093101739883423
1773163155178658300,12.737658203125,-2.422588586807251,-9.479767799377441,-0.659893274307251
1773163155191158300,12.750158203125,-2.4776878356933594,-9.469338417053223,-0.6025635004043579
1773163155203658200,12.762658203125,-2.5063438415527344,-9.465850830078125,-0.5350764989852905
1773163155216158200,12.775158203125,-2.508915901184082,-9.468794822692871,-0.46653351187705994
1773163155228658400,12.787658447265626,-2.4921481609344482,-9.475873947143555,-0.4091535210609436
1773163155241158400,12.800158447265625,-2.464047908782959,-9.484865188598633,-0.3690319359302521
1773163155253658400,12.812658447265624,-2.42537260055542,-9.496185302734375,-0.3322935998439789
1773163155266158300,12.825158447265625,-2.377864122390747,-9.50929069519043,-0.29922887682914734
1773163155278658300,12.837658203125,-2.326626777648926,-9.522567749023438,-0.2790919840335846
1773163155291158300,12.850158203125,-2.2733895778656006,-9.535567283630371,-0.2739293575286865
1773163155303658200,12.862658203125,-2.217081069946289,-9.54858112335205,-0.2820397615432739
1773163155316158200,12.875158203125,-2.1566193103790283,-9.561859130859375,-0.3003994822502136
1773163155328658400,12.887658447265625,-2.092167615890503,-9.575307846069336,-0.32665175199508667
1773163155341158400,12.900158447265625,-2.0241732597351074,-9.58875846862793,-0.35892942547798157
1773163155366158300,12.925158447265625,-1.8743298053741455,-9.615837097167969,-0.4392803907394409
1773163155378658300,12.937658203125,-1.7930173873901367,-9.629207611083984,-0.4835684895515442
1773163155391158300,12.950158203125,-1.7093946933746338,-9.642109870910645,-0.5273295044898987
1773163155403658200,12.962658203125,-1.625998616218567,-9.65434741973877,-0.5657596588134766
1773163155416158200,12.975158203125,-1.5521384477615356,-9.664794921875,-0.5941375494003296
1773163155428658400,12.987658447265625,-1.4934931993484497,-9.672903060913086,-0.6122060418128967
1773163155441158400,13.000158447265624,-1.4509904384613037,-9.67874526977539,-0.6220099329948425
1773163155453658400,13.012658447265625,-1.4257465600967407,-9.682147979736328,-0.6274122595787048
1773163155466158300,13.025158447265625,-1.4174280166625977,-9.683348655700684,-0.6277192234992981
1773163155478658300,13.037658203125,-1.4254870414733887,-9.682780265808105,-0.6181928515434265
1773163155491158300,13.050158203125,-1.4540156126022339,-9.679647445678711,-0.6005561351776123
1773163155503658200,13.062658203125,-1.50441575050354,-9.672990798950195,-0.5833996534347534
1773163155516158200,13.075158203125,-1.5726008415222168,-9.66268539428711,-0.574312150478363
1773163155528658400,13.087658447265625,-1.654098391532898,-9.648845672607422,-0.5780178308486938
1773163155541158400,13.100158447265626,-1.7444723844528198,-9.631991386413574,-0.5932445526123047
1773163155553658400,13.112658447265625,-1.8366152048110962,-9.613563537597656,-0.6137005090713501
1773163155566158300,13.125158447265624,-1.9222712516784668,-9.595606803894043,-0.6321353316307068
1773163155578658300,13.137658203125,-1.9917234182357788,-9.580805778503418,-0.6415373682975769
1773163155591158300,13.150158203125,-2.038341760635376,-9.571276664733887,-0.637341320514679
1773163155603658200,13.162658203125,-2.052419662475586,-9.569683074951172,-0.6157230734825134
1773163155616158200,13.175158203125,-2.025031566619873,-9.578072547912598,-0.5745916962623596
1773163155628658400,13.187658447265624,-1.9546571969985962,-9.59587574005127,-0.5185428261756897
1773163155641158400,13.200158447265625,-1.8603075742721558,-9.617143630981445,-0.4692569375038147
1773163155653658400,13.212658447265625,-1.7912940979003906,-9.631410598754883,-0.4444776773452759
1773163155666158300,13.225158447265626,-1.7698121070861816,-9.63521671295166,-0.44806742668151855
1773163155678658300,13.237658203125,-1.780084252357483,-9.631584167480469,-0.48401588201522827
1773163155691158300,13.250158203125,-1.7875933647155762,-9.62663745880127,-0.5502335429191589
1773163155703658200,13.262658203125,-1.7757220268249512,-9.624197006225586,-0.6261329650878906
1773163155716158200,13.275158203125,-1.739998698234558,-9.626282691955566,-0.6909945011138916
1773163155728658400,13.287658447265626,-1.6826730966567993,-9.632411003112793,-0.7454214692115784
1773163155741158400,13.300158447265625,-1.6100795269012451,-9.641301155090332,-0.7895166873931885
1773163155753658400,13.312658447265624,-1.5270546674728394,-9.651680946350098,-0.8267571330070496
1773163155778658300,13.337658203125,-1.3575083017349243,-9.669784545898438,-0.9070935249328613
1773163155791158300,13.350158203125,-1.2791517972946167,-9.67646312713623,-0.9487952589988708
1773163155803658200,13.362658203125,-1.1983705759048462,-9.682781219482422,-0.9889533519744873
1773163155816158200,13.375158203125,-1.111240267753601,-9.689038276672363,-1.0286260843276978
1773163155828658400,13.387658447265625,-1.0200979709625244,-9.694656372070312,-1.0693116188049316
1773163155841158400,13.400158447265625,-0.93242347240448,-9.698677062988281,-1.112044095993042
1773163155853658400,13.412658447265626,-0.8518059849739075,-9.700849533081055,-1.1568609476089478
1773163155866158300,13.425158447265625,-0.7779536247253418,-9.701440811157227,-1.2030025720596313
1773163155878658300,13.437658203125,-0.7084804177284241,-9.70103931427002,-1.2483099699020386
1773163155891158300,13.450158203125,-0.6399847865104675,-9.700363159179688,-1.289866328239441
1773163155903658200,13.462658203125,-0.5727331638336182,-9.699066162109375,-1.3305954933166504
1773163155916158200,13.475158203125,-0.5052103996276855,-9.697647094726562,-1.3677637577056885
1773163155928658400,13.487658447265625,-0.4345772862434387,-9.697021484375,-1.396174669265747
1773163155941158400,13.500158447265624,-0.3615271747112274,-9.69705867767334,-1.4165927171707153
1773163155953658400,13.512658447265625,-0.29032471776008606,-9.697132110595703,-1.4323853254318237
1773163155966158300,13.525158447265625,-0.2214030623435974,-9.696813583374023,-1.4467799663543701
1773163155978658300,13.537658203125,-0.15260088443756104,-9.695690155029297,-1.4631128311157227
1773163155991158300,13.550158203125,-0.08345077931880951,-9.693483352661133,-1.4831751585006714
1773163156003658200,13.562658203125,-0.01362568698823452,-9.68970012664795,-1.5099339485168457
1773163156016158200,13.575158203125,0.05739566683769226,-9.684144020080566,-1.544169545173645
1773163156028658400,13.587658447265625,0.12710225582122803,-9.676794052124023,-1.5855268239974976
1773163156041158400,13.600158447265626,0.19329121708869934,-9.667803764343262,-1.6329708099365234
1773163156053658400,13.612658447265625,0.2553887665271759,-9.657573699951172,-1.6841710805892944
1773163156066158300,13.625158447265624,0.31533387303352356,-9.646271705627441,-1.7379329204559326
1773163156078658300,13.637658203125,0.37449875473976135,-9.633975982666016,-1.7935006618499756
1773163156091158300,13.650158203125,0.4339801073074341,-9.620983123779297,-1.8489818572998047
1773163156103658200,13.662658203125,0.49487385153770447,-9.607545852661133,-1.902775526046753
1773163156116158200,13.675158203125,0.5563806295394897,-9.593658447265625,-1.9551336765289307
1773163156128658400,13.687658447265624,0.6170095801353455,-9.579632759094238,-2.005077362060547
1773163156141158400,13.700158447265625,0.6754969954490662,-9.565958976745605,-2.050981044769287
1773163156153658400,13.712658447265625,0.7298039197921753,-9.552785873413086,-2.0933406352996826
1773163156166158300,13.725158447265626,0.7758107781410217,-9.540349960327148,-2.1331326961517334
1773163156178658300,13.737658203125,0.811621367931366,-9.528882026672363,-2.170729160308838
1773163156191158300,13.750158203125,0.8386629819869995,-9.51848030090332,-2.205800771713257
1773163156203658200,13.762658203125,0.8585074543952942,-9.50915813446045,-2.2381398677825928
1773163156216158200,13.775158203125,0.8714809417724609,-9.500670433044434,-2.2689595222473145
1773163156228658400,13.787658447265626,0.8785833120346069,-9.492773056030273,-2.2990739345550537
1773163156241158400,13.800158447265625,0.8775866031646729,-9.485490798950195,-2.3293087482452393
1773163156253658400,13.812658447265624,0.8607456684112549,-9.484368324279785,-2.3401429653167725
1773163156266158300,13.825158447265625,0.8321881294250488,-9.485692977905273,-2.345097303390503
1773163156278658300,13.837658203125,0.8061462044715881,-9.489076614379883,-2.340498685836792
1773163156303658200,13.862658203125,0.77907794713974,-9.495996475219727,-2.3215270042419434
1773163156316158200,13.875158203125,0.762935221195221,-9.49854564666748,-2.3164517879486084
1773163156328658400,13.887658447265625,0.7295077443122864,-9.503835678100586,-2.3054959774017334
1773163156341158400,13.900158447265625,0.6698254942893982,-9.512243270874023,-2.288872241973877
1773163156366158300,13.925158447265625,0.456606388092041,-9.536370277404785,-2.240431308746338
1773163156378658300,13.937658203125,0.3012378215789795,-9.551933288574219,-2.2000491619110107
1773163156391158300,13.950158203125,0.1159900426864624,-9.568062782287598,-2.1468827724456787
1773163156403658200,13.962658203125,-0.09473907947540283,-9.582887649536133,-2.080784559249878
1773163156416158200,13.975158203125,-0.32326287031173706,-9.594816207885742,-2.001344919204712
1773163156428658400,13.987658447265625,-0.5631153583526611,-9.602818489074707,-1.9076608419418335
1773163156441158400,14.000158447265624,-0.8097052574157715,-9.606547355651855,-1.796941876411438
1773163156453658400,14.012658447265625,-1.0570454597473145,-9.605345726013184,-1.670438528060913
1773163156466158300,14.025158447265625,-1.2997407913208008,-9.5991792678833,-1.5286659002304077
1773163156478658300,14.037658203125,-1.5300209522247314,-9.588583946228027,-1.3742179870605469
1773163156491158300,14.050158203125,-1.7403815984725952,-9.574520111083984,-1.212440848350525
1773163156503658200,14.062658203125,-1.9210454225540161,-9.559194564819336,-1.0496586561203003
1773163156516158200,14.075158203125,-2.0518264770507812,-9.547723770141602,-0.8951972126960754
1773163156528658400,14.087658447265625,-2.1288065910339355,-9.54282283782959,-0.7570271492004395
1773163156541158400,14.100158447265626,-2.167714834213257,-9.54299545288086,-0.6345459222793579
1773163156553658400,14.112658447265625,-2.1916887760162354,-9.543883323669434,-0.5302547216415405
1773163156566158300,14.125158447265624,-2.218003034591675,-9.542482376098633,-0.4380258619785309
1773163156578658300,14.137658203125,-2.254926919937134,-9.53740406036377,-0.3515820801258087
1773163156591158300,14.150158203125,-2.2952187061309814,-9.5305757522583,-0.2654954791069031
1773163156603658200,14.162658203125,-2.3271403312683105,-9.52489948272705,-0.1762804090976715
1773163156616158200,14.175158203125,-2.342604160308838,-9.522381782531738,-0.08265000581741333
1773163156628658400,14.187658447265624,-2.3417975902557373,-9.522933959960938,0.010031345300376415
1773163156641158400,14.200158447265625,-2.3296096324920654,-9.525449752807617,0.09558972716331482
1773163156653658400,14.212658447265625,-2.3131043910980225,-9.52846908569336,0.1679936945438385
1773163156666158300,14.225158447265626,-2.2970402240753174,-9.531164169311523,0.2256315052509308
1773163156678658300,14.237658203125,-2.2798705101013184,-9.534173965454102,0.2685255706310272
1773163156691158300,14.250158203125,-2.259165048599243,-9.538313865661621,0.2951856255531311
1773163156703658200,14.262658203125,-2.232677698135376,-9.544044494628906,0.3110361695289612
1773163156716158200,14.275158203125,-2.2016258239746094,-9.551058769226074,0.31701260805130005
1773163156728658400,14.287658447265626,-2.165708303451538,-9.559405326843262,0.3128601908683777
1773163156741158400,14.300158447265625,-2.1233694553375244,-9.569355010986328,0.2985670864582062
1773163156753658400,14.312658447265624,-2.0726914405822754,-9.58109188079834,0.27752599120140076
1773163156766158300,14.325158447265625,-2.0137224197387695,-9.594439506530762,0.24906665086746216
1773163156778658300,14.337658203125,-1.9490386247634888,-9.608617782592773,0.21470917761325836
1773163156791158300,14.350158203125,-1.880085825920105,-9.623116493225098,0.17691251635551453
1773163156803658200,14.362658203125,-1.8090896606445312,-9.6373291015625,0.13949215412139893
1773163156816158200,14.375158203125,-1.735976219177246,-9.651163101196289,0.1087941899895668
1773163156828658400,14.387658447265625,-1.6618003845214844,-9.664385795593262,0.09196654707193375
1773163156841158400,14.400158447265625,-1.5899864435195923,-9.676424980163574,0.09563223272562027
1773163156853658400,14.412658447265626,-1.5289266109466553,-9.685928344726562,0.12474103271961212
1773163156866158300,14.425158447265625,-1.490030288696289,-9.691208839416504,0.17514103651046753
1773163156878658300,14.437658203125,-1.4808175563812256,-9.691333770751953,0.2358388602733612
1773163156891158300,14.450158203125,-1.5022785663604736,-9.686101913452148,0.30492791533470154
1773163156903658200,14.462658203125,-1.5493882894515991,-9.676154136657715,0.3766135573387146
1773163156916158200,14.475158203125,-1.6175603866577148,-9.662261009216309,0.4411383867263794
1773163156928658400,14.487658447265625,-1.7024967670440674,-9.645362854003906,0.48874548077583313
1773163156941158400,14.500158447265624,-1.7936015129089355,-9.627561569213867,0.5132596492767334
1773163156953658400,14.512658447265625,-1.8797839879989624,-9.610906600952148,0.5169868469238281
1773163156966158300,14.525158447265625,-1.9561375379562378,-9.595839500427246,0.5135941505432129
1773163156978658300,14.537658203125,-2.0210657119750977,-9.582437515258789,0.5124157667160034
1773163156991158300,14.550158203125,-2.0696585178375244,-9.571666717529297,0.5197181105613708
1773163157003658200,14.562658203125,-2.092721939086914,-9.56544303894043,0.5414834022521973
1773163157016158200,14.575158203125,-2.086326837539673,-9.564574241638184,0.5801271796226501
1773163157028658400,14.587658447265625,-2.064305543899536,-9.566696166992188,0.6223814487457275
1773163157041158400,14.600158447265626,-2.053358793258667,-9.568316459655762,0.6335804462432861
1773163157053658400,14.612658447265625,-2.059995174407959,-9.569247245788574,0.5969175100326538
1773163157066158300,14.625158447265624,-2.072763681411743,-9.570956230163574,0.5204249620437622
1773163157078658300,14.637658203125,-2.075875759124756,-9.575599670410156,0.4111161231994629
1773163157091158300,14.650158203125,-2.059755325317383,-9.584120750427246,0.2691119909286499
1773163157103658200,14.662658203125,-2.0184638500213623,-9.595989227294922,0.11474888771772385
1773163157116158200,14.675158203125,-1.9465209245681763,-9.61147403717041,-0.03206944093108177
1773163157128658400,14.687658447265624,-1.8477799892425537,-9.629600524902344,-0.1639445275068283
1773163157141158400,14.700158447265625,-1.736527681350708,-9.647705078125,-0.2768540382385254
1773163157153658400,14.712658447265625,-1.6268726587295532,-9.663503646850586,-0.37466129660606384
1773163157166158300,14.725158447265626,-1.5229307413101196,-9.676239967346191,-0.4705749452114105
1773163157178658300,14.737658203125,-1.4245686531066895,-9.685733795166016,-0.5723205804824829
1773163157191158300,14.750158203125,-1.3352038860321045,-9.692238807678223,-0.669420599937439
1773163157203658200,14.762658203125,-1.2600929737091064,-9.695945739746094,-0.7557619214057922
1773163157216158200,14.775158203125,-1.1963179111480713,-9.697428703308105,-0.8361098170280457
1773163157228658400,14.787658447265626,-1.136011004447937,-9.697416305541992,-0.9165008068084717
1773163157241158400,14.800158447265625,-1.0703414678573608,-9.696986198425293,-0.9966050386428833
1773163157253658400,14.812658447265624,-0.9929231405258179,-9.697122573852539,-1.0725147724151611
1773163157266158300,14.825158447265625,-0.9030171632766724,-9.698586463928223,-1.1368236541748047
1773163157278658300,14.837658203125,-0.802651047706604,-9.701581954956055,-1.1855130195617676
1773163157291158300,14.850158203125,-0.6941613554954529,-9.70555305480957,-1.2209643125534058
1773163157303658200,14.862658203125,-0.5812492966651917,-9.709575653076172,-1.2476710081100464
1773163157316158200,14.875158203125,-0.46761375665664673,-9.712509155273438,-1.2723591327667236
1773163157328658400,14.887658447265625,-0.35611364245414734,-9.713541984558105,-1.3002634048461914
1773163157341158400,14.900158447265625,-0.25064539909362793,-9.712165832519531,-1.3346896171569824
1773163157353658400,14.912658447265626,-0.15363377332687378,-9.708452224731445,-1.3757654428482056
1773163157366158300,14.925158447265625,-0.06495997309684753,-9.702558517456055,-1.423561453819275
1773163157378658300,14.937658203125,0.01990855671465397,-9.694820404052734,-1.4766333103179932
1773163157391158300,14.950158203125,0.10422712564468384,-9.68552017211914,-1.5330464839935303
1773163157403658200,14.962658203125,0.18579281866550446,-9.674386024475098,-1.5944050550460815
1773163157416158200,14.975158203125,0.2587236166000366,-9.66192626953125,-1.6584995985031128
1773163157428658400,14.987658447265625,0.32355815172195435,-9.64851188659668,-1.723923683166504
1773163157441158400,15.000158447265624,0.3826301395893097,-9.634398460388184,-1.7895108461380005
1773163157453658400,15.012658447265625,0.4399968981742859,-9.620743751525879,-1.848804235458374
1773163157466158300,15.025158447265625,0.49698013067245483,-9.608221054077148,-1.8988124132156372
1773163157478658300,15.037658203125,0.5523600578308105,-9.596248626708984,-1.943528652191162
1773163157491158300,15.050158203125,0.6069044470787048,-9.584603309631348,-1.9842931032180786
1773163157503658200,15.062658203125,0.6607671976089478,-9.57353687286377,-2.020188093185425
1773163157516158200,15.075158203125,0.7111641764640808,-9.562457084655762,-2.055248737335205
1773163157528658400,15.087658447265625,0.7554172277450562,-9.550877571105957,-2.092961549758911
1773163157541158400,15.100158447265626,0.7938277125358582,-9.538992881774902,-2.1325671672821045
1773163157553658400,15.112658447265625,0.8297504186630249,-9.52676010131836,-2.173189401626587
1773163157566158300,15.125158447265624,0.8607815504074097,-9.514966011047363,-2.212435483932495
1773163157578658300,15.137658203125,0.8905263543128967,-9.503470420837402,-2.24975848197937
1773163157591158300,15.150158203125,0.9190143942832947,-9.49233341217041,-2.2850401401519775
1773163157603658200,15.162658203125,0.9463677406311035,-9.481746673583984,-2.3175981044769287
1773163157616158200,15.175158203125,0.9739273190498352,-9.471714973449707,-2.347012758255005
1773163157628658400,15.187658447265624,1.0004395246505737,-9.462082862854004,-2.3745510578155518
1773163157641158400,15.200158447265625,1.0233157873153687,-9.452404975891113,-2.4031760692596436
1773163157653658400,15.212658447265625,1.0420610904693604,-9.442265510559082,-2.4347734451293945
1773163157666158300,15.225158447265626,1.057424783706665,-9.431585311889648,-2.46930193901062
1773163157678658300,15.237658203125,1.0736383199691772,-9.420534133911133,-2.5042412281036377
1773163157691158300,15.250158203125,1.090360403060913,-9.410122871398926,-2.5359601974487305
1773163157703658200,15.262658203125,1.1010863780975342,-9.402140617370605,-2.560814142227173
1773163157716158200,15.275158203125,1.1082360744476318,-9.39671516418457,-2.5775835514068604
1773163157728658400,15.287658447265626,1.1129201650619507,-9.394013404846191,-2.585402250289917
1773163157741158400,15.300158447265625,1.1115691661834717,-9.39455795288086,-2.5840060710906982
1773163157753658400,15.312658447265624,1.0967096090316772,-9.398341178894043,-2.576585292816162
1773163157766158300,15.325158447265625,1.0621834993362427,-9.405290603637695,-2.5656702518463135
1773163157778658300,15.337658203125,1.0052311420440674,-9.41598892211914,-2.5493245124816895
1773163157791158300,15.350158203125,0.922971248626709,-9.431074142456055,-2.5245485305786133
1773163157803658200,15.362658203125,0.811877429485321,-9.450559616088867,-2.489610195159912
1773163157816158200,15.375158203125,0.6687313318252563,-9.473586082458496,-2.44425106048584
1773163157828658400,15.387658447265625,0.4925382435321808,-9.498811721801758,-2.3875434398651123
1773163157841158400,15.400158447265625,0.2829090654850006,-9.524136543273926,-2.3197338581085205
1773163157853658400,15.412658447265626,0.03745051473379135,-9.546958923339844,-2.2415518760681152
1773163157866158300,15.425158447265625,-0.24265380203723907,-9.564176559448242,-2.1536097526550293
1773163157878658300,15.437658203125,-0.5524417161941528,-9.572197914123535,-2.058696985244751
1773163157891158300,15.450158203125,-0.8759766817092896,-9.569526672363281,-1.956324577331543
1773163157903658200,15.462658203125,-1.1868280172348022,-9.557746887207031,-1.846972942352295
1773163157916158200,15.475158203125,-1.465349555015564,-9.540237426757812,-1.734078049659729
1773163157928658400,15.487658447265625,-1.7047291994094849,-9.520133972167969,-1.6221407651901245
1773163157941158400,15.500158447265624,-1.9073662757873535,-9.499889373779297,-1.511436939239502
1773163157953658400,15.512658447265625,-2.0802841186523438,-9.480692863464355,-1.3997385501861572
1773163157966158300,15.525158447265625,-2.2355260848999023,-9.461874008178711,-1.28286874294281
1773163157978658300,15.537658203125,-2.3839292526245117,-9.442005157470703,-1.1557748317718506
1773163157991158300,15.550158203125,-2.5276827812194824,-9.42031478881836,-1.0192537307739258
1773163158003658200,15.562658203125,-2.6613926887512207,-9.39793872833252,-0.8752858638763428
1773163158016158200,15.575158203125,-2.7748820781707764,-9.377121925354004,-0.7348525524139404
1773163158028658400,15.587658447265625,-2.8541982173919678,-9.363157272338867,-0.5960166454315186
1773163158041158400,15.600158447265626,-2.893312931060791,-9.359037399291992,-0.45557183027267456
1773163158053658400,15.612658447265625,-2.899427652359009,-9.362930297851562,-0.31503841280937195
1773163158066158300,15.625158447265624,-2.8814845085144043,-9.372072219848633,-0.17806905508041382
1773163158078658300,15.637658203125,-2.8440029621124268,-9.385069847106934,-0.049884505569934845
1773163158091158300,15.650158203125,-2.789649486541748,-9.401274681091309,0.06548039615154266
1773163158103658200,15.662658203125,-2.7239766120910645,-9.419355392456055,0.1614828109741211
1773163158116158200,15.675158203125,-2.6546859741210938,-9.437555313110352,0.23577368259429932
1773163158128658400,15.687658447265624,-2.5906734466552734,-9.45388126373291,0.28798308968544006
1773163158141158400,15.700158447265625,-2.5335028171539307,-9.468341827392578,0.3197566866874695
1773163158153658400,15.712658447265625,-2.484042167663574,-9.481117248535156,0.32913193106651306
1773163158166158300,15.725158447265626,-2.4412708282470703,-9.492616653442383,0.3175245523452759
1773163158178658300,15.737658203125,-2.4009745121002197,-9.503755569458008,0.29043689370155334
1773163158191158300,15.750158203125,-2.356804847717285,-9.515853881835938,0.2537252902984619
1773163158203658200,15.762658203125,-2.3061726093292236,-9.529196739196777,0.21531258523464203
1773163158216158200,15.775158203125,-2.2550551891326904,-9.54211711883545,0.1819785237312317
1773163158228658400,15.787658447265626,-2.2114098072052,-9.552721977233887,0.15986166894435883
1773163158241158400,15.800158447265625,-2.176851987838745,-9.560752868652344,0.15399375557899475
1773163158253658400,15.812658447265624,-2.1484124660491943,-9.566959381103516,0.1673438996076584
1773163158266158300,15.825158447265625,-2.126508951187134,-9.57121753692627,0.20033955574035645
1773163158278658300,15.837658203125,-2.111503839492798,-9.573375701904297,0.24983122944831848
1773163158291158300,15.850158203125,-2.1019973754882812,-9.573596954345703,0.3134006857872009
1773163158303658200,15.862658203125,-2.0933151245117188,-9.572761535644531,0.38811194896698
1773163158316158200,15.875158203125,-2.0866646766662598,-9.57084846496582,0.46375542879104614
1773163158328658400,15.887658447265625,-2.0877835750579834,-9.567161560058594,0.5300576686859131
1773163158341158400,15.900158447265625,-2.0987493991851807,-9.5618314743042,0.5805285573005676
1773163158353658400,15.912658447265626,-2.118360757827759,-9.555591583251953,0.6112274527549744
1773163158366158300,15.925158447265625,-2.1403262615203857,-9.54978084564209,0.6253542304039001
1773163158378658300,15.937658203125,-2.156212329864502,-9.54603099822998,0.6280384063720703
1773163158391158300,15.950158203125,-2.155463218688965,-9.546248435974121,0.6272855997085571
1773163158403658200,15.962658203125,-2.130645513534546,-9.551556587219238,0.6312708258628845
1773163158416158200,15.975158203125,-2.074610948562622,-9.5628023147583,0.647453248500824
1773163158428658400,15.987658447265625,-1.9864954948425293,-9.579317092895508,0.67889404296875
1773163158441158400,16.000158447265626,-1.8753691911697388,-9.596625328063965,0.7470988631248474
1773163158453658400,16.012658447265625,-1.7702165842056274,-9.608271598815918,0.8472505807876587
1773163158466158300,16.025158447265625,-1.7209959030151367,-9.609307289123535,0.9326117634773254
1773163158478658300,16.037658203125,-1.7586599588394165,-9.599806785583496,0.9597991108894348
1773163158491158300,16.050158203125,-1.843769907951355,-9.586445808410645,0.9332543611526489
1773163158503658200,16.062658203125,-1.907727837562561,-9.580831527709961,0.8594268560409546
1773163158516158200,16.075158203125,-1.9392335414886475,-9.583784103393555,0.7489017844200134
1773163158528658400,16.087658447265625,-1.9473274946212769,-9.591731071472168,0.6140052676200867
1773163158541158400,16.100158447265624,-1.92445969581604,-9.605213165283203,0.4546454846858978
1773163158553658400,16.112658447265623,-1.8651331663131714,-9.62386417388916,0.2699835002422333
1773163158566158300,16.125158447265626,-1.7791517972946167,-9.643614768981934,0.07550109922885895
1773163158578658300,16.137658203125,-1.6813172101974487,-9.660801887512207,-0.11158955097198486
1773163158591158300,16.150158203125,-1.5890579223632812,-9.672831535339355,-0.2856774926185608
1773163158603658200,16.162658203125,-1.510043740272522,-9.67961311340332,-0.4418603479862213
1773163158616158200,16.175158203125,-1.4387755393981934,-9.683448791503906,-0.5754310488700867
