time,seconds_elapsed,z,y,x
1773163142573908200,0.132908203125,-0.5076286196708679,-1.629176378250122,0.06414080411195755
1773163142592672500,0.151672607421875,-0.3042106628417969,-1.0079269409179688,-0.06780599057674408
1773163142611436500,0.1704365234375,-0.347582072019577,-0.5864301919937134,-0.23212862014770508
1773163142630200800,0.189200927734375,-0.7031053900718689,0.10873392969369888,-0.3585776388645172
1773163142648965000,0.207965087890625,-0.9853248596191406,0.5632173418998718,-0.4978547990322113
1773163142667729200,0.226729248046875,-0.8826996088027954,0.37629270553588867,-0.5406153202056885
1773163142686493400,0.245493408203125,-0.9065233469009399,0.4276053309440613,-0.48930269479751587
1773163142705257500,0.264257568359375,-0.9737184643745422,0.6273581385612488,-0.5852084755897522
1773163142724021800,0.283021728515625,-1.0586286783218384,0.4159989058971405,-0.667064368724823
1773163142742785800,0.301785888671875,-1.265711784362793,0.4043924808502197,-0.5766563415527344
1773163142761550000,0.320550048828125,-1.4288127422332764,0.287106454372406,-0.5039634704589844
1773163142780314000,0.339314208984375,-1.4953969717025757,0.2370155304670334,-0.4838049113750458
1773163142799078400,0.358078369140625,-1.415373682975769,0.2834412455558777,-0.39339691400527954
1773163142817842400,0.376842529296875,-1.194240689277649,0.15149445831775665,-0.3170388340950012
1773163142836606700,0.395606689453125,-1.0299180746078491,-0.16310089826583862,-0.17653992772102356
1773163142855370800,0.414370849609375,-1.063515543937683,-0.2767217457294464,-0.0873536616563797
1773163142874135000,0.433135009765625,-1.1233803033828735,-0.185092031955719,-0.15149445831775665
1773163142892899300,0.4518994140625,-1.0903936624526978,-0.1802051067352295,-0.185092031955719
1773163142911663400,0.470663330078125,-1.0024291276931763,-0.043371398001909256,-0.2260199636220932
1773163142930427600,0.489427734375,-0.8631519079208374,0.05253437161445618,-0.24312418699264526
1773163142949191700,0.508191650390625,-0.749531090259552,-0.037262752652168274,-0.22846342623233795
1773163142967956000,0.5269560546875,-0.6707295179367065,-0.13988803327083588,-0.14721840620040894
1773163142986720300,0.54572021484375,-0.5888736248016357,-0.205861434340477,-0.08429934084415436
1773163143005484300,0.564484375,-0.4105011224746704,-0.10140355676412582,-0.0720820426940918
1773163143024248600,0.58324853515625,-0.1637117564678192,0.05925388261675835,-0.1233946830034256
1773163143043012600,0.6020126953125,-0.003665188793092966,0.2205221801996231,-0.277332603931427
1773163143061777000,0.62077685546875,-0.023212861269712448,0.40255987644195557,-0.4111120104789734
1773163143080541000,0.639541015625,-0.18203771114349365,0.38667741417884827,-0.3433060050010681
1773163143099305200,0.65830517578125,-0.5088503360748291,-0.11606431007385254,-0.09896009415388107
1773163143118069200,0.6770693359375,-0.46059203147888184,-0.20402882993221283,0.3952295184135437
1773163143136833500,0.69583349609375,-0.29443681240081787,-0.17531819641590118,0.25900667905807495
1773163143155597600,0.71459765625,-0.1441640853881836,-0.07880155742168427,0.05192350596189499
1773163143174361900,0.73336181640625,-0.15088360011577606,0.1484401375055313,-0.053756099194288254
1773163143193126000,0.7521259765625,-0.09162971377372742,0.09346231073141098,-0.053756099194288254
1773163143211890200,0.77089013671875,-0.10873392969369888,-0.22174391150474548,0.05192350596189499
1773163143230654200,0.789654296875,-0.36285367608070374,-0.42088583111763,0.06291907280683517
1773163143249418500,0.80841845703125,-0.39400777220726013,-0.2412915825843811,-0.06414080411195755
1773163143268182500,0.8271826171875,-0.19608759880065918,0.03176496922969818,-0.14538581669330597
1773163143286946800,0.84594677734375,-0.010384701192378998,0.12034036219120026,-0.14172062277793884
1773163143305710800,0.8647109375,-0.043371398001909256,0.017715077847242355,-0.05864302068948746
1773163143324475100,0.88347509765625,-0.14721840620040894,-0.235793799161911,-0.06414080411195755
1773163143343239400,0.902239501953125,-0.30054548382759094,-0.44837474822998047,-0.17165300250053406
1773163143362003500,0.92100341796875,-0.3860665261745453,-0.3347539007663727,-0.3958403766155243
1773163143380767500,0.939767578125,-0.3640754222869873,-0.08552107214927673,-0.536339282989502
1773163143399531800,0.95853173828125,-0.44837474822998047,0.06536252796649933,-0.5943714380264282
1773163143418295800,0.9772958984375,-0.4612029194831848,-0.1545487940311432,-0.5051851868629456
1773163143437060000,0.99606005859375,-0.37323838472366333,-0.500298261642456,-0.3964512348175049
1773163143455824100,1.01482421875,-0.27977606654167175,-0.7446441650390625,-0.33231043815612793
1773163143474588400,1.03358837890625,-0.2162461280822754,-0.6835576891899109,-0.3695732057094574
1773163143493352400,1.0523525390625,-0.10567960888147354,-0.40378162264823914,-0.430659681558609
1773163143512116700,1.07111669921875,-0.0360410213470459,-0.42882707715034485,-0.3695732057094574
1773163143530880800,1.089880859375,-0.043371398001909256,-0.573602020740509,-0.3543015718460083
1773163143549645000,1.10864501953125,-0.004276053514331579,-0.5943714380264282,-0.4740310609340668
1773163143568409000,1.1274091796875,0.04520399495959282,-0.4978547990322113,-0.5143481492996216
1773163143587173000,1.146173095703125,0.11362084746360779,-0.5632173418998718,-0.4147771894931793
1773163143605937400,1.1649375,0.1441640853881836,-0.5491674542427063,-0.35124725103378296
1773163143624701700,1.18370166015625,0.2608392536640167,-0.5888736248016357,-0.2522871494293213
1773163143643465700,1.2024658203125,0.42821621894836426,-0.7641918659210205,-0.11728604137897491
1773163143662230000,1.22122998046875,0.41844236850738525,-0.8448259830474854,-0.12705987691879272
1773163143690376200,1.249376220703125,0.5253437161445618,-0.4147771894931793,-0.2260199636220932
1773163143709140200,1.26814013671875,0.5943714380264282,-0.27916520833969116,-0.25473061203956604
1773163143727904500,1.286904541015625,0.5656607747077942,-0.5711585879325867,-0.16859868168830872
1773163143746668800,1.305668701171875,0.544891357421875,-0.9792162179946899,-0.15760311484336853
1773163143765432800,1.324432861328125,0.5827649831771851,-1.2253947257995605,-0.25961753726005554
1773163143784197000,1.343197021484375,0.6969966888427734,-1.3652827739715576,-0.3017672002315521
1773163143802961200,1.361961181640625,0.8600975871086121,-1.7079778909683228,-0.1337793916463852
1773163143821725200,1.38072509765625,1.0415244102478027,-2.402531147003174,0.08918625861406326
1773163143840489500,1.399489501953125,1.2412772178649902,-3.500865936279297,0.3023780584335327
1773163143859253500,1.41825341796875,1.463021159172058,-4.6590657234191895,0.7391464114189148
1773163143878017800,1.437017822265625,1.8912373781204224,-5.707309722900391,1.4434734582901
1773163143896781800,1.45578173828125,2.386648654937744,-6.710960388183594,2.0909900665283203
1773163143915546000,1.474546142578125,2.832580089569092,-7.5649495124816895,2.6254968643188477
1773163143934310100,1.49331005859375,3.2540767192840576,-8.281494140625,3.0469934940338135
1773163143953074200,1.51207421875,3.632201910018921,-8.51179027557373,3.4745988845825195
1773163143971838500,1.53083837890625,3.7293295860290527,-7.66635274887085,3.8539459705352783
1773163143990602800,1.549602783203125,3.5130834579467773,-6.249146461486816,3.8215701580047607
1773163144009366800,1.56836669921875,3.1758859157562256,-4.735423564910889,3.4153449535369873
1773163144028131000,1.587131103515625,2.7336199283599854,-3.36708664894104,2.874729633331299
1773163144046895000,1.60589501953125,2.1801764965057373,-2.3573272228240967,2.737895965576172
1773163144065659100,1.6246591796875,1.545487880706787,-1.8344268798828125,2.8509058952331543
1773163144084423400,1.64342333984375,1.0445787906646729,-1.5809180736541748,2.995680809020996
1773163144103187500,1.6621875,0.471587598323822,-1.8686354160308838,3.0305001735687256
1773163144121951700,1.68095166015625,-0.164322629570961,-2.417191982269287,3.21864652633667
1773163144140715800,1.6997158203125,-0.2522871494293213,-1.08978271484375,1.823431372642517
1773163144159479800,1.718479736328125,0.32131487131118774,1.2644901275634766,-0.6499601006507874
1773163144178244000,1.737244140625,-0.11362084746360779,1.3658936023712158,-0.8436042666435242
1773163144197008400,1.75600830078125,-0.44348782300949097,0.5845975875854492,-0.7104357481002808
1773163144225154600,1.784154541015625,-0.07513637095689774,0.30970844626426697,-0.5296197533607483
1773163144243918600,1.802918701171875,0.3139844834804535,-0.021991131827235222,-0.47097674012184143
1773163144262682600,1.8216826171875,0.38667741417884827,-0.2461785078048706,-0.40744680166244507
1773163144281447000,1.840447021484375,0.4776962697505951,0.14477495849132538,-0.4318813979625702
1773163144300211000,1.8592109375,0.5571087002754211,0.833219587802887,-0.5021308660507202
1773163144344779300,1.903779296875,0.3995055556297302,0.3078758418560028,0.050090912729501724
1773163144363543300,1.922543212890625,0.2675587832927704,0.3066541254520416,-0.30543237924575806
1773163144382307600,1.9413076171875,0.3078758418560028,0.5485565662384033,-0.6071996092796326
1773163144401071600,1.960071533203125,0.4838049113750458,0.5424479246139526,-0.7745765447616577
1773163144419836000,1.9788359375,0.9810488224029541,0.5705476999282837,-0.7550288438796997
1773163144438600000,1.997599853515625,1.2815942764282227,0.16004657745361328,-0.6462949514389038
1773163144457364000,2.016364013671875,1.1545344591140747,0.39339691400527954,-0.5338957905769348
1773163144476128300,2.035128173828125,1.0421353578567505,0.5705476999282837,-0.637742817401886
1773163144494892300,2.053892333984375,1.3756674528121948,0.7660244107246399,-0.6267472505569458
1773163144513656600,2.072656494140625,1.5528182983398438,0.5852084755897522,-0.5522217750549316
1773163144532420600,2.091420654296875,1.4685189723968506,0.7086031436920166,-0.33231043815612793
1773163144551184600,2.1101845703125,2.05617094039917,0.7831286191940308,-0.2675587832927704
1773163144569949000,2.128948974609375,2.9859070777893066,0.9932661056518555,-0.26878049969673157
1773163144588713000,2.147712890625,3.7763659954071045,0.9834923148155212,-0.12217295914888382
1773163144616859100,2.175859130859375,5.277871608734131,-0.2309068888425827,0.08429934084415436
1773163144635623400,2.19462353515625,6.137969493865967,-1.5393792390823364,0.34208428859710693
1773163144654387500,2.213387451171875,3.783696413040161,-1.4819579124450684,0.31642794609069824
1773163144673151700,2.23215185546875,0.08674279600381851,-0.8063415288925171,0.4251618981361389
1773163144691915800,2.250915771484375,0.1233946830034256,0.16737695038318634,-0.07574722915887833
1773163144710679800,2.2696796875,0.04153880476951599,1.12765634059906,-0.28954991698265076
1773163144729444000,2.288444091796875,-0.16126830875873566,0.9920443892478943,-0.31154105067253113
1773163144748208000,2.3072080078125,-0.06841685622930527,1.0262528657913208,-0.4202749729156494
1773163144766972400,2.325972412109375,0.22968515753746033,1.4184280633926392,-0.45326167345046997
1773163144785736400,2.344736328125,0.24434591829776764,1.255937933921814,-0.37262752652168274
1773163144804500500,2.36350048828125,0.13194678723812103,0.823445737361908,-0.3335321843624115
1773163144823264800,2.3822646484375,-0.04520399495959282,0.627968966960907,-0.4618137776851654
1773163144842028800,2.40102880859375,-0.07819069176912308,0.8784235715866089,-0.6230821013450623
1773163144860793000,2.41979296875,-0.07330377399921417,1.0299180746078491,-0.685390293598175
1773163144879557000,2.43855712890625,-0.16126830875873566,1.1142174005508423,-0.7159335017204285
1773163144898321200,2.457321044921875,-0.42882707715034485,1.4196497201919556,-0.9101884961128235
1773163144917085400,2.47608544921875,-0.39217519760131836,1.4453060626983643,-1.1594213247299194
1773163144935849500,2.494849365234375,1.1239912509918213,1.5735876560211182,-1.156977891921997
1773163144954613800,2.51361376953125,1.7324124574661255,1.2486076354980469,-0.7061597108840942
1773163144973377800,2.532377685546875,2.199113130569458,0.4276053309440613,-0.12950333952903748
1773163144992141800,2.551141845703125,2.1746785640716553,0.3090975880622864,0.1649334877729416
1773163145010906000,2.569906005859375,2.937037944793701,0.2724456787109375,-0.3811796307563782
1773163145029670100,2.588670166015625,4.734201908111572,1.5809180736541748,-1.528383731842041
1773163145057816300,2.61681640625,7.754317283630371,1.6517783403396606,-1.1606431007385254
1773163145076580600,2.63558056640625,8.692605972290039,-2.926042318344116,-0.9028581380844116
1773163145095344600,2.6543447265625,6.635213375091553,-5.291310787200928,-1.9620976448059082
1773163145114108700,2.673108642578125,2.9407031536102295,-3.9388561248779297,-2.9907939434051514
1773163145132873000,2.691873046875,0.3078758418560028,-0.8478803038597107,-2.6426010131835938
1773163145151637000,2.710636962890625,-0.952949047088623,1.2681553363800049,-0.9786053895950317
1773163145170401000,2.729401123046875,-1.1117738485336304,1.4245367050170898,-0.3750709891319275
1773163145189165300,2.748165283203125,-0.8918625712394714,1.499062180519104,-0.41416633129119873
1773163145207929300,2.766929443359375,-0.7953459620475769,1.7153083086013794,-0.46425724029541016
1773163145226693600,2.785693603515625,-0.7892373204231262,1.4037672281265259,-0.24801109731197357
1773163145245457700,2.804457763671875,-0.5937605500221252,0.9468404054641724,0.0818558782339096
1773163145264221700,2.8232216796875,-0.4422661066055298,0.8124501705169678,0.20280711352825165
1773163145282986000,2.841986083984375,-0.49480047821998596,0.9712749719619751,0.14782927930355072
1773163145301750000,2.86075,-0.44348782300949097,0.8747583627700806,0.06475166976451874
1773163145320514000,2.87951416015625,-0.36651885509490967,0.5534434914588928,-0.03298669680953026
1773163145339278300,2.8982783203125,-0.22968515753746033,0.29565855860710144,-0.1233946830034256
1773163145358042400,2.91704248046875,-0.1026252806186676,0.07452550530433655,-0.19669845700263977
1773163145376806700,2.935806640625,0.046425722539424896,-0.05253437161445618,-0.20158538222312927
1773163145395570700,2.95457080078125,0.18814635276794434,-0.20280711352825165,-0.13561198115348816
1773163145414334700,2.973334716796875,0.25045454502105713,-0.370184063911438,-0.05497783049941063
1773163145433099000,2.99209912109375,0.277332603931427,-0.47036588191986084,0.056199558079242706
1773163145451863000,3.010863037109375,0.21991132199764252,-0.5253437161445618,0.11484257876873016
1773163145470627000,3.029626953125,0.2528980076313019,-0.46425724029541016,0.03176496922969818
1773163145489391400,3.048391357421875,0.23212862014770508,-0.31031930446624756,-0.21258094906806946
1773163145508155400,3.0671552734375,0.0977383628487587,0.02932151034474373,-0.42394015192985535
1773163145526919400,3.08591943359375,-0.11239911615848541,0.40317076444625854,-0.40805765986442566
1773163145545683700,3.10468359375,-0.411722868680954,0.5216785073280334,-0.2919933497905731
1773163145564447700,3.12344775390625,-0.5595521330833435,0.3848448097705841,-0.235793799161911
1773163145583211800,3.142211669921875,-0.5094612240791321,0.03543015569448471,-0.3481929302215576
1773163145611358200,3.170358154296875,-0.6621774435043335,-0.08918625861406326,-0.31520622968673706
1773163145630122200,3.189122314453125,-0.5045742988586426,-0.2663370370864868,-0.13683371245861053
1773163145648886300,3.20788623046875,-0.13439024984836578,-0.6743947267532349,-0.15027274191379547
1773163145667650600,3.226650634765625,0.0977383628487587,-1.0641264915466309,-0.33108872175216675
1773163145686414600,3.24541455078125,0.25900667905807495,-1.2742639780044556,-0.24312418699264526
1773163145705178600,3.2641787109375,0.3298669755458832,-0.851545512676239,0.023212861269712448
1773163145723943000,3.28294287109375,0.36285367608070374,-0.4581485986709595,0.3225366175174713
1773163145742707000,3.30170703125,0.36774060130119324,-0.1844811588525772,0.5998691916465759
1773163145761471200,3.32047119140625,0.31031930446624756,0.0513126403093338,0.9004147052764893
1773163145780235300,3.3392353515625,0.23457208275794983,0.10751219838857651,1.130099892616272
1773163145798999300,3.357999267578125,0.08552107214927673,0.1331685185432434,1.2156208753585815
1773163145827145500,3.3861455078125,-0.04886918142437935,0.013439024798572063,1.1129956245422363
1773163145845909800,3.40490966796875,0.03298669680953026,0.009773836471140385,1.0054833889007568
1773163145864673800,3.423673828125,0.1185077652335167,-0.021991131827235222,0.9004147052764893
1773163145892820000,3.451820068359375,0,-0.07574722915887833,0.9101884961128235
1773163145911584300,3.470584228515625,-0.0256563201546669,0.043982263654470444,1.0189224481582642
1773163145930348300,3.489348388671875,-0.024434590712189674,0.1441640853881836,1.0592395067214966
1773163145949112300,3.5081123046875,0.06475166976451874,0.14049890637397766,1.0250310897827148
1773163145967876600,3.526876708984375,0.19303326308727264,0.1331685185432434,0.9920443892478943
1773163145986640600,3.545640625,0.20891575515270233,0.21746785938739777,0.9883792400360107
1773163146005405000,3.564405029296875,0.21135921776294708,0.25411975383758545,0.9663881063461304
1773163146024169000,3.5831689453125,0.20647229254245758,0.15515965223312378,0.9224058389663696
1773163146042933000,3.60193310546875,0.20280711352825165,-0.007330377586185932,0.8723149299621582
1773163146061697300,3.620697265625,0.18203771114349365,-0.21135921776294708,0.8222240209579468
1773163146080461300,3.63946142578125,0.1185077652335167,-0.42394015192985535,0.8185588121414185
1773163146099225600,3.6582255859375,0.024434590712189674,-0.5619956254959106,0.84177166223526
1773163146117989600,3.67698974609375,-0.03298669680953026,-0.5351175665855408,0.8381064534187317
1773163146136753700,3.695753662109375,-0.023212861269712448,-0.3750709891319275,0.8491020202636719
1773163146155518000,3.71451806640625,-0.017104214057326317,-0.25411975383758545,0.8075632452964783
1773163146174282000,3.733281982421875,0.03787361457943916,-0.2406807243824005,0.6780598759651184
1773163146193046300,3.75204638671875,0.15515965223312378,-0.13194678723812103,0.46914416551589966
1773163146211810300,3.770810302734375,0.18203771114349365,0.17837251722812653,0.3298669755458832
1773163146230574300,3.78957421875,0.09896009415388107,0.36651885509490967,0.2626718580722809
1773163146249338600,3.808338623046875,0.04153880476951599,0.536339282989502,0.22846342623233795
1773163146268102700,3.8271025390625,0.043982263654470444,0.5949822664260864,0.1747073233127594
1773163146286867000,3.845866943359375,0.036651886999607086,0.4105011224746704,0.1539379209280014
1773163146305631000,3.864630859375,0.021991131827235222,0.25045454502105713,0.20280711352825165
1773163146324395000,3.88339501953125,0.07574722915887833,0.18692462146282196,0.2626718580722809
1773163146343159300,3.9021591796875,0.15638138353824615,0.08674279600381851,0.2162461280822754
1773163146361923300,3.92092333984375,0.2052505612373352,0.03176496922969818,0.12461641430854797
1773163146380687600,3.9396875,0.2003636509180069,0.07330377399921417,0.06963858753442764
1773163146399451600,3.95845166015625,0.17837251722812653,0.08918625861406326,-0.020769402384757996
1773163146418215700,3.977215576171875,0.20402882993221283,0.08918625861406326,-0.14172062277793884
1773163146436980000,3.99597998046875,0.14049890637397766,0.11728604137897491,-0.318871408700943
1773163146455744000,4.014743896484375,-0.0256563201546669,0.22724169492721558,-0.5192350745201111
1773163146474508300,4.03350830078125,-0.24923282861709595,0.3555232882499695,-0.7342594861984253
1773163146502654500,4.061654541015625,-0.5314523577690125,0.39217519760131836,-1.255937933921814
1773163146530800600,4.089800537109375,-0.6511818766593933,0.4251618981361389,-2.090379238128662
1773163146549565000,4.10856494140625,-0.6646208763122559,0.42271843552589417,-2.646266222000122
1773163146568329000,4.127328857421875,-0.7244856357574463,0.2370155304670334,-2.8466298580169678
1773163146587093000,4.146093017578125,-0.794124186038971,0.26022839546203613,-2.5021021366119385
1773163146605857300,4.164857177734375,-0.657290518283844,0.7098248600959778,-1.7996076345443726
1773163146624621300,4.183621337890625,-0.4312705397605896,1.8069380521774292,-1.1533126831054688
1773163146652767700,4.211767822265625,-0.5815432667732239,2.503323793411255,-0.9114102721214294
1773163146671531800,4.23053173828125,-0.5925388336181641,2.0244059562683105,-0.9028581380844116
1773163146690295800,4.2492958984375,-0.5790998339653015,1.5149446725845337,-0.7220421433448792
1773163146709060000,4.26806005859375,-0.6340776681900024,1.1533126831054688,-0.3689623177051544
1773163146727824100,4.28682421875,-0.6365211009979248,1.0848958492279053,-0.06108647957444191
1773163146746588400,4.30558837890625,-0.6181951761245728,0.9663881063461304,0.10751219838857651
1773163146765352400,4.3243525390625,-0.5229002237319946,0.4764745235443115,0.07819069176912308
1773163146784116700,4.34311669921875,-0.45326167345046997,0.02932151034474373,0.08552107214927673
1773163146802880800,4.361880859375,-0.318871408700943,-0.4569268524646759,0.036651886999607086
1773163146821645000,4.38064501953125,-0.14538581669330597,-0.8063415288925171,0.06352993845939636
1773163146840409000,4.3994091796875,0.06841685622930527,-1.0690133571624756,0.20891575515270233
1773163146859173400,4.41817333984375,0.2809978127479553,-1.2510510683059692,0.4276053309440613
1773163146877937400,4.4369375,0.3530798554420471,-1.499062180519104,0.554665207862854
1773163146896701700,4.45570166015625,0.3433060050010681,-1.6603304147720337,0.48991355299949646
1773163146915465700,4.4744658203125,0.06230820715427399,-1.5784746408462524,0.32131487131118774
1773163146934230000,4.49322998046875,-0.41294458508491516,-0.9676098227500916,0.3860665261745453
1773163146952994000,4.511994140625,-0.7757982611656189,-0.13072505593299866,0.07452550530433655
1773163146971758300,4.53075830078125,-1.0873392820358276,0.4166097939014435,-0.23945899307727814
1773163146990522400,4.5495224609375,-0.9773836731910706,0.5155698657035828,-0.35796675086021423
1773163147009286700,4.56828662109375,-0.5913171172142029,-0.25900667905807495,-0.9040798544883728
1773163147028050700,4.58705078125,-0.21380266547203064,-0.9407317638397217,-1.266933560371399
1773163147046815000,4.60581494140625,-0.19914191961288452,-1.33290696144104,-0.8759800791740417
1773163147065579000,4.6245791015625,-0.20647229254245758,-1.6102395057678223,-0.26389357447624207
1773163147084343300,4.64334326171875,-0.03176496922969818,-1.071456789970398,0.2675587832927704
1773163147103107300,4.662107421875,0.17104214429855347,-0.34574946761131287,0.7819069027900696
1773163147121871600,4.68087158203125,0.3799578845500946,0.19303326308727264,0.9822705388069153
1773163147140635600,4.6996357421875,0.5522217750549316,0.09040798991918564,1.0079269409179688
1773163147159400000,4.71839990234375,0.6267472505569458,-0.2614501118659973,0.9932661056518555
1773163147178164000,4.7371640625,0.7183769941329956,-0.4105011224746704,0.9321796298027039
1773163147196928300,4.75592822265625,0.7892373204231262,-0.318871408700943,0.794124186038971
1773163147215692300,4.7746923828125,0.7904590368270874,-0.4667007029056549,0.6646208763122559
1773163147234456600,4.79345654296875,0.6548470258712769,-0.8197805285453796,0.6328558921813965
1773163147253220600,4.812220703125,0.37262752652168274,-1.000596523284912,0.6462949514389038
1773163147271985000,4.83098486328125,0.1539379209280014,-0.8051197528839111,0.7379246354103088
1773163147290749000,4.8497490234375,0.13072505593299866,-0.7757982611656189,0.8466585874557495
1773163147309513200,4.86851318359375,-0.11484257876873016,-0.9578359723091125,0.9101884961128235
1773163147328277200,4.88727734375,-0.18570289015769958,-0.9114102721214294,0.9114102721214294
1773163147347041500,4.90604150390625,-0.10384701192378998,-0.7672461867332458,0.8772017955780029
1773163147365805600,4.9248056640625,0.006108647678047419,-0.5693259835243225,0.8784235715866089
1773163147384569900,4.94356982421875,0.1588248461484909,-0.3127627670764923,0.8796452879905701
1773163147403334000,4.962333984375,0.3481929302215576,-0.32131487131118774,0.7440332770347595
1773163147431480300,4.990480224609375,0.4789179861545563,-0.4324922561645508,0.6267472505569458
1773163147450244400,5.009244384765625,0.4789179861545563,-0.45326167345046997,0.6230821013450623
1773163147469008600,5.028008544921875,0.43860089778900146,-0.4068359434604645,0.6829468011856079
1773163147487772700,5.046772705078125,0.3860665261745453,-0.24801109731197357,0.8002328872680664
1773163147506537000,5.065536865234375,0.34208428859710693,0.013439024798572063,0.9272927641868591
1773163147525301200,5.08430126953125,0.32009315490722656,0.25900667905807495,0.998153030872345
1773163147544065300,5.103065185546875,0.35185810923576355,0.3335321843624115,0.9712749719619751
1773163147562829600,5.12182958984375,0.3970620930194855,0.40317076444625854,0.8747583627700806
1773163147581593600,5.140593505859375,0.44348782300949097,0.5180133581161499,0.7599157691001892
1773163147600358000,5.15935791015625,0.44470956921577454,0.5057960152626038,0.6010909676551819
1773163147619122000,5.178121826171875,0.4105011224746704,0.5681042671203613,0.5009090900421143
1773163147637886200,5.19688623046875,0.36163195967674255,0.6243038177490234,0.3909534513950348
1773163147656650200,5.215650146484375,0.33108872175216675,0.6071996092796326,0.33231043815612793
1773163147675414500,5.23441455078125,0.2883281707763672,0.4324922561645508,0.27488914132118225
1773163147694178800,5.2531787109375,0.2528980076313019,0.3225366175174713,0.21746785938739777
1773163147712942800,5.27194287109375,0.2101374864578247,0.21991132199764252,0.13072505593299866
1773163147731707100,5.29070703125,0.1380554437637329,0.1282816082239151,0.006108647678047419
1773163147759853300,5.318853271484375,-0.11972949653863907,0.16737695038318634,-0.15271618962287903
1773163147778617600,5.33761767578125,-0.29443681240081787,0.3225366175174713,-0.3347539007663727
1773163147797381600,5.356381591796875,-0.40805765986442566,0.4422661066055298,-0.6768381595611572
1773163147816146000,5.37514599609375,-0.4776962697505951,0.4923570156097412,-1.1337649822235107
1773163147834910000,5.393909912109375,-0.5534434914588928,0.5485565662384033,-1.5723659992218018
1773163147853674200,5.41267431640625,-0.6181951761245728,0.6133082509040833,-2.0292928218841553
1773163147872438500,5.4314384765625,-0.6829468011856079,0.5937605500221252,-2.464228630065918
1773163147891202600,5.45020263671875,-0.7880155444145203,0.328645259141922,-2.6279401779174805
1773163147909966800,5.468966796875,-0.7892373204231262,-0.043982263654470444,-2.324951410293579
1773163147928731000,5.48773095703125,-0.5400044918060303,0.37751442193984985,-1.8252639770507812
1773163147947495200,5.5064951171875,-0.36163195967674255,1.858250617980957,-1.3292417526245117
1773163147966259200,5.52525927734375,-0.5192350745201111,2.5363106727600098,-1.0739002227783203
1773163147985023500,5.5440234375,-0.6340776681900024,1.9657628536224365,-1.091004490852356
1773163148003787800,5.562787841796875,-0.6328558921813965,1.489288330078125,-1.0787872076034546
1773163148022551800,5.5815517578125,-0.7073814272880554,0.9883792400360107,-0.972496747970581
1773163148041316000,5.600316162109375,-0.7000510096549988,0.4508182108402252,-0.8527672290802002
1773163148060080000,5.619080078125,-0.6988292932510376,0.21991132199764252,-0.7037162184715271
1773163148078844400,5.637844482421875,-0.7012727856636047,0.18570289015769958,-0.4740310609340668
1773163148097608400,5.6566083984375,-0.6878337264060974,-0.040317077189683914,-0.23823726177215576
1773163148116372700,5.675372802734375,-0.7098248600959778,-0.3836230933666229,-0.034208428114652634
1773163148135137000,5.694136962890625,-0.768467903137207,-0.7476984858512878,0.09285144507884979
1773163148153901000,5.712901123046875,-0.8148936033248901,-1.0690133571624756,0.20647229254245758
1773163148172665300,5.731665283203125,-0.7452550530433655,-1.3011419773101807,0.3274235129356384
1773163148191429600,5.7504296875,-0.5778780579566956,-1.4355322122573853,0.46425724029541016
1773163148210193700,5.769193603515625,-0.4214966893196106,-1.5625921487808228,0.554665207862854
1773163148228958000,5.7879580078125,-0.3347539007663727,-1.517388105392456,0.5827649831771851
1773163148247722000,5.806721923828125,-0.2724456787109375,-1.2119556665420532,0.6988292932510376
1773163148266486300,5.825486328125,-0.23212862014770508,-0.934623122215271,0.748920202255249
1773163148285250600,5.84425048828125,-0.1698204129934311,-0.6963858604431152,0.5400044918060303
1773163148304014600,5.8630146484375,-0.1441640853881836,-0.5155698657035828,0.0513126403093338
1773163148322779000,5.88177880859375,-0.25900667905807495,-0.2577849328517914,-0.2883281707763672
1773163148341543000,5.90054296875,-0.25534147024154663,-0.0720820426940918,-0.32620179653167725
1773163148369689300,5.928689453125,-0.08552107214927673,-0.30543237924575806,-0.42882707715034485
1773163148388453400,5.947453369140625,-0.028099779039621353,-0.11972949653863907,-0.27855435013771057
1773163148407217700,5.9662177734375,0.059864748269319534,-0.05742128938436508,0.028099779039621353
1773163148425982000,5.98498193359375,-0.009773836471140385,-0.03176496922969818,0.31154105067253113
1773163148444746000,6.00374609375,-0.08063415437936783,-0.14538581669330597,0.5705476999282837
1773163148463510300,6.02251025390625,0.012217295356094837,-0.5119046568870544,0.778241753578186
1773163148482274600,6.041274658203125,0.0818558782339096,-0.4422661066055298,0.6731730103492737
1773163148501038600,6.06003857421875,0.2467893660068512,-0.2968802750110626,0.42394015192985535
1773163148519803000,6.078802978515625,0.18081597983837128,-0.7122683525085449,0.29443681240081787
1773163148538567000,6.09756689453125,0.22724169492721558,-1.3292417526245117,0.30543237924575806
1773163148557331200,6.116331298828125,0.35796675086021423,-1.490510106086731,0.3396408259868622
1773163148576095500,6.135095458984375,0.44470956921577454,-1.2522728443145752,0.37262752652168274
1773163148594859500,6.153859619140625,0.4825831651687622,-0.8283326625823975,0.47525280714035034
1773163148613623800,6.172623779296875,0.46059203147888184,-0.37140578031539917,0.6621774435043335
1773163148632388000,6.19138818359375,0.42394015192985535,-0.06352993845939636,0.794124186038971
1773163148651152100,6.210152099609375,0.2565632164478302,-0.24923282861709595,0.7538071274757385
1773163148669916400,6.22891650390625,0.07330377399921417,-0.5937605500221252,0.7000510096549988
1773163148688680400,6.247680419921875,0.001221729558892548,-0.6169734001159668,0.7574723362922668
1773163148707444700,6.26644482421875,-0.04886918142437935,-0.20891575515270233,0.8710931539535522
1773163148726209000,6.285208984375,-0.006108647678047419,0.16004657745361328,0.9834923148155212
1773163148744973000,6.30397314453125,0.14538581669330597,0.18081597983837128,0.952949047088623
1773163148763737300,6.3227373046875,0.3139844834804535,-0.017104214057326317,0.8454368710517883
1773163148782501600,6.341501708984375,0.42882707715034485,-0.15027274191379547,0.7599157691001892
1773163148801265700,6.360265625,0.360410213470459,-0.1637117564678192,0.7904590368270874
1773163148820030000,6.379030029296875,0.3799578845500946,-0.006108647678047419,0.8686497211456299
1773163148838794000,6.3977939453125,0.3909534513950348,0.17592905461788177,0.8955277800559998
1773163148857558300,6.416558349609375,0.35063639283180237,0.2211330533027649,0.8527672290802002
1773163148876322600,6.435322509765625,0.4007273018360138,0.27366742491722107,0.8662062287330627
1773163148895086600,6.454086669921875,0.4874700903892517,0.22235478460788727,0.9126319885253906
1773163148913851000,6.472850830078125,0.5839866995811462,0.25900667905807495,0.9370665550231934
1773163148932615200,6.491615234375,0.6646208763122559,0.36774060130119324,0.9334014058113098
1773163148951379200,6.510379150390625,0.6438514590263367,0.4263836145401001,0.8393282294273376
1773163148970143500,6.5291435546875,0.546113133430481,0.35796675086021423,0.7024945020675659
1773163148988907500,6.547907470703125,0.4581485986709595,0.23945899307727814,0.546113133430481
1773163149007671800,6.566671875,0.3836230933666229,0.20647229254245758,0.4202749729156494
1773163149026436000,6.58543603515625,0.2932150959968567,0.23212862014770508,0.31154105067253113
1773163149045200100,6.6042001953125,0.19669845700263977,0.26511532068252563,0.2822195291519165
1773163149073346600,6.6323466796875,0.09407317638397217,0.2919933497905731,0.19669845700263977
1773163149092110800,6.65111083984375,0.010995565913617611,0.38850998878479004,0.07086031138896942
1773163149110875000,6.669875,-0.1539379209280014,0.4508182108402252,-0.19425499439239502
1773163149129639200,6.68863916015625,-0.44959646463394165,0.4667007029056549,-0.5424479246139526
1773163149148403200,6.7074033203125,-0.7342594861984253,0.675616443157196,-0.9260709881782532
1773163149167167500,6.72616748046875,-0.8478803038597107,0.8796452879905701,-1.450192928314209
1773163149185931800,6.744931884765625,-0.8307760953903198,0.8710931539535522,-1.9706497192382812
1773163149204695800,6.76369580078125,-0.7794634699821472,0.7024945020675659,-2.361603260040283
1773163149223460000,6.782460205078125,-0.730594277381897,0.5143481492996216,-2.506989002227783
1773163149251606300,6.810606201171875,-0.48991355299949646,0.5998691916465759,-2.1563527584075928
1773163149270370600,6.82937060546875,-0.33108872175216675,1.6896519660949707,-1.6603304147720337
1773163149289134800,6.848134765625,-0.3347539007663727,2.911381483078003,-1.2143992185592651
1773163149307899000,6.86689892578125,-0.43371400237083435,2.8295257091522217,-1.0800089836120605
1773163149326663200,6.8856630859375,-0.35674503445625305,2.0659446716308594,-1.1740821599960327
1773163149345427500,6.904427490234375,-0.3029889166355133,1.3817760944366455,-1.2034035921096802
1773163149364191500,6.92319140625,-0.4202749729156494,1.0311397314071655,-0.9908226728439331
1773163149382955800,6.941955810546875,-0.5070177912712097,1.0311397314071655,-0.695164144039154
1773163149401720000,6.960719970703125,-0.5338957905769348,0.962722897529602,-0.4581485986709595
1773163149420484000,6.979484130859375,-0.4972439408302307,0.758694052696228,-0.23212862014770508
1773163149439248400,6.998248291015625,-0.4471530318260193,0.5143481492996216,0.002443459117785096
1773163149458012700,7.0170126953125,-0.44959646463394165,0.1905898153781891,0.15515965223312378
1773163149476776700,7.035776611328125,-0.3298669755458832,-0.10384701192378998,0.2968802750110626
1773163149495541000,7.054541015625,-0.12950333952903748,-0.3591884970664978,0.4630354940891266
1773163149514305000,7.073304931640625,0.0513126403093338,-0.5558869242668152,0.5656607747077942
1773163149533069300,7.0920693359375,0.235793799161911,-0.7281508445739746,0.5607738494873047
1773163149551833600,7.11083349609375,0.34697118401527405,-0.7611374855041504,0.5204567909240723
1773163149570597600,7.12959765625,0.3066541254520416,-0.758694052696228,0.4312705397605896
1773163149589362000,7.14836181640625,0.1490510106086731,-0.7440332770347595,0.35185810923576355
1773163149608126200,7.167126220703125,-0.06352993845939636,-0.45937031507492065,0.4312705397605896
1773163149626890200,7.18589013671875,-0.24801109731197357,0.38240134716033936,0.2919933497905731
1773163149645654500,7.204654541015625,-0.3591884970664978,1.0042617321014404,0.021991131827235222
1773163149664418800,7.223418701171875,-0.25411975383758545,1.293811559677124,-0.20280711352825165
1773163149683182800,7.242182861328125,-0.024434590712189674,1.1252129077911377,-0.3995055556297302
1773163149701947100,7.260947021484375,0.05742128938436508,0.7232639193534851,-0.5302306413650513
1773163149720711200,7.279711181640625,0.17104214429855347,0.043982263654470444,-0.8063415288925171
1773163149739475500,7.298475341796875,0.2822195291519165,-0.2809978127479553,-0.9065233469009399
1773163149758239700,7.31723974609375,0.34697118401527405,-0.32620179653167725,-0.6597339510917664
1773163149777003800,7.336003662109375,0.3225366175174713,-0.24434591829776764,-0.007330377586185932
1773163149795768000,7.35476806640625,0.13683371245861053,-0.13683371245861053,0.9175189137458801
1773163149814532400,7.373532470703125,-0.22479823231697083,-0.15149445831775665,1.545487880706787
1773163149833296400,7.39229638671875,-0.6071996092796326,0.5400044918060303,1.7165300846099854
1773163149852060700,7.411060791015625,-0.7855721116065979,1.7067562341690063,1.3292417526245117
1773163149870825000,7.429824951171875,-0.5607738494873047,2.0024147033691406,0.6707295179367065
1773163149889589000,7.448589111328125,-0.12217295914888382,1.6762129068374634,0.6695078015327454
1773163149908353300,7.467353271484375,0.14172062277793884,0.9908226728439331,1.1435388326644897
1773163149927117300,7.486117431640625,0.3384190797805786,0.45937031507492065,1.4062107801437378
1773163149945881600,7.504881591796875,0.667064368724823,0.5033525824546814,1.442862629890442
1773163149964646000,7.52364599609375,0.9101884961128235,1.0189224481582642,1.296255111694336
1773163149992792000,7.5517919921875,0.9578359723091125,1.535714030265808,1.0042617321014404
1773163150011556400,7.570556396484375,0.5864301919937134,1.896124243736267,1.313359260559082
1773163150039702500,7.59870263671875,0.09407317638397217,2.483776092529297,1.9022328853607178
1773163150058466800,7.617466796875,0.028099779039621353,1.6310089826583862,1.6053526401519775
1773163150077231000,7.636231201171875,-0.008552107028663158,0.41783151030540466,1.130099892616272
1773163150095995100,7.6549951171875,0.004886918235570192,0.11606431007385254,0.8991929292678833
1773163150114759400,7.673759521484375,-0.09162971377372742,0.9101884961128235,0.9871574640274048
1773163150133523500,7.6925234375,-0.24556763470172882,1.7702860832214355,1.276707410812378
1773163150152287700,7.711287841796875,-0.14172062277793884,2.0977096557617188,1.4013237953186035
1773163150171052000,7.730052001953125,0.05742128938436508,1.8765766620635986,1.2046253681182861
1773163150199198200,7.7581982421875,0.2919933497905731,1.7861685752868652,0.8845322132110596
1773163150217962500,7.77696240234375,0.3384190797805786,1.9401065111160278,0.7977893948554993
1773163150236726500,7.7957265625,0.3689623177051544,1.9620976448059082,0.8368847370147705
1773163150255490800,7.81449072265625,0.3139844834804535,1.9572107791900635,0.9492838382720947
1773163150274255000,7.833255126953125,0.2467893660068512,2.103818416595459,1.0470222234725952
1773163150293019100,7.85201904296875,0.22479823231697083,1.9914191961288452,1.0396918058395386
1773163150311783400,7.870783447265625,0.20647229254245758,1.7275255918502808,0.9761618971824646
1773163150330547500,7.88954736328125,0.20891575515270233,1.3463460206985474,0.8906408548355103
1773163150349311700,7.908311767578125,0.20158538222312927,0.943175196647644,0.7965676784515381
1773163150368076000,7.927075927734375,0.15638138353824615,0.6817250847816467,0.7440332770347595
1773163150386840000,7.945840087890625,0.07452550530433655,0.750141978263855,0.7513636946678162
1773163150405604400,7.964604248046875,-0.007330377586185932,0.94439697265625,0.7806851863861084
1773163150424368600,7.98336865234375,-0.018325943499803543,1.061682939529419,0.750141978263855
1773163150452514800,8.011514892578125,0.10384701192378998,1.1264346837997437,0.6939423680305481
1773163150471279000,8.030279052734375,0.17348559200763702,1.2119556665420532,0.7073814272880554
1773163150490043100,8.049043212890625,0.235793799161911,1.452636480331421,0.6866120100021362
1773163150508807400,8.067807373046875,0.2565632164478302,1.6591087579727173,0.5290089249610901
1773163150527571700,8.08657177734375,0.1795942485332489,1.6139047145843506,0.2822195291519165
1773163150546335700,8.105335693359375,-0.07819069176912308,1.4037672281265259,-0.06108647957444191
1773163150565100000,8.12410009765625,-0.4410443603992462,1.1789690256118774,-0.47036588191986084
1773163150583864000,8.142864013671876,-0.823445737361908,1.1252129077911377,-0.8759800791740417
1773163150602628400,8.16162841796875,-1.1459823846817017,1.1899645328521729,-1.303585410118103
1773163150621392600,8.180392578125,-1.2534945011138916,1.166751742362976,-1.7788382768630981
1773163150640156700,8.19915673828125,-1.2913681268692017,0.8503237962722778,-2.0940444469451904
1773163150658921000,8.2179208984375,-1.2534945011138916,0.3543015718460083,-2.1001532077789307
1773163150677685000,8.23668505859375,-0.9016364216804504,0.28588470816612244,-1.8887939453125
1773163150696449300,8.25544921875,-0.6255255341529846,1.0225876569747925,-1.6212351322174072
1773163150715213600,8.274213623046874,-0.6682860851287842,2.092822790145874,-1.3842196464538574
1773163150743359700,8.30235986328125,-0.8869756460189819,2.746448040008545,-0.9456186890602112
1773163150762124000,8.3211240234375,-0.8600975871086121,2.544862747192383,-0.8600975871086121
1773163150780888000,8.33988818359375,-0.7098248600959778,2.012188673019409,-1.0421353578567505
1773163150799652400,8.35865234375,-0.526565432548523,1.4098758697509766,-1.227838158607483
1773163150818416400,8.37741650390625,-0.3237583339214325,0.934623122215271,-1.2034035921096802
1773163150837180700,8.3961806640625,-0.22479823231697083,0.8161153197288513,-0.8881973624229431
1773163150855945000,8.414945068359375,-0.21258094906806946,0.7086031436920166,-0.6597339510917664
1773163150874709000,8.433708984375,-0.1233946830034256,0.48991355299949646,-0.5351175665855408
1773163150902855400,8.46185546875,-0.15027274191379547,0.24312418699264526,-0.2565632164478302
1773163150921619500,8.480619384765625,-0.11606431007385254,-0.1380554437637329,-0.14660754799842834
1773163150940383700,8.4993837890625,0.05497783049941063,-0.7195987105369568,-0.1588248461484909
1773163150959147800,8.518147705078125,0.3139844834804535,-1.3072506189346313,-0.22846342623233795
1773163150977912000,8.536912109375,0.3995055556297302,-1.6395610570907593,-0.17715078592300415
1773163150996676400,8.55567626953125,0.3225366175174713,-1.7482949495315552,0.07941242307424545
1773163151015440400,8.5744404296875,0.22235478460788727,-1.5748094320297241,0.36285367608070374
1773163151034204700,8.59320458984375,0.0818558782339096,-1.1679733991622925,0.41905322670936584
1773163151052968700,8.61196875,-0.1233946830034256,-0.7916807532310486,0.2932150959968567
1773163151071733000,8.63073291015625,-0.2981020212173462,-0.5412262082099915,0.10629047453403473
1773163151090497300,8.649497314453125,-0.43004879355430603,-0.3897317349910736,-0.050090912729501724
1773163151109261300,8.66826123046875,-0.42882707715034485,-0.27000224590301514,-0.15515965223312378
1773163151128025600,8.687025634765625,-0.40317076444625854,-0.33231043815612793,-0.1893680840730667
1773163151146789600,8.70578955078125,-0.3127627670764923,-0.36163195967674255,-0.06475166976451874
1773163151165554000,8.724553955078125,-0.2663370370864868,-0.21380266547203064,0.12705987691879272
1773163151184318000,8.74331787109375,-0.19303326308727264,-0.14172062277793884,0.22357651591300964
1773163151203082200,8.762082275390625,-0.1747073233127594,-0.2528980076313019,0.27000224590301514
1773163151221846300,8.78084619140625,-0.08307760953903198,-0.4618137776851654,0.5009090900421143
1773163151240610600,8.799610595703125,-0.235793799161911,-0.11362084746360779,0.8698714375495911
1773163151259374800,8.818374755859375,-0.2663370370864868,0.48502662777900696,1.1068869829177856
1773163151278139000,8.837138916015626,-0.07574722915887833,0.730594277381897,0.8796452879905701
1773163151296903200,8.855903076171876,0.1637117564678192,0.32131487131118774,0.5387827157974243
1773163151315667200,8.874667236328126,0.4276053309440613,-0.3787361681461334,0.4471530318260193
1773163151334431500,8.893431396484376,0.665842592716217,-0.5827649831771851,0.41783151030540466
1773163151353195800,8.91219580078125,0.7440332770347595,-0.43982264399528503,0.4972439408302307
1773163151371959800,8.930959716796876,0.5876519083976746,-0.3738492429256439,0.6438514590263367
1773163151390724000,8.94972412109375,0.4007273018360138,-0.19425499439239502,0.7330377101898193
1773163151409488100,8.968488037109376,0.26389357447624207,0.3078758418560028,0.8087849617004395
1773163151428252400,8.98725244140625,0.026878049597144127,0.2101374864578247,0.8735366463661194
1773163151447016400,9.006016357421874,-0.06475166976451874,-0.27366742491722107,0.6976075768470764
1773163151465780700,9.02478076171875,-0.006108647678047419,-0.3555232882499695,0.5852084755897522
1773163151484544800,9.043544677734374,0.0818558782339096,-0.10873392969369888,0.6817250847816467
1773163151503309000,9.06230908203125,0.21380266547203064,0.13683371245861053,0.8405499458312988
1773163151522073000,9.081072998046874,0.3017672002315521,0.3127627670764923,0.8808670043945312
1773163151540837400,9.09983740234375,0.4166097939014435,0.2309068888425827,0.8063415288925171
1773163151559601700,9.1186015625,0.43982264399528503,0.028099779039621353,0.7660244107246399
1773163151578365700,9.13736572265625,0.4251618981361389,0.03543015569448471,0.7672461867332458
1773163151597130000,9.1561298828125,0.40317076444625854,0.17226386070251465,0.7709113359451294
1773163151615894000,9.17489404296875,0.4007273018360138,0.235793799161911,0.8307760953903198
1773163151634658300,9.193658203125,0.4043924808502197,0.29443681240081787,0.8869756460189819
1773163151653422300,9.21242236328125,0.43493571877479553,0.318871408700943,0.8881973624229431
1773163151672186600,9.2311865234375,0.4825831651687622,0.24556763470172882,0.8258891701698303
1773163151690950700,9.24995068359375,0.5314523577690125,0.29077163338661194,0.7318159937858582
1773163151719097000,9.27809716796875,0.4923570156097412,0.5131264328956604,0.5986474752426147
1773163151737861000,9.296861083984375,0.42882707715034485,0.42271843552589417,0.5057960152626038
1773163151756625400,9.31562548828125,0.3298669755458832,0.401949018239975,0.45937031507492065
1773163151775389400,9.334389404296875,0.2406807243824005,0.4214966893196106,0.3848448097705841
1773163151794153700,9.35315380859375,0.14782927930355072,0.516791582107544,0.36285367608070374
1773163151812917800,9.371917724609375,0.10384701192378998,0.5656607747077942,0.34574946761131287
1773163151831682000,9.39068212890625,0.12461641430854797,0.5925388336181641,0.27977606654167175
1773163151850446000,9.409446044921875,0.17715078592300415,0.6255255341529846,0.22357651591300964
1773163151869210400,9.42821044921875,0.1637117564678192,0.536339282989502,0.13683371245861053
1773163151887974400,9.446974365234375,0.08429934084415436,0.49968740344047546,0.10384701192378998
1773163151906738700,9.46573876953125,-0.056199558079242706,0.49602219462394714,0.021991131827235222
1773163151925502700,9.484502685546875,-0.21746785938739777,0.31642794609069824,-0.2419024556875229
1773163151944267000,9.50326708984375,-0.3970620930194855,0.20402882993221283,-0.4764745235443115
1773163151972413200,9.5314130859375,-0.6120865345001221,0.22479823231697083,-0.8503237962722778
1773163151991177500,9.550177490234375,-0.665842592716217,0.471587598323822,-1.265711784362793
1773163152009941500,9.56894140625,-0.7098248600959778,0.6328558921813965,-1.7446298599243164
1773163152028705800,9.587705810546876,-0.740368127822876,0.5852084755897522,-2.1502439975738525
1773163152047469800,9.6064697265625,-0.8161153197288513,0.3347539007663727,-2.329838275909424
1773163152066234000,9.625234130859376,-0.9553925395011902,0.10018182545900345,-2.1661264896392822
1773163152084998100,9.643998046875,-0.9505056142807007,0.2406807243824005,-1.8631376028060913
1773163152103762400,9.662762451171876,-0.8014546036720276,0.94439697265625,-1.5503748655319214
1773163152122526500,9.6815263671875,-0.685390293598175,1.802051067352295,-1.2315033674240112
1773163152141290800,9.700290771484376,-0.5876519083976746,2.112370491027832,-1.0286962985992432
1773163152160054800,9.7190546875,-0.5583304166793823,1.8435899019241333,-0.9908226728439331
1773163152178819000,9.737819091796876,-0.5424479246139526,1.4477494955062866,-0.9688315391540527
1773163152197583000,9.7565830078125,-0.5949822664260864,1.1716386079788208,-0.7452550530433655
1773163152216347400,9.775347412109374,-0.647516667842865,0.9505056142807007,-0.46425724029541016
1773163152235111400,9.794111328125,-0.6206386089324951,0.6255255341529846,-0.2822195291519165
1773163152253875700,9.812875732421874,-0.554665207862854,0.3481929302215576,-0.1637117564678192
1773163152272639700,9.8316396484375,-0.4679224193096161,0.09529490768909454,-0.06108647957444191
1773163152291404000,9.850404052734374,-0.3335321843624115,-0.12095122784376144,0.009773836471140385
1773163152310168000,9.86916796875,-0.2626718580722809,-0.21258094906806946,0.1331685185432434
1773163152328932400,9.887932373046874,-0.13194678723812103,-0.3347539007663727,0.24801109731197357
1773163152347696400,9.9066962890625,0.009773836471140385,-0.4569268524646759,0.36285367608070374
1773163152366460700,9.925460693359375,0.16249002516269684,-0.5583304166793823,0.3836230933666229
1773163152385224700,9.944224609375,0.2467893660068512,-0.5204567909240723,0.3139844834804535
1773163152403989000,9.962989013671875,0.2370155304670334,-0.277332603931427,0.26878049969673157
1773163152422753000,9.9817529296875,0.19303326308727264,-0.04764745384454727,0.2565632164478302
1773163152441517000,10.00051708984375,0.09896009415388107,0.059864748269319534,0.2528980076313019
1773163152460281300,10.01928125,-0.023212861269712448,0.23335035145282745,0.2052505612373352
1773163152479045400,10.03804541015625,-0.08063415437936783,0.3017672002315521,0.06475166976451874
1773163152497809700,10.0568095703125,-0.06597339361906052,0.20402882993221283,-0.1185077652335167
1773163152516573700,10.07557373046875,0.05864302068948746,-0.059864748269319534,-0.3481929302215576
1773163152535338000,10.094337890625,0.09162971377372742,-0.31520622968673706,-0.4972439408302307
1773163152554102000,10.11310205078125,0.09896009415388107,-0.4312705397605896,-0.46547895669937134
1773163152572866300,10.1318662109375,0.05497783049941063,-0.4276053309440613,-0.3555232882499695
1773163152591630300,10.15063037109375,-0.008552107028663158,-0.31520622968673706,-0.1795942485332489
1773163152610394600,10.16939453125,-0.06352993845939636,-0.08552107214927673,0.01954767294228077
1773163152629158700,10.18815869140625,-0.09040798991918564,0.07452550530433655,0.2101374864578247
1773163152647922700,10.206922607421875,-0.14049890637397766,0.1233946830034256,0.34208428859710693
1773163152666687000,10.22568701171875,-0.20280711352825165,0.1588248461484909,0.4068359434604645
1773163152685451000,10.244450927734375,-0.31031930446624756,0.29565855860710144,0.45326167345046997
1773163152704215300,10.26321533203125,-0.31642794609069824,0.4276053309440613,0.471587598323822
1773163152722979300,10.281979248046875,-0.11728604137897491,0.5241219997406006,0.411722868680954
1773163152741743600,10.30074365234375,0.2370155304670334,0.6511818766593933,0.45448338985443115
1773163152760507600,10.319507568359375,0.45937031507492065,0.46914416551589966,0.6291907429695129
1773163152779271700,10.338271728515625,0.6389645338058472,0.10384701192378998,0.8002328872680664
1773163152798036000,10.357035888671875,0.7220421433448792,0.056199558079242706,0.8759800791740417
1773163152816800300,10.37580029296875,0.7037162184715271,0.42394015192985535,0.9175189137458801
1773163152835564300,10.394564208984375,0.6499601006507874,0.7452550530433655,0.9578359723091125
1773163152854328300,10.413328369140626,0.5094612240791321,0.7000510096549988,0.9187406301498413
1773163152873092600,10.432092529296876,0.38728827238082886,0.41783151030540466,0.8210022449493408
1773163152891856600,10.450856689453126,0.277332603931427,0.360410213470459,0.8161153197288513
1773163152910621000,10.469620849609376,0.14782927930355072,0.5485565662384033,0.8686497211456299
1773163152929385000,10.488385009765626,0,0.7709113359451294,1.0018181800842285
1773163152948149000,10.50714892578125,-0.1026252806186676,0.943175196647644,1.130099892616272
1773163152966913300,10.525913330078126,-0.13439024984836578,1.053130865097046,1.1606431007385254
1773163152985677300,10.54467724609375,-0.10018182545900345,1.1398736238479614,1.1435388326644897
1773163153004441600,10.563441650390626,0.007330377586185932,1.247385859489441,1.1239912509918213
1773163153023205600,10.58220556640625,0.17715078592300415,1.351232886314392,1.0396918058395386
1773163153041969700,10.6009697265625,0.34574946761131287,1.3927717208862305,0.9297361969947815
1773163153060734000,10.61973388671875,0.4886918365955353,1.3536763191223145,0.8491020202636719
1773163153088880000,10.647880126953124,0.526565432548523,1.0030399560928345,0.7745765447616577
1773163153107644200,10.66664404296875,0.46059203147888184,1.0140355825424194,0.7672461867332458
1773163153126408400,10.685408447265624,0.3481929302215576,1.3939933776855469,0.740368127822876
1773163153145172500,10.70417236328125,0.20891575515270233,1.5723659992218018,0.7415898442268372
1773163153163936800,10.722936767578124,0.08063415437936783,1.390328288078308,0.7012727856636047
1773163153182700800,10.74170068359375,0.007330377586185932,1.3451242446899414,0.6120865345001221
1773163153201464800,10.76046484375,-0.053756099194288254,1.3182462453842163,0.45937031507492065
1773163153220229000,10.77922900390625,-0.1185077652335167,1.2486076354980469,0.34574946761131287
1773163153238993200,10.7979931640625,-0.20280711352825165,1.2241730690002441,0.2993237376213074
1773163153257757400,10.81675732421875,-0.2577849328517914,1.3463460206985474,0.3176496922969818
1773163153276521500,10.835521484375,-0.21258094906806946,1.4098758697509766,0.28954991698265076
1773163153295285500,10.854285400390625,-0.12583814561367035,1.3732240200042725,0.23945899307727814
1773163153314049800,10.8730498046875,-0.09162971377372742,1.3011419773101807,0.21135921776294708
1773163153332813800,10.891813720703125,-0.12095122784376144,1.2620465755462646,0.15271618962287903
1773163153351577900,10.910577880859375,-0.1747073233127594,1.1948515176773071,0.050090912729501724
1773163153370342100,10.929342041015625,-0.23212862014770508,1.0567960739135742,-0.05497783049941063
1773163153389106200,10.948106201171875,-0.32131487131118774,0.9749401807785034,-0.06963858753442764
1773163153407870500,10.966870361328125,-0.39339691400527954,0.9883792400360107,-0.0513126403093338
1773163153426634500,10.985634521484375,-0.4153880476951599,1.0775654315948486,-0.15515965223312378
1773163153445398500,11.0043984375,-0.411722868680954,1.1691951751708984,-0.401949018239975
1773163153464162800,11.023162841796875,-0.4618137776851654,1.2877029180526733,-0.7281508445739746
1773163153492309000,11.05130908203125,-0.6304124593734741,1.6212351322174072,-1.293811559677124
1773163153511073000,11.070072998046875,-0.7257073521614075,1.8093814849853516,-1.68354332447052
1773163153529837000,11.088837158203125,-0.5632173418998718,1.944993495941162,-2.1856741905212402
1773163153548601300,11.107601318359375,-0.43860089778900146,1.7788382768630981,-2.366490125656128
1773163153567365400,11.126365478515625,-0.1844811588525772,1.7629557847976685,-2.2003350257873535
1773163153586129400,11.14512939453125,0.14660754799842834,2.0073015689849854,-1.8423681259155273
1773163153604893700,11.163893798828125,0.27977606654167175,2.2223260402679443,-1.4147628545761108
1773163153623657700,11.18265771484375,0.3347539007663727,2.036623239517212,-1.1154390573501587
1773163153642422000,11.201422119140625,0.3811796307563782,1.6884303092956543,-0.9382883310317993
1773163153661186000,11.22018603515625,0.328645259141922,1.5015056133270264,-0.7916807532310486
1773163153679950000,11.2389501953125,0.24434591829776764,1.4110976457595825,-0.5913171172142029
1773163153698714400,11.25771435546875,0.1588248461484909,1.3463460206985474,-0.2968802750110626
1773163153717478400,11.276478515625,0.15638138353824615,1.2327251434326172,-0.06597339361906052
1773163153736242400,11.295242431640625,0.37262752652168274,0.9810488224029541,0.059864748269319534
1773163153755006500,11.31400634765625,0.4410443603992462,0.8796452879905701,0.235793799161911
1773163153773770800,11.332770751953126,0.4459312856197357,0.7599157691001892,0.47525280714035034
1773163153792534800,11.35153466796875,0.4874700903892517,0.4776962697505951,0.6511818766593933
1773163153811298800,11.370298828125,0.43004879355430603,0.401949018239975,0.778241753578186
1773163153830063000,11.38906298828125,0.3066541254520416,0.4263836145401001,0.8063415288925171
1773163153848827100,11.4078271484375,0.2003636509180069,0.38240134716033936,0.7733548283576965
1773163153867591200,11.426591064453126,0.1185077652335167,0.5009090900421143,0.7428115606307983
1773163153886355500,11.44535546875,0.10873392969369888,0.813671886920929,0.695164144039154
1773163153905119500,11.464119384765626,0.07941242307424545,1.2070688009262085,0.7452550530433655
1773163153923883500,11.482883544921876,0.07574722915887833,1.4782928228378296,0.7269290685653687
1773163153952029700,11.51102978515625,0.040317077189683914,1.4477494955062866,0.5302306413650513
1773163153970794000,11.5297939453125,0.03298669680953026,1.351232886314392,0.33108872175216675
1773163153989558000,11.54855810546875,0.04276053607463837,1.1557561159133911,0.12217295914888382
1773163154008322000,11.567322021484374,0.0818558782339096,0.7953459620475769,-0.10506874322891235
1773163154027086300,11.58608642578125,0.15760311484336853,0.2724456787109375,-0.31642794609069824
1773163154045850400,11.604850341796874,0.13683371245861053,0,-0.3396408259868622
1773163154064614400,11.623614501953124,0.001221729558892548,0.08063415437936783,-0.22846342623233795
1773163154083378700,11.642378662109374,-0.17715078592300415,0.3652971386909485,0.040317077189683914
1773163154102142700,11.661142822265624,-0.2626718580722809,0.4581485986709595,0.45937031507492065
1773163154120906800,11.67990673828125,-0.235793799161911,0.3176496922969818,0.6939423680305481
1773163154139671000,11.698671142578124,-0.0720820426940918,0.37140578031539917,0.5717694163322449
1773163154167817000,11.72681689453125,0.18081597983837128,0.48991355299949646,0.370184063911438
1773163154186581200,11.745581298828125,0.20280711352825165,0.40927940607070923,0.5131264328956604
1773163154205345300,11.76434521484375,0.20647229254245758,0.5534434914588928,0.6365211009979248
1773163154224109300,11.783109375,0.2406807243824005,0.6438514590263367,0.7195987105369568
1773163154242873300,11.801873291015625,0.28466299176216125,0.7318159937858582,0.7892373204231262
1773163154261637600,11.8206376953125,0.2626718580722809,0.8833104968070984,0.861319363117218
1773163154289783800,11.84878369140625,0.23335035145282745,0.8772017955780029,0.9187406301498413
1773163154308547800,11.8675478515625,0.2309068888425827,0.8368847370147705,0.8808670043945312
1773163154336694000,11.895694091796875,0.22235478460788727,0.8564324378967285,0.8014546036720276
1773163154355458000,11.9144580078125,0.21380266547203064,0.9297361969947815,0.8087849617004395
1773163154374222000,11.93322216796875,0.13072505593299866,1.1129956245422363,0.9004147052764893
1773163154392986400,11.951986328125,0.023212861269712448,1.3646719455718994,0.9859357476234436
1773163154411750400,11.97075048828125,-0.034208428114652634,1.4233149290084839,0.9944878816604614
1773163154430514400,11.989514404296875,-0.020769402384757996,1.4294235706329346,0.9053016304969788
1773163154449278500,12.008278564453125,-0.03298669680953026,1.490510106086731,0.9089667797088623
1773163154468042800,12.027042724609375,0.03298669680953026,1.6798781156539917,0.8991929292678833
1773163154486806800,12.045806884765625,0.07086031138896942,1.7434080839157104,0.7977893948554993
1773163154505570800,12.06457080078125,0.13072505593299866,1.6896519660949707,0.740368127822876
1773163154524335000,12.083335205078125,0.1795942485332489,1.6957606077194214,0.740368127822876
1773163154552481000,12.11148095703125,0.1698204129934311,1.5112794637680054,0.778241753578186
1773163154571245000,12.1302451171875,0.13683371245861053,1.5406010150909424,0.7770199775695801
1773163154590009300,12.14900927734375,0.10995566099882126,1.7336342334747314,0.7012727856636047
1773163154608773400,12.1677734375,0.06475166976451874,1.750738501548767,0.6927206516265869
1773163154627537400,12.186537353515625,0.10629047453403473,1.7165300846099854,0.6426297426223755
1773163154646301700,12.2053017578125,0.11362084746360779,1.5491530895233154,0.5180133581161499
1773163154665065700,12.224065673828125,0.19425499439239502,1.441640853881836,0.4569268524646759
1773163154683829800,12.242829833984375,0.2370155304670334,1.469740629196167,0.4508182108402252
1773163154702593800,12.26159375,0.22724169492721558,1.4746276140213013,0.4459312856197357
1773163154721357800,12.28035791015625,0.12950333952903748,1.4208714962005615,0.46425724029541016
1773163154740122000,12.2991220703125,-0.014660755172371864,1.461188554763794,0.43493571877479553
1773163154758886100,12.31788623046875,-0.11972949653863907,1.470962405204773,0.3066541254520416
1773163154777650200,12.336650146484375,-0.19792018830776215,1.4453060626983643,0.2211330533027649
1773163154796414200,12.355414306640625,-0.22235478460788727,1.431867003440857,0.15149445831775665
1773163154815178200,12.37417822265625,-0.20647229254245758,1.3695588111877441,0.050090912729501724
1773163154833942500,12.392942626953126,-0.20158538222312927,1.2925899028778076,-0.014660755172371864
1773163154852706600,12.41170654296875,-0.2809978127479553,1.2290599346160889,-0.07086031138896942
1773163154871470600,12.430470703125,-0.44470956921577454,1.1753038167953491,-0.10018182545900345
1773163154890234600,12.449234619140626,-0.6524035930633545,1.1166608333587646,-0.046425722539424896
1773163154908999000,12.4679990234375,-0.7367029190063477,1.0396918058395386,-0.004886918235570192
1773163154927763000,12.486762939453126,-0.6805033683776855,0.9688315391540527,-0.11728604137897491
1773163154946527000,12.50552685546875,-0.41783151030540466,1.0739002227783203,-0.34574946761131287
1773163154965291000,12.524291015625,-0.1905898153781891,1.255937933921814,-0.6548470258712769
1773163154984055000,12.543054931640626,-0.11117739230394363,1.4966187477111816,-0.9908226728439331
1773163155002819000,12.561819091796876,-0.1490510106086731,1.8374812602996826,-1.3402373790740967
1773163155021583400,12.580583251953126,-0.2712239623069763,2.177122116088867,-1.6432262659072876
1773163155040347400,12.599347412109376,-0.3799578845500946,2.349385976791382,-1.8839069604873657
1773163155059111400,12.618111328125,-0.3836230933666229,2.4825544357299805,-1.9792019128799438
1773163155077875500,12.63687548828125,-0.3640754222869873,2.612057685852051,-1.820376992225647
1773163155096639500,12.655639404296876,-0.22846342623233795,2.64382266998291,-1.4245367050170898
1773163155115403800,12.67440380859375,-0.1233946830034256,2.4263548851013184,-1.061682939529419
1773163155134167800,12.693167724609374,-0.02932151034474373,1.9535455703735352,-0.8503237962722778
1773163155152931800,12.711931884765624,0.04886918142437935,1.6383392810821533,-0.7086031436920166
1773163155171695900,12.73069580078125,-0.018325943499803543,1.4587451219558716,-0.6059778332710266
1773163155190460000,12.7494599609375,-0.0720820426940918,1.4648537635803223,-0.43371400237083435
1773163155209224200,12.76822412109375,-0.1331685185432434,1.5796962976455688,-0.10995566099882126
1773163155227988200,12.78698828125,-0.06230820715427399,1.442862629890442,0.17104214429855347
1773163155246752300,12.805752197265624,0.0256563201546669,1.0800089836120605,0.3090975880622864
1773163155265516300,12.824516357421874,-0.021991131827235222,0.9236275553703308,0.4263836145401001
1773163155284280300,12.8432802734375,0.04520399495959282,0.5717694163322449,0.46914416551589966
1773163155303044400,12.86204443359375,0.12095122784376144,0.17715078592300415,0.4862483739852905
1773163155321808600,12.88080859375,0.1844811588525772,-0.07819069176912308,0.5229002237319946
1773163155340572700,12.89957275390625,0.23823726177215576,-0.21258094906806946,0.5656607747077942
1773163155359336700,12.918336669921874,0.3017672002315521,-0.2614501118659973,0.6169734001159668
1773163155378100700,12.937100830078125,0.3445277214050293,-0.24312418699264526,0.6768381595611572
1773163155396864800,12.95586474609375,0.35796675086021423,-0.14172062277793884,0.7195987105369568
1773163155415628800,12.97462890625,0.29077163338661194,0.034208428114652634,0.6792816519737244
1773163155434392800,12.993392822265625,0.18203771114349365,0.11362084746360779,0.5204567909240723
1773163155453157000,13.0121572265625,0.10995566099882126,0.10751219838857651,0.3127627670764923
1773163155471921200,13.030921142578125,0.04886918142437935,0.20402882993221283,0.0977383628487587
1773163155490685200,13.049685302734375,-0.0256563201546669,0.44837474822998047,-0.11728604137897491
1773163155509449200,13.06844921875,-0.021991131827235222,0.4410443603992462,-0.3591884970664978
1773163155528213200,13.087213134765625,0.03787361457943916,0.03543015569448471,-0.5607738494873047
1773163155546977300,13.105977294921875,0.05864302068948746,-0.5253437161445618,-0.730594277381897
1773163155565741300,13.1247412109375,0.024434590712189674,-0.6780598759651184,-0.7525854110717773
1773163155584505600,13.143505615234375,-0.03543015569448471,-0.401949018239975,-0.5717694163322449
1773163155603269600,13.16226953125,-0.12950333952903748,0.07086031138896942,-0.22235478460788727
1773163155622033700,13.18103369140625,-0.3090975880622864,0.2932150959968567,0.2993237376213074
1773163155640797700,13.199797607421875,-0.3738492429256439,0.2467893660068512,0.7342594861984253
1773163155659561700,13.218561767578125,-0.12705987691879272,0.2528980076313019,0.471587598323822
1773163155678325800,13.23732568359375,0.1795942485332489,0.006108647678047419,0.023212861269712448
1773163155697089800,13.25608984375,0.471587598323822,-0.2968802750110626,0.01588248461484909
1773163155715853800,13.274853759765625,0.40927940607070923,-0.3139844834804535,0.21991132199764252
1773163155734618000,13.2936181640625,0.3738492429256439,0.09285144507884979,0.4825831651687622
1773163155753382000,13.3123818359375,0.36285367608070374,0.5583304166793823,0.667064368724823
1773163155772146200,13.331146240234375,0.41783151030540466,0.7244856357574463,0.7232639193534851
1773163155790910200,13.34991015625,0.4263836145401001,0.6426297426223755,0.6768381595611572
1773163155809674200,13.36867431640625,0.3958403766155243,0.5057960152626038,0.720820426940918
1773163155828438300,13.387438232421875,0.38240134716033936,0.34086254239082336,0.778241753578186
1773163155847202300,13.406202392578125,0.3836230933666229,0.11239911615848541,0.7098248600959778
1773163155865966300,13.42496630859375,0.38728827238082886,-0.06963858753442764,0.5986474752426147
1773163155884730400,13.44373046875,0.3652971386909485,-0.2211330533027649,0.5241219997406006
1773163155903494400,13.462494384765625,0.33719736337661743,-0.26389357447624207,0.4972439408302307
1773163155922258700,13.4812587890625,0.29077163338661194,-0.16737695038318634,0.5204567909240723
1773163155941022700,13.500022705078125,0.18692462146282196,-0.05742128938436508,0.5876519083976746
1773163155959786800,13.518786865234375,0.1282816082239151,-0.06719512492418289,0.5717694163322449
1773163155978550800,13.53755078125,0.14172062277793884,-0.05253437161445618,0.564439058303833
1773163155997314800,13.556314697265625,0.18692462146282196,0.040317077189683914,0.5705476999282837
1773163156016078800,13.575078857421875,0.27855435013771057,0.15149445831775665,0.5974257588386536
1773163156034843000,13.5938427734375,0.3652971386909485,0.2761108875274658,0.6108647584915161
1773163156053607000,13.61260693359375,0.42394015192985535,0.32009315490722656,0.5839866995811462
1773163156072371000,13.631370849609375,0.45937031507492065,0.2712239623069763,0.5632173418998718
1773163156091135000,13.650135009765625,0.47036588191986084,0.23945899307727814,0.5583304166793823
1773163156109899300,13.668899169921875,0.45937031507492065,0.18081597983837128,0.5693259835243225
1773163156128663000,13.6876630859375,0.44348782300949097,0.13072505593299866,0.5571087002754211
1773163156147427300,13.70642724609375,0.3970620930194855,0.15271618962287903,0.536339282989502
1773163156166191400,13.72519140625,0.35674503445625305,0.21991132199764252,0.46059203147888184
1773163156184955400,13.743955322265625,0.3237583339214325,0.2565632164478302,0.3445277214050293
1773163156203719400,13.762719482421875,0.287106454372406,0.2626718580722809,0.24556763470172882
1773163156222483500,13.7814833984375,0.26389357447624207,0.31642794609069824,0.16859868168830872
1773163156241247500,13.80024755859375,0.24556763470172882,0.4630354940891266,0.11117739230394363
1773163156260011500,13.819011474609376,0.2211330533027649,0.6340776681900024,0.023212861269712448
1773163156278775600,13.837775634765626,0.15027274191379547,0.6194168925285339,-0.03298669680953026
1773163156306921500,13.86592138671875,-0.03909534588456154,0.6890554428100586,0.059864748269319534
1773163156325685800,13.884685791015626,-0.12705987691879272,0.8588758707046509,0.010995565913617611
1773163156344449800,13.90344970703125,-0.21135921776294708,0.9456186890602112,-0.2614501118659973
1773163156372595700,13.931595703125,-0.32131487131118774,1.053130865097046,-0.8381064534187317
1773163156391359700,13.95035986328125,-0.4508182108402252,1.158199667930603,-1.2205078601837158
1773163156410123800,13.969123779296876,-0.5754346251487732,1.1777472496032715,-1.5406010150909424
1773163156428887800,13.9878876953125,-0.7098248600959778,1.2009601593017578,-1.7250821590423584
1773163156447651800,14.00665185546875,-0.8723149299621582,1.2156208753585815,-1.8130466938018799
1773163156466415900,14.025415771484376,-1.0103703737258911,1.3377938270568848,-1.7886121273040771
1773163156485180000,14.044179931640626,-1.102000117301941,1.489288330078125,-1.6395610570907593
1773163156503944000,14.06294384765625,-1.0592395067214966,1.7482949495315552,-1.3377938270568848
1773163156522708200,14.081708251953126,-0.9040798544883728,1.666439175605774,-0.758694052696228
1773163156541472300,14.10047216796875,-0.8368847370147705,0.7953459620475769,-0.27977606654167175
1773163156560236300,14.119236328125,-0.7635809779167175,0.1026252806186676,-0.1954767256975174
1773163156579000300,14.138000244140626,-0.6963858604431152,0.07330377399921417,-0.31642794609069824
1773163156597764400,14.156764404296876,-0.6719512343406677,0.24312418699264526,-0.3274235129356384
1773163156616528400,14.1755283203125,-0.7379246354103088,0.20891575515270233,-0.14660754799842834
1773163156635292400,14.19429248046875,-0.750141978263855,0.09407317638397217,0.04520399495959282
1773163156654056400,14.213056396484374,-0.6560688018798828,-0.08674279600381851,0.13927717506885529
1773163156672820500,14.231820556640624,-0.5338957905769348,-0.3384190797805786,0.15149445831775665
1773163156691584500,14.25058447265625,-0.39828383922576904,-0.5729911923408508,0.19669845700263977
1773163156710348500,14.2693486328125,-0.29565855860710144,-0.7757982611656189,0.27488914132118225
1773163156729112600,14.288112548828124,-0.21380266547203064,-0.9822705388069153,0.3347539007663727
1773163156747876600,14.306876708984374,-0.13072505593299866,-1.1129956245422363,0.4214966893196106
1773163156766640600,14.325640625,-0.030543239787220955,-1.1215476989746094,0.5229002237319946
1773163156785404700,14.34440478515625,0.05497783049941063,-1.1423171758651733,0.5913171172142029
1773163156804168700,14.363168701171874,0.10018182545900345,-1.117882490158081,0.6169734001159668
1773163156822932700,14.3819326171875,0.05497783049941063,-1.062904715538025,0.6340776681900024
1773163156841696800,14.40069677734375,-0.11239911615848541,-0.9517273306846619,0.6230821013450623
1773163156860460800,14.419460693359374,-0.35796675086021423,-0.7452550530433655,0.4923570156097412
1773163156879224800,14.438224853515624,-0.5033525824546814,-0.6682860851287842,0.1649334877729416
1773163156897988900,14.45698876953125,-0.6340776681900024,-0.5473348498344421,-0.19425499439239502
1773163156916752600,14.475752685546874,-0.637742817401886,-0.7257073521614075,-0.44470956921577454
1773163156935517000,14.494516845703124,-0.5302306413650513,-1.303585410118103,-0.6230821013450623
1773163156954281000,14.513281005859374,-0.4007273018360138,-1.8350378274917603,-0.6218603253364563
1773163156982427000,14.541427001953124,-0.38728827238082886,-1.7421863079071045,-0.47036588191986084
1773163157001191000,14.56019091796875,-0.4214966893196106,-1.166751742362976,-0.26511532068252563
1773163157019955000,14.578954833984374,-0.49602219462394714,-0.5070177912712097,0.04886918142437935
1773163157038719000,14.597718994140624,-0.2724456787109375,-0.017104214057326317,0.13561198115348816
1773163157057483000,14.61648291015625,0.20891575515270233,-0.25411975383758545,0
1773163157076247000,14.6352470703125,0.5607738494873047,-0.5595521330833435,0.01954767294228077
1773163157095011000,14.654010986328124,0.9407317638397217,-0.8491020202636719,0.2052505612373352
1773163157113775000,14.672775146484375,0.9578359723091125,-1.0946696996688843,0.4740310609340668
1773163157132539100,14.6915390625,0.8759800791740417,-0.8539889454841614,0.758694052696228
1773163157151303200,14.71030322265625,0.8161153197288513,-0.16737695038318634,0.823445737361908
1773163157170067200,14.729067138671875,0.8466585874557495,0.03298669680953026,0.80389803647995
1773163157188831200,14.747831298828125,0.8112284541130066,-0.4471530318260193,0.730594277381897
1773163157207595300,14.76659521484375,0.6328558921813965,-0.9126319885253906,0.5253437161445618
1773163157226359300,14.785359375,0.5558869242668152,-1.266933560371399,0.3848448097705841
1773163157245123000,14.804123046875,0.5143481492996216,-1.5515965223312378,0.3946186602115631
1773163157263887000,14.82288720703125,0.41783151030540466,-1.6126830577850342,0.5119046568870544
1773163157282651400,14.8416513671875,0.26022839546203613,-1.3573415279388428,0.6414080262184143
1773163157301415200,14.860415283203125,0.15515965223312378,-1.0580178499221802,0.7538071274757385
1773163157320179200,14.87917919921875,0.14538581669330597,-0.8503237962722778,0.8051197528839111
1773163157338943200,14.897943115234375,0.21868959069252014,-0.7696896195411682,0.7794634699821472
1773163157357707300,14.916707275390625,0.3127627670764923,-0.7574723362922668,0.6695078015327454
1773163157376471300,14.93547119140625,0.3970620930194855,-0.5790998339653015,0.5937605500221252
1773163157395235300,14.9542353515625,0.4410443603992462,-0.3335321843624115,0.6206386089324951
1773163157413999400,14.972999267578125,0.49602219462394714,-0.19181154668331146,0.5949822664260864
1773163157432763400,14.991763427734375,0.5302306413650513,-0.25900667905807495,0.49602219462394714
1773163157451527400,15.01052734375,0.5216785073280334,-0.24556763470172882,0.4373791813850403
1773163157470291500,15.02929150390625,0.4276053309440613,-0.07452550530433655,0.4508182108402252
1773163157489055500,15.048055419921875,0.37629270553588867,0.09529490768909454,0.4740310609340668
1773163157507819500,15.066819580078125,0.2981020212173462,0.1905898153781891,0.4984656572341919
1773163157526583600,15.08558349609375,0.2981020212173462,0.2516762912273407,0.45326167345046997
1773163157545347600,15.10434765625,0.3139844834804535,0.32131487131118774,0.4007273018360138
1773163157564111400,15.123111328125,0.31031930446624756,0.3958403766155243,0.37751442193984985
1773163157582875400,15.14187548828125,0.2932150959968567,0.41294458508491516,0.3640754222869873
1773163157601639400,15.160639404296875,0.277332603931427,0.3396408259868622,0.33231043815612793
1773163157620403500,15.179403564453125,0.24801109731197357,0.2932150959968567,0.3249800503253937
1773163157639167500,15.19816748046875,0.2370155304670334,0.3543015718460083,0.3078758418560028
1773163157657931500,15.216931640625,0.27366742491722107,0.35674503445625305,0.2565632164478302
1773163157676695600,15.235695556640625,0.328645259141922,0.1649334877729416,0.19425499439239502
1773163157695459600,15.25445947265625,0.3078758418560028,0.043982263654470444,0.15027274191379547
1773163157714223600,15.2732236328125,0.23945899307727814,-0.1185077652335167,0.04153880476951599
1773163157732987600,15.291987548828125,0.1441640853881836,-0.22479823231697083,-0.017104214057326317
1773163157751751400,15.31075146484375,0.04276053607463837,-0.24312418699264526,-0.13439024984836578
1773163157770515500,15.329515380859375,-0.014660755172371864,-0.20647229254245758,-0.35796675086021423
1773163157789279500,15.348279541015625,-0.11484257876873016,-0.13561198115348816,-0.6414080262184143
1773163157808043500,15.36704345703125,-0.25045454502105713,-0.053756099194288254,-0.9859357476234436
1773163157826807600,15.3858076171875,-0.3995055556297302,0.028099779039621353,-1.3744457960128784
1773163157845571600,15.404571533203125,-0.5485565662384033,-0.023212861269712448,-1.7910555601119995
1773163157864335600,15.423335693359375,-0.695164144039154,-0.21380266547203064,-2.266308307647705
1773163157883099600,15.442099609375,-0.8161153197288513,-0.44837474822998047,-2.6890268325805664
1773163157901863700,15.46086376953125,-0.9651663303375244,-0.6890554428100586,-2.7672173976898193
1773163157920627500,15.47962744140625,-1.072678565979004,-0.8210022449493408,-2.439793825149536
1773163157939391500,15.4983916015625,-1.061682939529419,-0.5839866995811462,-1.977980136871338
1773163157958155500,15.517155517578125,-0.9407317638397217,0.20158538222312927,-1.545487880706787
1773163157976919600,15.53591943359375,-0.8442151546478271,0.915075421333313,-1.2877029180526733
1773163157995683600,15.55468359375,-0.9297361969947815,0.8112284541130066,-1.1704169511795044
1773163158014447600,15.573447509765625,-1.0519092082977295,0.3799578845500946,-1.0140355825424194
1773163158033211600,15.592211669921875,-1.1239912509918213,0.06963858753442764,-0.6230821013450623
1773163158051975400,15.610975341796875,-1.2058470249176025,-0.14172062277793884,-0.15760311484336853
1773163158070739500,15.629739501953125,-1.2449424266815186,-0.3860665261745453,0.16126830875873566
1773163158089503500,15.64850341796875,-1.2070688009262085,-0.7293725609779358,0.411722868680954
1773163158108267500,15.667267578125,-1.1215476989746094,-1.2999202013015747,0.5803215503692627
1773163158127031600,15.686031494140625,-1.0042617321014404,-1.9498803615570068,0.5852084755897522
1773163158145795600,15.704795654296875,-0.8808670043945312,-2.49843692779541,0.5094612240791321
1773163158164559600,15.7235595703125,-0.6560688018798828,-2.7281219959259033,0.4166097939014435
1773163158192705500,15.75170556640625,-0.3995055556297302,-2.73545241355896,0.41905322670936584
1773163158211469600,15.770469482421875,-0.35674503445625305,-2.6083927154541016,0.4764745235443115
1773163158230233600,15.789233642578125,-0.4105011224746704,-2.3762640953063965,0.3909534513950348
1773163158248997600,15.80799755859375,-0.5094612240791321,-1.9486587047576904,0.27977606654167175
1773163158267761400,15.826761474609375,-0.6035344004631042,-1.37078058719635,0.21502439677715302
1773163158286525400,15.845525390625,-0.6841685771942139,-0.9358448386192322,0.15149445831775665
1773163158305289500,15.86428955078125,-0.7232639193534851,-0.49480047821998596,0.12705987691879272
1773163158324053500,15.883053466796875,-0.6181951761245728,-0.19792018830776215,0.06719512492418289
1773163158342817500,15.901817626953125,-0.4667007029056549,-0.37629270553588867,-0.056199558079242706
1773163158361581300,15.920581298828125,-0.3347539007663727,-0.8820887207984924,-0.13683371245861053
1773163158380345300,15.939345458984375,-0.2626718580722809,-1.2705987691879272,-0.08307760953903198
1773163158399109400,15.958109375,-0.2712239623069763,-1.4135410785675049,0.15149445831775665
1773163158417873400,15.976873291015625,-0.3860665261745453,-1.3683371543884277,0.526565432548523
1773163158436637400,15.995637451171875,-0.6267472505569458,-1.3072506189346313,0.9028581380844116
1773163158455401500,16.0144013671875,-0.9871574640274048,-1.1459823846817017,0.8894191384315491
1773163158474165500,16.03316552734375,-0.6071996092796326,-1.0800089836120605,0.06963858753442764
1773163158492929300,16.05192919921875,-0.09285144507884979,-1.490510106086731,-0.5204567909240723
1773163158511693300,16.070693359375,0.27000224590301514,-2.0195188522338867,-0.09285144507884979
1773163158530457300,16.089457275390625,0.5668824911117554,-1.9095633029937744,0.14782927930355072
1773163158549221400,16.108221435546874,0.8991929292678833,-1.860694169998169,0.4251618981361389
1773163158567985400,16.1269853515625,1.2131774425506592,-1.284037709236145,0.6609556674957275
1773163158586749200,16.145749267578125,1.341459035873413,-0.18692462146282196,0.6963858604431152
1773163158605513200,16.16451318359375,1.2803726196289062,0.328645259141922,0.5790998339653015
1773163158624277200,16.18327734375,0.9957095980644226,-0.017104214057326317,0.5485565662384033
1773163158643041300,16.202041259765625,0.5485565662384033,-0.5522217750549316,0.5277871489524841
1773163158661805000,16.22080517578125,0.22846342623233795,-1.0311397314071655,0.44959646463394165
1773163158680569000,16.239569091796874,0.14538581669330597,-1.4257583618164062,0.46547895669937134
1773163158699333000,16.2583330078125,0.27000224590301514,-1.6762129068374634,0.6169734001159668
1773163158718097200,16.27709716796875,0.08796452730894089,-1.6615521907806396,0.8307760953903198
1773163158736861200,16.295861083984374,-0.13439024984836578,-1.499062180519104,0.861319363117218
1773163158755625000,16.314625,-0.059864748269319534,-1.2143992185592651,0.768467903137207
1773163158774389000,16.333388916015625,0.11362084746360779,-1.1044435501098633,0.758694052696228
1773163158793153000,16.352153076171874,0.28466299176216125,-1.1068869829177856,0.7379246354103088
1773163158811917000,16.3709169921875,0.46547895669937134,-1.0519092082977295,0.5717694163322449
1773163158830681000,16.38968115234375,0.5619956254959106,-0.8356630206108093,0.41416633129119873
1773163158849444900,16.40844482421875,0.6255255341529846,-0.5827649831771851,0.34574946761131287
1773163158868209000,16.427208984375,0.6206386089324951,-0.4068359434604645,0.3848448097705841
1773163158886973000,16.445972900390625,0.6206386089324951,-0.1893680840730667,0.4361574649810791
1773163158915118800,16.474118896484374,0.5510000586509705,0.017104214057326317,0.4862483739852905
1773163158933883000,16.4928828125,0.49968740344047546,0.10629047453403473,0.5864301919937134
1773163158952647000,16.51164697265625,0.471587598323822,0.1698204129934311,0.6963858604431152
1773163158980792800,16.539792724609374,0.4764745235443115,0.12583814561367035,0.6707295179367065
1773163158999556900,16.558556884765625,0.5082395076751709,0.09162971377372742,0.5131264328956604
1773163159018320600,16.577320556640625,0.5253437161445618,0.056199558079242706,0.36163195967674255
1773163159037084700,16.596084716796874,0.5070177912712097,0.0769689604640007,0.2834412455558777
1773163159055848700,16.6148486328125,0.4214966893196106,0.18203771114349365,0.21746785938739777
1773163159074612700,16.63361279296875,0.328645259141922,0.22724169492721558,0.08796452730894089
1773163159093376800,16.652376708984374,0.22846342623233795,0.1795942485332489,-0.06719512492418289
1773163159112140500,16.671140625,0.03176496922969818,0.09285144507884979,-0.20402882993221283
1773163159130904600,16.689904541015625,-0.24434591829776764,0.10873392969369888,-0.33231043815612793
1773163159149668600,16.708668701171874,-0.5216785073280334,0.22235478460788727,-0.5351175665855408
1773163159168432600,16.7274326171875,-0.7623592615127563,0.3237583339214325,-0.9334014058113098
1773163159187196400,16.746196533203126,-0.9004147052764893,0.3909534513950348,-1.3976585865020752
1773163159205960400,16.76496044921875,-1.0054833889007568,0.3689623177051544,-1.8814635276794434
1773163159224724500,16.783724365234374,-1.1679733991622925,0.24556763470172882,-2.377485752105713
1773163159243488300,16.80248828125,-1.3304635286331177,0.017104214057326317,-2.5778493881225586
1773163159262252300,16.821252197265625,-1.3976585865020752,0.001221729558892548,-2.322507858276367
1773163159281016300,16.840016357421874,-1.2730422019958496,0.37140578031539917,-1.7678426504135132
1773163159299780400,16.8587802734375,-1.0360267162322998,0.9993748068809509,-1.2608249187469482
1773163159318544100,16.877544189453126,-1.0323615074157715,1.4074324369430542,-0.9101884961128235
1773163159337308200,16.89630810546875,-1.2534945011138916,1.081230640411377,-0.6719512343406677
1773163159356072200,16.915072265625,-1.2119556665420532,0.5717694163322449,-0.5681042671203613
1773163159374836200,16.933836181640626,-1.2192860841751099,0.4202749729156494,-0.4471530318260193
1773163159393600000,16.95260009765625,-1.2913681268692017,0.03176496922969818,-0.13194678723812103
1773163159421746000,16.980745849609374,-1.1630865335464478,-0.6719512343406677,0.1698204129934311
1773163159440510000,16.999510009765626,-1.0225876569747925,-0.9761618971824646,0.3335321843624115
1773163159459274000,17.01827392578125,-0.8845322132110596,-1.2424989938735962,0.4581485986709595
1773163159478038000,17.0370380859375,-0.8014546036720276,-1.5833615064620972,0.5607738494873047
1773163159496801800,17.0558017578125,-0.657290518283844,-1.821598768234253,0.5974257588386536
1773163159515565800,17.07456591796875,-0.4630354940891266,-1.9901974201202393,0.6194168925285339
1773163159534329900,17.093329833984374,-0.26022839546203613,-2.0378448963165283,0.6976075768470764
1773163159553093600,17.11209375,-0.12217295914888382,-2.0610578060150146,0.7892373204231262
1773163159571857700,17.130857666015626,0.008552107028663158,-2.064723014831543,0.8112284541130066
1773163159590621700,17.14962158203125,0.07941242307424545,-1.8619158267974854,0.7415898442268372
1773163159609385700,17.1683857421875,0.06841685622930527,-1.508836030960083,0.5656607747077942
1773163159628149500,17.1871494140625,0.014660755172371864,-1.1166608333587646,0.29565855860710144
1773163159646913500,17.20591357421875,-0.08674279600381851,-0.7428115606307983,0.036651886999607086
1773163159665677600,17.224677490234374,-0.1649334877729416,-0.31031930446624756,0.006108647678047419
1773163159684441300,17.24344140625,-0.1380554437637329,-0.036651886999607086,-0.008552107028663158
1773163159703205400,17.262205322265626,-0.028099779039621353,-0.0977383628487587,-0.13439024984836578
1773163159721969400,17.280969482421874,0.053756099194288254,-0.37262752652168274,-0.3078758418560028
1773163159740733200,17.299733154296874,0.059864748269319534,-0.4667007029056549,-0.22479823231697083
1773163159759497200,17.318497314453126,-0.030543239787220955,-0.27488914132118225,0.14782927930355072
1773163159778261200,17.33726123046875,-0.18814635276794434,-0.04276053607463837,0.4618137776851654
1773163159797025000,17.35602490234375,-0.5119046568870544,0.1698204129934311,0.7440332770347595
1773163159815789000,17.3747890625,-0.8955277800559998,0.27855435013771057,0.8808670043945312
1773163159834553000,17.393552978515626,-0.7709113359451294,-0.16737695038318634,0.7134900689125061
1773163159853317000,17.412317138671874,-0.1844811588525772,-1.1716386079788208,0.05253437161445618
1773163159872081000,17.431080810546874,0.3494146466255188,-2.0720534324645996,-0.11484257876873016
1773163159890845000,17.449844970703126,0.5778780579566956,-2.031736373901367,0.1441640853881836
1773163159909608700,17.468608642578126,0.8283326625823975,-1.5662572383880615,0.516791582107544
1773163159928372700,17.487372802734374,1.2034035921096802,-1.2070688009262085,0.6792816519737244
1773163159947136800,17.50613671875,1.323133111000061,-0.4935787320137024,0.6401863098144531
1773163159965900500,17.524900634765626,1.361006736755371,-0.19425499439239502,0.37751442193984985
1773163159984664600,17.54366455078125,1.275485634803772,-0.685390293598175,0.14782927930355072
1773163160003428600,17.5624287109375,0.9957095980644226,-1.186299443244934,0.07574722915887833
1773163160022192600,17.581192626953126,0.7073814272880554,-0.9737184643745422,0.23457208275794983
1773163160040956400,17.599956298828126,0.554665207862854,-0.8063415288925171,0.4043924808502197
1773163160059720400,17.618720458984374,0.22724169492721558,-0.8735366463661194,0.5595521330833435
1773163160078484200,17.637484130859374,-0.001221729558892548,-0.7464767694473267,0.6682860851287842
1773163160097248300,17.656248291015626,-0.07819069176912308,-0.5729911923408508,0.7257073521614075
1773163160116012300,17.67501220703125,-0.06352993845939636,-0.2993237376213074,0.8002328872680664
1773163160134776000,17.693776123046874,0.05497783049941063,-0.10873392969369888,0.8185588121414185
1773163160153540000,17.7125400390625,0.15638138353824615,0.03176496922969818,0.7648026943206787
1773163160172304100,17.73130419921875,0.2809978127479553,0.08796452730894089,0.6524035930633545
1773163160191068000,17.75006787109375,0.4056142270565033,0.0769689604640007,0.5803215503692627
1773163160209832000,17.76883203125,0.5131264328956604,0.17104214429855347,0.5705476999282837
1773163160228596000,17.787595947265626,0.5632173418998718,0.3225366175174713,0.5729911923408508
1773163160247359700,17.80635986328125,0.554665207862854,0.3787361681461334,0.5766563415527344
1773163160266123800,17.825123779296874,0.48991355299949646,0.44348782300949097,0.6023126840591431
1773163160284887800,17.8438876953125,0.4166097939014435,0.5045742988586426,0.6035344004631042
1773163160303651600,17.862651611328126,0.3494146466255188,0.5106829404830933,0.5888736248016357
1773163160322415600,17.88141552734375,0.3139844834804535,0.4520399272441864,0.5522217750549316
1773163160341179400,17.900179443359374,0.3078758418560028,0.4471530318260193,0.4874700903892517
1773163160359943400,17.918943359375,0.29443681240081787,0.4740310609340668,0.4105011224746704
1773163160378707500,17.93770751953125,0.3017672002315521,0.5375609993934631,0.34208428859710693
1773163160397471200,17.95647119140625,0.27977606654167175,0.5876519083976746,0.2406807243824005
1773163160416235300,17.9752353515625,0.21380266547203064,0.627968966960907,0.14172062277793884
1773163160434999300,17.993999267578126,0.06597339361906052,0.6829468011856079,0.0769689604640007
1773163160453763000,18.01276318359375,-0.16004657745361328,0.7342594861984253,-0.01588248461484909
1773163160472527000,18.031527099609374,-0.39828383922576904,0.8491020202636719,-0.18570289015769958
1773163160491291100,18.050291015625,-0.5668824911117554,0.8368847370147705,-0.4728093445301056
1773163160510055000,18.069054931640625,-0.6829468011856079,0.768467903137207,-0.861319363117218
1773163160528819000,18.08781884765625,-0.8307760953903198,0.8576541543006897,-1.3439024686813354
1773163160547582700,18.106582763671874,-0.9883792400360107,1.0201442241668701,-1.8277074098587036
1773163160566346800,18.1253466796875,-1.081230640411377,0.943175196647644,-2.3041820526123047
1773163160585110500,18.144110595703125,-1.119104266166687,0.6976075768470764,-2.5668537616729736
1773163160603874600,18.16287451171875,-1.1166608333587646,0.8979712128639221,-2.3652684688568115
1773163160622638600,18.181638671875,-0.9798271059989929,1.4550799131393433,-1.860694169998169
1773163160641402400,18.20040234375,-0.6340776681900024,1.8765766620635986,-1.431867003440857
1773163160660166400,18.21916650390625,-0.49968740344047546,2.073275089263916,-1.1936297416687012
1773163160678930200,18.23793017578125,-0.5180133581161499,1.7348560094833374,-1.1594213247299194
1773163160697694200,18.256694091796874,-0.5974257588386536,1.6236785650253296,-1.0958913564682007
1773163160716458200,18.275458251953125,-0.7831286191940308,1.7238603830337524,-0.7061597108840942
1773163160735222000,18.294221923828125,-0.8881973624229431,1.6957606077194214,-0.2406807243824005
1773163160753986000,18.312986083984374,-0.7476984858512878,1.1899645328521729,-0.1380554437637329
1773163160772749800,18.331749755859374,-0.7073814272880554,0.6267472505569458,-0.10751219838857651
1773163160791513900,18.350513916015625,-0.5693259835243225,0.22479823231697083,0.017104214057326317
1773163160810278000,18.36927783203125,-0.37262752652168274,-0.2822195291519165,0.05497783049941063
1773163160829041700,18.388041748046874,-0.16737695038318634,-0.6841685771942139,0.08063415437936783
1773163160847805700,18.4068056640625,0.10873392969369888,-0.9321796298027039,0.1795942485332489
1773163160866569500,18.425569580078125,0.370184063911438,-1.1801908016204834,0.3139844834804535
1773163160894715400,18.45371533203125,0.6817250847816467,-1.3121376037597656,0.5021308660507202
1773163160913479400,18.4724794921875,0.7391464114189148,-1.3463460206985474,0.5082395076751709
1773163160941625300,18.500625244140625,0.3396408259868622,-1.072678565979004,0.5314523577690125
1773163160960389000,18.51938916015625,-0.059864748269319534,-0.7550288438796997,0.471587598323822
1773163160979153200,18.538153076171874,-0.36651885509490967,-0.1649334877729416,0.16859868168830872
1773163160997917200,18.556917236328125,-0.8454368710517883,0.5766563415527344,0.03543015569448471
1773163161016681000,18.575680908203125,-0.8649845123291016,0.9639446139335632,-0.13439024984836578
1773163161035445000,18.594445068359374,-0.6743947267532349,0.5864301919937134,-0.48502662777900696
1773163161054208800,18.613208740234374,-0.3750709891319275,-0.3811796307563782,-0.370184063911438
1773163161072972800,18.631972900390625,0.043982263654470444,-0.9615011811256409,0.2663370370864868
1773163161091736600,18.650736572265625,0.42271843552589417,-0.7904590368270874,0.36651885509490967
1773163161110500600,18.66950048828125,0.6792816519737244,-0.4361574649810791,0.6597339510917664
1773163161129264400,18.688264404296874,0.8051197528839111,-0.03787361457943916,0.794124186038971
1773163161148028400,18.7070283203125,0.8625410795211792,0.3591884970664978,0.7049379348754883
1773163161166792200,18.725792236328125,0.8930842876434326,0.24801109731197357,0.7794634699821472
1773163161185556200,18.74455615234375,0.9028581380844116,0.021991131827235222,0.7342594861984253
1773163161204320300,18.7633203125,0.8833104968070984,-0.11728604137897491,0.5778780579566956
1773163161223084000,18.782083984375,0.80389803647995,-0.1893680840730667,0.5522217750549316
1773163161241848000,18.80084814453125,0.7171552777290344,-0.2834412455558777,0.5510000586509705
1773163161260611800,18.81961181640625,0.5302306413650513,-0.44959646463394165,0.6707295179367065
1773163161279376000,18.8383759765625,0.370184063911438,-0.328645259141922,0.8588758707046509
1773163161298139600,18.8571396484375,0.17104214429855347,0.050090912729501724,0.9786053895950317
1773163161316903700,18.875903564453125,-0.001221729558892548,0.1233946830034256,1.0018181800842285
1773163161335667500,18.89466748046875,-0.026878049597144127,-0.059864748269319534,0.8405499458312988
1773163161354431500,18.913431396484373,0.059864748269319534,-0.2101374864578247,0.7171552777290344
1773163161373195300,18.9321953125,0.1905898153781891,-0.12583814561367035,0.6841685771942139
1773163161391959300,18.950959228515625,0.3445277214050293,0.06963858753442764,0.7623592615127563
1773163161410723300,18.969723388671873,0.5094612240791321,0.06108647957444191,0.8393282294273376
1773163161429487000,18.988487060546873,0.6084213256835938,-0.21502439677715302,0.7660244107246399
1773163161448251100,19.007251220703125,0.5717694163322449,-0.2712239623069763,0.7098248600959778
1773163161467015000,19.026014892578125,0.5045742988586426,-0.08918625861406326,0.6976075768470764
1773163161485779000,19.044779052734373,0.44348782300949097,0.07330377399921417,0.6633991599082947
1773163161504542700,19.063542724609373,0.41294458508491516,0.1331685185432434,0.6731730103492737
1773163161523306800,19.082306640625,0.42394015192985535,0.21135921776294708,0.7037162184715271
1773163161542070500,19.101070556640625,0.4862483739852905,0.31154105067253113,0.6976075768470764
1773163161560834600,19.11983447265625,0.5436696410179138,0.4422661066055298,0.665842592716217
1773163161579598300,19.138598388671873,0.5864301919937134,0.6023126840591431,0.6450732350349426
1773163161607744300,19.166744140625,0.5839866995811462,0.6487383842468262,0.5632173418998718
1773163161626508000,19.185508056640625,0.536339282989502,0.5070177912712097,0.5057960152626038
1773163161645272000,19.20427197265625,0.44470956921577454,0.411722868680954,0.4361574649810791
1773163161664035800,19.223035888671873,0.34208428859710693,0.4251618981361389,0.3433060050010681
1773163161682799900,19.2417998046875,0.2162461280822754,0.4251618981361389,0.28588470816612244
1773163161701564000,19.26056396484375,0.09896009415388107,0.33719736337661743,0.22968515753746033
1773163161720327700,19.27932763671875,0.012217295356094837,0.19303326308727264,0.10140355676412582
1773163161739091700,19.298091796875,-0.14538581669330597,0.17104214429855347,-0.018325943499803543
1773163161757855500,19.31685546875,-0.370184063911438,0.3127627670764923,-0.1539379209280014
1773163161776619500,19.33561962890625,-0.5803215503692627,0.5253437161445618,-0.3799578845500946
1773163161795383300,19.35438330078125,-0.7550288438796997,0.6023126840591431,-0.8161153197288513
1773163161814147300,19.373147216796873,-0.8833104968070984,0.5387827157974243,-1.331685185432434
1773163161832911000,19.3919111328125,-0.9920443892478943,0.5302306413650513,-1.760512351989746
1773163161851675100,19.410675048828125,-1.1239912509918213,0.5607738494873047,-2.145357131958008
1773163161870439000,19.42943896484375,-1.2229512929916382,0.5094612240791321,-2.299294948577881
1773163161889202700,19.44820263671875,-1.2449424266815186,0.3530798554420471,-2.1282529830932617
1773163161907966700,19.466966796875,-1.0934479236602783,0.6096430420875549,-1.8069380521774292
1773163161926730500,19.48573046875,-0.8368847370147705,1.5821397304534912,-1.508836030960083
1773163161945494500,19.50449462890625,-0.6499601006507874,2.3738205432891846,-1.2400555610656738
1773163161964258300,19.52325830078125,-0.5900954008102417,1.9926408529281616,-1.100778341293335
1773163161983022300,19.542022216796877,-0.5192350745201111,1.3658936023712158,-1.1252129077911377
1773163162001786000,19.5607861328125,-0.5021308660507202,1.0677915811538696,-1.0445787906646729
1773163162020550100,19.579550048828125,-0.5180133581161499,0.8979712128639221,-0.7867938280105591
1773163162039314000,19.59831396484375,-0.4825831651687622,0.7880155444145203,-0.5583304166793823
1773163162058078000,19.617077880859377,-0.3860665261745453,0.5681042671203613,-0.3738492429256439
1773163162076841700,19.635841796875,-0.24923282861709595,0.12705987691879272,-0.22479823231697083
1773163162095605800,19.654605712890625,-0.12461641430854797,-0.10629047453403473,-0.06597339361906052
1773163162114369500,19.67336962890625,-0.034208428114652634,-0.1795942485332489,0.050090912729501724
1773163162133133600,19.692133544921877,0.053756099194288254,-0.23823726177215576,0.1893680840730667
1773163162151897300,19.7108974609375,0.13194678723812103,-0.2162461280822754,0.360410213470459
1773163162170661400,19.729661376953125,0.19669845700263977,-0.19303326308727264,0.43371400237083435
1773163162189425200,19.748425048828125,0.2467893660068512,-0.2052505612373352,0.44348782300949097
1773163162208189000,19.76718896484375,0.2761108875274658,-0.277332603931427,0.4007273018360138
1773163162226953000,19.785952880859377,0.2003636509180069,-0.30054548382759094,0.3481929302215576
1773163162245716700,19.804716796875,0.08674279600381851,-0.20891575515270233,0.2528980076313019
1773163162264480800,19.823480712890625,-0.08552107214927673,0.13927717506885529,0.05742128938436508
1773163162283244500,19.84224462890625,-0.2981020212173462,0.7220421433448792,-0.10629047453403473
1773163162302008600,19.861008544921877,-0.3249800503253937,0.8796452879905701,-0.2260199636220932
1773163162320772400,19.8797724609375,-0.28466299176216125,0.5021308660507202,-0.3738492429256439
1773163162339536400,19.898536376953125,-0.28588470816612244,0.2932150959968567,-0.41783151030540466
1773163162358300200,19.917300048828125,-0.2101374864578247,0.2052505612373352,-0.3555232882499695
1773163162377064200,19.936064208984376,-0.1747073233127594,0.09651663154363632,-0.17715078592300415
1773163162395828000,19.954827880859376,-0.21380266547203064,0.2162461280822754,0.11606431007385254
1773163162414591700,19.973591796875,-0.29565855860710144,0.47525280714035034,0.6499601006507874
1773163162433355800,19.992355712890625,-0.14294235408306122,1.0445787906646729,0.9602794051170349
1773163162452119600,20.01111962890625,0.056199558079242706,1.351232886314392,1.061682939529419
1773163162470883600,20.029883544921876,0.24312418699264526,0.915075421333313,1.1655299663543701
1773163162489647400,20.0486474609375,0.4153880476951599,0.23945899307727814,1.1630865335464478
1773163162508411400,20.067411376953125,0.574212908744812,0.026878049597144127,1.0250310897827148
1773163162527175200,20.086175048828125,0.7330377101898193,0.1649334877729416,0.7611374855041504
1773163162545939200,20.104939208984376,0.7672461867332458,0.2565632164478302,0.4422661066055298
1773163162564703000,20.123702880859376,0.667064368724823,0.3799578845500946,0.3249800503253937
1773163162592849000,20.151848876953125,0.25900667905807495,0.7990111112594604,0.5253437161445618
1773163162611612700,20.17061279296875,-0.012217295356094837,1.1398736238479614,0.8100066781044006
1773163162630376400,20.18937646484375,-0.11239911615848541,1.4123194217681885,1.0543526411056519
1773163162649140500,20.208140380859376,-0.14294235408306122,1.7055344581604004,1.166751742362976
1773163162667904300,20.226904296875,-0.13561198115348816,1.9315544366836548,1.120326042175293
1773163162686668300,20.245668212890624,-0.09407317638397217,2.0720534324645996,0.9590576887130737
1773163162705432000,20.26443212890625,0.09529490768909454,2.1746785640716553,0.7086031436920166
1773163162724195800,20.28319580078125,0.20280711352825165,2.1832306385040283,0.5180133581161499
1773163162742959900,20.3019599609375,0.2003636509180069,2.2052218914031982,0.4471530318260193
1773163162761723600,20.3207236328125,0.17837251722812653,2.218660831451416,0.4202749729156494
1773163162780487700,20.33948779296875,0.11484257876873016,2.2149956226348877,0.471587598323822
1773163162799251500,20.35825146484375,0.0818558782339096,2.505767345428467,0.5497782826423645
1773163162818015500,20.377015380859376,0.056199558079242706,2.897942543029785,0.6047561168670654
1773163162836779300,20.395779296875,0.08674279600381851,2.9749114513397217,0.5681042671203613
1773163162855543000,20.41454296875,0.11362084746360779,2.612057685852051,0.4043924808502197
1773163162874307000,20.43330712890625,0.1331685185432434,2.2809691429138184,0.2626718580722809
1773163162893070800,20.45207080078125,0.1331685185432434,2.0964879989624023,0.13439024984836578
1773163162911835000,20.4708349609375,0.08796452730894089,2.218660831451416,0.12095122784376144
1773163162930598700,20.4895986328125,0.002443459117785096,2.324951410293579,0.1490510106086731
1773163162949362400,20.508362548828124,-0.05497783049941063,2.439793825149536,0.24923282861709595
1773163162968126500,20.52712646484375,-0.08796452730894089,2.5692973136901855,0.3225366175174713
1773163162986890200,20.54589013671875,-0.13194678723812103,2.5937318801879883,0.31520622968673706
1773163163005654300,20.564654296875,-0.20280711352825165,2.5802929401397705,0.27855435013771057
1773163163024418000,20.58341796875,-0.2822195291519165,2.511875867843628,0.20402882993221283
1773163163052564000,20.61156396484375,-0.37140578031539917,2.3542728424072266,0.1490510106086731
1773163163071327700,20.63032763671875,-0.43371400237083435,2.3701553344726562,0.11239911615848541
1773163163090091500,20.649091552734376,-0.5143481492996216,2.506989002227783,0.040317077189683914
1773163163108855600,20.66785546875,-0.6511818766593933,2.7012441158294678,-0.08918625861406326
1773163163127619300,20.686619384765624,-0.7623592615127563,2.7061309814453125,-0.21868959069252014
1773163163146383400,20.70538330078125,-0.6157516837120056,2.8600687980651855,-0.34574946761131287
1773163163165147100,20.724147216796876,-0.3494146466255188,3.247357130050659,-0.5790998339653015
1773163163183911000,20.742910888671876,-0.09651663154363632,3.2485787868499756,-0.9737184643745422
1773163163202675000,20.761675048828124,0.1026252806186676,2.9749114513397217,-1.3158026933670044
1773163163221438700,20.780438720703124,0.19425499439239502,2.7904303073883057,-1.5234967470169067
1773163163240202800,20.79920263671875,0.16126830875873566,2.7623305320739746,-1.7006475925445557
1773163163258966500,20.817966552734376,0.13927717506885529,2.900385856628418,-1.5919135808944702
1773163163277730300,20.836730224609376,0.04764745384454727,2.948033332824707,-1.3121376037597656
1773163163296494300,20.855494384765624,0.07330377399921417,3.0946409702301025,-0.9822705388069153
1773163163315258000,20.874258056640624,0.12095122784376144,2.83319091796875,-0.7696896195411682
1773163163334022000,20.89302197265625,0.22357651591300964,2.550971269607544,-0.6194168925285339
1773163163352786000,20.911785888671876,0.32620179653167725,2.414137601852417,-0.544891357421875
1773163163371549700,20.9305498046875,0.3946186602115631,2.3481643199920654,-0.4874700903892517
1773163163390313500,20.9493134765625,0.4667007029056549,2.2247695922851562,-0.4557051360607147
1773163163409077500,20.968077392578124,0.5106829404830933,2.036623239517212,-0.4581485986709595
1773163163427841300,20.98684130859375,0.5302306413650513,1.8802417516708374,-0.4557051360607147
1773163163446605300,21.005605224609376,0.5900954008102417,1.5234967470169067,-0.5131264328956604
1773163163465369000,21.024369140625,0.6450732350349426,1.1875211000442505,-0.516791582107544
1773163163484132900,21.0431328125,0.7171552777290344,0.9395100474357605,-0.4410443603992462
1773163163502897000,21.06189697265625,0.7599157691001892,0.7195987105369568,-0.2981020212173462
1773163163521660700,21.08066064453125,0.7611374855041504,0.5131264328956604,-0.1185077652335167
1773163163540424400,21.099424560546876,0.7244856357574463,0.4166097939014435,0.021991131827235222
1773163163559188500,21.1181884765625,0.6633991599082947,0.4214966893196106,0.036651886999607086
1773163163577952300,21.1369521484375,0.5277871489524841,0.49480047821998596,-0.009773836471140385
1773163163606098000,21.165097900390624,0.33597561717033386,0.564439058303833,0.0818558782339096
1773163163624862000,21.183862060546875,0.19303326308727264,0.6927206516265869,0.22724169492721558
1773163163643625700,21.202625732421875,0.021991131827235222,0.8833104968070984,0.23945899307727814
1773163163662389800,21.2213896484375,-0.13561198115348816,1.061682939529419,0.1954767256975174
1773163163681153500,21.240153564453124,-0.16859868168830872,1.0470222234725952,0.23212862014770508
1773163163699917300,21.258917236328124,-0.20647229254245758,0.9871574640274048,0.23823726177215576
1773163163718681300,21.277681396484375,-0.29443681240081787,1.1728603839874268,0.08063415437936783
1773163163737445000,21.296445068359375,-0.3543015718460083,1.4147628545761108,0.050090912729501724
1773163163756209000,21.315208984375,-0.3249800503253937,1.5625921487808228,0.4202749729156494
1773163163774973000,21.333972900390624,-0.11239911615848541,1.5650355815887451,0.7611374855041504
1773163163793736700,21.35273681640625,0.1282816082239151,1.2889246940612793,0.7977893948554993
1773163163812500500,21.37150048828125,0.28466299176216125,1.0934479236602783,0.7757982611656189
1773163163831264500,21.390264404296875,0.3848448097705841,0.9407317638397217,0.711046576499939
1773163163850028300,21.4090283203125,0.4373791813850403,1.0030399560928345,0.7257073521614075
1773163163868792000,21.4277919921875,0.4422661066055298,1.1032217741012573,0.7965676784515381
1773163163887556000,21.44655615234375,0.3640754222869873,1.0543526411056519,0.7843503952026367
1773163163906320000,21.46531982421875,0.2370155304670334,0.8894191384315491,0.711046576499939
1773163163925083600,21.484083740234375,0.1331685185432434,0.7342594861984253,0.6841685771942139
1773163163943847700,21.50284765625,0.05742128938436508,0.5632173418998718,0.7672461867332458
1773163163962611500,21.521611572265623,-0.04764745384454727,0.720820426940918,0.831997811794281
1773163163981375200,21.540375244140623,-0.2003636509180069,1.0934479236602783,0.8173370957374573
1773163164000139300,21.55913916015625,-0.3347539007663727,1.2168426513671875,0.8173370957374573
1773163164018903000,21.577903076171875,-0.2883281707763672,1.0360267162322998,0.8295543789863586
1773163164037666800,21.596666748046875,-0.2614501118659973,0.8808670043945312,0.7428115606307983
1773163164056430600,21.6154306640625,-0.07819069176912308,0.7892373204231262,0.6194168925285339
1773163164075194600,21.634194580078123,0.1490510106086731,0.5033525824546814,0.4862483739852905
1773163164103340300,21.66234033203125,0.33719736337661743,0.17715078592300415,0.3738492429256439
1773163164122104300,21.681104248046875,0.34086254239082336,0.10873392969369888,0.35185810923576355
1773163164140868000,21.6998681640625,0.28588470816612244,0.1698204129934311,0.4373791813850403
1773163164159632000,21.7186318359375,0.2162461280822754,0.21380266547203064,0.5827649831771851
1773163164178396000,21.73739599609375,0.18081597983837128,0.1441640853881836,0.6719512343406677
1773163164197159700,21.75615966796875,0.18814635276794434,0.1026252806186676,0.7269290685653687
1773163164215923500,21.77492333984375,0.21135921776294708,0.12950333952903748,0.7476984858512878
1773163164234687500,21.7936875,0.2712239623069763,0.277332603931427,0.7379246354103088
1773163164253451300,21.812451171875,0.32620179653167725,0.34697118401527405,0.7147117853164673
1773163164272215000,21.831215087890627,0.3970620930194855,0.3836230933666229,0.6902772188186646
1773163164290978800,21.849978759765627,0.43860089778900146,0.4874700903892517,0.6438514590263367
1773163164309742800,21.868742919921875,0.45937031507492065,0.5351175665855408,0.5534434914588928
1773163164328506600,21.887506591796875,0.4923570156097412,0.5595521330833435,0.46059203147888184
1773163164347270400,21.9062705078125,0.5045742988586426,0.516791582107544,0.3799578845500946
1773163164366034400,21.925034423828127,0.5192350745201111,0.4874700903892517,0.3530798554420471
1773163164384798200,21.943798095703126,0.4361574649810791,0.41416633129119873,0.3042106628417969
1773163164403562000,21.96256201171875,0.28954991698265076,0.318871408700943,0.21868959069252014
1773163164422326000,21.981325927734375,0.08796452730894089,0.3127627670764923,0.15760311484336853
1773163164441089800,22.00008984375,-0.18692462146282196,0.3640754222869873,0.05253437161445618
1773163164459853600,22.018853515625,-0.328645259141922,0.39828383922576904,-0.1905898153781891
1773163164478617300,22.037617431640626,-0.4276053309440613,0.3494146466255188,-0.5656607747077942
1773163164497381400,22.05638134765625,-0.5497782826423645,0.41905322670936584,-1.0128138065338135
1773163164516145200,22.075145263671875,-0.7281508445739746,0.5338957905769348,-1.4563016891479492
1773163164534909000,22.093908935546875,-0.8772017955780029,0.5351175665855408,-1.9107850790023804
1773163164553673000,22.1126728515625,-0.9834923148155212,0.3750709891319275,-2.288299560546875
1773163164572436700,22.131436767578126,-1.1081087589263916,0.47036588191986084,-2.4202463626861572
1773163164591200500,22.150200439453126,-1.2021819353103638,0.9334014058113098,-2.164904832839966
1773163164609964300,22.16896435546875,-0.9651663303375244,1.3878847360610962,-1.617569923400879
1773163164628728300,22.187728271484374,-0.6609556674957275,1.7825034856796265,-1.158199667930603
1773163164656874000,22.2158740234375,-0.6646208763122559,1.5870267152786255,-0.9944878816604614
1773163164675637800,22.2346376953125,-0.6120865345001221,1.255937933921814,-0.924849271774292
1773163164694401800,22.25340185546875,-0.6084213256835938,0.9859357476234436,-0.711046576499939
1773163164713165600,22.27216552734375,-0.7183769941329956,0.9065233469009399,-0.45326167345046997
1773163164731929300,22.290929443359374,-0.7990111112594604,0.9883792400360107,-0.15638138353824615
1773163164750693000,22.309693115234374,-0.8271108865737915,0.7953459620475769,0.09040798991918564
1773163164778839000,22.337839111328126,-0.6731730103492737,-0.06963858753442764,0.21135921776294708
1773163164797602800,22.356602783203126,-0.5375609993934631,-0.5485565662384033,0.2370155304670334
1773163164816366600,22.37536669921875,-0.41294458508491516,-0.8552106618881226,0.26878049969673157
1773163164835130400,22.39413037109375,-0.24923282861709595,-0.9810488224029541,0.3689623177051544
1773163164853894100,22.41289404296875,-0.043982263654470444,-1.0861176252365112,0.5131264328956604
1773163164872658200,22.431658203125,0.12095122784376144,-1.285259485244751,0.6243038177490234
1773163164891422000,22.450421875,0.19669845700263977,-1.450192928314209,0.6719512343406677
1773163164910186000,22.46918603515625,0.26878049969673157,-1.3927717208862305,0.6743947267532349
1773163164928949800,22.48794970703125,0.12095122784376144,-1.2180644273757935,0.6536253094673157
1773163164947713500,22.506713623046874,-0.12705987691879272,-0.8173370957374573,0.5192350745201111
1773163164966477300,22.525477294921874,-0.38240134716033936,-0.370184063911438,0.21868959069252014
1773163164985241300,22.544241455078126,-0.6963858604431152,0.2932150959968567,-0.01954767294228077
1773163165004005000,22.563005126953126,-0.7709113359451294,0.5571087002754211,-0.2981020212173462
1773163165022769000,22.581768798828126,-0.6878337264060974,-0.003665188793092966,-0.7293725609779358
1773163165041532700,22.60053271484375,-0.5693259835243225,-0.7977893948554993,-0.5962040424346924
1773163165060296700,22.619296630859374,-0.15271618962287903,-1.1655299663543701,0.001221729558892548
1773163165079060500,22.638060546875,0.12705987691879272,-0.7819069027900696,0.11362084746360779
1773163165097824300,22.65682421875,0.4422661066055298,-0.11239911615848541,0.3787361681461334
1773163165116588000,22.675588134765626,0.7660244107246399,0.07819069176912308,0.685390293598175
1773163165135352000,22.69435205078125,0.9651663303375244,-0.024434590712189674,0.7415898442268372
1773163165154115800,22.71311572265625,1.0739002227783203,-0.2712239623069763,0.6902772188186646
1773163165172879600,22.731879638671874,1.1081087589263916,-0.40805765986442566,0.6365211009979248
1773163165191643400,22.750643310546874,1.0189224481582642,-0.5131264328956604,0.5656607747077942
1773163165210407400,22.769407470703126,0.8442151546478271,-0.536339282989502,0.5790998339653015
1773163165229171000,22.7881708984375,0.5998691916465759,-0.15027274191379547,0.675616443157196
1773163165247935000,22.80693505859375,0.3347539007663727,-0.0513126403093338,0.7379246354103088
1773163165266698800,22.82569873046875,0.1380554437637329,-0.13439024984836578,0.8539889454841614
1773163165285462500,22.844462646484374,0.07086031138896942,-0.10629047453403473,0.9321796298027039
1773163165304226600,22.8632265625,0.07819069176912308,0.050090912729501724,0.9639446139335632
1773163165322990300,22.881990234375,0.1905898153781891,0.28588470816612244,0.9749401807785034
1773163165341754000,22.900754150390625,0.36163195967674255,0.277332603931427,0.8918625712394714
1773163165360518000,22.919517822265625,0.4984656572341919,0.26022839546203613,0.7843503952026367
1773163165379282000,22.938281982421874,0.5668824911117554,0.27366742491722107,0.6927206516265869
1773163165398045700,22.957045654296873,0.5766563415527344,0.23945899307727814,0.6426297426223755
1773163165416809500,22.9758095703125,0.5717694163322449,0.24434591829776764,0.6010909676551819
1773163165435573200,22.9945732421875,0.5106829404830933,0.1490510106086731,0.6230821013450623
1773163165454337000,23.0133369140625,0.45326167345046997,0.10140355676412582,0.6633991599082947
1773163165473101000,23.03210107421875,0.4361574649810791,0.13072505593299866,0.7024945020675659
1773163165491864800,23.05086474609375,0.44470956921577454,0.16737695038318634,0.7147117853164673
1773163165510628600,23.069628662109373,0.46914416551589966,0.23457208275794983,0.6597339510917664
1773163165529392400,23.088392333984373,0.4825831651687622,0.27366742491722107,0.5436696410179138
1773163165548156200,23.10715625,0.43493571877479553,0.2834412455558777,0.46914416551589966
1773163165566920200,23.125920166015625,0.39339691400527954,0.37629270553588867,0.4373791813850403
1773163165585684000,23.14468408203125,0.38850998878479004,0.5021308660507202,0.38850998878479004
1773163165604447700,23.16344775390625,0.4214966893196106,0.5314523577690125,0.3225366175174713
1773163165623211500,23.18221142578125,0.46547895669937134,0.5192350745201111,0.29077163338661194
1773163165641975600,23.2009755859375,0.4251618981361389,0.4618137776851654,0.24556763470172882
1773163165660739300,23.2197392578125,0.3640754222869873,0.47036588191986084,0.21135921776294708
1773163165688885000,23.247885009765625,0.2712239623069763,0.5717694163322449,0.08918625861406326
1773163165707648800,23.266648681640625,0.1649334877729416,0.49113526940345764,-0.03909534588456154
1773163165726412800,23.285412841796877,-0.030543239787220955,0.4569268524646759,-0.14049890637397766
1773163165745176600,23.304176513671877,-0.20402882993221283,0.4984656572341919,-0.31031930446624756
1773163165763940400,23.3229404296875,-0.40927940607070923,0.5229002237319946,-0.6120865345001221
1773163165782704000,23.3417041015625,-0.5888736248016357,0.5412262082099915,-1.0164790153503418
1773163165801468000,23.360468017578125,-0.7574723362922668,0.4874700903892517,-1.442862629890442
1773163165820231700,23.379231689453125,-0.8833104968070984,0.43493571877479553,-1.8716896772384644
1773163165838995700,23.39799560546875,-0.9700532555580139,0.35063639283180237,-2.238208532333374
1773163165857759500,23.416759521484376,-1.0702351331710815,0.22235478460788727,-2.3701553344726562
1773163165876523300,23.435523193359376,-1.1117738485336304,0.2981020212173462,-2.0830488204956055
1773163165895287000,23.454287109375,-1.0152572393417358,0.7574723362922668,-1.5613703727722168
1773163165914050800,23.47305078125,-0.8087849617004395,1.4282019138336182,-1.1252129077911377
1773163165932814600,23.491814697265625,-0.6829468011856079,1.5711442232131958,-0.9932661056518555
1773163165951578600,23.51057861328125,-0.6743947267532349,1.1740821599960327,-1.0115920305252075
1773163165970342400,23.52934228515625,-0.6633991599082947,0.7831286191940308,-0.9297361969947815
1773163165989106200,23.548106201171876,-0.6682860851287842,0.516791582107544,-0.6585122346878052
1773163166007870000,23.566869873046876,-0.7159335017204285,0.43493571877479553,-0.4043924808502197
1773163166026633700,23.5856337890625,-0.750141978263855,0.36163195967674255,-0.2724456787109375
1773163166045397800,23.604397705078124,-0.740368127822876,0.14782927930355072,-0.12217295914888382
1773163166064161500,23.62316162109375,-0.7159335017204285,-0.15271618962287903,0.10018182545900345
1773163166082925300,23.64192529296875,-0.6695078015327454,-0.3750709891319275,0.3090975880622864
1773163166101689000,23.660689208984376,-0.6071996092796326,-0.5473348498344421,0.42394015192985535
1773163166120452900,23.679452880859376,-0.4618137776851654,-0.8454368710517883,0.46059203147888184
1773163166139217000,23.698216796875,-0.2406807243824005,-1.102000117301941,0.4581485986709595
1773163166157980700,23.716980712890624,-0.007330377586185932,-1.1691951751708984,0.4825831651687622
1773163166176744400,23.735744384765624,0.1185077652335167,-1.1728603839874268,0.5277871489524841
1773163166195508200,23.75450830078125,0.21991132199764252,-1.3170244693756104,0.4874700903892517
1773163166214272000,23.77327197265625,0.37629270553588867,-1.3597849607467651,0.5803215503692627
1773163166233035800,23.792035888671876,0.7159335017204285,-1.2913681268692017,0.544891357421875
1773163166251799800,23.8107998046875,0.675616443157196,-0.8906408548355103,0.2968802750110626
1773163166270563600,23.8295634765625,0.4667007029056549,-0.4153880476951599,-0.16126830875873566
1773163166289327400,23.848327392578124,0.006108647678047419,-0.31154105067253113,-0.37262752652168274
1773163166308091100,23.867091064453124,-0.2761108875274658,-0.5497782826423645,-0.4459312856197357
1773163166326855000,23.88585498046875,-0.287106454372406,-0.8124501705169678,-0.4838049113750458
1773163166345618700,23.90461865234375,-0.4312705397605896,-0.8063415288925171,-0.4068359434604645
1773163166364382500,23.923382568359376,-0.5338957905769348,-0.627968966960907,-0.4166097939014435
