time,seconds_elapsed,z,y,x
1772881559796716000,0.062716064453125,0,0,0
1772881559806716000,0.0727158203125,0.9319972991943359,0.522620677947998,-0.13022327423095703
1772881559816716000,0.082716064453125,0.5955147743225098,0.3360452651977539,-0.6219631433486938
1772881559826716000,0.0927158203125,0.29746055603027344,-0.08019208908081055,-1.1508504152297974
1772881559836716000,0.102716064453125,0.35880374908447266,-0.15616273880004883,-1.617659330368042
1772881559846716000,0.1127158203125,0.3326683044433594,0.07526016235351562,-1.9711511135101318
1772881559856716000,0.122716064453125,0.041771888732910156,-0.008153915405273438,-2.0786855220794678
1772881559866716000,0.1327158203125,-0.13727712631225586,-0.8017387390136719,-1.7943836450576782
1772881559876716000,0.142716064453125,-0.34035730361938477,-1.6030340194702148,-1.1097151041030884
1772881559886716000,0.1527158203125,-0.5260858535766602,-2.4880447387695312,-0.3934401273727417
1772881559896716000,0.162716064453125,-0.09929466247558594,-2.906705379486084,-0.057297706604003906
1772881559906716000,0.1727158203125,0.03599977493286133,-3.2298471927642822,-0.3924030065536499
1772881559916716000,0.182716064453125,-0.4231534004211426,-3.634549140930176,-0.9044065475463867
1772881559926716000,0.1927158203125,-0.8746447563171387,-4.095914840698242,-1.2131199836730957
1772881559936716000,0.202716064453125,-1.1568727493286133,-3.7490200996398926,-1.5441582202911377
1772881559946716000,0.2127158203125,-1.143251895904541,-3.3828039169311523,-1.9854645729064941
1772881559956716000,0.222716064453125,-0.7339859008789062,-3.8705954551696777,-2.104308843612671
1772881559966716000,0.2327158203125,-1.098618984222412,-4.599869728088379,-1.8469631671905518
1772881559976716000,0.242716064453125,-2.0500640869140625,-5.286019325256348,-1.3751332759857178
1772881559986716000,0.2527158203125,-2.687990665435791,-6.351794242858887,-0.42548298835754395
1772881559996716000,0.262716064453125,-3.217351198196411,-6.840613842010498,-0.2390134334564209
1772881560006716000,0.2727158203125,-4.801145553588867,-6.339265823364258,-1.4064288139343262
1772881560016716000,0.282716064453125,-6.065799713134766,-5.249739646911621,-3.86466646194458
1772881560026716000,0.2927158203125,-5.06820011138916,-5.141014099121094,-5.694455146789551
1772881560036716000,0.302716064453125,-2.732698440551758,-5.456099510192871,-6.400355815887451
1772881560046716000,0.3127158203125,-0.5831575393676758,-5.148090362548828,-6.963630199432373
1772881560056716000,0.322716064453125,0.669196605682373,-5.484103679656982,-7.367053031921387
1772881560066716000,0.3327158203125,1.4574508666992188,-6.284727573394775,-6.853868007659912
1772881560076716000,0.342716064453125,1.2949957847595215,-5.822908401489258,-4.940663814544678
1772881560086716000,0.3527158203125,0.34914731979370117,-5.953413486480713,-3.6149468421936035
1772881560096716000,0.362716064453125,-0.4520530700683594,-5.913250923156738,-2.2969741821289062
1772881560106716000,0.3727158203125,-0.9136872291564941,-6.296669006347656,-1.0728216171264648
1772881560116716000,0.382716064453125,0.13202786445617676,-7.434427738189697,-0.5231170654296875
1772881560126716000,0.3927158203125,3.2431135177612305,-8.724958419799805,-1.732165813446045
1772881560136716000,0.402716064453125,6.885488510131836,-7.119386672973633,-7.367598056793213
1772881560146716000,0.4127158203125,8.872974395751953,-3.5398478507995605,-13.1030912399292
1772881560156716000,0.422716064453125,9.477724075317383,-0.2377481460571289,-15.017199516296387
1772881560166716000,0.4327158203125,6.658543109893799,1.981447696685791,-14.893600463867188
1772881560176716000,0.442716064453125,1.8130230903625488,3.5619754791259766,-12.294591903686523
1772881560186716000,0.4527158203125,-2.1875247955322266,4.656340599060059,-9.308126449584961
1772881560196716000,0.462716064453125,-5.237773895263672,5.09773063659668,-7.4481401443481445
1772881560206716000,0.4727158203125,-5.964646339416504,6.895723342895508,-9.191149711608887
1772881560216716000,0.482716064453125,-4.926455497741699,10.362826347351074,-15.588523864746094
1772881560226716000,0.4927158203125,-7.375505447387695,15.031445503234863,-19.846588134765625
1772881560236716000,0.502716064453125,-8.8641357421875,18.26953887939453,-19.328960418701172
1772881560246716000,0.5127158203125,-8.6542387008667,18.692150115966797,-17.613008499145508
1772881560256716000,0.522716064453125,-6.79077672958374,18.686071395874023,-14.466768264770508
1772881560266716000,0.5327158203125,-5.188997268676758,17.960628509521484,-12.180767059326172
1772881560276716000,0.542716064453125,-4.986023426055908,17.104318618774414,-10.455926895141602
1772881560286716000,0.5527158203125,-4.768555641174316,15.987447738647461,-8.949284553527832
1772881560296716000,0.562716064453125,-4.112396717071533,15.550801277160645,-10.143973350524902
1772881560306716000,0.5727158203125,-5.040652275085449,14.679086685180664,-11.735773086547852
1772881560316716000,0.582716064453125,-6.576207637786865,12.52313232421875,-11.37778091430664
1772881560326716000,0.5927158203125,-10.241594314575195,9.327291488647461,-9.13645076751709
1772881560336716000,0.602716064453125,-8.995352745056152,5.30859899520874,-7.223552703857422
1772881560346716000,0.6127158203125,-8.098628044128418,1.9029831886291504,-5.925358772277832
1772881560356716000,0.622716064453125,-8.654496192932129,-1.5378971099853516,-3.350905418395996
1772881560366716000,0.6327158203125,-7.913389682769775,-4.249093055725098,-0.4445219039916992
1772881560376716000,0.642716064453125,-9.156548500061035,-7.925633907318115,2.939303398132324
1772881560386716000,0.6527158203125,-9.717453956604004,-10.658864974975586,6.34769344329834
1772881560396716000,0.662716064453125,-8.050524711608887,-11.495222091674805,5.810506343841553
1772881560406716000,0.6727158203125,-8.214876174926758,-7.709927082061768,5.467920303344727
1772881560416716000,0.682716064453125,-2.545166254043579,-10.761356353759766,0.9840192794799805
1772881560426716000,0.6927158203125,-0.8286809325218201,-7.455661296844482,4.007022857666016
1772881560436716000,0.702716064453125,1.1312018632888794,-7.1348419189453125,3.85800838470459
1772881560446716000,0.7127158203125,-0.019322693347930908,-3.122326374053955,3.3733205795288086
1772881560456716000,0.722716064453125,3.6097006797790527,-2.0492396354675293,4.002215385437012
1772881560466716000,0.7327158203125,1.922917127609253,-0.7850146293640137,2.7202978134155273
1772881560476716000,0.742716064453125,-0.9341394901275635,0.41870546340942383,3.5645313262939453
1772881560486716000,0.7527158203125,-4.8267316818237305,2.6374852657318115,4.5233964920043945
1772881560496716000,0.762716064453125,-8.303034782409668,5.848493576049805,2.4116125106811523
1772881560506716000,0.7727158203125,-5.2634358406066895,6.250863075256348,3.265986442565918
1772881560516716000,0.782716064453125,0.9300723075866699,6.2227582931518555,-0.3271141052246094
1772881560526716000,0.7927158203125,0.12328970432281494,8.786942481994629,-4.417900085449219
1772881560536716000,0.802716064453125,0.7713677883148193,5.6644744873046875,-4.571386337280273
1772881560546716000,0.8127158203125,1.2596490383148193,4.149230480194092,-1.4333324432373047
1772881560556716000,0.822716064453125,1.818354845046997,0.8640842437744141,1.4089851379394531
1772881560566716000,0.8327158203125,1.8615237474441528,-0.04062771797180176,1.0919189453125
1772881560576716000,0.842716064453125,2.196931838989258,-0.6444666385650635,-0.8248996734619141
1772881560586716000,0.8527158203125,3.9661922454833984,-0.16666245460510254,-4.58872127532959
1772881560596716000,0.862716064453125,6.766995429992676,-0.41568851470947266,-6.832283973693848
1772881560606716000,0.8727158203125,9.86690616607666,-1.5135459899902344,-6.617989540100098
1772881560616716000,0.882716064453125,9.6824951171875,-2.9803731441497803,-3.7083864212036133
1772881560626716000,0.8927158203125,7.283945083618164,-3.8283069133758545,-4.1481475830078125
1772881560636716000,0.902716064453125,5.907553672790527,-4.511249542236328,-1.831186294555664
1772881560646716000,0.9127158203125,5.206058502197266,-9.012678146362305,1.0328655242919922
1772881560656716000,0.922716064453125,1.019153118133545,-13.173282623291016,5.24089241027832
1772881560666716000,0.9327158203125,-4.143610954284668,-13.897993087768555,8.061430931091309
1772881560676716000,0.942716064453125,-9.551432609558105,-12.632265090942383,7.790901184082031
1772881560686716000,0.9527158203125,-9.011446952819824,-10.068790435791016,3.426234722137451
1772881560696716000,0.962716064453125,-3.7372591495513916,-5.396811485290527,0.24998092651367188
1772881560706716000,0.9727158203125,-3.7199954986572266,-3.2741527557373047,0.8745641708374023
1772881560716716000,0.982716064453125,-3.4681758880615234,-2.2965087890625,3.791053295135498
1772881560726716000,0.9927158203125,-2.105252742767334,-3.3975958824157715,4.347954273223877
1772881560736716000,1.002716064453125,0.41847366094589233,-3.9237537384033203,4.209371566772461
1772881560746716000,1.0127158203125,0.16639918088912964,-3.571901798248291,2.8947534561157227
1772881560756716000,1.022716064453125,-1.3744659423828125,-3.503704071044922,1.7881035804748535
1772881560766716000,1.0327158203125,-0.6357101202011108,-2.2929863929748535,0.3692045211791992
1772881560776716000,1.042716064453125,0.2654215097427368,-0.8602418899536133,-0.7178645133972168
1772881560786716000,1.0527158203125,1.9965144395828247,-0.9136104583740234,-1.3588271141052246
1772881560796716000,1.062716064453125,0.11489397287368774,0.24846839904785156,-1.2491517066955566
1772881560806716000,1.0727158203125,-0.8276895880699158,0.7349400520324707,-1.6013860702514648
1772881560816716000,1.082716064453125,-0.8987576365470886,0.9270739555358887,-0.7742114067077637
1772881560826716000,1.0927158203125,0.3723706007003784,1.68314790725708,-0.6664590835571289
1772881560836716000,1.102716064453125,0.09406721591949463,0.559023380279541,0.2175731658935547
1772881560846716000,1.1127158203125,0.6038339138031006,0.5171031951904297,0.012897491455078125
1772881560856716000,1.122716064453125,1.1793437004089355,1.5606317520141602,-2.3001046180725098
1772881560866716000,1.1327158203125,0.6122933626174927,0.8341569900512695,-2.5640745162963867
1772881560876716000,1.142716064453125,-0.8023264408111572,0.6817083358764648,-4.429519176483154
1772881560886716000,1.1527158203125,-1.362898588180542,1.8789029121398926,-6.470804691314697
1772881560896716000,1.162716064453125,-1.9943249225616455,3.0565285682678223,-7.302846431732178
1772881560906716000,1.1727158203125,-2.5975875854492188,3.8918399810791016,-7.256502628326416
1772881560916716000,1.182716064453125,-3.053781032562256,4.02486515045166,-6.582484722137451
1772881560926716000,1.1927158203125,-2.4704647064208984,3.8701257705688477,-5.064887046813965
1772881560936716000,1.202716064453125,-2.099820375442505,3.114039421081543,-3.7451138496398926
1772881560946716000,1.2127158203125,-1.5085324048995972,1.991398811340332,-2.063305377960205
1772881560956716000,1.222716064453125,-0.8460139036178589,1.1915922164916992,-0.44095754623413086
1772881560966716000,1.2327158203125,-1.4287195205688477,2.429675579071045,0.17648077011108398
1772881560976716000,1.242716064453125,-0.5391675233840942,3.7134556770324707,1.1918582916259766
1772881560986716000,1.2527158203125,-1.3467750549316406,2.994546413421631,1.9850449562072754
1772881560996716000,1.262716064453125,-2.325028657913208,0.9049072265625,2.7438998222351074
1772881561006716000,1.2727158203125,-2.145103931427002,-0.42220115661621094,2.968022584915161
1772881561016716000,1.282716064453125,-0.9404453039169312,-0.5944938659667969,2.7446610927581787
1772881561026716000,1.2927158203125,1.5377856492996216,-1.443197250366211,1.8754301071166992
1772881561036716000,1.302716064453125,4.08833122253418,-3.8228845596313477,0.7729763984680176
1772881561046716000,1.3127158203125,5.049228191375732,-3.952817916870117,-0.3647804260253906
1772881561056716000,1.322716064453125,4.978952407836914,-1.2845125198364258,-0.5967459678649902
1772881561066716000,1.3327158203125,2.6142308712005615,1.5095882415771484,-0.45952653884887695
1772881561076716000,1.342716064453125,1.3064525127410889,2.742227077484131,-1.825227975845337
1772881561086716000,1.3527158203125,1.2456555366516113,3.0299901962280273,-2.688035249710083
1772881561096716000,1.362716064453125,2.749277353286743,2.8987884521484375,-3.853740692138672
1772881561106716000,1.3727158203125,4.803929328918457,1.0192413330078125,-3.0835936069488525
1772881561116716000,1.382716064453125,4.895323276519775,-3.317288398742676,-1.345108985900879
1772881561126716000,1.3927158203125,3.9331915378570557,-8.457976341247559,0.2631382942199707
1772881561136716000,1.402716064453125,1.1441004276275635,-11.469467163085938,0.602089524269104
1772881561146716000,1.4127158203125,-1.866195797920227,-10.66683292388916,0.16158056259155273
1772881561156716000,1.422716064453125,-2.626636266708374,-7.627420425415039,1.480380654335022
1772881561166716000,1.4327158203125,-4.131385326385498,0.7495269775390625,2.7029473781585693
1772881561176716000,1.442716064453125,-6.379704475402832,14.946762084960938,2.4977362155914307
1772881561186716000,1.4527158203125,-4.584195137023926,17.554794311523438,2.725390672683716
1772881561196716000,1.462716064453125,1.903428554534912,11.536309242248535,2.5855324268341064
1772881561206716000,1.4727158203125,3.7356648445129395,6.0563859939575195,3.2752137184143066
1772881561216716000,1.482716064453125,3.1800389289855957,4.498449325561523,2.0806355476379395
1772881561226716000,1.4927158203125,2.2353227138519287,4.496637344360352,0.3565073609352112
1772881561236716000,1.502716064453125,1.2247931957244873,3.707895278930664,-0.502036452293396
1772881561246716000,1.5127158203125,0.327681303024292,4.091748237609863,-0.4614919126033783
1772881561256716000,1.522716064453125,-0.09685301780700684,3.5638017654418945,-0.4142026901245117
1772881561266716000,1.5327158203125,-0.14835023880004883,2.9230003356933594,-1.183910608291626
1772881561276716000,1.542716064453125,-0.2972679138183594,2.0354466438293457,-1.8024778366088867
1772881561286716000,1.5527158203125,-0.2026364803314209,1.1920394897460938,-2.350006103515625
1772881561296716000,1.562716064453125,0.31778645515441895,-0.4327211380004883,-2.3649954795837402
1772881561306716000,1.5727158203125,0.35155820846557617,-1.539504051208496,-2.3907523155212402
1772881561316716000,1.582716064453125,-0.1107633113861084,-2.4022350311279297,-2.0625548362731934
1772881561326716000,1.5927158203125,-0.25160861015319824,-5.342467308044434,-0.93818199634552
1772881561336716000,1.602716064453125,0.9214761257171631,-10.782702445983887,0.5706895589828491
1772881561346716000,1.6127158203125,-1.9143644571304321,-14.041720390319824,-1.337892770767212
1772881561356716000,1.622716064453125,-3.416656732559204,-11.247528076171875,-3.4337940216064453
1772881561366716000,1.6327158203125,-1.5572354793548584,-6.965310096740723,-4.101138114929199
1772881561376716000,1.642716064453125,-0.6392667293548584,-5.463127136230469,-4.145225524902344
1772881561386716000,1.6527158203125,-0.03583025932312012,-4.621400833129883,-3.8530466556549072
1772881561396716000,1.662716064453125,0.22947430610656738,-3.4003067016601562,-3.1316475868225098
1772881561406716000,1.6727158203125,-0.24947094917297363,-1.820169448852539,-2.5362675189971924
1772881561416716000,1.682716064453125,0.6581118106842041,0.8138542175292969,-1.784717082977295
1772881561426716000,1.6927158203125,2.0753414630889893,2.6329874992370605,-0.7287939786911011
1772881561436716000,1.702716064453125,2.429608106613159,3.1428613662719727,-0.07480168342590332
1772881561446716000,1.7127158203125,1.8463702201843262,3.1608028411865234,0.5041369199752808
1772881561456716000,1.722716064453125,0.6120648384094238,2.4915122985839844,0.9583061933517456
1772881561466716000,1.7327158203125,0.37795543670654297,0.9771041870117188,1.327283501625061
1772881561476716000,1.742716064453125,0.7975494861602783,-0.7544374465942383,0.7053282260894775
1772881561486716000,1.7527158203125,-1.0115458965301514,-2.741565704345703,0.6924655437469482
1772881561496716000,1.762716064453125,1.5865247249603271,-1.6163997650146484,-0.15801000595092773
1772881561506716000,1.7727158203125,4.723458290100098,-0.38148975372314453,-1.14712393283844
1772881561516716000,1.782716064453125,4.312491416931152,-0.3769540786743164,-1.4723299741744995
1772881561526716000,1.7927158203125,1.7221460342407227,1.2813873291015625,-1.2505600452423096
1772881561536716000,1.802716064453125,-2.6216118335723877,1.4642934799194336,0.6485879421234131
1772881561546716000,1.8127158203125,-5.395282745361328,-0.4182167053222656,1.5885004997253418
1772881561556716000,1.822716064453125,-3.359377384185791,-1.6132078170776367,0.8441658020019531
1772881561566716000,1.8327158203125,-0.4709358215332031,-1.360304832458496,0.011150598526000977
1772881561576716000,1.842716064453125,-0.7588291168212891,-0.6789274215698242,-0.023174762725830078
1772881561586716000,1.8527158203125,-0.46376585960388184,0.33923912048339844,0.631422758102417
1772881561596716000,1.862716064453125,1.0078284740447998,1.5775060653686523,0.9674010276794434
1772881561606716000,1.8727158203125,1.6173851490020752,1.9253325462341309,0.4646172523498535
1772881561616716000,1.882716064453125,0.7233242988586426,1.6314125061035156,-0.17939329147338867
1772881561626716000,1.8927158203125,0.36930274963378906,1.537308692932129,-0.8201873302459717
1772881561636716000,1.902716064453125,-0.4976229667663574,0.9103355407714844,-0.7470672130584717
1772881561646716000,1.9127158203125,-0.6162736415863037,0.5287876129150391,0.2510099411010742
1772881561656716000,1.922716064453125,0.2521991729736328,1.2217884063720703,0.9962692260742188
1772881561666716000,1.9327158203125,-0.5347943305969238,2.1053380966186523,0.7792136669158936
1772881561676716000,1.942716064453125,-1.2628967761993408,2.521031379699707,0.521615743637085
1772881561686716000,1.9527158203125,-1.9125595092773438,2.758787155151367,0.6357970237731934
1772881561696716000,1.962716064453125,-1.6333613395690918,2.7870216369628906,0.6124446392059326
1772881561706716000,1.9727158203125,-1.9293437004089355,2.3542070388793945,0.4914400577545166
1772881561716716000,1.982716064453125,-2.036282539367676,2.0612335205078125,0.5007703304290771
1772881561726716000,1.9927158203125,-1.48331880569458,2.1480493545532227,0.10155236721038818
1772881561736716000,2.002716064453125,-1.6148872375488281,1.502784252166748,0.02649998664855957
1772881561746716000,2.0127158203125,-1.7004313468933105,0.5754251480102539,-0.27646327018737793
1772881561756716000,2.022716064453125,-1.2707033157348633,0.22085094451904297,-0.720043420791626
1772881561766716000,2.0327158203125,-0.6621098518371582,0.029928207397460938,-1.0140100717544556
1772881561776716000,2.042716064453125,-1.322474479675293,0.11357593536376953,-0.6381857395172119
1772881561786716000,2.0527158203125,-1.207374095916748,0.3505210876464844,-0.5284126996994019
1772881561796716000,2.062716064453125,-0.9579353332519531,0.5409860610961914,-0.22306060791015625
1772881561806716000,2.0727158203125,-1.0067877769470215,0.2977867126464844,0.2566263675689697
1772881561816716000,2.082716064453125,-1.0882611274719238,0.14305400848388672,0.47855663299560547
1772881561826716000,2.0927158203125,-1.0397372245788574,-0.005412101745605469,0.46022844314575195
1772881561836716000,2.102716064453125,-0.9246730804443359,-0.008090019226074219,0.4145691394805908
1772881561846716000,2.1127158203125,-0.6767387390136719,0.07715415954589844,0.39864301681518555
1772881561856716000,2.122716064453125,-0.5682024955749512,0.5430984497070312,0.38865506649017334
1772881561866716000,2.1327158203125,-1.2414536476135254,0.9333362579345703,0.38049817085266113
1772881561876716000,2.142716064453125,-1.30092453956604,1.087956428527832,0.18851149082183838
1772881561886716000,2.1527158203125,-1.1039457321166992,1.1212053298950195,0.17211753129959106
1772881561896716000,2.162716064453125,-1.638566017150879,0.9754972457885742,0.11419612169265747
1772881561906716000,2.1727158203125,-1.8535995483398438,1.0955801010131836,0.5817680954933167
1772881561916716000,2.182716064453125,-1.3777787685394287,1.1359305381774902,1.279904842376709
1772881561926716000,2.1927158203125,-0.7999873161315918,1.2131462097167969,1.1577694416046143
1772881561936716000,2.202716064453125,-0.6690273284912109,1.1644911766052246,0.9112585783004761
1772881561946716000,2.2127158203125,-0.4877586364746094,1.1886096000671387,0.8653669357299805
1772881561956716000,2.222716064453125,-1.0444939136505127,0.9874992370605469,0.33401334285736084
1772881561966716000,2.2327158203125,-1.6971261501312256,0.7704238891601562,-0.3985089361667633
1772881561976716000,2.242716064453125,-2.163296699523926,0.7034940719604492,-1.0648341178894043
1772881561986716000,2.2527158203125,-2.236082077026367,0.698798656463623,-1.251918911933899
1772881561996716000,2.262716064453125,-1.7775583267211914,0.43689441680908203,-1.2138100862503052
1772881562006716000,2.2727158203125,-1.2707509994506836,-0.7112188339233398,-0.7642924189567566
1772881562016716000,2.282716064453125,-0.588141679763794,-2.344475746154785,-0.4620579481124878
1772881562026716000,2.2927158203125,-0.2207331657409668,-4.719084739685059,-0.09493222832679749
1772881562036716000,2.302716064453125,0.29698610305786133,-7.062530517578125,0.46381285786628723
1772881562046716000,2.3127158203125,1.1706743240356445,-8.40697193145752,1.3702468872070312
1772881562056716000,2.322716064453125,1.4407453536987305,-7.628839492797852,1.736794114112854
1772881562066716000,2.3327158203125,1.4391870498657227,-4.408598899841309,0.8090667128562927
1772881562076716000,2.342716064453125,1.5826072692871094,-1.9014320373535156,-0.3782195448875427
1772881562086716000,2.3527158203125,1.1094393730163574,-2.059868812561035,0.08893510699272156
1772881562096716000,2.362716064453125,0.13796734809875488,-2.9655799865722656,0.3914717137813568
1772881562106716000,2.3727158203125,-0.41143059730529785,-2.6920289993286133,-0.20096129179000854
1772881562116716000,2.382716064453125,-0.03071880340576172,-1.7499866485595703,0.519485592842102
1772881562126716000,2.3927158203125,0.10616493225097656,-1.9946165084838867,2.2027783393859863
1772881562136716000,2.402716064453125,-0.305281400680542,-1.0007963180541992,2.6453006267547607
1772881562146716000,2.4127158203125,-0.04101133346557617,-0.4373512268066406,2.809203863143921
1772881562156716000,2.422716064453125,0.650226354598999,-0.974818229675293,2.3749327659606934
1772881562166716000,2.4327158203125,2.158806085586548,0.017203330993652344,0.9679717421531677
1772881562176716000,2.442716064453125,3.3913917541503906,-0.6428632736206055,1.5818153619766235
1772881562186716000,2.4527158203125,3.9223716259002686,-0.011513710021972656,2.328068256378174
1772881562196716000,2.462716064453125,3.44136118888855,0.8118371963500977,2.901583671569824
1772881562206716000,2.4727158203125,3.235790491104126,1.5021519660949707,2.937014102935791
1772881562216716000,2.482716064453125,3.1507256031036377,2.9260201454162598,1.9091358184814453
1772881562226716000,2.4927158203125,3.340620517730713,3.1828670501708984,1.3898861408233643
1772881562236716000,2.502716064453125,2.8626348972320557,2.413895606994629,0.9758331775665283
1772881562246716000,2.5127158203125,1.7014539241790771,1.0380487442016602,1.239242434501648
1772881562256716000,2.522716064453125,0.18710851669311523,0.8018865585327148,1.095382571220398
1772881562266716000,2.5327158203125,-0.8753595352172852,-1.4001054763793945,2.603654384613037
1772881562276716000,2.542716064453125,-1.7206599712371826,-2.4463796615600586,2.8315954208374023
1772881562286716000,2.5527158203125,-2.263742685317993,-0.6519670486450195,1.6370809078216553
1772881562296716000,2.562716064453125,-1.6535431146621704,-0.9959936141967773,1.4246978759765625
1772881562306716000,2.5727158203125,-0.6960711479187012,-0.31355762481689453,0.6615856885910034
1772881562316716000,2.582716064453125,-0.311018705368042,0.5823688507080078,-0.12320576608181
1772881562326716000,2.5927158203125,0.3686199188232422,2.6712608337402344,-1.280165433883667
1772881562336716000,2.602716064453125,0.4651813507080078,2.14047908782959,-1.2630674839019775
1772881562346716000,2.6127158203125,-1.1758944988250732,2.271739959716797,-1.42274808883667
1772881562356716000,2.622716064453125,-3.3259918689727783,2.32363224029541,-0.4525628685951233
1772881562366716000,2.6327158203125,-4.779600143432617,1.2715883255004883,1.1549261808395386
1772881562376716000,2.642716064453125,-3.6118812561035156,0.48981475830078125,1.469313621520996
1772881562386716000,2.6527158203125,-2.1550517082214355,0.7841081619262695,1.4185247421264648
1772881562396716000,2.662716064453125,-0.7549558877944946,1.476511001586914,0.37257200479507446
1772881562406716000,2.6727158203125,-1.1135921478271484,5.6926960945129395,-1.4971811771392822
1772881562416716000,2.682716064453125,0.2124779224395752,6.905460834503174,-2.1305184364318848
1772881562426716000,2.6927158203125,2.689873456954956,2.2197327613830566,-1.9390828609466553
1772881562436716000,2.702716064453125,2.5189812183380127,-1.1448192596435547,-1.7651652097702026
1772881562446716000,2.7127158203125,2.3436455726623535,-4.481258392333984,-0.44521817564964294
1772881562456716000,2.722716064453125,1.233184814453125,-15.860663414001465,3.2904062271118164
1772881562466716000,2.7327158203125,-0.4924449920654297,-19.467212677001953,2.3945281505584717
1772881562476716000,2.742716064453125,-4.417828559875488,-6.083257675170898,1.2958616018295288
1772881562486716000,2.7527158203125,-4.731150150299072,1.8190422058105469,0.4988624155521393
1772881562496716000,2.762716064453125,-2.3061676025390625,5.865077972412109,-0.7280526161193848
1772881562506716000,2.7727158203125,-0.3228336572647095,8.005525588989258,-0.6672294735908508
1772881562516716000,2.782716064453125,0.5272096395492554,7.781485557556152,0.08232361078262329
1772881562526716000,2.7927158203125,0.4845871925354004,6.07426643371582,0.679557740688324
1772881562536716000,2.802716064453125,0.09107983112335205,4.195898056030273,0.6687227487564087
1772881562546716000,2.8127158203125,-0.4874305725097656,1.5288381576538086,-0.6078561544418335
1772881562556716000,2.822716064453125,-0.014280080795288086,-1.4481201171875,-1.3224446773529053
1772881562566716000,2.8327158203125,0.3288917541503906,-3.8552732467651367,-1.912245512008667
1772881562576716000,2.842716064453125,0.25179314613342285,-7.429216384887695,-2.6278746128082275
1772881562586716000,2.8527158203125,0.35668182373046875,-10.761496543884277,-2.636906862258911
1772881562596716000,2.862716064453125,0.8064790964126587,-10.713387489318848,-2.298546314239502
1772881562606716000,2.8727158203125,1.585937261581421,-7.148874282836914,-1.6822153329849243
1772881562616716000,2.882716064453125,0.25814104080200195,-2.7064638137817383,0.06479847431182861
1772881562626716000,2.8927158203125,-1.0321414470672607,2.0549821853637695,2.146617889404297
1772881562636716000,2.902716064453125,-1.7166385650634766,5.671045303344727,3.625664234161377
1772881562646716000,2.9127158203125,0.15452027320861816,7.9587907791137695,4.402176380157471
1772881562656716000,2.922716064453125,0.8731098175048828,7.9423370361328125,3.458616256713867
1772881562666716000,2.9327158203125,2.3055293560028076,5.174495220184326,0.6304823160171509
1772881562676716000,2.942716064453125,2.139586925506592,0.7898492813110352,-0.8874895572662354
1772881562686716000,2.9527158203125,0.6405785083770752,-2.564785957336426,-1.7037885189056396
1772881562696716000,2.962716064453125,-0.19289684295654297,-3.9941530227661133,-1.968483328819275
1772881562706716000,2.9727158203125,-0.2805452346801758,-3.027153968811035,-1.5684802532196045
1772881562716716000,2.982716064453125,0.3050880432128906,-1.444284439086914,-0.921268105506897
1772881562726716000,2.9927158203125,0.7079918384552002,-0.2162494659423828,-0.3172539472579956
1772881562736716000,3.002716064453125,1.1209001541137695,0.21555042266845703,0.5555758476257324
1772881562746716000,3.0127158203125,0.8668744564056396,0.16312408447265625,1.489389181137085
1772881562756716000,3.022716064453125,0.3037266731262207,0.9075918197631836,2.3015596866607666
1772881562766716000,3.0327158203125,0.4173469543457031,1.332676887512207,2.046933174133301
1772881562776716000,3.042716064453125,0.04079127311706543,1.868783950805664,1.517228126525879
1772881562786716000,3.0527158203125,-0.5832293033599854,2.4598655700683594,1.204896092414856
1772881562796716000,3.062716064453125,-1.0701828002929688,2.6036577224731445,0.9174743890762329
1772881562806716000,3.0727158203125,-1.6336069107055664,2.4742231369018555,0.6794081926345825
1772881562816716000,3.082716064453125,-2.002420425415039,2.765148162841797,0.5038578510284424
1772881562826716000,3.0927158203125,-2.107485294342041,2.0139503479003906,0.43820226192474365
1772881562836716000,3.102716064453125,-2.344252586364746,1.0034608840942383,0.35919666290283203
1772881562846716000,3.1127158203125,-2.3212544918060303,-0.17101001739501953,-0.1612299680709839
1772881562856716000,3.122716064453125,-2.167937994003296,-0.8903541564941406,-0.5939537882804871
1772881562866716000,3.1327158203125,-2.2314915657043457,-0.8901691436767578,-0.9674368500709534
1772881562876716000,3.142716064453125,-2.17124605178833,0.4447307586669922,-1.0580217838287354
1772881562886716000,3.1527158203125,-1.7179467678070068,2.005084991455078,-1.1674201488494873
1772881562896716000,3.162716064453125,-1.423046350479126,2.6078362464904785,-1.120205044746399
1772881562906716000,3.1727158203125,-1.5236060619354248,2.9127492904663086,-0.7813894748687744
1772881562916716000,3.182716064453125,-1.4923782348632812,3.02972412109375,-0.23012864589691162
1772881562926716000,3.1927158203125,-1.5087745189666748,2.8026657104492188,0.35335540771484375
1772881562936716000,3.202716064453125,-1.7321627140045166,2.582259178161621,0.7168515920639038
1772881562946716000,3.2127158203125,-1.9085187911987305,2.1254396438598633,0.9329473972320557
1772881562956716000,3.222716064453125,-2.070798873901367,1.5743913650512695,1.0971565246582031
1772881562966716000,3.2327158203125,-2.2021231651306152,0.8310656547546387,1.2165477275848389
1772881562976716000,3.242716064453125,-2.1569385528564453,0.126190185546875,1.169357419013977
1772881562986716000,3.2527158203125,-2.1426799297332764,-0.24614429473876953,1.0309686660766602
1772881562996716000,3.262716064453125,-1.9561781883239746,-0.2999143600463867,0.7533427476882935
1772881563006716000,3.2727158203125,-1.5727717876434326,-0.5172853469848633,0.38147759437561035
1772881563016716000,3.282716064453125,-1.0513627529144287,-0.8102798461914062,0.0700293779373169
1772881563026716000,3.2927158203125,-0.8138928413391113,-0.8577184677124023,-0.32761716842651367
1772881563036716000,3.302716064453125,-0.5222034454345703,-0.6440353393554688,-0.597699761390686
1772881563046716000,3.3127158203125,-0.4986426830291748,-0.47141265869140625,-0.6136461496353149
1772881563056716000,3.322716064453125,-0.47920823097229004,-0.48154449462890625,-0.42023229598999023
1772881563066716000,3.3327158203125,-0.48372364044189453,-0.6312294006347656,-0.2629910707473755
1772881563076716000,3.342716064453125,-0.7670764923095703,-0.5271377563476562,-0.40204310417175293
1772881563086716000,3.3527158203125,-1.2556207180023193,-0.6179618835449219,-0.39003753662109375
1772881563096716000,3.362716064453125,-1.8120355606079102,-0.6936855316162109,-0.5169456005096436
1772881563106716000,3.3727158203125,-1.7245111465454102,-0.5587949752807617,-0.5004178285598755
1772881563116716000,3.382716064453125,-1.5354037284851074,-0.32492923736572266,-0.45526421070098877
1772881563126716000,3.3927158203125,-1.1867985725402832,-0.17769336700439453,-0.21659445762634277
1772881563136716000,3.402716064453125,-0.6100192070007324,-0.0978851318359375,-0.09554076194763184
1772881563146716000,3.4127158203125,0.020740509033203125,0.03479194641113281,-0.061396241188049316
1772881563156716000,3.422716064453125,0.5830025672912598,-0.0050144195556640625,0.03957772254943848
1772881563166716000,3.4327158203125,1.1207470893859863,-0.1222696304321289,0.13414132595062256
1772881563176716000,3.442716064453125,1.2688055038452148,-0.3160667419433594,0.17284703254699707
1772881563186716000,3.4527158203125,1.0006232261657715,-0.4133129119873047,0.11166584491729736
1772881563196716000,3.462716064453125,0.399960994720459,-0.18940448760986328,0.04749774932861328
1772881563206716000,3.4727158203125,0.4377880096435547,-0.5141181945800781,0.32243573665618896
1772881563216716000,3.482716064453125,0.6626625061035156,-1.053999900817871,0.3320869207382202
1772881563226716000,3.4927158203125,1.4669485092163086,-1.9785785675048828,0.47267866134643555
1772881563236716000,3.502716064453125,2.276442527770996,-2.9304962158203125,0.5141808986663818
1772881563246716000,3.5127158203125,2.49812650680542,-3.6325321197509766,0.7202638983726501
1772881563256716000,3.522716064453125,1.6335854530334473,-4.042173385620117,1.190143346786499
1772881563266716000,3.5327158203125,0.01476907730102539,-3.895920753479004,1.6228539943695068
1772881563276716000,3.542716064453125,-0.6678385734558105,-3.2593822479248047,1.7415971755981445
1772881563286716000,3.5527158203125,-1.0944523811340332,-2.041378974914551,1.4544026851654053
1772881563296716000,3.562716064453125,-1.0489931106567383,-1.178156852722168,1.3389939069747925
1772881563306716000,3.5727158203125,-0.44301557540893555,-0.7340707778930664,1.0404390096664429
1772881563316716000,3.582716064453125,0.8104357719421387,-0.33868885040283203,0.8821606636047363
1772881563326716000,3.5927158203125,1.654493808746338,-0.09496116638183594,0.8816975355148315
1772881563336716000,3.602716064453125,1.8306407928466797,0.3199319839477539,1.0282405614852905
1772881563346716000,3.6127158203125,1.5105538368225098,0.7453546524047852,1.1250908374786377
1772881563356716000,3.622716064453125,1.3781027793884277,1.0079784393310547,0.8265213370323181
1772881563366716000,3.6327158203125,1.3332066535949707,1.018751621246338,0.5198699235916138
1772881563376716000,3.642716064453125,0.7235298156738281,0.9139261245727539,0.1548013687133789
1772881563386716000,3.6527158203125,-0.1901092529296875,0.46979808807373047,-0.03647702932357788
1772881563396716000,3.662716064453125,-0.9666128158569336,0.10364627838134766,0.39078807830810547
1772881563406716000,3.6727158203125,-1.3187227249145508,-0.055728912353515625,0.7358570098876953
1772881563416716000,3.682716064453125,-1.0379061698913574,-0.138458251953125,0.8635087609291077
1772881563426716000,3.6927158203125,-0.32908153533935547,-0.2950601577758789,0.9724407196044922
1772881563436716000,3.702716064453125,0.32019948959350586,-0.6031618118286133,1.0863990783691406
1772881563446716000,3.7127158203125,0.5432376861572266,-1.0045051574707031,0.959969699382782
1772881563456716000,3.722716064453125,0.2885313034057617,-1.7019519805908203,0.7217845916748047
1772881563466716000,3.7327158203125,-0.14167404174804688,-1.7463884353637695,0.21499979496002197
1772881563476716000,3.742716064453125,-0.4288802146911621,-1.5105724334716797,-0.29642820358276367
1772881563486716000,3.7527158203125,-0.4377737045288086,-1.001255989074707,-1.1874264478683472
1772881563496716000,3.762716064453125,-0.10373735427856445,-0.5618734359741211,-1.5864698886871338
1772881563506716000,3.7727158203125,0.29396629333496094,-0.4023399353027344,-1.6491272449493408
1772881563516716000,3.782716064453125,0.7652864456176758,-0.4436826705932617,-1.16090989112854
1772881563526716000,3.7927158203125,1.0975303649902344,-0.9100370407104492,-0.46606528759002686
1772881563536716000,3.802716064453125,1.0583291053771973,-1.3376474380493164,-0.24928557872772217
1772881563546716000,3.8127158203125,0.9435744285583496,-1.5318193435668945,-0.27756643295288086
1772881563556716000,3.822716064453125,0.518829345703125,-1.4544639587402344,-0.08782577514648438
1772881563566716000,3.8327158203125,0.174285888671875,-1.0929346084594727,0.24950170516967773
1772881563576716000,3.842716064453125,0.03823518753051758,-0.8459405899047852,0.2460625171661377
1772881563586716000,3.8527158203125,-0.28655099868774414,-0.9155845642089844,-0.10605764389038086
1772881563596716000,3.862716064453125,-0.4365425109863281,-1.0890064239501953,-0.4542543888092041
1772881563606716000,3.8727158203125,-0.29233503341674805,-0.7529706954956055,-0.7641583681106567
1772881563616716000,3.882716064453125,-0.3696732521057129,-0.4701709747314453,-1.0693838596343994
1772881563626716000,3.8927158203125,-0.1329054832458496,-0.14279460906982422,-1.1142735481262207
1772881563636716000,3.902716064453125,0.4486517906188965,-0.11274528503417969,-0.8822441101074219
1772881563646716000,3.9127158203125,0.949063777923584,-0.4366741180419922,-0.6261985301971436
1772881563656716000,3.922716064453125,0.9680042266845703,-0.552790641784668,-0.24390339851379395
1772881563666716000,3.9327158203125,0.847008228302002,-0.43071556091308594,0.001623392105102539
1772881563676716000,3.942716064453125,0.5257587432861328,-0.5158367156982422,-0.21412086486816406
1772881563686716000,3.9527158203125,-0.4503946304321289,-0.25858402252197266,-0.8000667095184326
1772881563696716000,3.962716064453125,-1.2446255683898926,-0.30583858489990234,-1.143362283706665
1772881563706716000,3.9727158203125,-1.7927203178405762,-0.00307464599609375,-1.393409013748169
1772881563716716000,3.982716064453125,-1.3683886528015137,0.012651443481445312,-1.5719518661499023
1772881563726716000,3.9927158203125,-0.31853628158569336,0.05902433395385742,-1.103914499282837
1772881563736716000,4.002716064453125,0.5144267082214355,0.7822961807250977,-0.49256038665771484
1772881563746716000,4.0127158203125,0.4111485481262207,1.4534406661987305,-0.3049309253692627
1772881563756716000,4.022716064453125,-0.24056625366210938,1.5451273918151855,-0.4919123649597168
1772881563766716000,4.0327158203125,-0.8039364814758301,1.1699700355529785,-0.5975539684295654
1772881563776716000,4.042716064453125,-0.8160419464111328,0.203948974609375,-0.6823155879974365
1772881563786716000,4.0527158203125,-0.3870124816894531,-0.15140008926391602,-0.5307729244232178
1772881563796716000,4.062716064453125,0.13621139526367188,0.33743762969970703,-0.4348924160003662
1772881563806716000,4.0727158203125,0.36666011810302734,1.017003059387207,-0.29152441024780273
1772881563816716000,4.082716064453125,0.5560688972473145,1.2101125717163086,-0.30925965309143066
1772881563826716000,4.0927158203125,-0.6219940185546875,1.968611240386963,-0.3447747230529785
1772881563836716000,4.102716064453125,-0.5834479331970215,1.557347297668457,-0.3632962703704834
1772881563846716000,4.1127158203125,-0.1876225471496582,0.7099885940551758,-0.3041677474975586
1772881563856716000,4.122716064453125,-1.052685260772705,0.855710506439209,-0.22903871536254883
1772881563866716000,4.1327158203125,-0.6485943794250488,1.001051902770996,0.126495361328125
1772881563876716000,4.142716064453125,-0.8505659103393555,0.7514691352844238,0.4966700077056885
1772881563886716000,4.1527158203125,-1.4464755058288574,1.2350482940673828,0.548306941986084
1772881563896716000,4.162716064453125,-0.7523250579833984,0.6358256340026855,0.858583927154541
1772881563906716000,4.1727158203125,-0.36360692977905273,0.21289682388305664,0.9118847846984863
1772881563916716000,4.182716064453125,0.009983539581298828,-0.02629375457763672,0.8265628814697266
1772881563926716000,4.1927158203125,-0.07533073425292969,0.1060800552368164,0.5216052532196045
1772881563936716000,4.202716064453125,0.5089759826660156,0.3233470916748047,0.354053258895874
1772881563946716000,4.2127158203125,0.32438039779663086,0.6081480979919434,0.03357815742492676
1772881563956716000,4.222716064453125,-0.08411741256713867,0.8671994209289551,-0.14291000366210938
1772881563966716000,4.2327158203125,-0.38370370864868164,0.8075509071350098,-0.05315279960632324
1772881563976716000,4.242716064453125,-0.9369044303894043,0.9107518196105957,-0.11777377128601074
1772881563986716000,4.2527158203125,-1.6374506950378418,1.2610630989074707,-0.3409247398376465
1772881563996716000,4.262716064453125,-2.217292308807373,1.2799749374389648,-0.40482068061828613
1772881564006716000,4.2727158203125,-2.480647563934326,0.8972811698913574,-0.41675853729248047
1772881564016716000,4.282716064453125,-2.429877519607544,0.3289341926574707,-0.5802865028381348
1772881564026716000,4.2927158203125,-2.3623342514038086,-0.2204117774963379,-0.7577080726623535
1772881564036716000,4.302716064453125,-2.1291937828063965,-0.5501155853271484,-0.7527763843536377
1772881564046716000,4.3127158203125,-1.919194221496582,-0.46067190170288086,-0.654266357421875
1772881564056716000,4.322716064453125,-1.5307021141052246,0.022010326385498047,-0.7323970794677734
1772881564066716000,4.3327158203125,-1.1789350509643555,0.610166072845459,-0.8167264461517334
1772881564076716000,4.342716064453125,-1.0775599479675293,1.3745436668395996,-0.8894782066345215
1772881564086716000,4.3527158203125,-1.0863738059997559,1.8117361068725586,-0.8650732040405273
1772881564096716000,4.362716064453125,-1.102189064025879,1.81290864944458,-0.5848367214202881
1772881564106716000,4.3727158203125,-1.1589946746826172,1.6085596084594727,-0.3669884204864502
1772881564116716000,4.382716064453125,-1.1779608726501465,1.276538372039795,-0.2263476848602295
1772881564126716000,4.3927158203125,-1.3714547157287598,0.8009748458862305,-0.03141450881958008
1772881564136716000,4.402716064453125,-1.3884730339050293,0.27524423599243164,-0.09279775619506836
1772881564146716000,4.4127158203125,-1.2385811805725098,-0.3014535903930664,-0.28759169578552246
1772881564156716000,4.422716064453125,-0.7990036010742188,-0.9379367828369141,-0.4179832935333252
1772881564166716000,4.4327158203125,-0.29640960693359375,-1.4491500854492188,-0.5477194786071777
1772881564176716000,4.442716064453125,0.04517650604248047,-1.6548118591308594,-0.7618069648742676
1772881564186716000,4.4527158203125,0.4424896240234375,-1.7638611793518066,-0.9059085845947266
1772881564196716000,4.462716064453125,0.790802001953125,-1.9937763214111328,-0.9552915096282959
1772881564206716000,4.4727158203125,1.1977481842041016,-1.9115281105041504,-0.7781238555908203
1772881564216716000,4.482716064453125,1.1092581748962402,-1.8062758445739746,-0.7170206308364868
1772881564226716000,4.4927158203125,1.0562925338745117,-1.7208490371704102,-0.685516357421875
1772881564236716000,4.502716064453125,0.921750545501709,-1.7352690696716309,-0.6020092964172363
1772881564246716000,4.5127158203125,0.638035774230957,-1.851327896118164,-0.564777135848999
1772881564256716000,4.522716064453125,0.36100196838378906,-1.9845013618469238,-0.6531177759170532
1772881564266716000,4.5327158203125,0.19876337051391602,-2.139723777770996,-0.755948543548584
1772881564276716000,4.542716064453125,0.04301309585571289,-2.185185432434082,-0.31934094429016113
1772881564286716000,4.5527158203125,0.08256006240844727,-1.8289356231689453,0.03992033004760742
1772881564296716000,4.562716064453125,0.22296476364135742,-1.2704615592956543,0.26702845096588135
1772881564306716000,4.5727158203125,0.5980358123779297,-0.8046059608459473,0.5338553190231323
1772881564316716000,4.582716064453125,1.2612314224243164,-0.610231876373291,0.5491568446159363
1772881564326716000,4.5927158203125,1.7419219017028809,-0.5048246383666992,0.5976744294166565
1772881564336716000,4.602716064453125,1.7318577766418457,-0.6822590827941895,0.630756676197052
1772881564346716000,4.6127158203125,1.2895312309265137,-0.6937036514282227,0.23172688484191895
1772881564356716000,4.622716064453125,0.4104619026184082,-0.4329710006713867,-0.03355786204338074
1772881564366716000,4.6327158203125,-0.12279462814331055,-0.034061431884765625,-0.14992856979370117
1772881564376716000,4.642716064453125,-0.10775041580200195,0.49504995346069336,-0.2864580750465393
1772881564386716000,4.6527158203125,0.3060750961303711,0.8462715148925781,-0.20352309942245483
1772881564396716000,4.662716064453125,0.839362621307373,0.803105354309082,0.3044765591621399
1772881564406716000,4.6727158203125,1.4133315086364746,0.27199411392211914,1.0445395708084106
1772881564416716000,4.682716064453125,1.9487972259521484,-0.24613571166992188,1.987993597984314
1772881564426716000,4.6927158203125,1.9826555252075195,-0.0672006607055664,2.4812095165252686
1772881564436716000,4.702716064453125,2.044748306274414,0.2738504409790039,2.3326416015625
1772881564446716000,4.7127158203125,2.205815315246582,0.6679716110229492,1.601818561553955
1772881564456716000,4.722716064453125,2.4205517768859863,0.12399768829345703,1.7389847040176392
1772881564466716000,4.7327158203125,2.1092729568481445,-0.3288536071777344,1.7691437005996704
1772881564476716000,4.742716064453125,1.177180290222168,-0.7101163864135742,1.8024239540100098
1772881564486716000,4.7527158203125,0.44215869903564453,-1.0262947082519531,1.9919103384017944
1772881564496716000,4.762716064453125,-0.09778070449829102,-0.9047155380249023,1.6820049285888672
1772881564506716000,4.7727158203125,-0.27646827697753906,-0.5312261581420898,1.3961362838745117
1772881564516716000,4.782716064453125,-0.2562398910522461,0.018441200256347656,0.9084025621414185
1772881564526716000,4.7927158203125,-0.24919986724853516,0.37003135681152344,0.37039658427238464
1772881564536716000,4.802716064453125,-0.35647010803222656,0.3937654495239258,-0.08789652585983276
1772881564546716000,4.8127158203125,-0.38544178009033203,-0.20099163055419922,-0.36171242594718933
1772881564556716000,4.822716064453125,-0.567469596862793,-0.6394271850585938,-0.6260934472084045
1772881564566716000,4.8327158203125,-0.5816292762756348,-1.1499881744384766,-0.6624190211296082
1772881564576716000,4.842716064453125,-0.046523094177246094,-1.134521484375,-0.9532219171524048
1772881564586716000,4.8527158203125,0.1599726676940918,-0.3888406753540039,-1.0461329221725464
1772881564596716000,4.862716064453125,0.056731224060058594,0.5264239311218262,-0.5929495096206665
1772881564606716000,4.8727158203125,-0.43299436569213867,1.1384706497192383,-0.21136987209320068
1772881564616716000,4.882716064453125,-0.9191222190856934,0.5366873741149902,0.04987621307373047
1772881564626716000,4.8927158203125,-1.0064945220947266,-0.6037049293518066,0.049924254417419434
1772881564636716000,4.902716064453125,-0.6590723991394043,-1.6758875846862793,-0.3290592432022095
1772881564646716000,4.9127158203125,-0.6134834289550781,-2.6182022094726562,-0.6288415193557739
1772881564656716000,4.922716064453125,-0.4419574737548828,-3.1267433166503906,-0.6438350677490234
1772881564666716000,4.9327158203125,-0.23285245895385742,-3.271477699279785,-0.3900725841522217
1772881564676716000,4.942716064453125,0.1766033172607422,-3.2791690826416016,-0.053822994232177734
1772881564686716000,4.9527158203125,0.13391637802124023,-2.9476847648620605,0.2878539562225342
1772881564696716000,4.962716064453125,-0.20640325546264648,-2.4902563095092773,0.20915865898132324
1772881564706716000,4.9727158203125,-0.2206254005432129,-1.9599394798278809,-0.16073083877563477
1772881564716716000,4.982716064453125,0.05138731002807617,-1.4192214012145996,-0.39438676834106445
1772881564726716000,4.9927158203125,0.26090145111083984,-0.6970419883728027,-0.6258766651153564
1772881564736716000,5.002716064453125,-0.05497932434082031,0.084320068359375,-0.7153847217559814
1772881564746716000,5.0127158203125,-0.25731372833251953,0.1753559112548828,-0.6662495136260986
1772881564756716000,5.022716064453125,-0.6230278015136719,0.10564422607421875,-0.38377952575683594
1772881564766716000,5.0327158203125,-0.9175624847412109,-0.1609940528869629,-0.18819308280944824
1772881564776716000,5.042716064453125,-0.8438382148742676,0.10608625411987305,-0.597888708114624
1772881564786716000,5.0527158203125,-0.4719662666320801,-0.04662752151489258,-0.5328984260559082
1772881564796716000,5.062716064453125,-0.38346385955810547,0.20407867431640625,-0.41380763053894043
1772881564806716000,5.0727158203125,-0.3611297607421875,0.5291061401367188,0.11588549613952637
1772881564816716000,5.082716064453125,-0.529289722442627,1.0273160934448242,0.4060800075531006
1772881564826716000,5.0927158203125,-0.6717257499694824,1.0830283164978027,0.6465508937835693
1772881564836716000,5.102716064453125,-0.6419644355773926,0.5740389823913574,0.9648654460906982
1772881564846716000,5.1127158203125,-0.44403839111328125,0.2136998176574707,0.8576436042785645
1772881564856716000,5.122716064453125,-0.0026950836181640625,0.10924530029296875,0.7428524494171143
1772881564866716000,5.1327158203125,0.40703868865966797,-0.10265636444091797,0.5656061172485352
1772881564876716000,5.142716064453125,0.42911243438720703,0.15392827987670898,0.23322081565856934
1772881564886716000,5.1527158203125,0.8467426300048828,-0.19481277465820312,0.4348182678222656
1772881564896716000,5.162716064453125,0.9512677192687988,-0.5698361396789551,0.6258692741394043
1772881564906716000,5.1727158203125,0.9778814315795898,0.08495378494262695,0.5634772777557373
1772881564916716000,5.182716064453125,-0.007531642913818359,0.9931812286376953,0.3376588821411133
1772881564926716000,5.1927158203125,-0.5648670196533203,2.0436387062072754,0.08196330070495605
1772881564936716000,5.202716064453125,-1.077852725982666,2.1429591178894043,0.013568401336669922
1772881564946716000,5.2127158203125,-1.3718461990356445,1.8766083717346191,-0.06970024108886719
1772881564956716000,5.222716064453125,-1.0535826683044434,1.323801040649414,0.08884668350219727
1772881564966716000,5.2327158203125,-1.9064340591430664,1.1064705848693848,-0.00864267349243164
1772881564976716000,5.242716064453125,-1.2585372924804688,0.6951932907104492,-0.09434247016906738
1772881564986716000,5.2527158203125,-1.1307930946350098,0.6572017669677734,-0.37782955169677734
1772881564996716000,5.262716064453125,-1.4034104347229004,0.7990555763244629,-0.7430624961853027
1772881565006716000,5.2727158203125,-1.798245906829834,0.8792324066162109,-1.2033028602600098
1772881565016716000,5.282716064453125,-2.035459041595459,0.8838839530944824,-1.5365402698516846
1772881565026716000,5.2927158203125,-2.1836166381835938,0.8248810768127441,-1.6722259521484375
1772881565036716000,5.302716064453125,-2.2672743797302246,0.7668161392211914,-1.519589900970459
1772881565046716000,5.3127158203125,-2.2825140953063965,0.6130380630493164,-1.1477782726287842
1772881565056716000,5.322716064453125,-2.0500411987304688,0.304107666015625,-0.7880644798278809
1772881565066716000,5.3327158203125,-1.7129607200622559,-0.1162104606628418,-0.5233902931213379
1772881565076716000,5.342716064453125,-1.426290512084961,-0.5067648887634277,-0.30190157890319824
1772881565086716000,5.3527158203125,-1.2780122756958008,-0.4769763946533203,-0.3717381954193115
1772881565096716000,5.362716064453125,-1.1484737396240234,-0.10575532913208008,-0.6057722568511963
1772881565106716000,5.3727158203125,-1.0211334228515625,0.3851137161254883,-0.7649648189544678
1772881565116716000,5.382716064453125,-0.7720251083374023,0.9431171417236328,-0.907203197479248
1772881565126716000,5.3927158203125,-0.5987038612365723,1.3496241569519043,-0.7413437366485596
1772881565136716000,5.402716064453125,-0.7894992828369141,1.4599432945251465,-0.26683592796325684
1772881565146716000,5.4127158203125,-1.0714855194091797,1.2149477005004883,0.2126471996307373
1772881565156716000,5.422716064453125,-1.18928861618042,0.7466044425964355,0.46735525131225586
1772881565166716000,5.4327158203125,-1.202256679534912,0.4022674560546875,0.5328021049499512
1772881565176716000,5.442716064453125,-1.185502529144287,0.07469558715820312,0.23398375511169434
1772881565186716000,5.4527158203125,-1.0026497840881348,-0.381378173828125,-0.03763294219970703
1772881565196716000,5.462716064453125,-0.6932539939880371,-0.6037106513977051,-0.4343862533569336
1772881565206716000,5.4727158203125,-0.20957660675048828,-0.9055747985839844,-0.6318686008453369
1772881565216716000,5.482716064453125,0.1792163848876953,-0.9970250129699707,-0.7112865447998047
1772881565226716000,5.4927158203125,0.33744335174560547,-1.0276966094970703,-0.7218174934387207
1772881565236716000,5.502716064453125,0.42104339599609375,-1.1370677947998047,-0.5324630737304688
1772881565246716000,5.5127158203125,0.12220525741577148,-1.1930351257324219,-0.3419041633605957
1772881565256716000,5.522716064453125,-0.11046934127807617,-1.1747808456420898,-0.2972230911254883
1772881565266716000,5.5327158203125,0.03069019317626953,-1.0603246688842773,-0.39705753326416016
1772881565276716000,5.542716064453125,-0.4651308059692383,-0.7978377342224121,-0.6284599304199219
1772881565286716000,5.5527158203125,-0.6327848434448242,-0.5858035087585449,-0.9196264743804932
1772881565296716000,5.562716064453125,-0.5235433578491211,-0.5904173851013184,-1.0742509365081787
1772881565306716000,5.5727158203125,-0.5191569328308105,-0.7951440811157227,-1.1196051836013794
1772881565316716000,5.582716064453125,-0.44470834732055664,-1.0053215026855469,-1.0419087409973145
1772881565326716000,5.5927158203125,-0.0901346206665039,-1.453382968902588,-0.9292968511581421
1772881565336716000,5.602716064453125,0.7097549438476562,-1.7579717636108398,-0.6217272877693176
1772881565346716000,5.6127158203125,1.580883502960205,-1.778639316558838,-0.42912089824676514
1772881565356716000,5.622716064453125,2.486934185028076,-1.9744949340820312,0.08044099807739258
1772881565366716000,5.6327158203125,3.478396415710449,-1.9677486419677734,0.18933379650115967
1772881565376716000,5.642716064453125,4.067076206207275,-1.9675941467285156,0.23829007148742676
1772881565386716000,5.6527158203125,3.6147632598876953,-2.0494894981384277,0.54618901014328
1772881565396716000,5.662716064453125,2.9355897903442383,-2.1925206184387207,0.44436097145080566
1772881565406716000,5.6727158203125,2.1796154975891113,-2.1128721237182617,0.19541531801223755
1772881565416716000,5.682716064453125,1.6665959358215332,-1.5255513191223145,-0.5635268092155457
1772881565426716000,5.6927158203125,1.543262004852295,-1.5350046157836914,-0.15204501152038574
1772881565436716000,5.702716064453125,1.5324411392211914,-1.127140998840332,0.05041152238845825
1772881565446716000,5.7127158203125,1.1956005096435547,-0.5512981414794922,0.49945068359375
1772881565456716000,5.722716064453125,0.8757047653198242,0.27542972564697266,0.9200555086135864
1772881565466716000,5.7327158203125,0.8632946014404297,1.28377103805542,0.8664028644561768
1772881565476716000,5.742716064453125,0.9377651214599609,1.9661273956298828,0.3635311722755432
1772881565486716000,5.7527158203125,0.9472546577453613,2.458017349243164,-0.14742237329483032
1772881565496716000,5.762716064453125,0.7487168312072754,2.694157600402832,-0.4226335287094116
1772881565506716000,5.7727158203125,0.48752737045288086,2.7040247917175293,-0.17158246040344238
1772881565516716000,5.782716064453125,-0.051363468170166016,2.4462642669677734,0.1229250431060791
1772881565526716000,5.7927158203125,-0.4285116195678711,2.0052709579467773,0.18449914455413818
1772881565536716000,5.802716064453125,-0.48589134216308594,1.3896551132202148,0.07455730438232422
1772881565546716000,5.8127158203125,-0.22943735122680664,0.7476515769958496,-0.1625804901123047
1772881565556716000,5.822716064453125,-0.22376489639282227,0.21218347549438477,-0.7216587662696838
1772881565566716000,5.8327158203125,-0.16565704345703125,0.014223098754882812,-0.8022347688674927
1772881565576716000,5.842716064453125,-0.0923924446105957,0.14612960815429688,-0.8406540751457214
1772881565586716000,5.8527158203125,0.068206787109375,0.48897647857666016,-0.8016961812973022
1772881565596716000,5.862716064453125,0.48711299896240234,0.5938549041748047,-1.110813021659851
1772881565606716000,5.8727158203125,0.2328801155090332,0.9750971794128418,-1.558410406112671
1772881565616716000,5.882716064453125,0.20451688766479492,0.32433319091796875,-1.7629523277282715
1772881565626716000,5.8927158203125,0.4749898910522461,-0.517486572265625,-2.095057249069214
1772881565636716000,5.902716064453125,0.5232548713684082,-1.2632064819335938,-2.2938036918640137
1772881565646716000,5.9127158203125,0.7100844383239746,-1.675917625427246,-2.231257915496826
1772881565656716000,5.922716064453125,1.068857192993164,-2.258615016937256,-1.8951302766799927
1772881565666716000,5.9327158203125,1.4651508331298828,-3.2047805786132812,-1.4602818489074707
1772881565676716000,5.942716064453125,1.9411282539367676,-3.8589582443237305,-1.1910200119018555
1772881565686716000,5.9527158203125,2.1385316848754883,-3.729525566101074,-0.9924616813659668
1772881565696716000,5.962716064453125,1.6988468170166016,-3.0078210830688477,-0.9366517066955566
1772881565706716000,5.9727158203125,1.5046920776367188,-1.8150835037231445,-1.0302493572235107
1772881565716716000,5.982716064453125,0.9488439559936523,-0.6022615432739258,-1.091005802154541
1772881565726716000,5.9927158203125,0.22179126739501953,0.3808112144470215,-1.107814073562622
1772881565736716000,6.002716064453125,-0.3387336730957031,0.661308765411377,-1.1460816860198975
1772881565746716000,6.0127158203125,-0.0801248550415039,0.47179365158081055,-0.9498534202575684
1772881565756716000,6.022716064453125,0.9896612167358398,0.02418375015258789,-0.9812102317810059
1772881565766716000,6.0327158203125,1.2213859558105469,-0.5324020385742188,-0.9554507732391357
1772881565776716000,6.042716064453125,1.081568717956543,-0.8508763313293457,-0.8685228824615479
1772881565786716000,6.0527158203125,0.5202054977416992,-0.6568970680236816,-0.7315053939819336
1772881565796716000,6.062716064453125,0.17905855178833008,-0.08909368515014648,-0.41497182846069336
1772881565806716000,6.0727158203125,-0.17319726943969727,0.6103987693786621,-0.34143614768981934
1772881565816716000,6.082716064453125,-0.23203229904174805,1.336418628692627,-0.4422929286956787
1772881565826716000,6.0927158203125,-0.40421199798583984,1.5426998138427734,-0.4775278568267822
1772881565836716000,6.102716064453125,-0.4164299964904785,1.2825312614440918,-0.3611900806427002
1772881565846716000,6.1127158203125,-0.4013795852661133,1.5176072120666504,-0.6899378299713135
1772881565856716000,6.122716064453125,-0.08383655548095703,1.6201701164245605,-0.9360620975494385
1772881565866716000,6.1327158203125,0.17000865936279297,1.260472297668457,-1.0063810348510742
1772881565876716000,6.142716064453125,0.11678123474121094,1.082827091217041,-0.8968427181243896
1772881565886716000,6.1527158203125,0.2712278366088867,0.7737092971801758,-0.7160537242889404
1772881565896716000,6.162716064453125,0.3818659782409668,0.8737001419067383,-0.6525828838348389
1772881565906716000,6.1727158203125,0.9972362518310547,0.46912622451782227,-0.3495204448699951
1772881565916716000,6.182716064453125,1.5996479988098145,0.27321672439575195,0.1097252368927002
1772881565926716000,6.1927158203125,0.3244819641113281,0.8499002456665039,0.5316863059997559
1772881565936716000,6.202716064453125,0.15812158584594727,1.3497505187988281,0.4560275077819824
1772881565946716000,6.2127158203125,-0.3167896270751953,1.126394271850586,0.30461835861206055
1772881565956716000,6.222716064453125,-0.4764375686645508,1.0182623863220215,0.1860663890838623
1772881565966716000,6.2327158203125,-1.0870184898376465,1.0586280822753906,0.020700454711914062
1772881565976716000,6.242716064453125,-0.7965536117553711,1.301206111907959,-0.007434844970703125
1772881565986716000,6.2527158203125,-0.8291478157043457,1.2383170127868652,-0.1056513786315918
1772881565996716000,6.262716064453125,-0.8897771835327148,1.226982593536377,-0.17829632759094238
1772881566006716000,6.2727158203125,-1.1167306900024414,1.1459999084472656,-0.4088575839996338
1772881566016716000,6.282716064453125,-1.4821052551269531,0.8911190032958984,-0.7499020099639893
1772881566026716000,6.2927158203125,-1.6824979782104492,0.7836227416992188,-1.028677225112915
1772881566036716000,6.302716064453125,-1.8612542152404785,0.655890941619873,-1.1240684986114502
1772881566046716000,6.3127158203125,-1.7301602363586426,0.4226341247558594,-1.2042481899261475
1772881566056716000,6.322716064453125,-1.6438517570495605,0.3006143569946289,-1.2265992164611816
1772881566066716000,6.3327158203125,-1.581493854522705,0.5880317687988281,-1.3111376762390137
1772881566076716000,6.342716064453125,-1.6733174324035645,0.9320111274719238,-1.0995922088623047
1772881566086716000,6.3527158203125,-1.943906307220459,0.945305347442627,-0.7686753273010254
1772881566096716000,6.362716064453125,-2.1844568252563477,0.6481571197509766,-0.5565423965454102
1772881566106716000,6.3727158203125,-2.219555377960205,0.5089564323425293,-0.7764339447021484
1772881566116716000,6.382716064453125,-2.272850513458252,0.8183355331420898,-1.2061526775360107
1772881566126716000,6.3927158203125,-2.3093347549438477,0.923530101776123,-1.2090375423431396
1772881566136716000,6.402716064453125,-2.05033016204834,0.4394516944885254,-0.8886644840240479
1772881566146716000,6.4127158203125,-1.271287441253662,-0.35719966888427734,-0.3638417720794678
1772881566156716000,6.422716064453125,-0.41908693313598633,-0.939600944519043,0.3766353130340576
1772881566166716000,6.4327158203125,0.1431422233581543,-0.8838205337524414,0.8988237380981445
1772881566176716000,6.442716064453125,0.9583630561828613,-0.13203859329223633,1.0672016143798828
1772881566186716000,6.4527158203125,1.2375679016113281,0.5196261405944824,0.4514291286468506
1772881566196716000,6.462716064453125,1.1666226387023926,0.40628576278686523,-0.06575727462768555
1772881566206716000,6.4727158203125,0.6693682670593262,-0.15395164489746094,-0.4153716564178467
1772881566216716000,6.482716064453125,0.028303146362304688,-0.7823848724365234,-0.5305972099304199
1772881566226716000,6.4927158203125,-0.5231122970581055,-1.4151577949523926,-0.3735957145690918
1772881566236716000,6.502716064453125,-0.6220688819885254,-2.036464214324951,-0.14062833786010742
1772881566246716000,6.5127158203125,-0.5802125930786133,-2.423827648162842,-0.022581100463867188
1772881566256716000,6.522716064453125,-0.2899971008300781,-2.2358193397521973,-0.010977983474731445
1772881566266716000,6.5327158203125,0.12468385696411133,-1.4877982139587402,-0.09355330467224121
1772881566276716000,6.542716064453125,0.34732866287231445,-0.8805727958679199,-0.25850605964660645
1772881566286716000,6.5527158203125,1.0826234817504883,-0.7058515548706055,-0.174413800239563
1772881566296716000,6.562716064453125,1.6115965843200684,-0.7370257377624512,0.08704209327697754
1772881566306716000,6.5727158203125,1.9090933799743652,-1.100675106048584,0.20843005180358887
1772881566316716000,6.582716064453125,1.556711196899414,-1.614358901977539,0.4737154245376587
1772881566326716000,6.5927158203125,1.03895902633667,-1.8680472373962402,0.8037840127944946
1772881566336716000,6.602716064453125,0.36516523361206055,-1.863537311553955,0.6408157348632812
1772881566346716000,6.6127158203125,-0.30552101135253906,-1.4459285736083984,0.2714175581932068
1772881566356716000,6.622716064453125,-0.8170900344848633,-1.2471823692321777,0.4400722086429596
1772881566366716000,6.6327158203125,-0.9545960426330566,-0.6775851249694824,0.40333911776542664
1772881566376716000,6.642716064453125,-0.6762351989746094,-0.06673669815063477,0.07604199647903442
1772881566386716000,6.6527158203125,-0.023497581481933594,0.3529047966003418,-0.5366392135620117
1772881566396716000,6.662716064453125,0.9618043899536133,0.2626051902770996,-1.3122907876968384
1772881566406716000,6.6727158203125,2.612661361694336,-0.607140064239502,-1.614026427268982
1772881566416716000,6.682716064453125,4.8632402420043945,-1.8402695655822754,-0.9096319675445557
1772881566426716000,6.6927158203125,6.362429141998291,-2.3679981231689453,1.3326139450073242
1772881566436716000,6.702716064453125,4.91776704788208,-1.5921940803527832,3.8864693641662598
1772881566446716000,6.7127158203125,2.488396644592285,0.01128387451171875,4.105959892272949
1772881566456716000,6.722716064453125,1.0940709114074707,0.8555769920349121,3.2155892848968506
1772881566466716000,6.7327158203125,-0.037835121154785156,1.206026554107666,1.6046555042266846
1772881566476716000,6.742716064453125,-0.912045955657959,1.3747601509094238,0.2960664927959442
1772881566486716000,6.7527158203125,-1.0677165985107422,1.4639573097229004,0.04013972356915474
1772881566496716000,6.762716064453125,-1.2806849479675293,1.6083745956420898,0.4470199644565582
1772881566506716000,6.7727158203125,-1.2586984634399414,1.6478910446166992,0.7342678308486938
1772881566516716000,6.782716064453125,-1.0666728019714355,1.3668313026428223,0.7396128177642822
1772881566526716000,6.7927158203125,-0.7611103057861328,0.8269448280334473,0.695633590221405
1772881566536716000,6.802716064453125,-0.5893917083740234,0.23183059692382812,0.5790625810623169
1772881566546716000,6.8127158203125,-0.5301113128662109,-0.09885501861572266,0.39993536472320557
1772881566556716000,6.822716064453125,-0.3270263671875,-0.4537353515625,0.281929075717926
1772881566566716000,6.8327158203125,-0.37983179092407227,-0.4270663261413574,-0.19387462735176086
1772881566576716000,6.842716064453125,-0.4062190055847168,-0.19814777374267578,-0.5660589933395386
1772881566586716000,6.8527158203125,-0.15171384811401367,0.23521900177001953,-0.9266887903213501
1772881566596716000,6.862716064453125,-0.11667966842651367,0.456265926361084,-1.2176318168640137
1772881566606716000,6.8727158203125,-0.07175302505493164,0.21194791793823242,-1.2760956287384033
1772881566616716000,6.882716064453125,-0.0638880729675293,-0.04390239715576172,-0.9763542413711548
1772881566626716000,6.8927158203125,-0.016650676727294922,-1.1268010139465332,-0.6795960664749146
1772881566636716000,6.902716064453125,0.4339938163757324,-2.4796838760375977,-0.6679257154464722
1772881566646716000,6.9127158203125,1.0835204124450684,-3.294135093688965,-0.7353172302246094
1772881566656716000,6.922716064453125,1.3276143074035645,-3.517162322998047,-0.40473663806915283
1772881566666716000,6.9327158203125,1.6056904792785645,-2.9992198944091797,-0.28632593154907227
1772881566676716000,6.942716064453125,1.4311766624450684,-2.0751700401306152,-0.10124850273132324
1772881566686716000,6.9527158203125,0.434628963470459,-0.7526078224182129,0.2693607807159424
1772881566696716000,6.962716064453125,-1.1576170921325684,0.28949928283691406,0.6548726558685303
1772881566706716000,6.9727158203125,-1.7329154014587402,0.654904842376709,0.7771472930908203
1772881566716716000,6.982716064453125,-1.0844273567199707,0.4481229782104492,0.6031415462493896
1772881566726716000,6.9927158203125,-0.0032253265380859375,-0.10084295272827148,0.38286876678466797
1772881566736716000,7.002716064453125,0.48531198501586914,-0.6364903450012207,0.3027503490447998
1772881566746716000,7.0127158203125,-0.03644132614135742,-0.9807472229003906,0.30832648277282715
1772881566756716000,7.022716064453125,-0.905937671661377,-1.175459861755371,0.15105915069580078
1772881566766716000,7.0327158203125,-1.7688565254211426,-0.8306164741516113,-0.4043450355529785
1772881566776716000,7.042716064453125,-2.318619728088379,-0.25913429260253906,-1.0320062637329102
1772881566786716000,7.0527158203125,-2.434810161590576,0.3154582977294922,-1.047868013381958
1772881566796716000,7.062716064453125,-1.0857210159301758,0.16021156311035156,-0.07340168952941895
1772881566806716000,7.0727158203125,0.46752357482910156,0.26701879501342773,1.1355338096618652
1772881566816716000,7.082716064453125,1.6157169342041016,0.5725927352905273,2.321625232696533
1772881566826716000,7.0927158203125,2.0337204933166504,1.344670295715332,2.878178834915161
1772881566836716000,7.102716064453125,2.0619750022888184,2.1821866035461426,2.1622064113616943
1772881566846716000,7.1127158203125,1.976426601409912,2.383427619934082,1.3161656856536865
1772881566856716000,7.122716064453125,1.9114136695861816,1.0637445449829102,0.748225212097168
1772881566866716000,7.1327158203125,1.106168270111084,-0.2650947570800781,0.6105148792266846
1772881566876716000,7.142716064453125,1.421072006225586,-0.9460268020629883,0.6786260604858398
1772881566886716000,7.1527158203125,1.2098069190979004,-1.4509706497192383,0.9050447940826416
1772881566896716000,7.162716064453125,-0.18158769607543945,-0.7561254501342773,0.8869309425354004
1772881566906716000,7.1727158203125,-1.4019298553466797,0.5293698310852051,0.35798168182373047
1772881566916716000,7.182716064453125,-1.8754324913024902,1.2696986198425293,-0.07040882110595703
1772881566926716000,7.1927158203125,-3.2863969802856445,1.7324247360229492,-0.49964475631713867
1772881566936716000,7.202716064453125,-2.6735081672668457,1.8364739418029785,-0.36512160301208496
1772881566946716000,7.2127158203125,-2.237489700317383,1.99137544631958,-0.16062211990356445
1772881566956716000,7.222716064453125,-2.4172096252441406,2.0566487312316895,0.01310110092163086
1772881566966716000,7.2327158203125,-2.0825185775756836,2.034205913543701,0.19694137573242188
1772881566976716000,7.242716064453125,-2.4650521278381348,1.924344539642334,-0.2922384738922119
1772881566986716000,7.2527158203125,-3.2701454162597656,2.3610124588012695,-1.0252435207366943
1772881566996716000,7.262716064453125,-4.091222763061523,2.8333330154418945,-1.393869400024414
1772881567006716000,7.2727158203125,-4.393979072570801,1.6992759704589844,-1.2270150184631348
1772881567016716000,7.282716064453125,-3.8962368965148926,-1.081103801727295,-1.0097565650939941
1772881567026716000,7.2927158203125,-2.5952444076538086,-4.508333206176758,-0.6519291400909424
1772881567036716000,7.302716064453125,-1.229123592376709,-7.4468674659729,-0.18202543258666992
1772881567046716000,7.3127158203125,0.0898127555847168,-8.367189407348633,0.12030839920043945
1772881567056716000,7.322716064453125,1.0850319862365723,-5.472779750823975,0.5523672103881836
1772881567066716000,7.3327158203125,1.86350679397583,-0.9914631843566895,0.9482250213623047
1772881567076716000,7.342716064453125,2.6189236640930176,1.3288812637329102,0.730104923248291
1772881567086716000,7.3527158203125,1.780625820159912,1.1366791725158691,0.07530546188354492
1772881567096716000,7.362716064453125,-0.3489961624145508,0.6904287338256836,-0.39227187633514404
1772881567106716000,7.3727158203125,-1.6728143692016602,0.2659010887145996,-0.403576135635376
1772881567116716000,7.382716064453125,-2.0783233642578125,0.17844581604003906,-0.31280267238616943
1772881567126716000,7.3927158203125,-2.155956268310547,0.2141265869140625,0.17930841445922852
1772881567136716000,7.402716064453125,-2.10099458694458,0.5393548011779785,0.4339560270309448
1772881567146716000,7.4127158203125,-2.0856432914733887,1.0656828880310059,0.41705822944641113
1772881567156716000,7.422716064453125,-2.181140899658203,1.594864845275879,0.17938804626464844
1772881567166716000,7.4327158203125,-2.1594934463500977,1.8262081146240234,-0.19172024726867676
1772881567176716000,7.442716064453125,-1.9744367599487305,1.7354025840759277,-0.2507951259613037
1772881567186716000,7.4527158203125,-2.517397403717041,1.382798671722412,-0.5400166511535645
1772881567196716000,7.462716064453125,-2.8418359756469727,0.8596196174621582,-0.7997643947601318
1772881567206716000,7.4727158203125,-3.034398317337036,0.545435905456543,-1.292937159538269
1772881567216716000,7.482716064453125,-2.8145980834960938,0.13268470764160156,-1.7023978233337402
1772881567226716000,7.4927158203125,-1.9955158233642578,-0.3448033332824707,-1.7287405729293823
1772881567236716000,7.502716064453125,-0.8288264274597168,-0.9378056526184082,-1.1620177030563354
1772881567246716000,7.5127158203125,0.9232373237609863,-1.5681424140930176,-0.020897626876831055
1772881567256716000,7.522716064453125,3.17266845703125,-2.0299692153930664,1.377234697341919
1772881567266716000,7.5327158203125,5.439085483551025,-2.5118303298950195,2.6165473461151123
1772881567276716000,7.542716064453125,8.155195236206055,-2.918139934539795,3.989121437072754
1772881567286716000,7.5527158203125,8.872306823730469,-2.7454824447631836,4.4659199714660645
1772881567296716000,7.562716064453125,6.045707702636719,-2.0301871299743652,3.8190200328826904
1772881567306716000,7.5727158203125,1.491222858428955,-1.2997655868530273,3.3880698680877686
1772881567316716000,7.582716064453125,-1.697242259979248,-0.3916177749633789,2.4958655834198
1772881567326716000,7.5927158203125,-3.3041605949401855,0.18366384506225586,1.6182876825332642
1772881567336716000,7.602716064453125,-3.8010215759277344,0.7539567947387695,0.33065271377563477
1772881567346716000,7.6127158203125,-2.4571499824523926,1.1358470916748047,-0.05721742659807205
1772881567356716000,7.622716064453125,-0.5307703018188477,1.6031503677368164,-0.07198700308799744
1772881567366716000,7.6327158203125,0.9515881538391113,1.9005260467529297,-0.17681783437728882
1772881567376716000,7.642716064453125,1.9605112075805664,1.9129509925842285,-0.2768835425376892
1772881567386716000,7.6527158203125,2.197664737701416,1.700122356414795,-0.11531355232000351
1772881567396716000,7.662716064453125,1.8195343017578125,1.2019500732421875,0.32227033376693726
1772881567406716000,7.6727158203125,1.0596156120300293,0.6891899108886719,1.0415349006652832
1772881567416716000,7.682716064453125,0.31597185134887695,0.2010054588317871,1.2794188261032104
1772881567426716000,7.6927158203125,0.03699970245361328,-0.10866928100585938,1.111427664756775
1772881567436716000,7.702716064453125,-0.2273082733154297,-0.26607799530029297,0.4681555926799774
1772881567446716000,7.7127158203125,-0.4583463668823242,-0.38702869415283203,0.003752604126930237
1772881567456716000,7.722716064453125,-0.644160270690918,-0.5364956855773926,-0.21984922885894775
1772881567466716000,7.7327158203125,-0.6570825576782227,-0.9715933799743652,-0.34044361114501953
1772881567476716000,7.742716064453125,-0.3526005744934082,-1.8274283409118652,-0.5383186936378479
1772881567486716000,7.7527158203125,0.23673248291015625,-2.9950127601623535,-0.5724167823791504
1772881567496716000,7.762716064453125,0.9319829940795898,-4.182944297790527,-0.4682759642601013
1772881567506716000,7.7727158203125,1.0964245796203613,-4.003875732421875,0.18193364143371582
1772881567516716000,7.782716064453125,0.7530179023742676,-2.7516708374023438,0.405680388212204
1772881567526716000,7.7927158203125,0.7566766738891602,-1.5371618270874023,0.18564125895500183
1772881567536716000,7.802716064453125,0.8898792266845703,-1.0508604049682617,-0.21456491947174072
1772881567546716000,7.8127158203125,1.2071967124938965,-1.0478010177612305,-0.862413227558136
1772881567556716000,7.822716064453125,1.544588565826416,-0.8853273391723633,-1.203949213027954
1772881567566716000,7.8327158203125,1.7217669486999512,-0.7828645706176758,-1.210128664970398
1772881567576716000,7.842716064453125,1.8063569068908691,-0.6612153053283691,-1.3698623180389404
1772881567586716000,7.8527158203125,1.4734115600585938,-0.1321868896484375,-1.7394838333129883
1772881567596716000,7.862716064453125,0.7449226379394531,0.6996378898620605,-2.0173206329345703
1772881567606716000,7.8727158203125,-0.04539632797241211,1.794482707977295,-2.041285753250122
1772881567616716000,7.882716064453125,-0.41982460021972656,2.691305160522461,-1.8167222738265991
1772881567626716000,7.8927158203125,-0.09995412826538086,3.025852680206299,-1.4311867952346802
1772881567636716000,7.902716064453125,0.4553403854370117,2.711550235748291,-0.9618817567825317
1772881567646716000,7.9127158203125,1.1365737915039062,2.1423511505126953,-0.21019721031188965
1772881567656716000,7.922716064453125,1.358644962310791,1.3480234146118164,0.5612666606903076
1772881567666716000,7.9327158203125,1.3511786460876465,0.5452423095703125,1.3028724193572998
1772881567676716000,7.942716064453125,0.9693813323974609,-0.26906299591064453,1.4611096382141113
1772881567686716000,7.9527158203125,0.07583951950073242,-0.8032002449035645,1.2917029857635498
1772881567696716000,7.962716064453125,-0.7414522171020508,-1.0119118690490723,0.7684721946716309
1772881567706716000,7.9727158203125,-0.9386324882507324,-0.9304885864257812,-0.24418425559997559
1772881567716716000,7.982716064453125,-1.057973861694336,-0.6296806335449219,-0.938779354095459
1772881567726716000,7.9927158203125,-1.4706945419311523,-0.5212020874023438,-1.1817479133605957
1772881567736716000,8.002716064453125,-1.5993356704711914,-0.3949422836303711,-1.3655409812927246
1772881567746716000,8.0127158203125,-1.711535930633545,-0.1495819091796875,-1.6371593475341797
1772881567756716000,8.022716064453125,-1.7886841297149658,-0.32184457778930664,-1.3335942029953003
1772881567766716000,8.0327158203125,-1.7282001972198486,-0.6197810173034668,-1.2165818214416504
1772881567776716000,8.042716064453124,0.06743764877319336,-0.9504117965698242,-0.9400951862335205
1772881567786716000,8.0527158203125,2.522279739379883,-0.6412692070007324,-0.598656415939331
1772881567796716000,8.062716064453125,4.143401622772217,0.8184728622436523,0.09163928031921387
1772881567806716000,8.0727158203125,4.3090057373046875,2.9533424377441406,1.0926251411437988
1772881567816716000,8.082716064453125,3.05324649810791,3.9950873851776123,1.6197090148925781
1772881567826716000,8.0927158203125,0.8076672554016113,3.3751678466796875,1.2053885459899902
1772881567836716000,8.102716064453125,-0.6002335548400879,0.2422962188720703,0.8756473064422607
1772881567846716000,8.1127158203125,-0.9125237464904785,-1.6569576263427734,0.587498664855957
1772881567856716000,8.122716064453124,-0.02768230438232422,-3.0238256454467773,0.5805065631866455
1772881567866716000,8.1327158203125,0.3346834182739258,-2.8578991889953613,0.41972970962524414
1772881567876716000,8.142716064453126,0.05481147766113281,-1.572195053100586,0.1702427864074707
1772881567886716000,8.1527158203125,-0.8573503494262695,0.12456417083740234,-0.29338741302490234
1772881567896716000,8.162716064453125,-1.471731185913086,1.3619470596313477,-0.9065461158752441
1772881567906716000,8.1727158203125,-2.0534892082214355,2.2610316276550293,-1.5035192966461182
1772881567916716000,8.182716064453125,-2.481001377105713,2.80743408203125,-1.7267587184906006
1772881567926716000,8.1927158203125,-2.8088717460632324,3.149052619934082,-1.7161269187927246
1772881567936716000,8.202716064453124,-2.9130160808563232,3.372288227081299,-1.475560188293457
1772881567946716000,8.2127158203125,-3.15283465385437,3.2791335582733154,-1.1181144714355469
1772881567956716000,8.222716064453126,-3.442997932434082,2.998622417449951,-0.9904727935791016
1772881567966716000,8.2327158203125,-3.699307918548584,2.549473285675049,-0.8831930160522461
1772881567976716000,8.242716064453125,-3.4261112213134766,1.885664463043213,-1.1003360748291016
1772881567986716000,8.2527158203125,-3.1108298301696777,1.2522211074829102,-1.3332710266113281
1772881567996716000,8.262716064453125,-2.7875242233276367,0.5919694900512695,-1.1879067420959473
1772881568006716000,8.2727158203125,-2.517836570739746,-0.1582651138305664,-1.1233909130096436
1772881568016716000,8.282716064453124,-1.958674430847168,-0.7455544471740723,-0.6265912055969238
1772881568026716000,8.2927158203125,-1.371264934539795,-1.087730884552002,-0.0634315013885498
1772881568036716000,8.302716064453126,-0.6119379997253418,-1.3543133735656738,0.4437286853790283
1772881568046716000,8.3127158203125,0.8166708946228027,-1.2824883460998535,1.0396132469177246
1772881568056716000,8.322716064453125,2.2605085372924805,-1.0879435539245605,1.4870693683624268
1772881568066716000,8.3327158203125,3.5406198501586914,-1.1384282112121582,1.5074024200439453
1772881568076716000,8.342716064453125,4.278385162353516,-1.9142036437988281,1.4780097007751465
1772881568086716000,8.3527158203125,3.785604953765869,-2.021233558654785,1.4775137901306152
1772881568096716000,8.362716064453124,2.673783302307129,-1.691767692565918,1.2186615467071533
1772881568106716000,8.3727158203125,1.6081175804138184,-1.5684590339660645,1.0887036323547363
1772881568116716000,8.382716064453126,0.5079083442687988,-1.292123794555664,0.7371671199798584
1772881568126716000,8.3927158203125,-0.31682491302490234,-1.027665615081787,0.46167969703674316
1772881568136716000,8.402716064453125,-0.9195337295532227,-0.5248208045959473,-0.17763614654541016
1772881568146716000,8.4127158203125,-1.3465056419372559,0.15669679641723633,-1.0487992763519287
1772881568156716000,8.422716064453125,-1.758436679840088,0.6574230194091797,-1.6696877479553223
1772881568166716000,8.4327158203125,-1.9238314628601074,0.9614644050598145,-2.050938844680786
1772881568176716000,8.442716064453125,-2.1302719116210938,1.066136360168457,-2.2684438228607178
1772881568186716000,8.4527158203125,-1.9641780853271484,1.0973405838012695,-2.197962522506714
1772881568196716000,8.462716064453126,-0.9616360664367676,0.7096195220947266,-1.8645498752593994
1772881568206716000,8.4727158203125,0.49625587463378906,0.23226594924926758,-1.436018705368042
1772881568216716000,8.482716064453125,1.8882684707641602,-0.5723671913146973,-0.7808653116226196
1772881568226716000,8.4927158203125,3.150538921356201,-1.9105358123779297,-0.4034665524959564
1772881568236716000,8.502716064453125,4.116220474243164,-3.3070034980773926,0.07128560543060303
1772881568246716000,8.5127158203125,4.144601345062256,-3.8928890228271484,0.5405592322349548
1772881568256716000,8.522716064453125,3.525416374206543,-3.5723795890808105,1.1535791158676147
1772881568266716000,8.5327158203125,2.473145008087158,-3.0102152824401855,1.5419061183929443
1772881568276716000,8.542716064453124,1.4268507957458496,-2.3694987297058105,1.4170870780944824
1772881568286716000,8.5527158203125,1.2310075759887695,-1.4354043006896973,0.8718582391738892
1772881568296716000,8.562716064453125,1.6456599235534668,-0.24410009384155273,0.40235230326652527
1772881568306716000,8.5727158203125,2.2618584632873535,0.9953346252441406,0.3155518174171448
1772881568316716000,8.582716064453125,2.654545307159424,1.8298358917236328,0.7561269998550415
1772881568326716000,8.5927158203125,2.3875999450683594,2.3414764404296875,1.47545325756073
1772881568336716000,8.602716064453125,1.942680835723877,2.1761531829833984,1.7272388935089111
1772881568346716000,8.6127158203125,1.1732220649719238,1.4894628524780273,1.2689127922058105
1772881568356716000,8.622716064453124,0.13065862655639648,0.6828336715698242,0.6295428276062012
1772881568366716000,8.6327158203125,-0.6052303314208984,0.16391372680664062,0.4616764187812805
1772881568376716000,8.642716064453126,-1.171238899230957,0.26531505584716797,0.4830452799797058
1772881568386716000,8.6527158203125,-1.4351801872253418,0.7319240570068359,0.48087793588638306
1772881568396716000,8.662716064453125,-1.4936089515686035,1.1268773078918457,0.2864348888397217
1772881568406716000,8.6727158203125,-1.3164377212524414,1.2454051971435547,-0.010748505592346191
1772881568416716000,8.682716064453125,-1.1561522483825684,1.072096824645996,-0.1768823266029358
1772881568426716000,8.6927158203125,-0.9383039474487305,0.7176780700683594,-0.39110565185546875
1772881568436716000,8.702716064453124,-0.5081939697265625,0.06284809112548828,-0.5754110217094421
1772881568446716000,8.7127158203125,0.16400957107543945,-0.4269099235534668,-0.7187431454658508
1772881568456716000,8.722716064453126,0.12328720092773438,-0.4416184425354004,-0.7627578377723694
1772881568466716000,8.7327158203125,0.6685476303100586,-0.9514169692993164,-0.9574676752090454
1772881568476716000,8.742716064453125,1.1648898124694824,-1.1379609107971191,-1.5675355195999146
1772881568486716000,8.7527158203125,1.538182258605957,-1.2732057571411133,-2.0955562591552734
1772881568496716000,8.762716064453125,1.8697657585144043,-1.6132383346557617,-2.135770320892334
1772881568506716000,8.7727158203125,2.1531553268432617,-2.0307202339172363,-2.0301942825317383
1772881568516716000,8.782716064453124,2.2018399238586426,-2.2180161476135254,-1.6823631525039673
1772881568526716000,8.7927158203125,1.9379005432128906,-2.2170605659484863,-1.2622255086898804
1772881568536716000,8.802716064453126,1.2089753150939941,-1.918522834777832,-0.6842677593231201
1772881568546716000,8.8127158203125,0.512843132019043,-1.322547435760498,-0.30274319648742676
1772881568556716000,8.822716064453125,0.14958810806274414,-0.6362462043762207,-0.3100576400756836
1772881568566716000,8.8327158203125,0.006905555725097656,-0.08903884887695312,-0.8418424129486084
1772881568576716000,8.842716064453125,0.25870656967163086,0.1232447624206543,-1.3404220342636108
1772881568586716000,8.8527158203125,0.291104793548584,-0.17255210876464844,-1.3311216831207275
1772881568596716000,8.862716064453124,0.08127021789550781,-0.5230221748352051,-0.917492151260376
1772881568606716000,8.8727158203125,-0.2987246513366699,-0.6602129936218262,-0.33263707160949707
1772881568616716000,8.882716064453126,-0.48009157180786133,-0.6881742477416992,0.04637479782104492
1772881568626716000,8.8927158203125,-0.7711219787597656,-0.6246218681335449,0.18243908882141113
1772881568636716000,8.902716064453125,-1.0531907081604004,0.1534891128540039,-0.09376049041748047
1772881568646716000,8.9127158203125,-1.3181233406066895,1.144394874572754,-0.3683929443359375
1772881568656716000,8.922716064453125,-1.0826687812805176,1.6023249626159668,-0.5668556690216064
1772881568666716000,8.9327158203125,-0.3833503723144531,1.3742384910583496,-0.5412547588348389
1772881568676716000,8.942716064453125,-0.06611061096191406,1.515601634979248,-0.38422679901123047
1772881568686716000,8.9527158203125,0.2633213996887207,1.3109827041625977,-0.21042442321777344
1772881568696716000,8.962716064453126,0.4509239196777344,1.4027957916259766,-0.48285937309265137
1772881568706716000,8.9727158203125,0.20807313919067383,1.5647063255310059,-0.8820483684539795
1772881568716716000,8.982716064453125,0.4726252555847168,0.8338580131530762,-0.7054970264434814
1772881568726716000,8.9927158203125,0.38159799575805664,1.3926362991333008,-0.876255989074707
1772881568736716000,9.002716064453125,0.8763241767883301,1.011103630065918,-0.6405916213989258
1772881568746716000,9.0127158203125,0.7002158164978027,0.6347475051879883,-0.17002010345458984
1772881568756716000,9.022716064453125,0.34534215927124023,1.2851285934448242,0.0302736759185791
1772881568766716000,9.0327158203125,0.21024036407470703,1.212723731994629,0.39014601707458496
1772881568776716000,9.042716064453124,-0.41139650344848633,1.4429941177368164,0.7305319309234619
1772881568786716000,9.0527158203125,-0.9940228462219238,1.6510062217712402,0.9285666942596436
1772881568796716000,9.062716064453125,-1.2598814964294434,1.5949840545654297,1.0023353099822998
1772881568806716000,9.0727158203125,-1.1971545219421387,1.2979235649108887,0.6785032749176025
1772881568816716000,9.082716064453125,-1.229294776916504,1.0231308937072754,0.08022332191467285
1772881568826716000,9.0927158203125,-1.1622772216796875,0.9502606391906738,-0.5038211345672607
1772881568836716000,9.102716064453125,-1.664412021636963,0.8712739944458008,-0.999556303024292
1772881568846716000,9.1127158203125,-1.72874116897583,0.6057424545288086,-1.38517165184021
1772881568856716000,9.122716064453124,-1.666515827178955,0.3049650192260742,-1.4687869548797607
1772881568866716000,9.1327158203125,-1.6574821472167969,0.27679014205932617,-1.4670839309692383
1772881568876716000,9.142716064453126,-1.6878299713134766,0.42243432998657227,-1.2393722534179688
1772881568886716000,9.1527158203125,-1.9273405075073242,0.6500983238220215,-0.8898992538452148
1772881568896716000,9.162716064453125,-2.0859456062316895,0.6903905868530273,-0.25765347480773926
1772881568906716000,9.1727158203125,-1.941723346710205,0.485257625579834,0.22280216217041016
1772881568916716000,9.182716064453125,-1.8301501274108887,0.1492304801940918,0.5218470096588135
1772881568926716000,9.1927158203125,-1.7843894958496094,0.007363319396972656,0.3749995231628418
1772881568936716000,9.202716064453124,-1.7875337600708008,-0.04690694808959961,0.10161066055297852
1772881568946716000,9.2127158203125,-1.551900863647461,-0.11082077026367188,-0.11376810073852539
1772881568956716000,9.222716064453126,-1.094606876373291,-0.19832277297973633,-0.14704060554504395
1772881568966716000,9.2327158203125,-0.7402520179748535,-0.18347883224487305,-0.07302737236022949
1772881568976716000,9.242716064453125,-0.5320653915405273,-0.04629230499267578,0.09715080261230469
1772881568986716000,9.2527158203125,-0.3987593650817871,0.26848840713500977,0.17577052116394043
1772881568996716000,9.262716064453125,-0.30036115646362305,0.46114015579223633,0.19695687294006348
1772881569006716000,9.2727158203125,-0.45711612701416016,0.37857484817504883,-0.007151365280151367
1772881569016716000,9.282716064453124,-0.6081500053405762,-0.10682535171508789,-0.1581580638885498
1772881569026716000,9.2927158203125,-0.5410418510437012,-0.5936241149902344,-0.10020232200622559
1772881569036716000,9.302716064453126,-0.5842781066894531,-0.987633228302002,-0.32056307792663574
1772881569046716000,9.3127158203125,-0.9172425270080566,-1.2650141716003418,-0.6244124174118042
1772881569056716000,9.322716064453125,-0.9597024917602539,-1.474797248840332,-0.8743140697479248
1772881569066716000,9.3327158203125,-0.9302883148193359,-1.4423885345458984,-1.3205859661102295
1772881569076716000,9.342716064453125,-0.3910236358642578,-1.21527099609375,-1.5233681201934814
1772881569086716000,9.3527158203125,-0.11498212814331055,-0.9313111305236816,-1.3717454671859741
1772881569096716000,9.362716064453124,-0.009853363037109375,-0.8602204322814941,-0.9701950550079346
1772881569106716000,9.3727158203125,0.27391481399536133,-1.034031867980957,-0.2854076623916626
1772881569116716000,9.382716064453126,1.0095224380493164,-1.3352265357971191,0.4892385005950928
1772881569126716000,9.3927158203125,2.0697174072265625,-1.3469915390014648,1.0502265691757202
1772881569136716000,9.402716064453125,3.218106746673584,-1.7382164001464844,1.470262050628662
1772881569146716000,9.4127158203125,3.587156295776367,-2.079826831817627,1.5986886024475098
1772881569156716000,9.422716064453125,3.1078176498413086,-1.9427714347839355,1.5532827377319336
1772881569166716000,9.4327158203125,2.444441318511963,-1.7150793075561523,1.2812581062316895
1772881569176716000,9.442716064453125,1.3441205024719238,-1.6073522567749023,0.7704829573631287
1772881569186716000,9.4527158203125,0.34601593017578125,-1.6368565559387207,0.1356731504201889
1772881569196716000,9.462716064453126,0.21099424362182617,-1.590510368347168,-0.12082292139530182
1772881569206716000,9.4727158203125,0.8860621452331543,-0.949190616607666,-0.00701507180929184
1772881569216716000,9.482716064453125,2.1227197647094727,-0.10379648208618164,0.24244758486747742
1772881569226716000,9.4927158203125,2.8338470458984375,0.6612296104431152,0.2881968915462494
1772881569236716000,9.502716064453125,3.408780097961426,1.089594841003418,0.4614222049713135
1772881569246716000,9.5127158203125,3.564971446990967,1.026839256286621,0.9450619220733643
1772881569256716000,9.522716064453125,2.7091755867004395,0.6518077850341797,0.7769033908843994
1772881569266716000,9.5327158203125,0.634124755859375,0.4297294616699219,0.31154292821884155
1772881569276716000,9.542716064453124,-1.5583510398864746,0.6057915687561035,0.39997851848602295
1772881569286716000,9.5527158203125,-2.68190336227417,1.5463595390319824,1.3404921293258667
1772881569296716000,9.562716064453125,-3.0333669185638428,2.7124710083007812,1.1206727027893066
1772881569306716000,9.5727158203125,-2.9019460678100586,3.4038920402526855,0.24954970180988312
1772881569316716000,9.582716064453125,-2.3998665809631348,3.489956855773926,-0.21102821826934814
1772881569326716000,9.5927158203125,-1.7533860206604004,2.907501697540283,0.2584387958049774
1772881569336716000,9.602716064453125,-0.9577155113220215,2.1261110305786133,0.5843192338943481
1772881569346716000,9.6127158203125,0.06396722793579102,1.2921795845031738,0.18889093399047852
1772881569356716000,9.622716064453124,1.3950071334838867,-0.04660224914550781,-0.8512357473373413
1772881569366716000,9.6327158203125,3.0760011672973633,-2.009929656982422,-1.1514955759048462
1772881569376716000,9.642716064453126,4.385111331939697,-3.6741981506347656,-0.30706363916397095
1772881569386716000,9.6527158203125,4.226076126098633,-4.070910453796387,0.3794674277305603
1772881569396716000,9.662716064453125,3.324819564819336,-3.834071159362793,-0.0037781596183776855
1772881569406716000,9.6727158203125,2.1497392654418945,-3.109175682067871,-0.8548212051391602
1772881569416716000,9.682716064453125,1.167431354522705,-2.7633700370788574,-1.7704068422317505
1772881569426716000,9.6927158203125,0.6705594062805176,-2.695723056793213,-2.139841079711914
1772881569436716000,9.702716064453124,0.305264949798584,-3.0201950073242188,-1.5681413412094116
1772881569446716000,9.7127158203125,0.34015417098999023,-3.538102149963379,-0.9255295991897583
1772881569456716000,9.722716064453126,0.5358576774597168,-3.5659866333007812,-0.5757229328155518
1772881569466716000,9.7327158203125,0.8328042030334473,-2.376953601837158,-0.33797621726989746
1772881569476716000,9.742716064453125,1.2385048866271973,-0.04322624206542969,0.29047954082489014
1772881569486716000,9.7527158203125,1.300577163696289,2.501352310180664,0.4157599210739136
1772881569496716000,9.762716064453125,1.051164150238037,4.386551856994629,0.2574746608734131
1772881569506716000,9.7727158203125,0.49752283096313477,5.434539318084717,0.0450749397277832
1772881569516716000,9.782716064453124,-0.7371783256530762,5.809268951416016,-0.27059340476989746
1772881569526716000,9.7927158203125,-2.2088241577148438,5.438896179199219,-0.7711963653564453
1772881569536716000,9.802716064453126,-3.419997215270996,4.279850482940674,-1.3135788440704346
1772881569546716000,9.8127158203125,-4.266685962677002,2.464779853820801,-1.2250443696975708
1772881569556716000,9.822716064453125,-4.901159286499023,0.40282106399536133,-0.8404010534286499
1772881569566716000,9.8327158203125,-4.93181037902832,-2.3364171981811523,-0.361255407333374
1772881569576716000,9.842716064453125,-3.0952796936035156,-6.165017604827881,0.3154904842376709
1772881569586716000,9.8527158203125,0.7370781898498535,-9.547748565673828,0.9866762161254883
1772881569596716000,9.862716064453124,5.645766735076904,-9.989534378051758,1.6722939014434814
1772881569606716000,9.8727158203125,9.017583847045898,-5.294247150421143,2.6899263858795166
1772881569616716000,9.882716064453126,9.246892929077148,1.494776725769043,3.248512029647827
1772881569626716000,9.8927158203125,6.699515342712402,3.6892881393432617,1.915788173675537
1772881569636716000,9.902716064453125,1.9004907608032227,4.164813995361328,-0.5190379619598389
1772881569646716000,9.9127158203125,-1.8980650901794434,4.51627254486084,-2.1336898803710938
1772881569656716000,9.922716064453125,-3.362987995147705,3.1512646675109863,-2.0757720470428467
1772881569666716000,9.9327158203125,-3.036827564239502,2.3140578269958496,-0.6882400512695312
1772881569676716000,9.942716064453125,-2.608839511871338,2.7064194679260254,-0.06786036491394043
1772881569686716000,9.9527158203125,-2.5277018547058105,3.549496650695801,-0.003610372543334961
1772881569696716000,9.962716064453126,-2.5149214267730713,4.261891841888428,-0.22435712814331055
1772881569706716000,9.9727158203125,-3.023195505142212,3.8064939975738525,-0.4975461959838867
1772881569716716000,9.982716064453125,-3.3946750164031982,2.6610684394836426,-0.35531020164489746
1772881569726716000,9.9927158203125,-3.5112955570220947,1.4807658195495605,-0.4408884048461914
1772881569736716000,10.002716064453125,-3.5013346672058105,0.6773386001586914,-0.7698712348937988
1772881569746716000,10.0127158203125,-3.2019567489624023,0.36547422409057617,-1.0136430263519287
1772881569756716000,10.022716064453125,-2.9180970191955566,0.42659425735473633,-1.0816740989685059
1772881569766716000,10.0327158203125,-2.8276784420013428,1.1117444038391113,-0.9891600608825684
1772881569776716000,10.042716064453124,-2.9428305625915527,2.1428170204162598,-0.726360559463501
1772881569786716000,10.0527158203125,-3.0569372177124023,2.667534351348877,-0.7532477378845215
1772881569796716000,10.062716064453125,-2.8833794593811035,2.307833671569824,-1.0032505989074707
1772881569806716000,10.0727158203125,-2.4204955101013184,1.259242057800293,-1.0603208541870117
1772881569816716000,10.082716064453125,-1.958059310913086,0.19297266006469727,-0.9297244548797607
1772881569826716000,10.0927158203125,-1.5148506164550781,-0.7315840721130371,-0.5636413097381592
1772881569836716000,10.102716064453125,-1.0991673469543457,-1.4826393127441406,0.008977890014648438
1772881569846716000,10.1127158203125,-0.7132673263549805,-1.9379239082336426,0.6704816818237305
1772881569856716000,10.122716064453124,-0.34191083908081055,-2.1451258659362793,1.3277249336242676
1772881569866716000,10.1327158203125,0.2087869644165039,-2.0252304077148438,1.8508310317993164
1772881569876716000,10.142716064453126,0.6041269302368164,-1.5726056098937988,2.2172658443450928
1772881569886716000,10.1527158203125,1.123547077178955,-1.3792576789855957,2.351611852645874
1772881569896716000,10.162716064453125,1.4827485084533691,-1.5936355590820312,2.1280734539031982
1772881569906716000,10.1727158203125,1.4192695617675781,-1.8398795127868652,1.5535738468170166
1772881569916716000,10.182716064453125,1.0407867431640625,-1.9279541969299316,0.721200704574585
1772881569926716000,10.1927158203125,0.3652787208557129,-1.7598376274108887,0.15646862983703613
1772881569936716000,10.202716064453124,-0.2235584259033203,-1.407236099243164,-0.15777146816253662
1772881569946716000,10.2127158203125,-1.066267967224121,-0.8776493072509766,-0.3170238733291626
1772881569956716000,10.222716064453126,-1.723273754119873,-0.32986879348754883,-0.3120598793029785
1772881569966716000,10.2327158203125,-1.942089557647705,0.24064064025878906,-0.14347553253173828
1772881569976716000,10.242716064453125,-2.197950839996338,0.6784915924072266,0.09689545631408691
1772881569986716000,10.2527158203125,-2.272599220275879,0.9617114067077637,0.31318747997283936
1772881569996716000,10.262716064453125,-1.7725343704223633,0.9179539680480957,0.4622453451156616
1772881570006716000,10.2727158203125,-0.968233585357666,0.7874693870544434,0.5467287302017212
1772881570016716000,10.282716064453124,-0.19110965728759766,0.5200395584106445,0.6349915862083435
1772881570026716000,10.2927158203125,0.7249760627746582,0.015540599822998047,0.5000908374786377
1772881570036716000,10.302716064453126,1.8534321784973145,-0.9511957168579102,0.18771342933177948
1772881570046716000,10.3127158203125,2.970852851867676,-2.222194194793701,0.1147342324256897
1772881570056716000,10.322716064453125,3.2872748374938965,-3.205932140350342,0.19548119604587555
1772881570066716000,10.3327158203125,2.982560634613037,-3.791971206665039,0.42651546001434326
1772881570076716000,10.342716064453125,2.5050177574157715,-3.602733612060547,0.7167669534683228
1772881570086716000,10.3527158203125,2.314958095550537,-3.1065874099731445,1.3809908628463745
1772881570096716000,10.362716064453124,2.1169495582580566,-2.61134672164917,2.589184045791626
1772881570106716000,10.3727158203125,1.6687006950378418,-2.121739387512207,2.793884038925171
1772881570116716000,10.382716064453126,1.4865508079528809,-1.8868017196655273,2.1543760299682617
1772881570126716000,10.3927158203125,1.347154140472412,-1.6302480697631836,1.518341302871704
1772881570136716000,10.402716064453125,0.9776420593261719,-1.0824408531188965,0.9211517572402954
1772881570146716000,10.4127158203125,0.42392492294311523,-0.37561798095703125,0.5597766637802124
1772881570156716000,10.422716064453125,0.14874744415283203,0.7499628067016602,0.46837207674980164
1772881570166716000,10.4327158203125,-0.22384166717529297,1.9278969764709473,1.0197898149490356
1772881570176716000,10.442716064453125,-0.5025110244750977,2.9807052612304688,1.3605995178222656
1772881570186716000,10.4527158203125,-0.6466765403747559,3.6948843002319336,0.9582442045211792
1772881570196716000,10.462716064453126,-1.2248921394348145,3.580284595489502,0.03216993808746338
1772881570206716000,10.4727158203125,-1.6841745376586914,2.4018287658691406,-0.7521834969520569
1772881570216716000,10.482716064453125,-2.106827735900879,0.8758926391601562,-0.6032076478004456
1772881570226716000,10.4927158203125,-1.8010458946228027,-0.22664308547973633,0.06810478866100311
1772881570236716000,10.502716064453125,-1.3876967430114746,-0.5279879570007324,0.4796174168586731
1772881570246716000,10.5127158203125,-0.7798943519592285,-0.3899106979370117,0.5368526577949524
1772881570256716000,10.522716064453125,-0.22744083404541016,0.07143545150756836,0.5738565921783447
1772881570266716000,10.5327158203125,0.3698549270629883,0.024090290069580078,0.5498502254486084
1772881570276716000,10.542716064453124,0.3805046081542969,0.31063413619995117,0.22341811656951904
1772881570286716000,10.5527158203125,0.35979270935058594,-0.39589786529541016,-0.09702077507972717
1772881570296716000,10.562716064453125,0.3792991638183594,-1.2058110237121582,-0.6397254467010498
1772881570306716000,10.5727158203125,0.6012382507324219,-1.9276056289672852,-0.827039897441864
1772881570316716000,10.582716064453125,1.2433199882507324,-2.513476848602295,-0.8223077058792114
1772881570326716000,10.5927158203125,2.024041175842285,-2.8609838485717773,-1.1334697008132935
1772881570336716000,10.602716064453125,2.5443038940429688,-2.437166213989258,-1.2486015558242798
1772881570346716000,10.6127158203125,2.4172134399414062,-1.633678913116455,-0.9136561155319214
1772881570356716000,10.622716064453124,2.0163168907165527,-0.638883113861084,-0.26795804500579834
1772881570366716000,10.6327158203125,1.2129721641540527,0.047116756439208984,0.27083516120910645
1772881570376716000,10.642716064453126,0.2909278869628906,-0.5098347663879395,0.28597593307495117
1772881570386716000,10.6527158203125,-0.12468862533569336,-1.0889463424682617,-0.048192501068115234
1772881570396716000,10.662716064453125,-0.5459012985229492,-1.1264185905456543,-0.2446918487548828
1772881570406716000,10.6727158203125,-0.9501032829284668,-0.9122681617736816,-0.41506218910217285
1772881570416716000,10.682716064453125,-0.9941816329956055,-0.48642396926879883,-0.6148419380187988
1772881570426716000,10.6927158203125,-0.895442008972168,-0.2979416847229004,-0.5576727390289307
1772881570436716000,10.702716064453124,-0.8490524291992188,-0.18196630477905273,-0.4153139591217041
1772881570446716000,10.7127158203125,-1.0733642578125,0.0010747909545898438,-0.4444422721862793
1772881570456716000,10.722716064453126,-1.3358826637268066,0.3954963684082031,-0.5967373847961426
1772881570466716000,10.7327158203125,-1.3404645919799805,0.5224170684814453,-0.6087198257446289
1772881570476716000,10.742716064453125,-1.7007784843444824,0.4524064064025879,-0.3448479175567627
1772881570486716000,10.7527158203125,-1.3442707061767578,0.13497447967529297,-0.2467784881591797
1772881570496716000,10.762716064453125,-0.07651567459106445,-0.2850990295410156,0.3067338466644287
1772881570506716000,10.7727158203125,1.3825764656066895,-0.9140944480895996,0.9997222423553467
1772881570516716000,10.782716064453124,2.199036121368408,-1.1494297981262207,1.3690896034240723
1772881570526716000,10.7927158203125,2.263291835784912,-0.5635843276977539,1.1515531539916992
1772881570536716000,10.802716064453126,1.7243881225585938,0.12700796127319336,0.5363640785217285
1772881570546716000,10.8127158203125,1.7119340896606445,0.41767311096191406,0.3036003112792969
1772881570556716000,10.822716064453125,1.4165425300598145,0.6525211334228516,0.016923189163208008
1772881570566716000,10.8327158203125,1.2187933921813965,1.0870370864868164,0.016548871994018555
1772881570576716000,10.842716064453125,0.18833494186401367,2.5773162841796875,0.10221672058105469
1772881570586716000,10.8527158203125,0.14920377731323242,2.493190288543701,0.5070514678955078
1772881570596716000,10.862716064453124,-1.0564522743225098,2.3139777183532715,0.41408252716064453
1772881570606716000,10.8727158203125,-1.9259605407714844,2.190843105316162,0.41497182846069336
1772881570616716000,10.882716064453126,-2.7488739490509033,1.8364343643188477,0.1313188076019287
1772881570626716000,10.8927158203125,-2.7811875343322754,1.347043514251709,-0.2984890937805176
1772881570636716000,10.902716064453125,-2.8112661838531494,1.2479777336120605,-0.6537721157073975
1772881570646716000,10.9127158203125,-2.84521484375,1.5816411972045898,-0.9869778156280518
1772881570656716000,10.922716064453125,-2.868917226791382,1.8727049827575684,-1.2008726596832275
1772881570666716000,10.9327158203125,-2.821868419647217,1.8012070655822754,-1.2785887718200684
1772881570676716000,10.942716064453125,-3.0557918548583984,1.3250551223754883,-1.2743964195251465
1772881570686716000,10.9527158203125,-3.2952704429626465,0.4122958183288574,-1.0002508163452148
1772881570696716000,10.962716064453126,-3.0288302898406982,-0.3576231002807617,-0.7832865715026855
1772881570706716000,10.9727158203125,-2.714136838912964,-0.7773985862731934,-0.6487774848937988
1772881570716716000,10.982716064453125,-2.392395496368408,-1.0400457382202148,-0.48615002632141113
1772881570726716000,10.9927158203125,-2.0755887031555176,-1.156419277191162,-0.2807631492614746
1772881570736716000,11.002716064453125,-1.514416217803955,-1.0412287712097168,-0.08835577964782715
1772881570746716000,11.0127158203125,-0.5784053802490234,-0.45918750762939453,0.1654651165008545
1772881570756716000,11.022716064453125,0.014088630676269531,0.7214221954345703,0.393237829208374
1772881570766716000,11.0327158203125,0.38858652114868164,1.5301856994628906,0.7578268051147461
1772881570776716000,11.042716064453124,0.32944488525390625,1.8345532417297363,0.9811205863952637
1772881570786716000,11.0527158203125,-0.2693605422973633,1.4629321098327637,1.2005653381347656
1772881570796716000,11.062716064453125,-0.9298238754272461,0.589261531829834,1.236726999282837
1772881570806716000,11.0727158203125,-1.5712480545043945,-0.5414724349975586,0.8340873718261719
1772881570816716000,11.082716064453125,-1.520634651184082,-1.4448356628417969,0.11448192596435547
1772881570826716000,11.0927158203125,-1.0546107292175293,-2.279827117919922,-0.5975415706634521
1772881570836716000,11.102716064453125,-0.13849163055419922,-2.8665771484375,-0.8433268070220947
1772881570846716000,11.1127158203125,0.8436522483825684,-2.8431053161621094,-0.7456463575363159
1772881570856716000,11.122716064453124,1.5698509216308594,-2.5628814697265625,-0.5444844961166382
1772881570866716000,11.1327158203125,1.9443273544311523,-2.258392810821533,-0.15734481811523438
1772881570876716000,11.142716064453126,1.9945430755615234,-2.228518486022949,0.5419703722000122
1772881570886716000,11.1527158203125,2.201022148132324,-2.140397071838379,1.0914748907089233
1772881570896716000,11.162716064453125,2.8414392471313477,-2.0100417137145996,1.3867204189300537
1772881570906716000,11.1727158203125,3.4107580184936523,-1.962526798248291,1.1036045551300049
1772881570916716000,11.182716064453125,3.0908455848693848,-1.8483762741088867,0.7287607192993164
1772881570926716000,11.1927158203125,2.12203311920166,-1.5885086059570312,0.6653316617012024
1772881570936716000,11.202716064453124,1.3372588157653809,-1.4004764556884766,0.6587419509887695
1772881570946716000,11.2127158203125,0.5650334358215332,-1.3852872848510742,0.6063125133514404
1772881570956716000,11.222716064453126,-0.19007301330566406,-1.490283489227295,0.4605002701282501
1772881570966716000,11.2327158203125,-1.13602876663208,-1.4638404846191406,-0.020601928234100342
1772881570976716000,11.242716064453125,-2.024158000946045,-1.1532201766967773,-0.2315279245376587
1772881570986716000,11.2527158203125,-1.8006787300109863,-0.48244571685791016,-0.12029218673706055
1772881570996716000,11.262716064453125,-0.8420290946960449,0.2729926109313965,0.42347946763038635
1772881571006716000,11.2727158203125,0.29702138900756836,1.1050710678100586,1.1965622901916504
1772881571016716000,11.282716064453124,1.2429022789001465,2.055159091949463,1.356012225151062
1772881571026716000,11.2927158203125,1.86183500289917,2.810588836669922,1.5548791885375977
1772881571036716000,11.302716064453126,2.110873222351074,3.432159423828125,1.6189773082733154
1772881571046716000,11.3127158203125,1.4027023315429688,3.275691032409668,0.8005892634391785
1772881571056716000,11.322716064453125,0.1693263053894043,2.520714282989502,0.4198668301105499
1772881571066716000,11.3327158203125,-0.7686829566955566,1.4191970825195312,0.1995861679315567
1772881571076716000,11.342716064453125,-1.1780996322631836,0.37039661407470703,0.5298235416412354
1772881571086716000,11.3527158203125,-0.961583137512207,-0.007667064666748047,1.4652602672576904
1772881571096716000,11.362716064453124,-0.32490110397338867,0.08721256256103516,2.060133457183838
1772881571106716000,11.3727158203125,0.1305375099182129,0.031031131744384766,1.3523402214050293
1772881571116716000,11.382716064453126,0.5847954750061035,-0.8398804664611816,0.17629216611385345
1772881571126716000,11.3927158203125,1.3452444076538086,-2.4816455841064453,-0.9241147041320801
1772881571136716000,11.402716064453125,2.2342963218688965,-3.8761825561523438,-0.48444122076034546
1772881571146716000,11.4127158203125,2.4354286193847656,-3.5791406631469727,0.9189621210098267
1772881571156716000,11.422716064453125,2.198164939880371,-2.7959094047546387,0.8201758861541748
1772881571166716000,11.4327158203125,1.0885090827941895,-1.3232512474060059,0.3253578841686249
1772881571176716000,11.442716064453125,0.08654594421386719,-0.4132957458496094,-0.6107206344604492
1772881571186716000,11.4527158203125,-0.3022885322570801,0.6802520751953125,-1.6165268421173096
1772881571196716000,11.462716064453126,-0.4451003074645996,1.6532635688781738,-1.7284400463104248
1772881571206716000,11.4727158203125,-0.1658158302307129,1.8276453018188477,-1.4292809963226318
1772881571216716000,11.482716064453125,0.9915609359741211,0.8682947158813477,-1.1374248266220093
1772881571226716000,11.4927158203125,2.421448230743408,0.2029247283935547,-0.9332540035247803
1772881571236716000,11.502716064453125,3.224109172821045,0.21561670303344727,-0.5868958234786987
1772881571246716000,11.5127158203125,3.118443012237549,0.5641365051269531,0.013714194297790527
1772881571256716000,11.522716064453125,1.879554271697998,0.5470514297485352,0.7890174388885498
1772881571266716000,11.5327158203125,0.6647114753723145,0.010492324829101562,1.0816445350646973
1772881571276716000,11.542716064453124,-0.6537899971008301,-0.8753185272216797,0.9236514568328857
1772881571286716000,11.5527158203125,-2.07175350189209,-1.5450291633605957,0.2697725296020508
1772881571296716000,11.562716064453125,-2.700230598449707,-1.579270839691162,-0.6630904674530029
1772881571306716000,11.5727158203125,-2.7752280235290527,-1.2685327529907227,-0.9824821949005127
1772881571316716000,11.582716064453125,-2.519648313522339,-1.1282868385314941,-0.683459997177124
1772881571326716000,11.5927158203125,-2.923954963684082,-1.226973533630371,-0.4814565181732178
1772881571336716000,11.602716064453125,-2.7286036014556885,-1.5292463302612305,-0.38063597679138184
1772881571346716000,11.6127158203125,-1.3419766426086426,-1.4805383682250977,-0.20836973190307617
1772881571356716000,11.622716064453124,0.8525910377502441,-1.0302681922912598,0.49669742584228516
1772881571366716000,11.6327158203125,3.4271340370178223,0.47099876403808594,1.27577543258667
1772881571376716000,11.642716064453126,3.849337100982666,2.6909923553466797,1.8410272598266602
1772881571386716000,11.6527158203125,2.4108777046203613,3.9824681282043457,1.8871026039123535
1772881571396716000,11.662716064453125,0.023510456085205078,3.2766523361206055,1.4056968688964844
1772881571406716000,11.6727158203125,-1.0374016761779785,0.3256363868713379,0.5382158756256104
1772881571416716000,11.682716064453125,0.526451587677002,-2.984055995941162,0.2442312240600586
1772881571426716000,11.6927158203125,2.0085439682006836,-3.287684440612793,0.46483802795410156
1772881571436716000,11.702716064453124,2.806924819946289,-1.9257802963256836,1.4793190956115723
1772881571446716000,11.7127158203125,2.858245372772217,0.4049835205078125,1.8724465370178223
1772881571456716000,11.722716064453126,1.6407051086425781,2.373532295227051,1.5956883430480957
1772881571466716000,11.7327158203125,-0.48376941680908203,3.134036064147949,0.8779263496398926
1772881571476716000,11.742716064453125,-2.2328481674194336,2.86767578125,0.1877894401550293
1772881571486716000,11.7527158203125,-2.857222318649292,2.2867183685302734,-0.31574082374572754
1772881571496716000,11.762716064453125,-2.80938720703125,2.032815456390381,-0.5076320171356201
1772881571506716000,11.7727158203125,-2.858635187149048,2.4620985984802246,-0.7734920978546143
1772881571516716000,11.782716064453124,-3.1831822395324707,3.377427577972412,-1.1973326206207275
1772881571526716000,11.7927158203125,-3.961379051208496,4.139825820922852,-1.7053194046020508
1772881571536716000,11.802716064453126,-4.859042167663574,4.021234035491943,-1.935265064239502
1772881571546716000,11.8127158203125,-5.478694915771484,2.5526232719421387,-1.793355941772461
1772881571556716000,11.822716064453125,-5.395065784454346,0.1450786590576172,-1.5558838844299316
1772881571566716000,11.8327158203125,-4.672286510467529,-2.110650062561035,-1.7962652444839478
1772881571576716000,11.842716064453125,-3.866227865219116,-3.9989013671875,-1.8798718452453613
1772881571586716000,11.8527158203125,-3.1064035892486572,-4.118720054626465,-1.7942180633544922
1772881571596716000,11.862716064453124,-2.331343173980713,-2.1938157081604004,-1.4336696863174438
1772881571606716000,11.8727158203125,-1.6187758445739746,0.2485189437866211,-0.8603603839874268
1772881571616716000,11.882716064453126,-0.6633667945861816,1.1014842987060547,-0.4781363010406494
1772881571626716000,11.8927158203125,0.28267431259155273,0.34066295623779297,-0.1697545051574707
1772881571636716000,11.902716064453125,0.6293177604675293,-0.37253284454345703,0.23400020599365234
1772881571646716000,11.9127158203125,1.0089812278747559,-0.12572479248046875,0.6890668869018555
1772881571656716000,11.922716064453125,1.0822410583496094,0.2605609893798828,1.0529780387878418
1772881571666716000,11.9327158203125,0.8144903182983398,0.35515260696411133,1.1733441352844238
1772881571676716000,11.942716064453125,0.7346253395080566,-0.23716306686401367,0.9910876750946045
1772881571686716000,11.9527158203125,0.6864662170410156,-1.1301541328430176,0.867995023727417
1772881571696716000,11.962716064453126,0.8180499076843262,-2.0029287338256836,0.9275155067443848
1772881571706716000,11.9727158203125,1.2105941772460938,-2.5510177612304688,0.8770856857299805
1772881571716716000,11.982716064453125,1.3835411071777344,-2.694758892059326,0.8555731773376465
1772881571726716000,11.9927158203125,1.3395156860351562,-2.1980834007263184,0.5448987483978271
1772881571736716000,12.002716064453125,0.9640755653381348,-1.669957160949707,0.3268495798110962
1772881571746716000,12.0127158203125,0.5844693183898926,-1.3128352165222168,0.009275436401367188
1772881571756716000,12.022716064453125,-0.022983074188232422,-1.00217866897583,-0.25494611263275146
1772881571766716000,12.0327158203125,-0.6425232887268066,-0.9018068313598633,-0.27468979358673096
1772881571776716000,12.042716064453124,-1.139686107635498,-0.8843803405761719,-0.06175196170806885
1772881571786716000,12.0527158203125,-1.1354384422302246,-0.7319889068603516,0.02924901247024536
1772881571796716000,12.062716064453125,-0.4021568298339844,-0.8434782028198242,0.5119255185127258
1772881571806716000,12.0727158203125,-0.01808309555053711,-1.058579444885254,0.7816812992095947
1772881571816716000,12.082716064453125,0.1324915885925293,-0.8408517837524414,1.1850550174713135
1772881571826716000,12.0927158203125,0.6647911071777344,-0.42017412185668945,1.734972596168518
1772881571836716000,12.102716064453125,0.4399147033691406,0.585906982421875,1.1306746006011963
1772881571846716000,12.1127158203125,-0.3391098976135254,1.1117348670959473,0.24925220012664795
1772881571856716000,12.122716064453124,-0.9643487930297852,1.5542378425598145,-0.6014949083328247
1772881571866716000,12.1327158203125,-0.8637475967407227,1.9005932807922363,-1.226933240890503
1772881571876716000,12.142716064453126,-0.20601987838745117,1.731992244720459,-1.4492464065551758
1772881571886716000,12.1527158203125,1.8482418060302734,1.2264580726623535,-0.11882823705673218
1772881571896716000,12.162716064453125,4.318563461303711,0.9951753616333008,1.7028279304504395
1772881571906716000,12.1727158203125,4.949387550354004,0.9217982292175293,2.8326525688171387
1772881571916716000,12.182716064453125,3.50823974609375,0.881904125213623,2.3672420978546143
1772881571926716000,12.1927158203125,1.5985822677612305,0.34398365020751953,1.7406842708587646
1772881571936716000,12.202716064453124,0.11612796783447266,-0.5241575241088867,1.2693818807601929
1772881571946716000,12.2127158203125,-0.7320346832275391,-1.0539422035217285,0.7090587019920349
1772881571956716000,12.222716064453126,-0.9616250991821289,-1.0210833549499512,0.20756880939006805
1772881571966716000,12.2327158203125,-0.7586708068847656,-0.6052942276000977,0.1801554262638092
1772881571976716000,12.242716064453125,-0.4579615592956543,-0.017688274383544922,0.295838326215744
1772881571986716000,12.2527158203125,-0.41686105728149414,0.4527626037597656,0.27473822236061096
1772881571996716000,12.262716064453125,-0.5715212821960449,0.5499415397644043,0.15022650361061096
1772881572006716000,12.2727158203125,-0.3868889808654785,0.3443899154663086,-0.11762294173240662
1772881572016716000,12.282716064453124,-0.13465261459350586,0.24289798736572266,-0.3135518729686737
1772881572026716000,12.2927158203125,0.2035212516784668,-0.20706748962402344,-0.5340577363967896
1772881572036716000,12.302716064453126,0.3903689384460449,-0.4131331443786621,-0.6922492980957031
1772881572046716000,12.3127158203125,0.49329423904418945,-0.46126747131347656,-0.9488928318023682
1772881572056716000,12.322716064453125,0.7250175476074219,-0.36916065216064453,-1.417255163192749
1772881572066716000,12.3327158203125,0.9764108657836914,-0.05513572692871094,-1.5692553520202637
1772881572076716000,12.342716064453125,1.1322135925292969,0.3741774559020996,-1.4383617639541626
1772881572086716000,12.3527158203125,1.0672621726989746,0.514674186706543,-1.167723298072815
1772881572096716000,12.362716064453124,1.0752930641174316,-0.08698797225952148,-0.8993474841117859
1772881572106716000,12.3727158203125,1.0235052108764648,-0.7879338264465332,-0.7411975860595703
1772881572116716000,12.382716064453126,0.7745399475097656,-1.3668937683105469,-0.555644154548645
1772881572126716000,12.3927158203125,0.7448248863220215,-1.8428187370300293,-0.3336679935455322
1772881572136716000,12.402716064453125,0.5822768211364746,-2.1921844482421875,-0.13014626502990723
1772881572146716000,12.4127158203125,0.647857666015625,-2.4475083351135254,-0.3250861167907715
1772881572156716000,12.422716064453125,0.6312909126281738,-2.1359286308288574,-0.5836832523345947
1772881572166716000,12.4327158203125,-0.163055419921875,-2.0887556076049805,-0.5293776988983154
1772881572176716000,12.442716064453125,-0.4385337829589844,-1.7784781455993652,-0.5454466342926025
1772881572186716000,12.4527158203125,-0.11502695083618164,-1.6848249435424805,-0.5587198734283447
1772881572196716000,12.462716064453126,0.190338134765625,-1.6088542938232422,-0.3070652484893799
1772881572206716000,12.4727158203125,0.21708297729492188,-1.5783686637878418,0.08191633224487305
1772881572216716000,12.482716064453125,0.35459470748901367,-1.639291763305664,0.310227632522583
1772881572226716000,12.4927158203125,0.6880292892456055,-1.3180899620056152,0.321796178817749
1772881572236716000,12.502716064453125,1.3932137489318848,-0.557314395904541,-0.05262947082519531
1772881572246716000,12.5127158203125,1.2654809951782227,0.935788631439209,0.009110212326049805
1772881572256716000,12.522716064453125,0.9944334030151367,2.4742841720581055,-0.258256196975708
1772881572266716000,12.5327158203125,0.47612428665161133,3.1799917221069336,-0.6623542308807373
1772881572276716000,12.542716064453124,0.18310070037841797,2.8432412147521973,-0.6541197299957275
1772881572286716000,12.5527158203125,0.3722248077392578,2.0830397605895996,-0.13945364952087402
1772881572296716000,12.562716064453125,0.48186779022216797,1.690711498260498,0.039703369140625
1772881572306716000,12.5727158203125,0.7725014686584473,0.9677267074584961,0.4639747142791748
1772881572316716000,12.582716064453125,0.6575074195861816,0.9869909286499023,0.5514590740203857
1772881572326716000,12.5927158203125,-0.03541421890258789,1.3241281509399414,0.3544728755950928
