time,seconds_elapsed,z,y,x
1772881559805440500,0.0714404296875,8.401200294494629,7.903493404388428,1.8352949619293213
1772881559822785300,0.088785400390625,8.202595710754395,7.118647575378418,0.05024927482008934
1772881559840130300,0.10613037109375,8.516056060791016,7.156932353973389,-1.5553346872329712
1772881559857475300,0.123475341796875,8.011170387268066,6.697510719299316,-2.400001049041748
1772881559874820400,0.1408203125,7.444071292877197,5.0464630126953125,-1.7826528549194336
1772881559892165400,0.158165283203125,7.683353424072266,3.5772697925567627,-1.2131611108779907
1772881559909510400,0.175510498046875,7.396214962005615,2.478964328765869,-2.258824586868286
1772881559926855400,0.19285546875,6.465406894683838,1.3878371715545654,-3.170490026473999
1772881559944200400,0.210200439453125,6.252445697784424,1.6007983684539795,-4.338187217712402
1772881559961545500,0.22754541015625,6.087340831756592,0.016749758273363113,-4.610969066619873
1772881559978890500,0.244890380859375,4.156332969665527,-2.0195422172546387,-3.9672999382019043
1772881559996235500,0.262235595703125,2.469393014907837,-3.4002010822296143,-4.304687976837158
1772881560013580500,0.27958056640625,-0.5335994362831116,-2.447857618331909,-8.894122123718262
1772881560030925600,0.296925537109375,2.201396942138672,-3.792623996734619,-11.861222267150879
1772881560048270600,0.3142705078125,5.2737812995910645,-4.603790760040283,-13.636695861816406
1772881560065615600,0.33161572265625,6.419943332672119,-6.7310099601745605,-13.115060806274414
1772881560082960400,0.34896044921875,4.883750915527344,-7.767102241516113,-10.636096954345703
1772881560100305400,0.366305419921875,3.239881753921509,-9.293723106384277,-8.413164138793945
1772881560117650400,0.383650390625,5.290530681610107,-12.914063453674316,-7.913064479827881
1772881560134995500,0.400995361328125,10.990234375,-12.019147872924805,-16.575082778930664
1772881560152340500,0.418340576171875,12.708281517028809,-7.063612461090088,-21.98046875
1772881560169685500,0.435685546875,6.065805435180664,-4.41475772857666,-19.697715759277344
1772881560187030500,0.453030517578125,-0.794417142868042,-3.1800613403320312,-14.423934936523438
1772881560204375600,0.47037548828125,-2.6392834186553955,-0.6125625967979431,-16.424335479736328
1772881560221720600,0.487720458984375,-4.642076015472412,6.668796539306641,-25.84966278076172
1772881560239065600,0.505065673828125,-6.455835342407227,10.619346618652344,-24.385255813598633
1772881560256410600,0.52241064453125,-3.656233072280884,10.743773460388184,-19.54218292236328
1772881560273755600,0.539755615234375,-3.1657042503356934,9.820143699645996,-16.75933074951172
1772881560291100700,0.5571005859375,-2.4717857837677,9.20279598236084,-17.101503372192383
1772881560308445700,0.57444580078125,-4.369294166564941,7.850851058959961,-19.535003662109375
1772881560325790700,0.591790771484375,-10.169496536254883,2.715853691101074,-16.689937591552734
1772881560343135700,0.6091357421875,-7.8628153800964355,-3.201596736907959,-14.297115325927734
1772881560360480800,0.626480712890625,-7.800601959228516,-8.178668022155762,-9.647860527038574
1772881560377825500,0.643825439453125,-9.717252731323242,-14.088939666748047,-3.617947816848755
1772881560395170800,0.6611708984375,-7.853243827819824,-15.964912414550781,-3.862015724182129
1772881560412515600,0.678515625,-2.2325034141540527,-16.496118545532227,-8.563912391662598
1772881560429860600,0.695860595703125,0.31824541091918945,-12.339786529541016,-5.120640277862549
1772881560447205600,0.71320556640625,1.5026925802230835,-6.63769006729126,-4.744967460632324
1772881560464550700,0.730550537109375,-0.5647061467170715,-3.2709884643554688,-5.467599868774414
1772881560481895700,0.747895751953125,-6.013163089752197,-2.014756679534912,-3.87876558303833
1772881560499240700,0.76524072265625,-10.04985523223877,2.084148406982422,-5.8719868659973145
1772881560516585700,0.782585693359375,-1.6558332443237305,3.8213376998901367,-11.045269012451172
1772881560533930800,0.7999306640625,-1.2299108505249023,1.2921242713928223,-12.378071784973145
1772881560551275800,0.81727587890625,-0.35892340540885925,-2.746960401535034,-7.192824840545654
1772881560568620800,0.834620849609375,-0.07896314561367035,-3.9936211109161377,-8.638090133666992
1772881560585965800,0.8519658203125,2.541177749633789,-2.888136863708496,-14.737394332885742
1772881560603310800,0.869310791015625,8.439485549926758,-4.505684852600098,-15.6227388381958
1772881560620655900,0.88665576171875,6.0538411140441895,-6.735795974731445,-13.694124221801758
1772881560638001000,0.9040009765625,4.177868366241455,-10.308279991149902,-9.44447135925293
1772881560655346000,0.921345947265625,-2.038684844970703,-17.61835289001465,-2.964707374572754
1772881560672691000,0.93869091796875,-11.7056884765625,-16.52243995666504,-1.2251251935958862
1772881560690036000,0.956035888671875,-6.072983741760254,-10.315458297729492,-8.056633949279785
1772881560707381000,0.973381103515625,-5.663811206817627,-7.487142086029053,-5.886343479156494
1772881560724726000,0.99072607421875,-2.4981069564819336,-8.786444664001465,-3.950550079345703
1772881560742070800,1.00807080078125,-0.7465606927871704,-8.941978454589844,-5.357530117034912
1772881560759415800,1.025415771484375,-1.2634103298187256,-8.506484031677246,-7.377072334289551
1772881560776760800,1.0427607421875,1.6701902151107788,-6.946363925933838,-9.07119083404541
1772881560794105900,1.06010595703125,0.3086741268634796,-5.788238048553467,-8.930013656616211
1772881560811451000,1.077450927734375,-0.1459621787071228,-5.6207404136657715,-8.164310455322266
1772881560828796000,1.0947958984375,1.3663017749786377,-6.017949104309082,-7.025327205657959
1772881560846141000,1.112140869140625,2.0650060176849365,-6.065805435180664,-7.523034572601318
1772881560863486000,1.12948583984375,1.7730815410614014,-6.764509677886963,-8.989834785461426
1772881560880831000,1.1468310546875,-0.02871387079358101,-6.063412666320801,-12.358928680419922
1772881560898176000,1.164176025390625,-0.9068797826766968,-4.4482574462890625,-12.978670120239258
1772881560915521000,1.18152099609375,-1.7371892929077148,-4.309473514556885,-11.660224914550781
1772881560932866000,1.198865966796875,-1.1653046607971191,-5.359922885894775,-9.004191398620605
1772881560950211000,1.216211181640625,-0.11964113265275955,-7.2335028648376465,-5.726024627685547
1772881560967556000,1.23355615234375,-0.2967100143432617,-5.048855781555176,-4.199403762817383
1772881560984901000,1.250901123046875,-0.8279166221618652,-5.92223596572876,-2.6703901290893555
1772881561002246100,1.26824609375,-1.0480563640594482,-8.958727836608887,-1.8687944412231445
1772881561019591200,1.285591064453125,2.2779672145843506,-9.554540634155273,-2.5938198566436768
1772881561036936200,1.302936279296875,6.652047157287598,-13.057633399963379,-4.390829563140869
1772881561054281200,1.32028125,7.456035137176514,-9.18843936920166,-4.642076015472412
1772881561071626200,1.337626220703125,4.3549370765686035,-5.881557941436768,-5.656632900238037
1772881561088971300,1.35497119140625,5.259424209594727,-5.623133182525635,-7.384250640869141
1772881561106316300,1.37231640625,8.003992080688477,-9.525827407836914,-5.764309883117676
1772881561123661000,1.3896611328125,6.460621356964111,-18.599411010742188,-2.2133610248565674
1772881561141006300,1.40700634765625,0.8111668825149536,-20.516061782836914,-1.5002998113632202
1772881561158351000,1.42435107421875,-0.6484549641609192,-13.24427318572998,2.5292134284973145
1772881561175696100,1.441696044921875,-4.914857864379883,8.044670104980469,3.328416347503662
1772881561193041200,1.459041259765625,4.560719966888428,1.074377417564392,3.3882367610931396
1772881561210386200,1.47638623046875,5.675775527954102,-5.015356063842773,2.974278450012207
1772881561227731200,1.493731201171875,4.177868366241455,-4.977071285247803,0.4737788736820221
1772881561245076200,1.511076171875,3.046063184738159,-5.319244861602783,0.20817556977272034
1772881561262421200,1.528421142578125,2.9216363430023193,-6.329015731811523,-0.6628118753433228
1772881561279766300,1.545766357421875,2.8809585571289062,-7.637889862060547,-1.6773686408996582
1772881561297111300,1.563111328125,3.8117663860321045,-10.210174560546875,-1.8424733877182007
1772881561314456300,1.580456298828125,3.1585259437561035,-11.641081809997559,-1.6414763927459717
1772881561331801300,1.59780126953125,4.570291042327881,-19.941783905029297,0.9547362327575684
1772881561349146400,1.615146484375,-0.10289137065410614,-21.9326114654541,-2.8211379051208496
1772881561366491400,1.632491455078125,2.761317253112793,-15.352350234985352,-3.6538400650024414
1772881561383836400,1.64983642578125,3.617947816848755,-13.794622421264648,-3.060420274734497
1772881561401181400,1.667181396484375,3.3858439922332764,-11.322836875915527,-1.6055840253829956
1772881561418526500,1.6845263671875,5.477170944213867,-6.970292568206787,0.2584248483181
1772881561435871500,1.70187158203125,6.008377552032471,-5.98444938659668,1.6869399547576904
1772881561453216500,1.719216552734375,3.9361932277679443,-6.881757736206055,2.8666014671325684
1772881561470561500,1.7365615234375,4.208974838256836,-9.805787086486816,2.792423963546753
1772881561487906600,1.753906494140625,2.6727828979492188,-12.007184028625488,2.612962245941162
1772881561505251600,1.77125146484375,7.046862602233887,-9.891928672790527,1.2059825658798218
1772881561522596600,1.7885966796875,4.350151538848877,-7.932207107543945,1.057627558708191
1772881561539941600,1.805941650390625,-2.6703901290893555,-9.506684303283691,3.9696927070617676
1772881561557286700,1.82328662109375,1.5314065217971802,-11.095519065856934,2.651247501373291
1772881561574631700,1.840631591796875,2.3880369663238525,-9.872786521911621,2.407179594039917
1772881561591976700,1.857976806640625,4.460221290588379,-7.5804619789123535,3.1968109607696533
1772881561609321700,1.87532177734375,4.646861553192139,-7.396214962005615,2.2325034141540527
1772881561626666800,1.892666748046875,3.94815731048584,-7.465606689453125,1.1461620330810547
1772881561644011800,1.91001171875,3.4025938510894775,-8.37727165222168,2.6847469806671143
1772881561661356800,1.927356689453125,3.7663028240203857,-6.69990348815918,2.933600664138794
1772881561678701800,1.944701904296875,2.3401806354522705,-5.989234924316406,2.63449764251709
1772881561696046800,1.962046875,2.8354947566986084,-5.986842155456543,2.581855535507202
1772881561713391900,1.979391845703125,2.65842604637146,-6.486942291259766,2.4335005283355713
1772881561730737000,1.99673681640625,3.1680972576141357,-6.850651264190674,1.911865234375
1772881561748082000,2.01408203125,3.294916868209839,-8.142775535583496,1.2275179624557495
1772881561765427000,2.031427001953125,4.4650068283081055,-8.334200859069824,0.7058826684951782
1772881561782772000,2.04877197265625,3.81655216217041,-8.02791976928711,1.093519926071167
1772881561800117000,2.066116943359375,3.8763725757598877,-8.09252643585205,1.703689694404602
1772881561817462000,2.0834619140625,3.806980848312378,-8.441878318786621,1.9070796966552734
1772881561834807000,2.10080712890625,4.063013076782227,-8.504091262817383,1.7084753513336182
1772881561852152000,2.118152099609375,4.350151538848877,-7.901100158691406,1.5553346872329712
1772881561869497000,2.1354970703125,3.548556089401245,-7.4225358963012695,1.2969099283218384
1772881561886842000,2.152842041015625,3.6610186100006104,-7.4464640617370605,1.0552347898483276
1772881561904187100,2.170187255859375,3.077169895172119,-7.36032247543335,1.6821542978286743
1772881561921532200,2.1875322265625,3.9864425659179688,-7.302894592285156,1.97407865524292
1772881561938877200,2.204877197265625,4.342973232269287,-7.312466144561768,1.6965112686157227
1772881561956222200,2.22222216796875,3.4002010822296143,-7.735995769500732,0.8039883971214294
1772881561973567200,2.239567138671875,2.3952155113220215,-7.915457248687744,-0.5216353535652161
1772881561990912300,2.256912353515625,2.720639228820801,-8.102097511291504,-0.7680960893630981
1772881562008257300,2.27425732421875,3.7016966342926025,-10.313065528869629,-0.14835500717163086
1772881562025602300,2.291602294921875,4.362115859985352,-14.45025634765625,0.23688943684101105
1772881562042947300,2.308947265625,5.539384365081787,-17.362321853637695,1.423729419708252
1772881562060292400,2.326292236328125,5.536991596221924,-13.837693214416504,0.7417750358581543
1772881562077637400,2.343637451171875,5.481956481933594,-10.798809051513672,-0.6891329288482666
1772881562094982400,2.360982421875,3.830909013748169,-12.406785011291504,-0.2799602448940277
1772881562112327400,2.378327392578125,3.893122434616089,-10.918449401855469,-0.18903298676013947
1772881562129672400,2.39567236328125,3.672982692718506,-10.60977554321289,1.8592232465744019
1772881562147017500,2.413017578125,3.9696927070617676,-10.262816429138184,2.038684844970703
1772881562164362500,2.430362548828125,6.3122663497924805,-9.554540634155273,0.16510476171970367
1772881562181707500,2.44770751953125,7.561319351196289,-9.322437286376953,1.373480200767517
1772881562199052500,2.465052490234375,7.044469833374023,-8.475378036499023,2.4526431560516357
1772881562216397600,2.4823974609375,6.953542709350586,-5.685346603393555,0.49292147159576416
1772881562233742600,2.49974267578125,6.350551128387451,-7.080362319946289,0.1986042857170105
1772881562251087600,2.517087646484375,3.9457645416259766,-8.327022552490234,0.28235307335853577
1772881562268432600,2.5344326171875,2.053041934967041,-11.69851016998291,2.337787628173828
1772881562285777700,2.551777587890625,1.428515076637268,-9.820143699645996,1.0432707071304321
1772881562303122700,2.569122802734375,2.9359934329986572,-9.525827407836914,0.2967100143432617
1772881562320467700,2.5864677734375,3.651447296142578,-6.738188743591309,-1.3519448041915894
1772881562337812700,2.603812744140625,2.7804598808288574,-7.506284713745117,-1.1892328262329102
1772881562355157800,2.62115771484375,-1.0839486122131348,-7.17368221282959,0.13639089465141296
1772881562372502800,2.638502685546875,-0.7154539823532104,-8.982656478881836,1.4859428405761719
1772881562389847800,2.655847900390625,1.674975872039795,-8.791230201721191,0.8303094506263733
1772881562407192800,2.67319287109375,1.404586911201477,-1.8855443000793457,-2.1655044555664062
1772881562424537900,2.690537841796875,5.60399055480957,-8.401200294494629,-2.1367905139923096
1772881562441883000,2.7078828125,5.063212871551514,-13.916656494140625,-0.6293123364448547
1772881562459228000,2.725227783203125,2.6488547325134277,-31.80300521850586,3.4193434715270996
1772881562476573000,2.742572998046875,-3.2853455543518066,-11.095519065856934,1.4213366508483887
1772881562493918000,2.75991796875,-0.2512463629245758,-3.2614171504974365,-0.6149554252624512
1772881562511263000,2.777262939453125,1.734796404838562,-1.9836499691009521,0.3206382393836975
1772881562528608000,2.79460791015625,1.423729419708252,-5.017749309539795,1.1365907192230225
1772881562545953000,2.811953125,0.9044869542121887,-9.657432556152344,-0.7800601720809937
1772881562563298000,2.829298095703125,1.7419748306274414,-14.048261642456055,-1.672582983970642
1772881562580643000,2.84664306640625,1.9094724655151367,-20.437097549438477,-2.1200408935546875
1772881562597988000,2.863988037109375,3.208775281906128,-18.62333869934082,-1.2059825658798218
1772881562615333000,2.8813330078125,1.8305093050003052,-10.753344535827637,1.8711873292922974
1772881562632678100,2.89867822265625,0.7489534616470337,-3.6538400650024414,5.0464630126953125
1772881562650023200,2.916023193359375,3.273381471633911,-1.2681959867477417,5.32403039932251
1772881562667368200,2.9333681640625,5.072783946990967,-6.625725746154785,0.9020941257476807
1772881562684713200,2.950713134765625,2.775674343109131,-12.75613784790039,-0.45224347710609436
1772881562702058200,2.968058349609375,2.2085752487182617,-12.55274772644043,-0.20578274130821228
1772881562719403300,2.9854033203125,2.9766714572906494,-10.013962745666504,0.9044869542121887
1772881562736748300,3.002748291015625,3.6945180892944336,-9.470791816711426,2.3976082801818848
1772881562754093300,3.02009326171875,3.0317063331604004,-8.518448829650879,3.744767427444458
1772881562771438300,3.037438232421875,2.8737800121307373,-7.623532772064209,2.9838497638702393
1772881562788783400,3.054783447265625,2.029113531112671,-6.809973239898682,2.4502503871917725
1772881562806128400,3.07212841796875,1.184447169303894,-6.750152587890625,2.0745773315429688
1772881562823473700,3.0894736328125,1.1485549211502075,-7.408178806304932,1.947757601737976
1772881562840818700,3.106818603515625,1.069591760635376,-9.221938133239746,1.4189438819885254
1772881562858163700,3.124163818359375,1.306481122970581,-10.258030891418457,0.6628118753433228
1772881562875508700,3.1415087890625,1.6007983684539795,-7.977670669555664,0.4211367964744568
1772881562892853800,3.158853759765625,2.2707886695861816,-6.38883638381958,0.4139583110809326
1772881562910198800,3.17619873046875,2.344966173171997,-5.946164131164551,1.2131611108779907
1772881562927543800,3.193543701171875,2.287538528442383,-6.2428741455078125,2.1678972244262695
1772881562944888800,3.210888916015625,2.076970100402832,-6.91765022277832,2.612962245941162
1772881562962233900,3.22823388671875,1.8735800981521606,-8.00638484954834,2.8905298709869385
1772881562979579000,3.245578857421875,1.9453648328781128,-9.008976936340332,2.7421748638153076
1772881562996924000,3.262923828125,2.313859462738037,-9.145368576049805,2.2301106452941895
1772881563014269000,3.28026904296875,3.105883836746216,-9.650253295898438,1.6582261323928833
1772881563031614000,3.297614013671875,3.4719855785369873,-9.4660062789917,1.1126625537872314
1772881563048959000,3.314958984375,3.500699520111084,-9.274580955505371,1.2011969089508057
1772881563066304000,3.332303955078125,3.4002010822296143,-9.410971641540527,1.3830515146255493
1772881563083649000,3.34964892578125,2.581855535507202,-9.487542152404785,1.196411371231079
1772881563100994000,3.366994140625,2.3952155113220215,-9.370293617248535,1.0648061037063599
1772881563118339000,3.384339111328125,2.8666014671325684,-9.008976936340332,1.210768222808838
1772881563135684000,3.40168408203125,3.9122650623321533,-8.760123252868652,1.275374412536621
1772881563153029000,3.419029052734375,4.972285270690918,-8.7505521774292,1.3304094076156616
1772881563170374100,3.4363740234375,5.706881999969482,-8.994620323181152,1.3591232299804688
1772881563187719200,3.45371923828125,5.1565327644348145,-8.97787094116211,1.007378339767456
1772881563205064200,3.471064208984375,5.048855781555176,-9.255437850952148,1.2490534782409668
1772881563222409500,3.488409423828125,6.245266914367676,-10.650453567504883,1.2346965074539185
1772881563239754500,3.50575439453125,7.377072334289551,-12.114861488342285,1.306481122970581
1772881563257099500,3.523099609375,5.632704734802246,-12.614960670471191,2.0650060176849365
1772881563274444500,3.540444580078125,4.225724697113037,-11.559725761413574,2.2540390491485596
1772881563291789600,3.55778955078125,3.9218363761901855,-9.729216575622559,1.8640087842941284
1772881563309134600,3.575134521484375,5.505885124206543,-9.018548965454102,1.3495519161224365
1772881563326479600,3.592479736328125,6.829115867614746,-8.4562349319458,1.34476637840271
1772881563343824600,3.60982470703125,6.403193473815918,-7.735995769500732,1.5792629718780518
1772881563361169700,3.627169677734375,6.3529438972473145,-7.530212879180908,1.0265209674835205
1772881563378514700,3.6445146484375,5.084748268127441,-7.908278942108154,0.4570291340351105
1772881563395859700,3.661859619140625,3.809373617172241,-8.511270523071289,1.2299108505249023
1772881563413204700,3.679204833984375,4.051048755645752,-8.664410591125488,1.6103696823120117
1772881563430549800,3.6965498046875,5.302495002746582,-9.068798065185547,1.9166508913040161
1772881563447894800,3.713894775390625,5.4867424964904785,-9.710074424743652,1.703689694404602
1772881563465241900,3.731241943359375,4.673182487487793,-10.214960098266602,1.2705888748168945
1772881563482584800,3.748584716796875,4.512863636016846,-9.4660062789917,0.09092725813388824
1772881563499929900,3.765929931640625,5.139782905578613,-8.886942863464355,-0.13160525262355804
1772881563517275100,3.783275146484375,5.862415313720703,-9.116654396057129,1.0408778190612793
1772881563534620000,3.800619873046875,5.843272686004639,-9.884750366210938,1.7324036359786987
1772881563551965200,3.817965087890625,5.271388053894043,-9.906285285949707,2.1272194385528564
1772881563569310200,3.835310302734375,4.8191447257995605,-9.305686950683594,2.730210542678833
1772881563586655200,3.8526552734375,4.223331928253174,-9.461220741271973,2.3234307765960693
1772881563604000300,3.870000244140625,4.362115859985352,-9.052047729492188,1.8999011516571045
1772881563621345300,3.88734521484375,4.4650068283081055,-8.496912956237793,1.7060825824737549
1772881563638690300,3.904690185546875,5.395814895629883,-8.609375953674316,2.2444677352905273
1772881563656035300,3.922035400390625,5.690132141113281,-8.702695846557617,2.9312076568603516
1772881563673380400,3.93938037109375,5.230710506439209,-8.669196128845215,2.8450660705566406
1772881563690725400,3.956725341796875,3.7184464931488037,-8.425128936767578,2.045863389968872
1772881563708070400,3.9740703125,3.326023578643799,-8.02074146270752,1.6558332443237305
1772881563725415400,3.99141552734375,5.154139995574951,-7.795815944671631,2.4191436767578125
1772881563742760400,4.008760498046875,5.501099109649658,-6.39601469039917,2.9479575157165527
1772881563760105500,4.02610546875,4.47697114944458,-6.3840508460998535,2.675175666809082
1772881563777450800,4.04345068359375,4.711467742919922,-7.8819580078125,2.706282377243042
1772881563794795800,4.060795654296875,5.580062389373779,-7.142575740814209,2.9838497638702393
1772881563812140800,4.078140869140625,5.97727108001709,-6.3601226806640625,3.105883836746216
1772881563829485800,4.09548583984375,4.931607246398926,-5.776273727416992,3.067598581314087
1772881563846830800,4.112830810546875,5.120640277862549,-6.922435760498047,3.1585259437561035
1772881563864175900,4.13017578125,5.0943193435668945,-6.427121639251709,3.7112679481506348
1772881563881521000,4.14752099609375,4.328616142272949,-5.965306758880615,4.060619831085205
1772881563898866000,4.164865966796875,5.465207099914551,-6.872186660766602,4.462614059448242
1772881563916211000,4.1822109375,5.881557941436768,-7.302894592285156,4.340580463409424
1772881563933556200,4.19955615234375,6.623332977294922,-6.656832695007324,3.8907296657562256
1772881563950901200,4.2169013671875,6.142375946044922,-6.003592014312744,3.390629768371582
1772881563968246300,4.234246337890625,5.582455158233643,-6.008377552032471,3.4337005615234375
1772881563985591300,4.25159130859375,4.462614059448242,-5.477170944213867,3.060420274734497
1772881564002936300,4.268936279296875,3.893122434616089,-5.924628734588623,2.9288148880004883
1772881564020281300,4.28628125,4.019941806793213,-6.915257453918457,2.4837498664855957
1772881564037626400,4.30362646484375,4.393222332000732,-7.379465103149414,2.4646072387695312
1772881564054971400,4.320971435546875,4.989035129547119,-6.692724704742432,2.280359983444214
1772881564072316400,4.33831640625,5.26899528503418,-5.536991596221924,2.0482561588287354
1772881564089661700,4.35566162109375,5.213960647583008,-5.194818019866943,2.2229323387145996
1772881564107006700,4.3730068359375,5.111069202423096,-5.601597785949707,2.5292134284973145
1772881564124351700,4.390351806640625,4.845465660095215,-6.419943332672119,2.7110681533813477
1772881564141696800,4.40769677734375,4.931607246398926,-7.482356548309326,2.335394859313965
1772881564159041800,4.425041748046875,5.682953834533691,-8.63330364227295,2.0171494483947754
1772881564176386800,4.44238671875,6.247660160064697,-9.087940216064453,1.5672988891601562
1772881564193731800,4.45973193359375,6.807580471038818,-9.528220176696777,1.3232308626174927
1772881564211076900,4.477076904296875,7.001399040222168,-9.415757179260254,1.4476577043533325
1772881564228422000,4.494421875,6.826723098754883,-9.372686386108398,1.4093725681304932
1772881564245767200,4.51176708984375,6.324230194091797,-9.633503913879395,1.2945170402526855
1772881564263112200,4.5291123046875,5.979663848876953,-9.963713645935059,0.9260223507881165
1772881564280457200,4.546457275390625,5.886343479156494,-9.77707290649414,1.4165509939193726
1772881564297802200,4.56380224609375,6.2428741455078125,-8.889336585998535,1.5984054803848267
1772881564315147300,4.581147216796875,7.3292155265808105,-8.547162055969238,1.3471591472625732
1772881564332492300,4.5984921875,7.546962738037109,-8.70508861541748,1.222732424736023
1772881564349837300,4.61583740234375,6.374479293823242,-8.499305725097656,0.4211367964744568
1772881564367182300,4.633182373046875,5.606383323669434,-7.767102241516113,0.13160525262355804
1772881564384527400,4.65052734375,6.199803352355957,-7.149754047393799,0.15553347766399384
1772881564401872400,4.667872314453125,7.142575740814209,-7.810173034667969,1.2418749332427979
1772881564419217400,4.685217529296875,7.714460372924805,-8.240880966186523,2.5938198566436768
1772881564436562700,4.702562744140625,7.822137355804443,-7.5708909034729,2.0506489276885986
1772881564453907700,4.71990771484375,8.140382766723633,-8.082955360412598,1.9645073413848877
1772881564471252700,4.737252685546875,6.927221775054932,-8.805587768554688,2.03629207611084
1772881564488597800,4.75459765625,5.709274768829346,-9.080761909484863,2.0961127281188965
1772881564505942800,4.77194287109375,5.398207664489746,-8.446663856506348,1.5912270545959473
1772881564523287800,4.789287841796875,5.414957523345947,-7.731209754943848,0.760917603969574
1772881564540632800,4.8066328125,5.285745143890381,-8.279166221618652,0.24167509377002716
1772881564557977900,4.823977783203125,4.986642360687256,-9.10229778289795,0.12442677468061447
1772881564575323000,4.841322998046875,5.814558982849121,-9.030512809753418,-0.04785645380616188
1772881564592668200,4.858668212890625,5.7786664962768555,-7.41535758972168,0.7202396392822266
1772881564610013200,4.87601318359375,4.862215518951416,-7.214360237121582,1.5649060010910034
1772881564627358200,4.893358154296875,4.914857864379883,-9.06401252746582,1.6510475873947144
1772881564644703200,4.910703125,5.2354960441589355,-10.657631874084473,1.2634103298187256
1772881564662048300,4.92804833984375,5.60399055480957,-11.040483474731445,1.770688772201538
1772881564679393300,4.945393310546875,6.058627128601074,-10.76530933380127,2.6009981632232666
1772881564696738300,4.96273828125,5.553741455078125,-9.875179290771484,2.6009981632232666
1772881564714083300,4.980083251953125,5.974878311157227,-8.882157325744629,2.352144718170166
1772881564731428400,4.997428466796875,5.804987907409668,-7.441678524017334,2.2157537937164307
1772881564748773600,5.014773681640625,5.371886730194092,-7.267002582550049,2.5938198566436768
1772881564766118700,5.03211865234375,4.883750915527344,-7.255038261413574,2.785245656967163
1772881564783463700,5.049463623046875,5.560919761657715,-7.319644451141357,2.840280532836914
1772881564800808700,5.06680859375,5.663811206817627,-6.673582553863525,3.493520975112915
1772881564818153700,5.08415380859375,5.3934221267700195,-5.931807518005371,4.048655986785889
1772881564835498800,5.101498779296875,5.460421085357666,-6.7621169090271,4.543970108032227
1772881564852843800,5.11884375,6.142375946044922,-6.920042991638184,4.342973232269287
1772881564870189000,5.13618896484375,6.482156753540039,-6.807580471038818,3.84765887260437
1772881564887534000,5.1535341796875,7.058826923370361,-7.343572616577148,4.1036906242370605
1772881564904879000,5.170879150390625,7.219145774841309,-6.616154670715332,4.096512317657471
1772881564922224000,5.18822412109375,5.67338228225708,-4.831109046936035,3.6442689895629883
1772881564939569200,5.205569091796875,4.967499732971191,-4.893322467803955,3.476771354675293
1772881564956914200,5.2229140625,4.9986066818237305,-5.675775527954102,3.6849467754364014
1772881564974259200,5.24025927734375,5.1876397132873535,-6.204588890075684,3.34995174407959
1772881564991604200,5.257604248046875,4.986642360687256,-5.994020938873291,2.691925525665283
1772881565008949500,5.274949462890625,4.429114818572998,-5.91505765914917,1.8855443000793457
1772881565026294500,5.29229443359375,4.206582069396973,-6.0777692794799805,1.5912270545959473
1772881565043639600,5.3096396484375,4.185046672821045,-6.269195556640625,1.9932212829589844
1772881565060984600,5.326984619140625,4.716253280639648,-6.9583282470703125,2.4095723628997803
1772881565078329600,5.34432958984375,5.144568920135498,-7.499105930328369,2.557927370071411
1772881565095674600,5.361674560546875,5.364708423614502,-6.884150981903076,2.043470621109009
1772881565113020000,5.37902001953125,5.680561065673828,-6.013163089752197,1.7443677186965942
1772881565130365000,5.396364990234375,5.654240131378174,-5.5728840827941895,2.273181438446045
1772881565147710000,5.4137099609375,5.2115678787231445,-6.118447303771973,3.005385160446167
1772881565165055000,5.431054931640625,5.190032482147217,-6.721438884735107,3.081955671310425
1772881565182400000,5.44839990234375,5.371886730194092,-7.451249599456787,2.6321048736572266
1772881565199745000,5.4657451171875,6.008377552032471,-7.9489569664001465,2.062613010406494
1772881565217090300,5.48309033203125,6.556334018707275,-8.13798999786377,1.9142581224441528
1772881565234435300,5.500435302734375,6.656832695007324,-8.324629783630371,2.1128623485565186
1772881565251780400,5.5177802734375,6.120840549468994,-8.403593063354492,2.1894326210021973
1772881565269125400,5.53512548828125,5.938985824584961,-8.142775535583496,1.7994025945663452
1772881565286470400,5.552470458984375,5.592026710510254,-7.927421569824219,1.2346965074539185
1772881565303815400,5.5698154296875,5.515456199645996,-8.358129501342773,0.9308080077171326
1772881565321160400,5.587160400390625,5.831308841705322,-9.080761909484863,0.8350951075553894
1772881565338505500,5.60450537109375,7.231110095977783,-9.540184020996094,0.9571290612220764
1772881565355850800,5.621850830078125,8.793622970581055,-9.803394317626953,1.3806586265563965
1772881565373195800,5.63919580078125,9.999606132507324,-9.877572059631348,1.2849457263946533
1772881565390540800,5.656540771484375,8.918049812316895,-10.100104331970215,1.3280165195465088
1772881565407885800,5.6738857421875,7.590033531188965,-9.640682220458984,0.4163511395454407
1772881565425230800,5.69123095703125,7.377072334289551,-9.442078590393066,0.7322037220001221
1772881565442576000,5.708575927734375,6.91765022277832,-8.578269004821777,1.3854442834854126
1772881565459921000,5.7259208984375,6.534798622131348,-7.003791809082031,1.8544375896453857
1772881565477266200,5.74326611328125,6.608976364135742,-5.924628734588623,0.9930213689804077
1772881565494611200,5.760611083984375,6.276373863220215,-5.436492919921875,0.5958128571510315
1772881565511956200,5.777956298828125,5.460421085357666,-5.735595703125,1.2586246728897095
1772881565529301200,5.79530126953125,4.926821708679199,-6.625725746154785,1.3663017749786377
1772881565546646300,5.812646240234375,5.20678186416626,-7.733603000640869,0.9116654396057129
1772881565563991300,5.8299912109375,5.221138954162598,-8.171489715576172,0.7202396392822266
1772881565581336300,5.84733642578125,5.364708423614502,-7.637889862060547,0.882951557636261
1772881565598681600,5.864681640625,5.651846885681152,-7.058826923370361,0.37806597352027893
1772881565616026600,5.882026611328125,5.661418437957764,-8.109275817871094,0.22013968229293823
1772881565633371600,5.89937158203125,5.85284423828125,-9.387042999267578,0.02392822690308094
1772881565650716700,5.916716552734375,6.31944465637207,-10.147960662841797,0.6460621356964111
1772881565668061700,5.934061767578125,7.018148899078369,-11.665010452270508,1.6007983684539795
1772881565685406700,5.95140673828125,7.142575740814209,-11.502298355102539,2.2157537937164307
1772881565702751700,5.968751708984375,6.608976364135742,-9.57607650756836,2.2947168350219727
1772881565720097000,5.986096923828125,5.38624382019043,-7.544569969177246,2.3808584213256836
1772881565737442000,6.003442138671875,4.5822553634643555,-7.2095746994018555,2.5770699977874756
1772881565754787000,6.020787109375,6.262016773223877,-7.848458290100098,2.6488547325134277
1772881565772132000,6.038132080078125,6.245266914367676,-8.511270523071289,2.8689942359924316
1772881565789477000,6.05547705078125,5.398207664489746,-7.716853141784668,3.335594654083252
1772881565806822100,6.072822265625,5.134997367858887,-6.436692714691162,3.38105845451355
1772881565824167400,6.09016748046875,4.984249591827393,-5.927021503448486,3.335594654083252
1772881565841512400,6.107512451171875,5.091926574707031,-5.855237007141113,3.105883836746216
1772881565858857500,6.124857421875,5.807380676269531,-6.065805435180664,2.799602508544922
1772881565876202500,6.142202392578125,5.838487148284912,-6.424728870391846,3.0317063331604004
1772881565893547500,6.159547607421875,6.240481376647949,-6.350551128387451,3.0867412090301514
1772881565910892800,6.176892822265625,7.678567886352539,-6.86261510848999,3.7710886001586914
1772881565928237800,6.19423779296875,6.254838466644287,-5.771488189697266,4.271188259124756
1772881565945582800,6.211582763671875,5.625525951385498,-5.92223596572876,3.972085475921631
1772881565962927900,6.228927978515625,4.816751956939697,-5.788238048553467,3.6634113788604736
1772881565980273000,6.24627294921875,5.424529075622559,-5.5728840827941895,3.5365917682647705
1772881565997618000,6.263617919921875,5.371886730194092,-5.529813289642334,3.273381471633911
1772881566014963000,6.280962890625,4.835894584655762,-5.831308841705322,2.6177480220794678
1772881566032308200,6.29830810546875,4.584648132324219,-6.008377552032471,2.321038007736206
1772881566049653200,6.3156533203125,4.871787071228027,-6.350551128387451,2.1607189178466797
1772881566066998300,6.332998291015625,4.996213912963867,-5.838487148284912,2.007578134536743
1772881566084343300,6.35034326171875,4.649254322052002,-5.709274768829346,2.4646072387695312
1772881566101688600,6.3676884765625,4.47697114944458,-6.087340831756592,2.2444677352905273
1772881566119033600,6.38503369140625,4.400400638580322,-5.577669620513916,1.5792629718780518
1772881566136378600,6.402378662109375,4.979464054107666,-6.527620315551758,2.115255117416382
1772881566153723600,6.4197236328125,6.484549522399902,-7.616354465484619,3.2829527854919434
1772881566171068700,6.437068603515625,7.69531774520874,-6.819544315338135,3.830909013748169
1772881566188413700,6.45441357421875,8.042277336120605,-6.099305152893066,2.7565317153930664
1772881566205759000,6.471759033203125,7.190432071685791,-7.066005229949951,2.122433662414551
1772881566223104000,6.48910400390625,6.183053493499756,-8.195417404174805,2.1918256282806396
1772881566240449000,6.506448974609375,6.187839508056641,-9.193224906921387,2.3545374870300293
1772881566257794000,6.5237939453125,6.845865726470947,-8.671588897705078,2.155933141708374
1772881566275139000,6.54113916015625,7.283751964569092,-7.728816986083984,1.667797327041626
1772881566292484400,6.558484375,8.23130989074707,-7.901100158691406,1.7826528549194336
1772881566309829400,6.575829345703125,8.252845764160156,-8.786444664001465,1.7395820617675781
1772881566327174400,6.59317431640625,7.283751964569092,-9.265008926391602,1.8065811395645142
1772881566344519400,6.61051953125,6.1088762283325195,-8.6907320022583,0.8997012972831726
1772881566361864400,6.627864501953125,5.608776092529297,-8.070990562438965,0.7585247755050659
1772881566379209700,6.645209716796875,6.252445697784424,-7.149754047393799,-0.20578274130821228
1772881566396554500,6.662554443359375,8.030312538146973,-7.5565338134765625,-1.5960127115249634
1772881566413899800,6.679899658203125,11.734402656555176,-9.65503978729248,-0.8207381963729858
1772881566431244800,6.697244873046875,11.490334510803223,-9.276973724365234,3.680161237716675
1772881566448589800,6.71458984375,7.860422611236572,-6.853044033050537,3.4265220165252686
1772881566465934800,6.731934814453125,5.898307800292969,-6.281159400939941,0.8709874153137207
1772881566483280000,6.74927978515625,5.335994720458984,-6.1088762283325195,0.0526420995593071
1772881566500625200,6.766625244140625,5.13021183013916,-5.910272121429443,0.794417142868042
1772881566517970200,6.78397021484375,5.5034918785095215,-6.510870456695557,0.9116654396057129
1772881566535315200,6.801315185546875,5.850451469421387,-7.501499176025391,0.8374879360198975
1772881566552660200,6.81866015625,6.118447303771973,-8.042277336120605,0.7178468108177185
1772881566570005200,6.836005126953125,5.958128452301025,-7.800601959228516,0.1459621787071228
1772881566587350300,6.853350341796875,6.317051887512207,-7.066005229949951,-0.1986042857170105
1772881566604695600,6.870695556640625,6.393621921539307,-7.302894592285156,-0.062213387340307236
1772881566622040600,6.88804052734375,6.403193473815918,-8.566305160522461,0.7920243144035339
1772881566639385600,6.905385498046875,7.424928665161133,-10.554740905761719,0.9475577473640442
1772881566656730600,6.922730712890625,7.932207107543945,-10.693524360656738,1.7156537771224976
1772881566674075600,6.94007568359375,7.692924976348877,-9.097511291503906,2.3090739250183105
1772881566691421000,6.9574208984375,5.197210788726807,-6.967899322509766,3.2279176712036133
1772881566708766000,6.974765869140625,4.855037212371826,-6.628118515014648,3.428914785385132
1772881566726111000,6.992111083984375,6.687939167022705,-7.4847493171691895,3.239881753921509
1772881566743456000,7.0094560546875,6.238088607788086,-8.049455642700195,3.326023578643799
1772881566760801000,7.026801025390625,4.735395908355713,-7.800601959228516,2.7349963188171387
1772881566778146000,7.04414599609375,3.9457645416259766,-6.652047157287598,1.887937068939209
1772881566795491300,7.0614912109375,5.989234924316406,-6.7692952156066895,3.5509488582611084
1772881566812836400,7.07883642578125,8.274380683898926,-6.096911907196045,5.589633464813232
1772881566830181400,7.096181396484375,8.769695281982422,-4.5583271980285645,5.565705299377441
1772881566847526400,7.1135263671875,8.784051895141602,-4.682754039764404,4.319045066833496
1772881566864871700,7.13087158203125,7.992027759552002,-6.764509677886963,3.955335855484009
1772881566882216700,7.148216796875,8.13798999786377,-7.714460372924805,4.369294166564941
1772881566899561700,7.165561767578125,5.759523868560791,-5.840879917144775,3.94815731048584
1772881566916906800,7.18290673828125,4.613361835479736,-4.661218643188477,3.242274761199951
1772881566934251800,7.200251708984375,4.462614059448242,-4.273581027984619,3.1657042503356934
1772881566951597000,7.21759716796875,4.591826438903809,-4.01754903793335,3.452843189239502
1772881566968942000,7.234942138671875,4.828716278076172,-4.168296813964844,3.345165967941284
1772881566986287000,7.252287109375,3.4552359580993652,-3.273381471633911,2.0650060176849365
1772881567003632000,7.269632080078125,2.778067111968994,-4.6540398597717285,2.091326951980591
1772881567020977400,7.286977294921875,4.479363918304443,-10.229316711425781,2.3808584213256836
1772881567038322400,7.304322509765625,6.860222339630127,-14.735001564025879,2.909672260284424
1772881567055667500,7.32166748046875,8.374878883361816,-9.997213363647461,3.28773832321167
1772881567073012500,7.339012451171875,9.657432556152344,-5.142175674438477,2.9479575157165527
1772881567090357500,7.356357421875,6.786045074462891,-6.027520179748535,1.6965112686157227
1772881567107702800,7.373702880859375,4.6995038986206055,-6.783652305603027,1.6319050788879395
1772881567125047800,7.3910478515625,4.634897232055664,-6.64486837387085,2.2372891902923584
1772881567142392800,7.408392822265625,4.634897232055664,-5.8959150314331055,2.3401806354522705
1772881567159737900,7.42573779296875,4.505684852600098,-5.161318302154541,1.7252250909805298
1772881567177083000,7.443082763671875,4.453042984008789,-5.443671703338623,1.3758729696273804
1772881567194428200,7.46042822265625,3.7112679481506348,-6.369693756103516,0.7082754969596863
1772881567211773200,7.477773193359375,3.735196113586426,-7.073183536529541,-0.34695929288864136
1772881567229118200,7.4951181640625,5.230710506439209,-8.109275817871094,-0.275174617767334
1772881567246463200,7.512463134765625,8.271987915039062,-9.31047248840332,1.6031911373138428
1772881567263808500,7.52980859375,12.272787094116211,-10.200602531433105,3.5916268825531006
1772881567281153500,7.547153564453125,15.393028259277344,-10.348958015441895,5.01296329498291
1772881567298498600,7.56449853515625,9.506684303283691,-9.109476089477539,4.082155227661133
1772881567315843600,7.581843505859375,4.000799655914307,-7.755138397216797,2.5698914527893066
1772881567333188600,7.599188720703125,2.6273193359375,-6.750152587890625,0.380458801984787
1772881567350534000,7.616533935546875,5.589633464813232,-6.0849480628967285,0.040677983313798904
1772881567367879000,7.63387890625,7.917850017547607,-5.72841739654541,-0.22492532432079315
1772881567385224000,7.651223876953125,8.346165657043457,-6.123233318328857,-0.11006984114646912
1772881567402569000,7.66856884765625,7.188039302825928,-7.066005229949951,0.9810572862625122
1772881567419914000,7.6859140625,6.233303070068359,-7.848458290100098,1.093519926071167
1772881567437259300,7.70325927734375,5.726024627685547,-8.15234661102295,0.08374879509210587
1772881567454604300,7.720604248046875,5.307280540466309,-8.49452018737793,-0.28953152894973755
1772881567471949300,7.73794921875,5.5728840827941895,-9.779465675354004,-0.5144568681716919
1772881567489294300,7.75529443359375,6.6831536293029785,-12.004791259765625,-0.4331009089946747
1772881567506639400,7.772639404296875,6.807580471038818,-11.44247817993164,0.7154539823532104
1772881567523984600,7.789984619140625,6.64486837387085,-9.34875774383545,0.6652047038078308
1772881567541329700,7.80732958984375,7.044469833374023,-9.059226989746094,-0.05024927482008934
1772881567558674700,7.8246748046875,7.542177200317383,-8.762516975402832,-0.1579262912273407
1772881567576019700,7.842019775390625,7.549355506896973,-8.475378036499023,-0.1698904037475586
1772881567593364700,7.85936474609375,6.340980052947998,-7.161718368530273,-0.4307080805301666
1772881567610710000,7.8767099609375,5.225924491882324,-5.355136871337891,-0.031106693670153618
1772881567628055000,7.894054931640625,5.91505765914917,-5.00578498840332,0.8566305041313171
1772881567645400000,7.911400146484375,6.874579429626465,-5.97727108001709,2.258824586868286
1772881567662745000,7.9287451171875,6.975078105926514,-7.334001541137695,3.799802303314209
1772881567680090000,7.946090087890625,5.888736724853516,-8.475378036499023,4.0079779624938965
1772881567697435400,7.963435302734375,4.697110652923584,-8.61176872253418,3.046063184738159
1772881567714780400,7.980780517578125,4.618147850036621,-8.226524353027344,1.770688772201538
1772881567732125400,7.99812548828125,4.000799655914307,-8.061419486999512,1.557727575302124
1772881567749470500,8.015470458984375,3.8811583518981934,-7.970492362976074,1.5672988891601562
1772881567766815700,8.032815673828125,4.364508628845215,-8.516056060791016,1.9142581224441528
1772881567784160800,8.050160888671876,8.520841598510742,-8.102097511291504,2.56510591506958
1772881567801505800,8.067505859375,10.006784439086914,-4.622933387756348,4.223331928253174
1772881567818850800,8.084850830078125,7.276573657989502,-3.4408788681030273,4.622933387756348
1772881567836195800,8.10219580078125,4.689932346343994,-7.714460372924805,4.118047714233398
1772881567853541000,8.119541015625,6.1088762283325195,-10.195816993713379,4.1659040451049805
1772881567870886100,8.13688623046875,6.166304111480713,-8.774480819702148,3.8500516414642334
1772881567888231200,8.154231201171875,4.759324073791504,-6.044270038604736,2.9144580364227295
1772881567905576400,8.171576416015625,3.8883368968963623,-4.467400074005127,1.9046868085861206
1772881567922921500,8.18892138671875,3.3547372817993164,-3.7184464931488037,1.7826528549194336
1772881567940266500,8.2062666015625,3.1920254230499268,-3.500699520111084,2.313859462738037
1772881567957611500,8.223611572265625,2.746960401535034,-3.9074792861938477,2.5531418323516846
1772881567974956800,8.240956787109376,3.146561861038208,-4.9292144775390625,2.1918256282806396
1772881567992301800,8.2583017578125,3.7663028240203857,-6.008377552032471,2.1535403728485107
1772881568009646800,8.275646728515625,4.426722049713135,-7.262216567993164,2.4430718421936035
1772881568026991900,8.292991943359375,5.340780258178711,-7.960920810699463,3.263810157775879
1772881568044337000,8.3103369140625,7.561319351196289,-8.104490280151367,4.146761417388916
1772881568061682200,8.32768212890625,9.836894035339355,-8.111668586730957,4.40757942199707
1772881568079027200,8.345027099609375,10.353743553161621,-9.205188751220703,4.340580463409424
1772881568096372200,8.362372314453125,8.389236450195312,-8.805587768554688,3.9457645416259766
1772881568113717200,8.37971728515625,6.563512325286865,-8.437092781066895,3.34995174407959
1772881568131062500,8.3970625,5.367101192474365,-7.82692289352417,2.407179594039917
1772881568148407600,8.414407470703125,4.620540618896484,-6.819544315338135,0.7704889178276062
1772881568165752600,8.431752685546876,4.242474555969238,-6.4079790115356445,-0.22971096634864807
1772881568183097600,8.44909765625,4.3310089111328125,-6.38883638381958,-0.6364908218383789
1772881568200442600,8.466442626953125,6.553941249847412,-7.23589563369751,-0.3756731450557709
1772881568217788000,8.483787841796875,8.865407943725586,-8.901300430297852,0.3086741268634796
1772881568235133000,8.5011328125,10.554740905761719,-11.217552185058594,0.7465606927871704
1772881568252478000,8.51847802734375,9.853643417358398,-11.119446754455566,1.6701902151107788
1772881568269823000,8.535822998046875,7.936992645263672,-10.131211280822754,1.954936146736145
1772881568287168300,8.553168212890625,7.812565803527832,-8.425128936767578,0.9403793215751648
1772881568304513300,8.57051318359375,8.796015739440918,-6.348158359527588,0.7058826684951782
1772881568321858300,8.5878583984375,8.772088050842285,-5.259424209594727,1.8496519327163696
1772881568339203300,8.605203369140625,7.872386455535889,-5.888736724853516,1.8999011516571045
1772881568356548400,8.62254833984375,6.1710896492004395,-7.204789161682129,1.0145567655563354
1772881568373893600,8.6398935546875,5.144568920135498,-7.231110095977783,1.0839486122131348
1772881568391238700,8.65723876953125,4.867001056671143,-6.472585201263428,0.9954141974449158
1772881568408583700,8.674583740234375,5.134997367858887,-6.441478729248047,0.6675975322723389
1772881568425928700,8.6919287109375,5.477170944213867,-7.056434154510498,0.4019941985607147
1772881568443274000,8.70927392578125,6.424728870391846,-7.915457248687744,0.32542386651039124
1772881568460619000,8.726618896484375,6.836294174194336,-8.520841598510742,0.4426721930503845
1772881568477964000,8.743964111328125,7.618747234344482,-8.81515884399414,-0.3517449200153351
1772881568495309000,8.76130908203125,8.154739379882812,-9.387042999267578,-0.1866401731967926
1772881568512654300,8.778654296875,8.312665939331055,-9.745966911315918,0.6269195079803467
1772881568529999400,8.795999267578125,7.420143127441406,-9.461220741271973,1.8400806188583374
1772881568547344400,8.813344482421876,6.2500529289245605,-8.334200859069824,2.6392834186553955
1772881568564689400,8.830689453125,5.9676995277404785,-7.310073375701904,2.1200408935546875
1772881568582034400,8.848034423828125,6.240481376647949,-7.436892986297607,2.012363910675049
1772881568599379700,8.865379638671875,5.699703693389893,-7.846065521240234,3.0029923915863037
1772881568616724700,8.882724853515626,5.333601474761963,-7.812565803527832,3.7423746585845947
1772881568634069800,8.90006982421875,4.7952165603637695,-6.618547439575195,3.548556089401245
1772881568651415000,8.9174150390625,4.893322467803955,-5.410171985626221,3.10109806060791
1772881568668760000,8.934760009765625,5.8959150314331055,-5.5106706619262695,3.2685956954956055
1772881568686105000,8.95210498046875,6.50608491897583,-5.680561065673828,3.4193434715270996
1772881568703450000,8.9694501953125,6.290730953216553,-5.31685209274292,2.7876384258270264
1772881568720795100,8.986795166015625,6.484549522399902,-5.400600910186768,2.840280532836914
1772881568738140400,9.004140380859376,7.29810905456543,-6.276373863220215,3.4959139823913574
1772881568755485400,9.0214853515625,6.757331371307373,-5.539384365081787,4.005585193634033
1772881568772830500,9.03883056640625,5.826523303985596,-5.190032482147217,4.622933387756348
1772881568790175500,9.056175537109375,5.111069202423096,-4.95074987411499,4.902893543243408
1772881568807520800,9.073520751953126,5.2283172607421875,-5.383851051330566,4.194618225097656
1772881568824865800,9.09086572265625,4.66361141204834,-5.4628143310546875,2.950350284576416
1772881568842210800,9.1082109375,4.776073932647705,-5.867201328277588,2.335394859313965
1772881568859555800,9.125555908203125,4.898108005523682,-6.190232276916504,2.146361827850342
1772881568876901000,9.142901123046874,4.862215518951416,-5.838487148284912,2.352144718170166
1772881568894246100,9.16024609375,4.656432628631592,-5.764309883117676,3.19441819190979
1772881568911591200,9.177591064453125,4.926821708679199,-6.290730953216553,3.720839262008667
1772881568928936400,9.1949365234375,4.989035129547119,-6.477370738983154,3.2590243816375732
1772881568946281500,9.212281494140624,5.546562671661377,-6.640082836151123,2.7637102603912354
1772881568963626500,9.22962646484375,6.144768714904785,-6.668796539306641,2.785245656967163
1772881568980971500,9.246971435546875,6.422336101531982,-6.305087566375732,2.9216363430023193
1772881568998316800,9.26431689453125,6.4319071769714355,-6.125626087188721,2.7278177738189697
1772881569015661800,9.281661865234375,6.154339790344238,-6.92482852935791,2.3712873458862305
1772881569033006800,9.2990068359375,6.1399827003479,-7.788637638092041,2.053041934967041
1772881569050351900,9.316351806640625,5.773880958557129,-8.331808090209961,1.4404792785644531
1772881569067697200,9.333697265625,5.965306758880615,-8.34855842590332,0.49292147159576416
1772881569085042200,9.351042236328125,6.484549522399902,-8.039883613586426,0.4163511395454407
1772881569102387200,9.36838720703125,6.8482584953308105,-8.295916557312012,1.0169496536254883
1772881569119732200,9.385732177734376,8.374878883361816,-8.654839515686035,1.820937991142273
1772881569137077500,9.403077392578124,10.116853713989258,-9.305686950683594,2.062613010406494
1772881569154422500,9.420422607421875,9.573683738708496,-9.226723670959473,1.8089739084243774
1772881569171767600,9.437767578125,7.917850017547607,-9.013762474060059,0.9667003750801086
1772881569189112600,9.455112548828126,6.664011001586914,-9.097511291503906,-0.014356935396790504
1772881569206457900,9.472457763671875,7.95134973526001,-8.059026718139648,0.15074782073497772
1772881569223803000,9.489802978515625,9.389435768127441,-6.766902446746826,0.2632105052471161
1772881569241148000,9.50714794921875,10.021141052246094,-6.5180487632751465,0.9212366938591003
1772881569258493000,9.524492919921874,7.800601959228516,-7.156932353973389,0.4307080805301666
1772881569275838200,9.541838134765625,4.115654945373535,-6.802794933319092,0.9595218896865845
1772881569293183200,9.559183349609375,3.1680972576141357,-4.855037212371826,1.1700903177261353
1772881569310528300,9.5765283203125,3.6849467754364014,-4.204189300537109,-0.08853443711996078
1772881569327873300,9.593873291015624,4.826323509216309,-5.3216376304626465,0.7369893789291382
1772881569345218600,9.611218505859375,6.666403770446777,-6.786045074462891,0.03349951654672623
1772881569362563600,9.6285634765625,9.370293617248535,-9.89432144165039,-0.7489534616470337
1772881569379908600,9.64590869140625,10.459028244018555,-11.626725196838379,0.97148597240448
1772881569397253600,9.663253662109375,8.779266357421875,-11.0835542678833,0.4785645306110382
1772881569414599000,9.680598876953125,7.04207706451416,-10.50209903717041,-0.7585247755050659
1772881569431944000,9.69794384765625,6.245266914367676,-10.870593070983887,-0.08135596662759781
1772881569449289000,9.7152890625,6.3840508460998535,-11.562119483947754,0.9954141974449158
1772881569466634000,9.732634033203125,6.929614543914795,-9.265008926391602,1.797009825706482
1772881569483979300,9.749979248046875,7.03489875793457,-4.883750915527344,2.3234307765960693
1772881569501324300,9.76732421875,6.317051887512207,-2.4406790733337402,2.1272194385528564
1772881569518669300,9.78466943359375,4.070191383361816,-2.0315065383911133,1.5696916580200195
1772881569536014300,9.802014404296875,2.179861545562744,-4.024727821350098,0.8566305041313171
1772881569553359600,9.819359619140625,1.007378339767456,-7.460821151733398,1.490728497505188
1772881569570704600,9.83670458984375,2.407179594039917,-13.371092796325684,2.6488547325134277
1772881569588049700,9.854049560546875,9.391828536987305,-18.192630767822266,4.216153621673584
1772881569605394700,9.871394775390625,15.153745651245117,-10.487741470336914,6.192625045776367
1772881569622740000,9.888739990234376,12.174681663513184,-3.893122434616089,4.7401814460754395
1772881569640085000,9.9060849609375,4.603790760040283,-2.6632115840911865,1.007378339767456
1772881569657430000,9.923429931640625,2.8833513259887695,-4.754538536071777,1.832902193069458
1772881569674775000,9.940775146484375,3.840480327606201,-4.182653903961182,3.3930225372314453
1772881569692120300,9.958120361328126,3.658625841140747,-2.713460922241211,3.1585259437561035
1772881569709465300,9.97546533203125,2.7972097396850586,-3.988835334777832,3.067598581314087
1772881569726810400,9.992810302734375,2.6273193359375,-5.912664890289307,2.8522446155548096
1772881569744155600,10.01015576171875,3.0939197540283203,-6.5419769287109375,2.3234307765960693
1772881569761500700,10.027500732421874,3.4337005615234375,-5.816951751708984,2.256431818008423
1772881569778845700,10.044845703125,3.2542388439178467,-4.287938117980957,2.421536445617676
1772881569796190700,10.062190673828125,3.6442689895629883,-5.000999450683594,1.911865234375
1772881569813536000,10.079535888671876,4.488935470581055,-6.8865437507629395,1.978864312171936
1772881569830881000,10.096881103515624,5.252245903015137,-8.358129501342773,2.7110681533813477
1772881569848226000,10.11422607421875,5.9509501457214355,-9.040083885192871,3.7495529651641846
1772881569865571000,10.131571044921875,6.721438884735107,-8.906085968017578,4.639683246612549
1772881569882916400,10.148916259765626,7.6043901443481445,-8.427521705627441,4.790431022644043
1772881569900261400,10.166261474609374,7.8556365966796875,-8.949156761169434,4.01754903793335
1772881569917606400,10.1836064453125,7.080362319946289,-9.06401252746582,2.5603201389312744
1772881569934951400,10.200951416015625,5.982056617736816,-8.48016357421875,1.710868239402771
1772881569952296700,10.218296630859374,4.694717884063721,-7.57806921005249,1.3663017749786377
1772881569969641700,10.235641845703125,4.311866283416748,-6.7310099601745605,1.428515076637268
1772881569986986800,10.25298681640625,4.3070807456970215,-6.441478729248047,1.4811571836471558
1772881570004331800,10.270331787109376,5.654240131378174,-6.702296257019043,1.275374412536621
1772881570021677000,10.287677001953124,7.137789726257324,-7.41535758972168,0.8709874153137207
1772881570039022000,10.30502197265625,9.214759826660156,-9.360722541809082,0.16031911969184875
1772881570056367000,10.3223671875,9.719645500183105,-10.973484992980957,0.038285162299871445
1772881570073712400,10.33971240234375,8.903693199157715,-10.918449401855469,0.39960137009620667
1772881570091057400,10.357057373046874,8.654839515686035,-10.133604049682617,2.1367905139923096
1772881570108402400,10.37440234375,7.989634990692139,-9.475577354431152,1.9860427379608154
1772881570125747500,10.39174755859375,7.659425258636475,-9.020941734313965,0.8087740540504456
1772881570143092700,10.4090927734375,6.738188743591309,-7.877171993255615,0.031106693670153618
1772881570160437800,10.426437744140625,6.156732559204102,-5.862415313720703,0.4498506486415863
1772881570177782800,10.44378271484375,5.766702651977539,-4.170690059661865,0.8135597109794617
1772881570195127800,10.4611279296875,4.88853645324707,-4.3310089111328125,-0.6556333899497986
1772881570212473000,10.47847314453125,4.125226020812988,-6.881757736206055,-0.8350951075553894
1772881570229818000,10.495818115234375,4.761716842651367,-8.193024635314941,0.35413774847984314
1772881570247163100,10.5131630859375,5.7619171142578125,-7.853243827819824,0.5790630578994751
1772881570264508200,10.530508056640626,6.742974281311035,-7.774280548095703,0.6891329288482666
1772881570281853400,10.547853515625,6.5180487632751465,-8.135597229003906,0.2632105052471161
1772881570299198500,10.565198486328125,6.618547439575195,-9.480362892150879,-0.2273181527853012
1772881570316543500,10.58254345703125,7.75753116607666,-10.52363395690918,-0.01196411345154047
1772881570333888500,10.599888427734374,8.69791030883789,-10.023533821105957,0.0526420995593071
1772881570351233800,10.61723388671875,8.11406135559082,-8.389236450195312,1.3471591472625732
1772881570368578800,10.634578857421875,6.4701924324035645,-7.877171993255615,2.3856441974639893
1772881570385923800,10.651923828125,5.632704734802246,-8.798408508300781,2.132004976272583
1772881570403268900,10.669268798828124,4.967499732971191,-8.429914474487305,2.007578134536743
1772881570420614100,10.6866142578125,5.039284706115723,-7.810173034667969,2.014756679534912
1772881570437959200,10.703959228515625,4.902893543243408,-7.582854747772217,2.311466693878174
1772881570455304200,10.72130419921875,4.524827480316162,-6.898507595062256,2.2636101245880127
1772881570472649500,10.7386494140625,4.240081787109375,-6.936792850494385,2.6297121047973633
1772881570489994500,10.755994384765625,5.580062389373779,-7.520641803741455,3.2614171504974365
1772881570507339500,10.773339599609375,7.848458290100098,-8.403593063354492,4.517649173736572
1772881570524684500,10.7906845703125,8.197810173034668,-7.489534854888916,4.240081787109375
1772881570542029800,10.80802978515625,7.814958572387695,-6.6831536293029785,3.6777684688568115
1772881570559374800,10.825374755859375,7.69531774520874,-6.297909259796143,3.4337005615234375
1772881570576720000,10.842719970703126,6.192625045776367,-4.287938117980957,3.8045880794525146
1772881570594065000,10.86006494140625,4.938786029815674,-4.436293125152588,4.0319061279296875
1772881570611410200,10.87741015625,3.5030922889709473,-4.9124650955200195,3.8021950721740723
1772881570628755200,10.894755126953125,3.452843189239502,-5.517848968505859,3.0963125228881836
1772881570646100200,10.912100341796876,3.4480574131011963,-4.965106964111328,2.4837498664855957
1772881570663445500,10.929445556640625,3.548556089401245,-4.969892501831055,2.218146562576294
1772881570680790500,10.94679052734375,3.146561861038208,-6.161518096923828,2.3186452388763428
1772881570698135600,10.964135498046875,3.6945180892944336,-7.336394309997559,2.4765713214874268
1772881570715480600,10.98148046875,4.237689018249512,-7.867600917816162,2.5603201389312744
1772881570732825900,10.998825927734375,5.07517671585083,-7.8556365966796875,2.6799614429473877
1772881570750171000,11.0161708984375,6.424728870391846,-6.391229152679443,2.933600664138794
1772881570767516000,11.033515869140626,6.872186660766602,-5.218746185302734,3.383451223373413
1772881570784861200,11.050861083984374,6.032305717468262,-5.740381717681885,3.6466617584228516
1772881570802206200,11.068206298828125,4.874179840087891,-7.63310432434082,3.098705291748047
1772881570819551200,11.08555126953125,5.257031440734863,-9.212367057800293,1.6199408769607544
1772881570836896300,11.102896240234376,6.869793891906738,-10.097711563110352,1.0480563640594482
1772881570854241500,11.120241455078125,8.188239097595215,-9.76989459991455,1.100698471069336
1772881570871586600,11.137586669921875,8.475378036499023,-9.588040351867676,1.7324036359786987
1772881570888931600,11.154931640625,9.159725189208984,-9.425328254699707,2.1607189178466797
1772881570906276900,11.17227685546875,10.016355514526367,-9.346364974975586,1.3663017749786377
1772881570923622000,11.189621826171875,8.61176872253418,-8.913264274597168,0.8901300430297852
1772881570940967000,11.206966796875,7.286144733428955,-8.719446182250977,0.5790630578994751
1772881570958312000,11.22431201171875,5.86002254486084,-8.85344409942627,-0.0526420995593071
1772881570975657200,11.2416572265625,4.481756687164307,-8.327022552490234,-0.5551348328590393
1772881570993002200,11.259002197265625,5.800201892852783,-7.113861560821533,0.15553347766399384
1772881571010347300,11.27634716796875,7.623532772064209,-5.553741455078125,0.9308080077171326
1772881571027692500,11.293692626953124,8.583054542541504,-4.242474555969238,1.2897313833236694
1772881571045037600,11.31103759765625,7.544569969177246,-4.374079704284668,0.14356936514377594
1772881571062382600,11.328382568359375,5.694917678833008,-6.094519138336182,-0.2153540402650833
1772881571079727600,11.3457275390625,5.450850009918213,-7.424928665161133,0.9667003750801086
1772881571097073000,11.363072998046874,6.51326322555542,-7.276573657989502,1.6534404754638672
1772881571114418000,11.38041796875,7.300501823425293,-8.539983749389648,-0.21296121180057526
1772881571131763000,11.397762939453125,8.8438720703125,-11.313265800476074,-0.5623133182525635
1772881571149108000,11.41510791015625,8.987442016601562,-10.691131591796875,1.1868400573730469
1772881571166453200,11.432453369140624,7.142575740814209,-8.334200859069824,0.5455635786056519
1772881571183798300,11.44979833984375,6.166304111480713,-6.5491557121276855,-0.9284151792526245
1772881571201143300,11.467143310546875,6.235695838928223,-5.570491313934326,-0.349352091550827
1772881571218488300,11.48448828125,8.408378601074219,-7.1162543296813965,0.3852444589138031
1772881571235833600,11.50183349609375,9.779465675354004,-7.058826923370361,1.3423734903335571
1772881571253178600,11.5191787109375,8.044670104980469,-6.857829570770264,2.895315408706665
1772881571270523600,11.536523681640626,5.886343479156494,-8.097311973571777,3.232703447341919
1772881571287869000,11.553868896484374,3.656233072280884,-8.94676399230957,2.091326951980591
1772881571305214000,11.5712138671875,3.6466617584228516,-8.449056625366211,1.5912270545959473
1772881571322559000,11.58855908203125,3.2829527854919434,-8.518448829650879,2.122433662414551
1772881571339904000,11.605904052734376,4.5822553634643555,-8.82233715057373,2.368894338607788
1772881571357249300,11.623249267578124,8.535198211669922,-7.678567886352539,3.7423746585845947
1772881571374594300,11.64059423828125,9.860821723937988,-3.9290146827697754,4.898108005523682
1772881571391939300,11.657939208984375,6.340980052947998,-3.7399818897247314,4.436293125152588
1772881571409284600,11.67528466796875,6.685546398162842,-9.382257461547852,3.4193434715270996
1772881571426629600,11.692629638671875,8.999405860900879,-9.626325607299805,4.204189300537109
1772881571443974700,11.709974609375,9.231510162353516,-5.848058700561523,5.304887771606445
1772881571461320000,11.72731982421875,6.092126369476318,-3.541377544403076,4.453042984008789
1772881571478665000,11.7446650390625,3.6945180892944336,-4.108476638793945,3.476771354675293
1772881571496010000,11.762010009765625,3.806980848312378,-4.445864677429199,3.1178479194641113
1772881571513355000,11.77935498046875,3.3308091163635254,-2.9240293502807617,2.4047868251800537
1772881571530700300,11.7967001953125,1.9142581224441528,-2.2325034141540527,1.6654045581817627
1772881571548045300,11.81404541015625,1.2562319040298462,-5.223531723022461,1.8448662757873535
1772881571565390300,11.831390380859375,2.4646072387695312,-9.221938133239746,1.4811571836471558
1772881571582735600,11.848735595703126,3.7567315101623535,-10.447063446044922,1.3830515146255493
1772881571600080600,11.86608056640625,5.034498691558838,-6.534798622131348,1.97407865524292
1772881571617425700,11.88342578125,6.654439926147461,-5.874379634857178,2.368894338607788
1772881571634770700,11.900770751953125,7.226324558258057,-7.2095746994018555,2.8737800121307373
1772881571652116000,11.918115966796876,7.683353424072266,-6.6113691329956055,3.524627685546875
1772881571669461000,11.9354609375,7.420143127441406,-6.92482852935791,3.404986619949341
1772881571686806000,11.952805908203125,7.357929706573486,-8.544769287109375,3.218346357345581
1772881571704151300,11.9701513671875,7.910671710968018,-9.65503978729248,3.091526746749878
1772881571721496300,11.987496337890626,7.89631462097168,-9.32722282409668,2.6153552532196045
1772881571738841300,12.00484130859375,7.245467185974121,-8.623732566833496,1.9669002294540405
1772881571756186400,12.022186279296875,6.221338748931885,-8.171489715576172,1.2203395366668701
1772881571773531600,12.03953173828125,5.288137912750244,-8.204988479614258,1.0600204467773438
1772881571790876700,12.056876708984374,6.089733600616455,-8.190631866455078,1.1341979503631592
1772881571808221700,12.0742216796875,6.498906135559082,-8.312665939331055,1.2394821643829346
1772881571825567000,12.09156689453125,7.202396392822266,-7.436892986297607,1.6869399547576904
1772881571842912000,12.108912109375,6.041877269744873,-6.32662296295166,0.0933200865983963
1772881571860257000,12.126257080078124,5.498706340789795,-5.6590256690979,-1.2346965074539185
1772881571877602000,12.14360205078125,7.18086051940918,-6.190232276916504,-0.9858429431915283
1772881571894947300,12.160947265625,11.25344467163086,-6.620940208435059,2.0410776138305664
1772881571912292400,12.178292236328126,9.8871431350708,-6.608976364135742,2.117648124694824
1772881571929637400,12.195637451171875,6.86261510848999,-7.841279983520508,1.2873386144638062
1772881571946982400,12.212982421875,5.587240695953369,-8.583054542541504,0.35413774847984314
1772881571964327700,12.23032763671875,5.814558982849121,-7.95134973526001,0.2679961323738098
1772881571981672700,12.247672607421874,6.068198204040527,-7.027719974517822,0.4331009089946747
1772881571999017700,12.265017822265625,6.029912948608398,-7.197610378265381,0.3158525824546814
1772881572016363000,12.282363037109375,6.52044153213501,-7.4464640617370605,0.12921242415905
1772881572033708000,12.2997080078125,6.900900363922119,-7.865208148956299,0.004785645287483931
1772881572051053000,12.317052978515624,7.161718368530273,-7.824530124664307,-0.39481574296951294
1772881572068398000,12.334398193359375,7.4847493171691895,-7.207181930541992,-0.20578274130821228
1772881572085743400,12.351743408203125,7.381857872009277,-7.003791809082031,0.5407779216766357
1772881572103088400,12.36908837890625,7.29810905456543,-8.250452041625977,1.1724830865859985
1772881572120433400,12.386433349609375,7.051648139953613,-9.145368576049805,1.8137595653533936
1772881572137778700,12.40377880859375,6.850651264190674,-9.705288887023926,2.234896421432495
1772881572155123700,12.421123779296876,6.640082836151123,-9.293723106384277,2.062613010406494
1772881572172468700,12.43846875,5.807380676269531,-8.927620887756348,2.287538528442383
1772881572189814000,12.45581396484375,6.386443614959717,-8.788837432861328,2.610569477081299
1772881572207159000,12.473158935546875,6.419943332672119,-8.755337715148926,3.3308091163635254
1772881572224504000,12.490504150390626,6.984649181365967,-8.288737297058105,3.431307554244995
1772881572241849000,12.50784912109375,7.412964344024658,-6.183053493499756,3.263810157775879
1772881572259194400,12.5251943359375,6.8004021644592285,-3.9840497970581055,2.754138946533203
1772881572276539400,12.542539306640625,6.546762943267822,-4.429114818572998,2.9479575157165527
1772881572293884400,12.559884521484374,6.726224422454834,-5.3312087059021,3.617947816848755
1772881572311229700,12.577229736328125,6.8554368019104,-5.888736724853516,4.275974273681641
1772881572328574700,12.59457470703125,5.5034918785095215,-5.2115678787231445,4.082155227661133
1772881572345919700,12.611919677734376,4.168296813964844,-5.257031440734863,4.036691665649414
1772881572363265000,12.62926513671875,4.398007869720459,-6.465406894683838,3.8261234760284424
1772881572380610000,12.646610107421875,4.685146808624268,-6.2500529289245605,3.452843189239502
1772881572397955000,12.663955078125,4.180261135101318,-5.6925249099731445,2.3258235454559326
1772881572415300000,12.681300048828126,3.390629768371582,-4.713860511779785,1.7539390325546265
1772881572432645400,12.698645263671875,2.5148565769195557,-4.878965377807617,1.9214365482330322
1772881572449990400,12.715990478515625,3.2063822746276855,-6.379265308380127,1.9334007501602173
1772881572467335400,12.73333544921875,4.168296813964844,-7.487142086029053,2.266003131866455
1772881572484680700,12.7506806640625,5.508277893066406,-7.606783390045166,3.2925238609313965
1772881572502025700,12.768025634765625,7.369893550872803,-6.865008354187012,4.230510234832764
1772881572519370800,12.785370849609375,8.539983749389648,-6.0777692794799805,4.144368648529053
1772881572536716000,12.802716064453126,7.499105930328369,-6.4319071769714355,3.34995174407959
1772881572554061000,12.82006103515625,6.068198204040527,-7.676175117492676,2.620140790939331
1772881572571406000,12.837406005859375,6.058627128601074,-8.554341316223145,1.7156537771224976
1772881572588751000,12.854751220703125,7.015756130218506,-9.198010444641113,1.3351950645446777
1772881572606096400,12.872096435546876,7.913064479827881,-9.248259544372559,1.4261223077774048
1772881572623441400,12.88944140625,8.425128936767578,-8.851051330566406,2.124826431274414
1772881572640786400,12.906786376953125,7.738388538360596,-8.784051895141602,2.5196423530578613
1772881572658131700,12.924131591796876,6.915257453918457,-8.422736167907715,1.770688772201538
1772881572675476700,12.941476806640624,5.07517671585083,-8.12123966217041,0.6580262184143066
1772881572692821800,12.95882177734375,4.589433670043945,-7.657032489776611,-0.24406790733337402
1772881572710166800,12.976166748046875,6.5874409675598145,-8.0350980758667,-1.6055840253829956
1772881572727512000,12.993511962890626,10.116853713989258,-9.253045082092285,-1.3280165195465088
1772881572744857000,13.010857177734374,8.420342445373535,-8.717052459716797,0.7824530005455017
1772881572762202000,13.0282021484375,5.6446685791015625,-6.8243303298950195,2.1056840419769287
1772881572779547400,13.04554736328125,6.295516490936279,-4.527220249176025,1.3878371715545654
1772881572796892400,13.062892333984376,7.707281589508057,-3.8739798069000244,0.4905286431312561
1772881572814237400,13.080237548828125,7.008577346801758,-6.206982135772705,0.8805587291717529
1772881572831582500,13.09758251953125,5.874379634857178,-8.360522270202637,1.1270195245742798
1772881572848927700,13.114927734375,6.185446739196777,-8.891729354858398,0.7896314859390259
1772881572866272800,13.132272705078124,6.31944465637207,-8.614161491394043,0.8374879360198975
1772881572883617800,13.14961767578125,5.9437713623046875,-7.927421569824219,-0.4905286431312561
1772881572900963000,13.166963134765625,7.9657063484191895,-8.025527000427246,-0.4139583110809326
1772881572918308000,13.18430810546875,10.095318794250488,-8.082955360412598,0.9810572862625122
1772881572935653000,13.201653076171874,9.858428955078125,-6.709474563598633,1.8640087842941284
1772881572952998100,13.218998046875,7.1856465339660645,-5.953342914581299,1.852044701576233
1772881572970343400,13.236343505859375,5.816951751708984,-6.929614543914795,1.1629117727279663
1772881572987688400,13.2536884765625,3.775874137878418,-8.920442581176758,0.397208571434021
1772881573005033500,13.271033447265625,4.311866283416748,-10.427921295166016,0.916451096534729
1772881573022378800,13.288378662109375,6.262016773223877,-10.466206550598145,1.7635103464126587
1772881573039723800,13.305723876953126,6.826723098754883,-8.439485549926758,2.342573404312134
1772881573057068800,13.32306884765625,6.652047157287598,-7.441678524017334,2.586641311645508
1772881573074414000,13.3404140625,7.75753116607666,-8.015955924987793,4.029513359069824
1772881573091759000,13.357759033203125,10.076175689697266,-9.671789169311523,5.38624382019043
1772881573109104000,13.375104248046876,9.497113227844238,-8.327022552490234,4.48414945602417
1772881573126449200,13.39244921875,8.535198211669922,-5.747560024261475,3.9457645416259766
1772881573143794400,13.40979443359375,6.795616149902344,-3.476771354675293,3.4743785858154297
1772881573161139500,13.427139404296875,4.218546390533447,-3.799802303314209,3.211168050765991
1772881573178484500,13.444484375,3.13220477104187,-4.082155227661133,2.612962245941162
1772881573195829800,13.461829833984375,3.2853455543518066,-3.9361932277679443,2.699103832244873
1772881573213174800,13.4791748046875,3.177668571472168,-2.7732813358306885,2.682354211807251
1772881573230519800,13.496519775390626,2.6775684356689453,-3.4911282062530518,2.4598217010498047
1772881573247865000,13.513864990234374,2.3617160320281982,-4.644468784332275,2.201396942138672
1772881573265210000,13.531210205078125,2.950350284576416,-6.898507595062256,2.163111686706543
1772881573282555100,13.54855517578125,4.527220249176025,-10.817951202392578,2.6560330390930176
1772881573299900200,13.565900146484376,7.467999458312988,-9.671789169311523,2.895315408706665
1772881573317245400,13.583245361328125,9.791430473327637,-3.414557933807373,3.0939197540283203
1772881573334590500,13.600590576171875,8.197810173034668,-4.742574691772461,2.9072794914245605
1772881573351935700,13.617935791015626,4.816751956939697,-6.1950178146362305,3.4672000408172607
1772881573369280800,13.63528076171875,4.677968502044678,-6.853044033050537,3.5772697925567627
1772881573386625800,13.652625732421875,5.6685967445373535,-7.128218650817871,3.043670415878296
1772881573403970800,13.669970703125,6.771687984466553,-7.369893550872803,2.888136863708496
1772881573421316000,13.687316162109376,6.965506553649902,-6.896114826202393,2.344966173171997
1772881573438661000,13.7046611328125,6.8410797119140625,-6.912864685058594,1.8424733877182007
1772881573456006100,13.722006103515625,7.156932353973389,-7.491927623748779,1.4500504732131958
1772881573473351400,13.739351318359375,6.8410797119140625,-8.183453559875488,1.129412293434143
1772881573490696400,13.756696533203124,6.1710896492004395,-8.906085968017578,0.9403793215751648
1772881573508041500,13.77404150390625,6.065805435180664,-9.387042999267578,1.0408778190612793
1772881573525386500,13.791386474609375,6.534798622131348,-10.01156997680664,0.9068797826766968
1772881573542731800,13.808731689453126,7.307680130004883,-10.131211280822754,1.6079767942428589
1772881573560076800,13.826076904296874,8.73619556427002,-8.812766075134277,3.0317063331604004
1772881573577421800,13.843421875,8.3629150390625,-6.51326322555542,1.5242279767990112
1772881573594767000,13.86076708984375,7.884350776672363,-6.008377552032471,-0.22492532432079315
1772881573612112100,13.878112060546876,8.695517539978027,-6.687939167022705,-0.5551348328590393
1772881573629457200,13.89545703125,8.516056060791016,-7.475177764892578,0.7322037220001221
1772881573646802400,13.912802490234375,7.645068168640137,-8.57348346710205,0.9427721500396729
1772881573664147500,13.9301474609375,6.295516490936279,-9.284152030944824,1.4428720474243164
1772881573681492500,13.947492431640624,4.800002098083496,-7.628318786621094,1.97407865524292
1772881573698837500,13.96483740234375,4.409972190856934,-6.379265308380127,-0.12921242415905
1772881573716182800,13.982182861328125,3.94097900390625,-7.0755767822265625,-1.2897313833236694
1772881573733527800,13.99952783203125,5.520241737365723,-7.5804619789123535,-0.9044869542121887
1772881573750872800,14.016872802734374,6.812366008758545,-6.994220733642578,0.08853443711996078
1772881573768218000,14.034218017578125,6.908079147338867,-5.434100151062012,0.30628129839897156
1772881573785563100,14.051563232421875,6.92482852935791,-6.606583118438721,0.6436693072319031
1772881573802908200,14.068908203125,7.719245910644531,-8.140382766723633,1.1078768968582153
1772881573820253200,14.086253173828124,7.886743545532227,-9.322437286376953,2.1846470832824707
1772881573837598500,14.103598388671875,7.101897716522217,-11.526226997375488,2.6081767082214355
1772881573854943500,14.120943603515625,5.426921844482422,-12.306286811828613,2.416750907897949
1772881573872288500,14.13828857421875,6.147161483764648,-10.389636039733887,1.9334007501602173
1772881573889633800,14.1556337890625,7.317251682281494,-7.080362319946289,2.768495798110962
1772881573906978800,14.172978759765625,5.862415313720703,-5.962913990020752,3.759124279022217
1772881573924323800,14.19032373046875,5.082355499267578,-6.539584159851074,3.105883836746216
1772881573941668900,14.2076689453125,5.6925249099731445,-7.010970115661621,2.572284460067749
1772881573959014100,14.22501416015625,7.18086051940918,-5.697310924530029,3.510270833969116
1772881573976359200,14.242359130859375,6.98704195022583,-5.742774486541748,4.024727821350098
1772881573993704200,14.2597041015625,7.113861560821533,-6.455835342407227,3.565305709838867
1772881574011049500,14.277049560546875,6.92482852935791,-6.671189308166504,3.641875982284546
1772881574028394500,14.29439453125,5.6925249099731445,-4.649254322052002,3.706482172012329
1772881574045739500,14.311739501953125,3.675375461578369,-3.105883836746216,3.4983067512512207
1772881574063084800,14.329084716796874,2.7254250049591064,-4.223331928253174,2.9958138465881348
1772881574080429800,14.346429931640625,3.603590965270996,-5.515456199645996,2.981456995010376
1772881574097774800,14.36377490234375,4.01037073135376,-5.773880958557129,2.6368906497955322
1772881574115120000,14.3811201171875,3.8428730964660645,-6.247660160064697,2.4981069564819336
1772881574132465200,14.398465087890624,4.237689018249512,-7.046862602233887,2.2205393314361572
1772881574149810200,14.41581005859375,4.883750915527344,-7.259823799133301,2.328216314315796
1772881574167155500,14.433155517578125,5.489135265350342,-6.807580471038818,2.3617160320281982
1772881574184500500,14.45050048828125,5.606383323669434,-6.905686378479004,2.7493531703948975
1772881574201845500,14.467845458984375,6.333801746368408,-6.876972198486328,3.326023578643799
1772881574219190500,14.4851904296875,6.8171515464782715,-6.8554368019104,4.216153621673584
1772881574236535800,14.502535888671876,6.898507595062256,-7.066005229949951,4.689932346343994
1772881574253880800,14.519880859375,6.809973239898682,-7.518248558044434,4.106083869934082
1772881574271225900,14.537225830078125,6.252445697784424,-8.37727165222168,3.1752755641937256
1772881574288571100,14.554571044921875,6.058627128601074,-8.760123252868652,2.2444677352905273
1772881574305916200,14.571916259765626,5.570491313934326,-8.86062240600586,1.2873386144638062
1772881574323261200,14.58926123046875,4.6995038986206055,-9.415757179260254,0.9834501147270203
1772881574340606200,14.606606201171875,4.462614059448242,-9.597611427307129,0.5814558863639832
1772881574357951500,14.623951416015625,6.2500529289245605,-10.188638687133789,0.38285163044929504
1772881574375296500,14.641296630859374,8.271987915039062,-9.990034103393555,0.30628129839897156
1772881574392641500,14.6586416015625,8.834300994873047,-9.128618240356445,0.9547362327575684
1772881574409986800,14.67598681640625,7.860422611236572,-7.776673793792725,0.02871387079358101
1772881574427331800,14.693331787109376,8.606983184814453,-7.853243827819824,-0.6484549641609192
1772881574444676900,14.7106767578125,10.047462463378906,-8.535198211669922,-0.4139583110809326
1772881574462022000,14.72802197265625,7.728816986083984,-8.913264274597168,1.038485050201416
1772881574479367200,14.7453671875,6.2668023109436035,-7.226324558258057,1.5361921787261963
1772881574496712200,14.762712158203126,5.536991596221924,-5.0464630126953125,1.7371892929077148
1772881574514057200,14.78005712890625,4.716253280639648,-3.751945972442627,0.1339980661869049
1772881574531402500,14.797402587890625,4.082155227661133,-4.730610370635986,-1.0169496536254883
1772881574548747500,14.81474755859375,4.137190341949463,-6.3840508460998535,-0.641276478767395
1772881574566092500,14.832092529296874,4.622933387756348,-6.774080753326416,0.04785645380616188
1772881574583437800,14.849437744140625,5.051248550415039,-7.350750923156738,-0.2392822653055191
1772881574600782800,14.866782958984375,6.0538411140441895,-9.32722282409668,-0.6460621356964111
1772881574618128000,14.8841279296875,7.494320392608643,-11.186446189880371,0.28235307335853577
1772881574635473000,14.901472900390624,8.918049812316895,-11.334800720214844,0.9643075466156006
1772881574652818200,14.918818115234375,10.284351348876953,-9.877572059631348,2.3545374870300293
1772881574670163200,14.9361630859375,7.891529083251953,-11.636296272277832,2.9144580364227295
1772881574687508200,14.95350830078125,7.140182971954346,-10.971092224121094,2.043470621109009
1772881574704853200,14.970853271484375,6.465406894683838,-9.128618240356445,2.493321180343628
1772881574722198500,14.988198486328125,6.63769006729126,-8.054241180419922,2.5387847423553467
1772881574739543600,15.00554345703125,6.113661766052246,-6.8004021644592285,2.6009981632232666
1772881574756888600,15.022888671875,4.5822553634643555,-6.144768714904785,2.390429735183716
1772881574774233900,15.04023388671875,3.9122650623321533,-6.26440954208374,2.510071039199829
1772881574791579000,15.057578857421875,4.512863636016846,-6.350551128387451,2.218146562576294
1772881574808924000,15.074923828125,4.206582069396973,-6.1950178146362305,1.5936198234558105
1772881574826269200,15.092269287109374,6.6831536293029785,-6.690331935882568,2.313859462738037
1772881574843614200,15.1096142578125,6.283552169799805,-5.314459323883057,2.9862427711486816
1772881574860959200,15.126959228515625,5.498706340789795,-5.436492919921875,3.3403804302215576
1772881574878304500,15.144304443359376,5.850451469421387,-4.981856822967529,3.4241292476654053
1772881574895649500,15.1616494140625,5.764309883117676,-6.343372821807861,4.156332969665527
1772881574912994600,15.17899462890625,5.986842155456543,-7.747959613800049,4.462614059448242
1772881574930339800,15.19633984375,5.816951751708984,-6.245266914367676,3.744767427444458
1772881574947684900,15.213684814453124,4.802394866943359,-4.5200419425964355,2.586641311645508
1772881574965030000,15.23102978515625,4.063013076782227,-4.2592244148254395,2.4263222217559814
1772881574982375000,15.248375,3.4121651649475098,-4.816751956939697,2.0578274726867676
1772881574999720200,15.26572021484375,2.5746772289276123,-5.1876397132873535,1.4093725681304932
1772881575017065200,15.283065185546874,1.9310078620910645,-6.166304111480713,1.1030912399291992
1772881575034410200,15.30041015625,2.1272194385528564,-6.649653911590576,0.973878800868988
1772881575051755500,15.317755615234375,3.043670415878296,-6.601797580718994,1.3184453248977661
1772881575069100500,15.3351005859375,4.376472473144531,-6.31944465637207,1.648654818534851
1772881575086445600,15.352445556640625,6.104090690612793,-6.44387149810791,2.376072883605957
1772881575103790800,15.369790771484375,7.70967435836792,-8.37009334564209,2.258824586868286
1772881575121135900,15.387135986328126,11.21515941619873,-11.58843994140625,1.892722725868225
1772881575138481000,15.40448095703125,14.20140266418457,-13.878371238708496,2.3952155113220215
1772881575155826200,15.421826171875,13.806586265563965,-14.206188201904297,4.043870449066162
1772881575173171200,15.439171142578125,10.576275825500488,-13.110275268554688,4.122833251953125
1772881575190516200,15.45651611328125,7.724031448364258,-11.282158851623535,2.833101987838745
1772881575207861200,15.473861328125,5.242674350738525,-8.147561073303223,0.3684946894645691
1772881575225206500,15.49120654296875,3.8835511207580566,-5.577669620513916,-1.3399807214736938
1772881575242551600,15.508551513671875,3.610769271850586,-3.8333017826080322,-2.1894326210021973
1772881575259896600,15.525896484375,4.41475772857666,-3.184846878051758,-2.0338993072509766
1772881575277241900,15.543241943359375,5.563312530517578,-4.182653903961182,-1.765903115272522
1772881575294587000,15.5605869140625,8.37727165222168,-5.6446685791015625,-0.2799602448940277
1772881575311932000,15.577931884765626,10.13599681854248,-7.0061845779418945,2.6775684356689453
1772881575329277000,15.59527685546875,8.264809608459473,-8.085348129272461,3.4576287269592285
1772881575346622200,15.612622314453125,5.72841739654541,-8.47298526763916,1.521835207939148
1772881575363967200,15.62996728515625,5.06082010269165,-8.595019340515137,0.849452018737793
1772881575381312300,15.647312255859376,4.878965377807617,-8.329415321350098,0.47617170214653015
1772881575398657500,15.664657470703125,5.752345561981201,-8.295916557312012,-0.019142581149935722
1772881575416002600,15.68200244140625,6.532405853271484,-7.915457248687744,-0.02153540402650833
1772881575433347600,15.69934765625,7.128218650817871,-7.953742504119873,-0.37088751792907715
1772881575450692600,15.716692626953124,7.523034572601318,-7.611568927764893,-0.16749759018421173
1772881575468038000,15.734037841796875,7.57806921005249,-7.69531774520874,0.8662018179893494
1772881575485383000,15.7513828125,8.384450912475586,-9.33440113067627,1.466800332069397
1772881575502728000,15.76872802734375,9.477970123291016,-11.7990083694458,2.562713146209717
1772881575520073200,15.7860732421875,8.86062240600586,-12.363714218139648,3.4169507026672363
1772881575537418200,15.803418212890625,6.001199245452881,-9.827322959899902,2.060220241546631
1772881575554763300,15.82076318359375,4.634897232055664,-7.475177764892578,1.2849457263946533
1772881575572108300,15.8381083984375,4.419543266296387,-6.199803352355957,1.2346965074539185
1772881575589453600,15.85545361328125,4.156332969665527,-5.848058700561523,1.222732424736023
1772881575606798600,15.872798583984375,4.639683246612549,-6.008377552032471,2.691925525665283
1772881575624143600,15.8901435546875,5.678168296813965,-5.01296329498291,4.302295207977295
1772881575641489000,15.907489013671874,6.3601226806640625,-3.3619158267974854,4.357329845428467
1772881575658834000,15.924833984375,6.716653347015381,-4.7712883949279785,3.9146578311920166
1772881575676179000,15.942178955078125,5.5728840827941895,-7.4847493171691895,3.108276605606079
1772881575693524200,15.959524169921876,6.2189459800720215,-8.02074146270752,3.2997024059295654
1772881575710869200,15.976869140625,6.482156753540039,-5.67338228225708,3.8045880794525146
1772881575728214300,15.99421435546875,4.716253280639648,-4.967499732971191,3.5030922889709473
1772881575745559600,16.0115595703125,4.390829563140869,-6.295516490936279,3.177668571472168
1772881575762904600,16.028904541015624,3.5054850578308105,-6.405586242675781,2.730210542678833
1772881575780249600,16.04624951171875,2.9216363430023193,-6.051448345184326,2.2157537937164307
1772881575797595000,16.063594970703125,3.2853455543518066,-6.597012042999268,1.770688772201538
1772881575814940000,16.08093994140625,4.1036906242370605,-7.159325122833252,1.730010747909546
1772881575832285000,16.098284912109374,5.120640277862549,-6.922435760498047,2.170290231704712
1772881575849630000,16.1156298828125,6.372086524963379,-5.92223596572876,2.550748825073242
1772881575866975200,16.132975341796875,6.6352972984313965,-5.127819061279297,2.100898265838623
1772881575884320300,16.1503203125,6.1328043937683105,-5.149354457855225,1.9860427379608154
1772881575901665300,16.167665283203124,5.465207099914551,-5.900700569152832,2.541177749633789
1772881575919010600,16.185010498046875,5.053641319274902,-6.64486837387085,2.60339093208313
1772881575936355600,16.20235546875,5.5345988273620605,-7.197610378265381,2.280359983444214
1772881575953700600,16.21970068359375,6.20219612121582,-7.8317084312438965,1.222732424736023
1772881575971045600,16.237045654296875,6.764509677886963,-8.236095428466797,0.6652047038078308
1772881575988391000,16.254390869140625,6.364908218383789,-8.257631301879883,0.5216353535652161
1772881576005736000,16.27173583984375,6.4079790115356445,-8.556734085083008,0.8805587291717529
1772881576023081000,16.2890810546875,7.661818027496338,-9.889535903930664,0.8590233325958252
1772881576040426200,16.30642626953125,9.56650447845459,-11.621939659118652,0.5599204897880554
1772881576057771300,16.323771240234375,10.420742988586426,-11.964113235473633,1.1365907192230225
1772881576075116300,16.3411162109375,9.049654960632324,-10.198209762573242,1.7635103464126587
1772881576092461600,16.358461669921876,7.41535758972168,-8.319844245910645,1.5409778356552124
1772881576109806600,16.375806640625,6.932007312774658,-6.9104719161987305,-0.11246266216039658
1772881576127151600,16.393151611328125,7.920242786407471,-7.0301127433776855,-1.3806586265563965
1772881576144497000,16.410496826171876,8.50169849395752,-7.085147857666016,-1.0480563640594482
1772881576161842000,16.427842041015627,6.879364967346191,-6.532405853271484,1.0815558433532715
1772881576179187000,16.44518701171875,5.063212871551514,-5.67338228225708,1.332802176475525
1772881576196532000,16.462531982421876,4.271188259124756,-5.489135265350342,-0.17946170270442963
1772881576213877200,16.479877197265626,4.096512317657471,-6.719046115875244,-1.0887342691421509
1772881576231222300,16.49722216796875,4.735395908355713,-7.8317084312438965,-0.6556333899497986
1772881576248567300,16.5145673828125,6.333801746368408,-8.195417404174805,0.0526420995593071
1772881576265912300,16.531912353515626,7.204789161682129,-8.257631301879883,0.17706887423992157
1772881576283257600,16.549257568359376,7.762316703796387,-7.922635555267334,-0.31824541091918945
1772881576300602600,16.5666025390625,7.776673793792725,-7.188039302825928,-0.30149564146995544
1772881576317947600,16.58394775390625,7.8556365966796875,-7.893921852111816,0.6245267391204834
1772881576335293000,16.60129296875,8.394021987915039,-9.927821159362793,1.7539390325546265
1772881576352638000,16.618637939453127,8.4562349319458,-11.212766647338867,2.038684844970703
1772881576369983000,16.63598291015625,7.384250640869141,-10.40638542175293,0.9786644577980042
1772881576387328300,16.653328369140624,5.218746185302734,-9.030512809753418,1.222732424736023
1772881576404673300,16.67067333984375,5.3216376304626465,-7.64028263092041,1.6869399547576904
1772881576422018300,16.688018310546877,5.481956481933594,-6.922435760498047,2.187039852142334
1772881576439363600,16.705363525390624,5.125426292419434,-6.742974281311035,2.431107759475708
1772881576456708600,16.72270849609375,5.635097503662109,-6.666403770446777,3.098705291748047
1772881576474053600,16.7400537109375,5.5345988273620605,-5.568098068237305,3.5916268825531006
1772881576491398700,16.757398681640623,6.216553211212158,-5.661418437957764,3.8285162448883057
1772881576508744000,16.774743896484374,5.855237007141113,-5.85284423828125,3.7256247997283936
1772881576526089000,16.7920888671875,5.355136871337891,-6.553941249847412,3.184846878051758
1772881576543434000,16.80943408203125,5.709274768829346,-6.333801746368408,3.3930225372314453
1772881576560779300,16.826779296875,5.888736724853516,-5.257031440734863,3.4791641235351562
1772881576578124300,16.844124267578124,4.914857864379883,-5.010570526123047,3.2709884643554688
1772881576595469300,16.86146923828125,3.9768712520599365,-5.139782905578613,3.0723843574523926
1772881576612814300,16.878814453125,4.084548473358154,-5.623133182525635,3.6370904445648193
1772881576630159600,16.89615966796875,4.194618225097656,-6.333801746368408,3.4719855785369873
1772881576647504600,16.913504638671874,3.8356947898864746,-6.355337142944336,2.4765713214874268
1772881576664849700,16.930849609375,4.350151538848877,-6.4319071769714355,1.7443677186965942
1772881576682195000,16.94819482421875,5.065605640411377,-6.276373863220215,1.9022940397262573
1772881576699540000,16.9655400390625,5.525027275085449,-6.254838466644287,2.2444677352905273
1772881576716885000,16.982885009765624,6.2189459800720215,-6.618547439575195,2.6943182945251465
1772881576734230300,17.000230224609375,6.865008354187012,-6.7070817947387695,3.4002010822296143
1772881576751575300,17.0175751953125,7.061219692230225,-6.259624004364014,3.8045880794525146
1772881576768920300,17.03492041015625,6.297909259796143,-6.625725746154785,3.924229145050049
1772881576786265600,17.052265625,5.3312087059021,-6.946363925933838,2.9551360607147217
1772881576803610600,17.069610595703125,4.618147850036621,-6.903293132781982,1.428515076637268
1772881576820955600,17.08695556640625,4.941178798675537,-7.164111137390137,0.380458801984787
1772881576838300700,17.10430078125,6.161518096923828,-7.8388872146606445,0.11964113265275955
1772881576855646000,17.12164599609375,7.982456207275391,-8.489734649658203,0.8231309652328491
1772881576872991000,17.138990966796875,11.425727844238281,-9.712467193603516,2.108076810836792
1772881576890336000,17.1563359375,11.507083892822266,-11.179266929626465,1.2705888748168945
1772881576907681300,17.173681396484376,7.178467750549316,-12.045469284057617,1.1461620330810547
1772881576925026300,17.1910263671875,5.513063430786133,-11.210373878479004,0.2632105052471161
1772881576942371300,17.208371337890625,6.7310099601745605,-9.626325607299805,-0.7345965504646301
1772881576959716600,17.225716552734376,9.075976371765137,-7.700103282928467,-1.0528420209884644
1772881576977061600,17.2430615234375,8.941978454589844,-5.548955917358398,-1.215553879737854
1772881576994406700,17.26040673828125,7.8077802658081055,-4.48414945602417,-0.32303106784820557
1772881577011751700,17.277751708984376,6.539584159851074,-4.522434711456299,0.882951557636261
1772881577029097000,17.295096923828126,5.276174068450928,-5.2115678787231445,0.23688943684101105
1772881577046442000,17.31244189453125,4.821537494659424,-6.809973239898682,-0.9403793215751648
1772881577063787000,17.329787109375,5.931807518005371,-8.662017822265625,0.04546362906694412
1772881577081132000,17.347132080078126,6.116054534912109,-9.004191398620605,0.638883650302887
1772881577098477300,17.364477294921876,6.652047157287598,-9.56889820098877,0.14117653667926788
1772881577115822300,17.381822265625,7.0061845779418945,-10.045069694519043,-0.5934200286865234
1772881577133167400,17.39916748046875,7.317251682281494,-9.284152030944824,-1.3351950645446777
1772881577150512600,17.4165126953125,7.482356548309326,-7.472784996032715,-0.7393822073936462
1772881577167857700,17.433857666015626,7.611568927764893,-5.893522262573242,0.7130611538887024
1772881577185202700,17.45120263671875,7.29810905456543,-6.474977970123291,2.043470621109009
1772881577202547700,17.468547607421876,7.740781307220459,-8.788837432861328,2.2085752487182617
1772881577219893000,17.48589306640625,7.8556365966796875,-9.08554744720459,1.4572290182113647
1772881577237238000,17.503238037109377,5.465207099914551,-7.611568927764893,1.7922241687774658
1772881577254583000,17.5205830078125,4.405186653137207,-6.711867332458496,2.1822543144226074
1772881577271928300,17.53792822265625,4.874179840087891,-7.731209754943848,2.03629207611084
1772881577289273300,17.5552734375,5.458028316497803,-8.97787094116211,2.3473589420318604
1772881577306618400,17.572618408203127,7.762316703796387,-8.492127418518066,3.4959139823913574
1772881577323963400,17.58996337890625,8.097311973571777,-5.821737289428711,4.240081787109375
1772881577341308700,17.60730859375,7.032505512237549,-4.756931304931641,3.431307554244995
1772881577358653700,17.62465380859375,7.11146879196167,-6.38165807723999,3.249453067779541
1772881577375998700,17.641998779296873,6.601797580718994,-6.556334018707275,3.328416347503662
1772881577393344000,17.659343994140624,5.998806476593018,-5.036891460418701,3.761517286300659
1772881577410689000,17.67668896484375,4.991427898406982,-4.163511276245117,3.665804386138916
1772881577428034000,17.694033935546877,4.321437835693359,-4.934000492095947,3.38105845451355
1772881577445379300,17.71137939453125,5.024927616119385,-6.003592014312744,3.7256247997283936
1772881577462724400,17.728724365234374,4.843072891235352,-5.615954875946045,3.7184464931488037
1772881577480069400,17.7460693359375,4.364508628845215,-5.627918720245361,2.8354947566986084
1772881577497414700,17.76341455078125,4.527220249176025,-6.185446739196777,2.201396942138672
1772881577514759700,17.780759765625,4.646861553192139,-6.317051887512207,2.0338993072509766
1772881577532104700,17.798104736328124,5.496313571929932,-5.388636589050293,2.3856441974639893
1772881577549450000,17.815449951171875,5.546562671661377,-4.996213912963867,2.964707374572754
1772881577566795000,17.832794921875,5.115854740142822,-5.730810165405273,3.232703447341919
1772881577584140000,17.85014013671875,4.907679080963135,-6.553941249847412,2.957528829574585
1772881577601485000,17.867485107421874,4.845465660095215,-6.8554368019104,2.053041934967041
1772881577618830300,17.884830322265625,4.625326156616211,-6.874579429626465,1.1174482107162476
1772881577636175400,17.90217529296875,4.498506546020508,-6.711867332458496,0.3397808074951172
1772881577653520400,17.919520263671874,5.161318302154541,-6.178267955780029,0.07657032459974289
1772881577670865700,17.93686572265625,6.891329288482666,-7.046862602233887,0.19381862878799438
1772881577688210700,17.954210693359375,8.963513374328613,-8.054241180419922,0.851844847202301
1772881577705555700,17.9715556640625,11.081161499023438,-9.4061861038208,1.8065811395645142
1772881577722900700,17.988900634765624,13.864014625549316,-10.705488204956055,1.0648061037063599
1772881577740246000,18.00624609375,11.193624496459961,-13.107882499694824,0.08135596662759781
1772881577757591000,18.023591064453125,10.085747718811035,-14.368900299072266,1.4213366508483887
1772881577774936000,18.04093603515625,8.882157325744629,-11.023734092712402,2.4406790733337402
1772881577792281300,18.05828125,6.142375946044922,-6.642475605010986,1.4931213855743408
1772881577809626400,18.07562646484375,4.534399032592773,-3.4552359580993652,0.035892341285943985
1772881577826971400,18.092971435546875,5.237888813018799,-1.9142581224441528,-0.44027936458587646
1772881577844316400,18.11031640625,4.742574691772461,-2.3306093215942383,-1.8592232465744019
1772881577861661700,18.12766162109375,4.831109046936035,-3.8907296657562256,-2.4574289321899414
1772881577879006700,18.1450068359375,5.6446685791015625,-5.558526992797852,-0.9092726111412048
1772881577896351700,18.162351806640626,6.50608491897583,-6.137589931488037,0.9236295223236084
1772881577913697000,18.179697021484376,7.970492362976074,-6.771687984466553,1.459621787071228
1772881577931042000,18.1970419921875,9.657432556152344,-9.482755661010742,0.39960137009620667
1772881577948387000,18.214386962890625,8.793622970581055,-11.997612953186035,0.031106693670153618
1772881577965732000,18.231732177734376,7.9968132972717285,-12.141181945800781,0.4139583110809326
1772881577983077400,18.249077392578126,7.36032247543335,-10.576275825500488,-0.9930213689804077
1772881578000422400,18.26642236328125,7.130611419677734,-8.37966537475586,-0.5312066078186035
1772881578017767400,18.283767333984375,7.877171993255615,-7.688138961791992,0.4546363055706024
1772881578035112400,18.301112548828126,9.231510162353516,-8.11406135559082,1.6007983684539795
1772881578052457700,18.318457763671876,9.480362892150879,-9.049654960632324,2.139183521270752
1772881578069802800,18.335802734375,8.396414756774902,-8.228917121887207,2.1846470832824707
1772881578087147800,18.353147705078126,5.824130535125732,-5.903093338012695,1.9046868085861206
1772881578104493000,18.3704931640625,4.113262176513672,-5.371886730194092,1.7324036359786987
1772881578121838000,18.387838134765627,3.3930225372314453,-7.128218650817871,1.34476637840271
1772881578139183000,18.40518310546875,3.273381471633911,-8.164310455322266,1.074377417564392
1772881578156528000,18.422528076171876,4.926821708679199,-7.412964344024658,1.1270195245742798
1772881578173873400,18.439873291015626,6.1710896492004395,-5.654240131378174,2.469393014907837
1772881578191218400,18.457218505859377,6.532405853271484,-4.125226020812988,3.335594654083252
1772881578208563500,18.4745634765625,5.19960355758667,-3.862015724182129,2.510071039199829
1772881578225908700,18.49190869140625,6.570691108703613,-6.417550563812256,2.6297121047973633
1772881578243253800,18.509253662109376,8.032705307006836,-6.996613502502441,3.0628130435943604
1772881578260598800,18.526598876953123,7.733603000640869,-5.92223596572876,3.8261234760284424
1772881578277944000,18.543944091796874,5.7858452796936035,-5.742774486541748,3.82373046875
1772881578295289000,18.5612890625,5.1565327644348145,-6.087340831756592,4.235296249389648
1772881578312634000,18.578634033203127,5.295316696166992,-5.37906551361084,4.067798614501953
1772881578329979100,18.595979248046874,4.59421968460083,-5.154139995574951,3.4887354373931885
1772881578347324400,18.613324462890624,3.421736478805542,-4.922036170959473,2.4526431560516357
1772881578364669400,18.63066943359375,2.7900311946868896,-5.656632900238037,1.643869161605835
1772881578382014500,18.648014404296877,3.5198421478271484,-6.690331935882568,1.246660590171814
1772881578399359700,18.66535986328125,3.4983067512512207,-6.192625045776367,1.3782658576965332
1772881578416704800,18.682704833984374,4.024727821350098,-5.764309883117676,1.7515461444854736
1772881578434049800,18.7000498046875,4.967499732971191,-6.0370917320251465,2.1774685382843018
1772881578451395000,18.71739501953125,5.2977094650268555,-6.463014125823975,1.9525432586669922
1772881578468740000,18.734739990234374,5.5106706619262695,-6.860222339630127,1.6917256116867065
1772881578486085000,18.752085205078124,6.489335060119629,-7.434499740600586,1.5026925802230835
1772881578503430400,18.769430419921875,8.504091262817383,-8.839086532592773,1.5936198234558105
1772881578520775400,18.786775390625,11.330015182495117,-10.332208633422852,2.1200408935546875
1772881578538120400,18.804120361328124,12.153145790100098,-11.050054550170898,2.423929452896118
1772881578555465500,18.821465576171875,10.636096954345703,-11.521441459655762,2.7349963188171387
1772881578572810800,18.838810791015625,7.345965385437012,-11.188838958740234,1.8975083827972412
1772881578590155800,18.85615576171875,5.998806476593018,-10.664810180664062,1.2921242713928223
1772881578607500800,18.873500732421874,5.72841739654541,-9.243474006652832,0.5838487148284912
1772881578624845800,18.890845703125,6.075376510620117,-7.798209190368652,0.23688943684101105
1772881578642191000,18.908191162109375,6.168696880340576,-6.348158359527588,-0.7896314859390259
1772881578659536100,18.9255361328125,5.874379634857178,-4.756931304931641,-1.9597218036651611
1772881578676881200,18.942881103515624,5.718846321105957,-4.249652862548828,-2.4263222217559814
1772881578694226400,18.960226318359375,5.575276851654053,-5.290530681610107,-1.2873386144638062
1772881578711571500,18.977571533203125,7.10429048538208,-6.546762943267822,0.29431718587875366
1772881578728916500,18.99491650390625,7.4464640617370605,-6.960721015930176,1.0767701864242554
1772881578746261500,19.012261474609375,6.63769006729126,-7.396214962005615,1.0504491329193115
1772881578763606800,19.029606689453125,5.178068161010742,-7.776673793792725,0.2871387302875519
1772881578780951800,19.046951904296876,4.319045066833496,-8.23848819732666,-0.5670989751815796
1772881578798296800,19.064296875,5.017749309539795,-8.532805442810059,-0.8901300430297852
1772881578815642000,19.08164208984375,6.6592254638671875,-9.10229778289795,-1.1748759746551514
1772881578832987100,19.098987060546875,8.638090133666992,-9.695717811584473,-0.5862415432929993
1772881578850332200,19.116332275390626,9.20279598236084,-8.776873588562012,-0.23688943684101105
1772881578867677200,19.13367724609375,8.927620887756348,-7.977670669555664,0.24406790733337402
1772881578885022500,19.1510224609375,8.176275253295898,-8.685946464538574,1.1198409795761108
1772881578902367500,19.168367431640625,7.276573657989502,-9.745966911315918,1.9405791759490967
1772881578919712500,19.18571240234375,6.580262184143066,-9.573683738708496,1.031306505203247
1772881578937057500,19.2030576171875,5.680561065673828,-8.539983749389648,0.8877372145652771
1772881578954402800,19.22040283203125,4.773681163787842,-7.066005229949951,0.8877372145652771
1772881578971747800,19.237747802734376,4.417150497436523,-6.616154670715332,1.368694543838501
1772881578989092900,19.2550927734375,4.3310089111328125,-7.03489875793457,1.8113667964935303
1772881579006438100,19.272438232421877,4.642076015472412,-7.061219692230225,1.7611174583435059
1772881579023783200,19.289783203125,6.099305152893066,-7.010970115661621,2.706282377243042
1772881579041128200,19.307128173828126,6.3122663497924805,-5.912664890289307,2.8354947566986084
1772881579058473200,19.32447314453125,7.022934436798096,-6.812366008758545,2.8905298709869385
1772881579075818500,19.341818603515627,7.475177764892578,-7.073183536529541,3.297309637069702
1772881579093163500,19.35916357421875,7.573283672332764,-6.087340831756592,3.7663028240203857
1772881579110508500,19.376508544921876,5.582455158233643,-4.826323509216309,3.6634113788604736
1772881579127853800,19.393853759765626,4.113262176513672,-5.134997367858887,3.2590243816375732
1772881579145198800,19.41119873046875,3.830909013748169,-6.03948450088501,3.0388846397399902
1772881579162543900,19.4285439453125,4.756931304931641,-6.975078105926514,3.3786656856536865
1772881579179889200,19.44588916015625,5.414957523345947,-6.728617191314697,3.2039895057678223
1772881579197234200,19.463234130859377,4.527220249176025,-5.544169902801514,2.5986053943634033
1772881579214579200,19.4805791015625,4.4410786628723145,-5.178068161010742,2.500499725341797
1772881579231924200,19.49792431640625,5.079962253570557,-6.2500529289245605,2.4358935356140137
1772881579249269500,19.51526953125,5.54177713394165,-6.240481376647949,2.548356056213379
1772881579266614500,19.532614501953127,6.1328043937683105,-6.025127410888672,2.785245656967163
1772881579283959600,19.54995947265625,6.97986364364624,-6.472585201263428,3.115455150604248
1772881579301304800,19.567304931640624,7.11146879196167,-6.766902446746826,2.7014968395233154
1772881579318649900,19.58464990234375,6.970292568206787,-6.647261142730713,2.1918256282806396
1772881579335995000,19.601994873046873,6.673582553863525,-7.22871732711792,1.5601203441619873
1772881579353340000,19.61933984375,6.329015731811523,-7.817351341247559,1.0648061037063599
1772881579370685200,19.636685302734374,6.788437843322754,-8.410771369934082,0.4737788736820221
1772881579388030200,19.6540302734375,7.795815944671631,-9.008976936340332,0.4378865361213684
1772881579405375200,19.671375244140624,8.50169849395752,-9.657432556152344,1.1054840087890625
1772881579422720500,19.688720458984374,9.147761344909668,-10.241280555725098,1.3591232299804688
1772881579440065500,19.7060654296875,7.683353424072266,-10.480563163757324,0.5790630578994751
1772881579457410600,19.72341064453125,8.394021987915039,-10.016355514526367,0.8159525394439697
1772881579474755600,19.740755615234374,9.614361763000488,-8.583054542541504,1.6773686408996582
1772881579492100900,19.758100830078124,8.513663291931152,-6.876972198486328,1.0600204467773438
1772881579509446000,19.77544580078125,5.912664890289307,-5.5968122482299805,-1.100698471069336
1772881579526791000,19.792791015625,5.26181697845459,-4.687539577484131,-1.7419748306274414
1772881579544136200,19.81013623046875,5.749952793121338,-4.551148891448975,0.16271193325519562
1772881579561481200,19.827481201171874,6.881757736206055,-5.015356063842773,0.05024927482008934
1772881579578826200,19.844826171875,6.632904529571533,-6.369693756103516,0.07896314561367035
1772881579596171300,19.862171142578124,6.991827964782715,-7.470392227172852,0.17946170270442963
1772881579613516300,19.879516357421874,6.735795974731445,-7.623532772064209,0.02871387079358101
1772881579630861600,19.896861572265625,6.896114826202393,-8.346165657043457,-0.19381862878799438
1772881579648206600,19.91420654296875,6.52044153213501,-8.549555778503418,-0.7513462901115417
1772881579665551600,19.931551513671874,7.1234331130981445,-9.590433120727539,-0.6604190468788147
1772881579682897000,19.94889697265625,8.147561073303223,-9.822537422180176,0.035892341285943985
1772881579700242000,19.966241943359375,8.2695951461792,-7.910671710968018,0.6699903607368469
1772881579717587000,19.9835869140625,8.018348693847656,-7.0683979988098145,0.9188438653945923
1772881579734932000,20.000931884765624,7.300501823425293,-7.936992645263672,0.8949156403541565
1772881579752277200,20.01827734375,6.63051176071167,-8.176275253295898,0.46420758962631226
1772881579769622300,20.035622314453125,4.797609329223633,-7.659425258636475,0.9595218896865845
1772881579786967300,20.05296728515625,4.362115859985352,-8.233702659606934,1.2921242713928223
1772881579804312300,20.070312255859374,5.92223596572876,-8.786444664001465,1.7060825824737549
1772881579821657600,20.08765771484375,7.125825881958008,-8.561519622802734,2.572284460067749
1772881579839002600,20.105002685546875,7.302894592285156,-7.7838521003723145,3.2925238609313965
1772881579856347600,20.12234765625,6.946363925933838,-6.503692150115967,3.19441819190979
1772881579873693000,20.13969287109375,5.867201328277588,-4.878965377807617,2.6703901290893555
1772881579891038000,20.157037841796875,6.3361945152282715,-3.9385859966278076,2.390429735183716
1772881579908383000,20.174383056640625,6.013163089752197,-4.268795490264893,2.9623143672943115
1772881579925728300,20.191728271484376,6.26440954208374,-5.7164530754089355,3.0939197540283203
1772881579943073300,20.2090732421875,5.888736724853516,-5.781059741973877,3.1274192333221436
1772881579960418300,20.226418212890625,5.733202934265137,-5.225924491882324,3.4648072719573975
1772881579977763300,20.243763427734375,4.632504463195801,-5.5345988273620605,3.7974095344543457
1772881579995108600,20.261108642578126,4.713860511779785,-6.881757736206055,3.7878382205963135
1772881580012453600,20.27845361328125,5.051248550415039,-6.853044033050537,3.1752755641937256
1772881580029798700,20.295798583984375,5.367101192474365,-5.656632900238037,2.888136863708496
1772881580047144000,20.31314404296875,5.213960647583008,-4.8191447257995605,2.809173822402954
1772881580064489000,20.330489013671876,4.575077056884766,-4.9363932609558105,2.65842604637146
1772881580081834000,20.347833984375,4.386044025421143,-5.326423168182373,2.5292134284973145
1772881580099179000,20.365178955078125,4.48414945602417,-5.900700569152832,2.579462766647339
1772881580116524300,20.382524169921876,4.919643402099609,-6.489335060119629,2.5124638080596924
1772881580133869300,20.399869384765626,5.565705299377441,-6.417550563812256,2.3880369663238525
1772881580151214300,20.41721435546875,6.305087566375732,-6.247660160064697,2.0865414142608643
1772881580168559600,20.4345595703125,6.965506553649902,-6.419943332672119,1.7515461444854736
1772881580185904600,20.451904541015626,7.35314416885376,-7.63310432434082,1.404586911201477
1772881580203249700,20.469249755859376,8.851051330566406,-9.43489933013916,1.3112667798995972
1772881580220594700,20.4865947265625,9.408578872680664,-10.913663864135742,1.275374412536621
1772881580237940000,20.50393994140625,10.526026725769043,-11.47119140625,2.0171494483947754
1772881580255285000,20.521284912109376,10.50927734375,-11.045269012451172,2.287538528442383
1772881580272630000,20.538630126953127,8.200202941894531,-9.875179290771484,2.242074728012085
1772881580289975300,20.555975341796874,5.900700569152832,-7.623532772064209,1.2179467678070068
1772881580307320300,20.5733203125,4.591826438903809,-5.637490272521973,-0.3445664644241333
1772881580324665300,20.590665283203126,6.245266914367676,-4.938786029815674,-1.1054840087890625
1772881580342010400,20.60801025390625,8.336593627929688,-4.967499732971191,-1.9860427379608154
1772881580359355400,20.62535546875,9.248259544372559,-5.429314613342285,-1.2059825658798218
1772881580376700700,20.64270068359375,7.934599876403809,-6.422336101531982,0.5479564070701599
1772881580394045700,20.660045654296876,6.642475605010986,-7.365108013153076,1.1581261157989502
1772881580411390700,20.677390625,5.994020938873291,-7.575676441192627,0.23449662327766418
1772881580428736000,20.694736083984374,5.685346603393555,-7.013363361358643,0.47617170214653015
1772881580446081000,20.7120810546875,5.66620397567749,-6.190232276916504,0.8662018179893494
1772881580463426000,20.729426025390627,5.804987907409668,-6.989434719085693,-0.009571290574967861
1772881580480771000,20.74677099609375,6.2428741455078125,-7.929814338684082,-0.6963114142417908
1772881580498116000,20.7641162109375,7.779066562652588,-8.949156761169434,-0.21774685382843018
1772881580515461400,20.78146142578125,8.827122688293457,-8.549555778503418,0.729810893535614
1772881580532806400,20.798806396484373,8.537590980529785,-7.338787078857422,1.1581261157989502
1772881580550151400,20.8161513671875,7.671389579772949,-7.386643409729004,1.3471591472625732
1772881580567496700,20.83349658203125,7.848458290100098,-8.520841598510742,1.1509476900100708
1772881580584841700,20.850841796875,8.10688304901123,-9.384650230407715,0.9355936646461487
1772881580602186800,20.868186767578123,6.453442573547363,-8.781659126281738,1.6917256116867065
1772881580619531800,20.88553173828125,5.213960647583008,-8.13081169128418,1.9836499691009521
1772881580636877000,20.902876953125,5.84566593170166,-7.652246952056885,2.179861545562744
1772881580654222000,20.92022216796875,5.84566593170166,-7.877171993255615,2.7637102603912354
1772881580671567000,20.937567138671874,5.986842155456543,-8.444271087646484,3.122633457183838
1772881580688912400,20.954912353515624,6.367300987243652,-7.3052873611450195,3.7112679481506348
1772881580706257400,20.97225732421875,6.996613502502441,-4.677968502044678,3.1824541091918945
1772881580723602400,20.9896025390625,6.305087566375732,-3.0412776470184326,3.2853455543518066
1772881580740947500,21.006947509765624,5.79780912399292,-3.5054850578308105,3.084348440170288
1772881580758292700,21.024292724609374,4.689932346343994,-4.792823791503906,3.1274192333221436
1772881580775637800,21.0416376953125,5.142175674438477,-6.2189459800720215,3.5198421478271484
1772881580792982800,21.058982666015623,5.6590256690979,-6.417550563812256,3.7184464931488037
1772881580810328000,21.076328125,5.481956481933594,-5.44845724105835,3.680161237716675
1772881580827673000,21.093673095703124,4.874179840087891,-5.429314613342285,3.8811583518981934
1772881580845018000,21.11101806640625,4.584648132324219,-5.972485542297363,3.555734395980835
1772881580862363100,21.128363037109374,4.687539577484131,-5.675775527954102,2.8833513259887695
1772881580879708400,21.14570849609375,4.60139799118042,-4.931607246398926,2.469393014907837
1772881580897053400,21.163053466796875,4.467400074005127,-5.314459323883057,2.4981069564819336
1772881580914398500,21.1803984375,4.677968502044678,-6.0370917320251465,2.7732813358306885
1772881580931743700,21.19774365234375,5.493920803070068,-6.45822811126709,2.9718856811523438
1772881580949088800,21.2150888671875,6.161518096923828,-6.317051887512207,3.0580272674560547
1772881580966433800,21.232433837890625,6.118447303771973,-5.855237007141113,2.2636101245880127
1772881580983778800,21.24977880859375,5.819344520568848,-6.7310099601745605,2.469393014907837
1772881581001124000,21.2671240234375,6.144768714904785,-6.814758777618408,2.172683000564575
1772881581018469000,21.28446923828125,6.510870456695557,-7.451249599456787,1.9046868085861206
1772881581035814100,21.301814208984375,6.831508636474609,-8.628518104553223,1.8951154947280884
1772881581053159200,21.3191591796875,8.066205024719238,-9.291330337524414,2.148754835128784
1772881581070504400,21.33650439453125,8.149953842163086,-9.564111709594727,2.3641088008880615
1772881581087849500,21.353849365234375,8.372486114501953,-9.45882797241211,2.589034080505371
1772881581105194500,21.371194580078125,8.930013656616211,-8.877371788024902,2.0554347038269043
1772881581122539800,21.388539794921876,7.57806921005249,-8.425128936767578,0.5599204897880554
1772881581139884800,21.405884765625,6.017949104309082,-7.932207107543945,-0.5120640397071838
1772881581157229800,21.423229736328125,6.348158359527588,-7.3675007820129395,-0.5934200286865234
1772881581174574800,21.440574951171875,7.343572616577148,-6.501298904418945,-0.8279166221618652
1772881581191920000,21.457920166015626,8.62612533569336,-6.142375946044922,-0.8039883971214294
1772881581209265200,21.47526513671875,8.96829891204834,-6.5419769287109375,0.4091726839542389
1772881581226610200,21.492610107421875,7.6666035652160645,-6.98704195022583,1.1653046607971191
1772881581243955200,21.509955078125,5.869594097137451,-6.668796539306641,-0.0526420995593071
1772881581261300200,21.52730029296875,5.041677474975586,-6.690331935882568,-0.4043870270252228
1772881581278645500,21.5446455078125,5.429314613342285,-6.795616149902344,-0.06939185410737991
1772881581295990500,21.561990478515625,5.757131099700928,-6.695117950439453,0.24167509377002716
1772881581313335600,21.57933544921875,6.398407936096191,-7.200003147125244,0.29431718587875366
1772881581330680600,21.5966806640625,6.874579429626465,-7.546962738037109,0.2967100143432617
1772881581348025900,21.61402587890625,7.843672752380371,-7.6474609375,0.8207381963729858
1772881581365371000,21.631370849609375,8.305487632751465,-7.908278942108154,1.1365907192230225
1772881581382716000,21.6487158203125,8.142775535583496,-8.537590980529785,1.8352949619293213
1772881581400061200,21.666061279296876,8.738588333129883,-9.839286804199219,2.201396942138672
1772881581417406200,21.68340625,8.891729354858398,-11.212766647338867,1.6821542978286743
1772881581434751200,21.700751220703125,7.963313579559326,-10.04267692565918,1.7682958841323853
1772881581452096300,21.71809619140625,5.862415313720703,-9.28893756866455,2.311466693878174
1772881581469441500,21.735441650390626,5.898307800292969,-8.248059272766113,1.8424733877182007
1772881581486786600,21.75278662109375,5.881557941436768,-7.470392227172852,1.7994025945663452
1772881581504131600,21.770131591796876,5.527420520782471,-7.085147857666016,2.148754835128784
1772881581521476900,21.787476806640626,5.802595138549805,-6.391229152679443,2.9599215984344482
1772881581538822000,21.80482177734375,4.919643402099609,-4.213760852813721,2.888136863708496
1772881581556167000,21.8221669921875,5.78345251083374,-4.302295207977295,3.091526746749878
1772881581573512000,21.839511962890626,6.486942291259766,-4.639683246612549,3.541377544403076
1772881581590857200,21.856857177734376,5.819344520568848,-5.312066078186035,3.4241292476654053
1772881581608202200,21.8742021484375,6.020341873168945,-6.022734642028809,3.3092737197875977
1772881581625547300,21.89154736328125,5.4556355476379395,-6.429514408111572,3.1489546298980713
1772881581642892500,21.908892578125,4.54636287689209,-5.213960647583008,3.129812002182007
1772881581660237600,21.926237548828126,3.5820555686950684,-4.596612453460693,3.2279176712036133
1772881581677582600,21.94358251953125,3.651447296142578,-5.800201892852783,2.957528829574585
1772881581694927600,21.960927734375,4.144368648529053,-6.034698486328125,2.5674986839294434
1772881581712273000,21.97827294921875,4.438685894012451,-5.699703693389893,2.4191436767578125
1772881581729618000,21.995617919921877,5.216353416442871,-5.874379634857178,2.6775684356689453
1772881581746963000,22.012962890625,5.843272686004639,-6.001199245452881,2.885744094848633
1772881581764308000,22.030307861328126,6.8554368019104,-6.661618232727051,3.342773199081421
1772881581781653200,22.0476533203125,7.728816986083984,-6.405586242675781,4.120440483093262
1772881581798998300,22.064998291015623,7.747959613800049,-5.484349727630615,4.185046672821045
1772881581816343300,22.08234326171875,7.719245910644531,-5.560919761657715,4.039084434509277
1772881581833688600,22.0996884765625,6.510870456695557,-6.029912948608398,3.16331148147583
1772881581851033600,22.11703369140625,5.453242778778076,-6.240481376647949,2.108076810836792
1772881581868378600,22.134378662109373,4.675575256347656,-6.580262184143066,1.0480563640594482
1772881581885723600,22.1517236328125,5.00578498840332,-6.86261510848999,0.6269195079803467
1772881581903069000,22.16906884765625,5.242674350738525,-7.125825881958008,0.5288137793540955
1772881581920414000,22.1864140625,7.551748275756836,-7.843672752380371,0.8398807644844055
1772881581937759000,22.203759033203124,9.753145217895508,-8.683553695678711,0.26560330390930176
1772881581955104000,22.22110400390625,11.47119140625,-10.061819076538086,0
1772881581972449300,22.23844921875,10.657631874084473,-10.698309898376465,0.17228323221206665
1772881581989794300,22.255794189453123,9.45882797241211,-10.925628662109375,0.8255237936973572
1772881582007139300,22.273139404296874,9.336793899536133,-9.437292098999023,1.0456634759902954
