time,seconds_elapsed,z,y,x
1772881559796716000,0.062716064453125,6.566305160522461,6.860579490661621,2.4467265605926514
1772881559806716000,0.0727158203125,6.8775529861450195,6.697922229766846,2.001873254776001
1772881559816716000,0.082716064453125,7.034704685211182,6.646181583404541,1.5847983360290527
1772881559826716000,0.0927158203125,7.187042713165283,6.570195198059082,1.1616089344024658
1772881559836716000,0.102716064453125,7.316894054412842,6.489844799041748,0.7178939580917358
1772881559846716000,0.1127158203125,7.370738506317139,6.462989330291748,0.26902568340301514
1772881559856716000,0.122716064453125,7.357513904571533,6.481721878051758,-0.15705253183841705
1772881559866716000,0.1327158203125,7.34467077255249,6.477440357208252,-0.5186193585395813
1772881559876716000,0.142716064453125,7.347559452056885,6.447699069976807,-0.7816272377967834
1772881559886716000,0.1527158203125,7.387762069702148,6.375924110412598,-0.9689938426017761
1772881559896716000,0.162716064453125,7.470125198364258,6.254417896270752,-1.1179739236831665
1772881559906716000,0.1727158203125,7.567500591278076,6.103105068206787,-1.2866374254226685
1772881559916716000,0.182716064453125,7.6591620445251465,5.939386367797852,-1.4937567710876465
1772881559926716000,0.1927158203125,7.746999740600586,5.757368087768555,-1.7340989112854004
1772881559936716000,0.202716064453125,7.799787998199463,5.593282699584961,-2.0121841430664062
1772881559946716000,0.2127158203125,7.820055961608887,5.438472270965576,-2.3324079513549805
1772881559956716000,0.222716064453125,7.842676162719727,5.246882438659668,-2.6707751750946045
1772881559966716000,0.2327158203125,7.845210552215576,5.042204856872559,-3.0330240726470947
1772881559976716000,0.242716064453125,7.805722236633301,4.8362860679626465,-3.4425902366638184
1772881559986716000,0.2527158203125,7.7482218742370605,4.587683200836182,-3.8844034671783447
1772881559996716000,0.262716064453125,7.665116786956787,4.272274017333984,-4.377675533294678
1772881560006716000,0.2727158203125,7.496783256530762,3.892772912979126,-4.981460094451904
1772881560016716000,0.282716064453125,7.196284770965576,3.4318275451660156,-5.710204601287842
1772881560026716000,0.2927158203125,6.838788032531738,2.8247017860412598,-6.436026096343994
1772881560036716000,0.302716064453125,6.499821662902832,2.088837146759033,-7.039848327636719
1772881560046716000,0.3127158203125,6.188178539276123,1.3121891021728516,-7.493663787841797
1772881560056716000,0.322716064453125,5.905457019805908,0.5112799406051636,-7.812462329864502
1772881560066716000,0.3327158203125,5.673434734344482,-0.31239423155784607,-7.992805004119873
1772881560076716000,0.342716064453125,5.47761869430542,-1.1112531423568726,-8.057990074157715
1772881560086716000,0.3527158203125,5.249244689941406,-1.9196017980575562,-8.057973861694336
1772881560096716000,0.362716064453125,4.9547953605651855,-2.7347521781921387,-8.008840560913086
1772881560106716000,0.3727158203125,4.560853481292725,-3.568511962890625,-7.914209365844727
1772881560116716000,0.382716064453125,4.090764045715332,-4.424422740936279,-7.736957550048828
1772881560126716000,0.3927158203125,3.6362311840057373,-5.252584457397461,-7.440334320068359
1772881560136716000,0.402716064453125,3.2916667461395264,-5.898061752319336,-7.109725475311279
1772881560146716000,0.4127158203125,3.0909597873687744,-6.327970027923584,-6.824452877044678
1772881560156716000,0.422716064453125,3.0349299907684326,-6.624095916748047,-6.563607215881348
1772881560166716000,0.4327158203125,3.0206193923950195,-6.851811408996582,-6.332370758056641
1772881560176716000,0.442716064453125,2.9661917686462402,-7.067812919616699,-6.117034435272217
1772881560186716000,0.4527158203125,2.8696486949920654,-7.288311958312988,-5.900510787963867
1772881560196716000,0.462716064453125,2.733961820602417,-7.513583183288574,-5.678196430206299
1772881560206716000,0.4727158203125,2.62115740776062,-7.69025182723999,-5.491807460784912
1772881560216716000,0.482716064453125,2.5949857234954834,-7.752490997314453,-5.416210174560547
1772881560226716000,0.4927158203125,2.5355329513549805,-7.719448089599609,-5.491045951843262
1772881560236716000,0.502716064453125,2.431220293045044,-7.635477542877197,-5.653233051300049
1772881560246716000,0.5127158203125,2.2931923866271973,-7.520349025726318,-5.861400127410889
1772881560256716000,0.522716064453125,2.1646010875701904,-7.376485824584961,-6.0887064933776855
1772881560266716000,0.5327158203125,2.0496816635131836,-7.199830532073975,-6.334953308105469
1772881560276716000,0.542716064453125,1.9112480878829956,-6.989466190338135,-6.607940673828125
1772881560286716000,0.5527158203125,1.739545464515686,-6.7536797523498535,-6.894359111785889
1772881560296716000,0.562716064453125,1.569181203842163,-6.461874961853027,-7.207788944244385
1772881560306716000,0.5727158203125,1.3802804946899414,-6.113606929779053,-7.542481422424316
1772881560316716000,0.582716064453125,1.1772270202636719,-5.744281768798828,-7.860517978668213
1772881560326716000,0.5927158203125,0.8966162800788879,-5.399877071380615,-8.136817932128906
1772881560336716000,0.602716064453125,0.6170476078987122,-5.085797309875488,-8.362075805664062
1772881560346716000,0.6127158203125,0.3450440764427185,-4.795562267303467,-8.547157287597656
1772881560356716000,0.622716064453125,0.08278050273656845,-4.561633110046387,-8.680727005004883
1772881560366716000,0.6327158203125,-0.11608318239450455,-4.3946380615234375,-8.766074180603027
1772881560376716000,0.642716064453125,-0.28292375802993774,-4.328232288360596,-8.795269012451172
1772881560386716000,0.6527158203125,-0.4116173982620239,-4.366247177124023,-8.77136516571045
1772881560396716000,0.662716064453125,-0.5006535649299622,-4.440805912017822,-8.729202270507812
1772881560406716000,0.6727158203125,-0.5959458351135254,-4.489101409912109,-8.69845962524414
1772881560416716000,0.682716064453125,-0.6250407099723816,-4.532961368560791,-8.673636436462402
1772881560426716000,0.6927158203125,-0.7193278074264526,-4.5543599128723145,-8.655099868774414
1772881560436716000,0.702716064453125,-0.8001141548156738,-4.593489170074463,-8.62728500366211
1772881560446716000,0.7127158203125,-0.8284443616867065,-4.622118949890137,-8.609302520751953
1772881560456716000,0.722716064453125,-0.7885167598724365,-4.676509380340576,-8.583641052246094
1772881560466716000,0.7327158203125,-0.8159013390541077,-4.703036785125732,-8.566571235656738
1772881560476716000,0.742716064453125,-0.9460352063179016,-4.7206130027771,-8.543490409851074
1772881560486716000,0.7527158203125,-1.1677345037460327,-4.723118305206299,-8.514631271362305
1772881560496716000,0.762716064453125,-1.483035922050476,-4.665067672729492,-8.497537612915039
1772881560506716000,0.7727158203125,-1.757807731628418,-4.616104602813721,-8.471840858459473
1772881560516716000,0.782716064453125,-1.8881803750991821,-4.531765460968018,-8.489302635192871
1772881560526716000,0.7927158203125,-2.0204858779907227,-4.326249599456787,-8.565722465515137
1772881560536716000,0.802716064453125,-2.1203360557556152,-4.093810558319092,-8.65536117553711
1772881560546716000,0.8127158203125,-2.192106008529663,-3.868356227874756,-8.74075984954834
1772881560556716000,0.822716064453125,-2.2332186698913574,-3.700868606567383,-8.802652359008789
1772881560566716000,0.8327158203125,-2.2453038692474365,-3.5623981952667236,-8.856539726257324
1772881560576716000,0.842716064453125,-2.2154483795166016,-3.4478585720062256,-8.909233093261719
1772881560586716000,0.8527158203125,-2.1087334156036377,-3.321627616882324,-8.982784271240234
1772881560596716000,0.862716064453125,-1.9291971921920776,-3.1919472217559814,-9.069732666015625
1772881560606716000,0.8727158203125,-1.7171776294708252,-3.095207452774048,-9.145565032958984
1772881560616716000,0.882716064453125,-1.5438734292984009,-3.058239698410034,-9.188797950744629
1772881560626716000,0.8927158203125,-1.4321789741516113,-3.045647144317627,-9.211041450500488
1772881560636716000,0.902716064453125,-1.3561482429504395,-3.058206081390381,-9.218385696411133
1772881560646716000,0.9127158203125,-1.2754297256469727,-3.160627841949463,-9.195329666137695
1772881560656716000,0.922716064453125,-1.2612444162368774,-3.374255418777466,-9.121077537536621
1772881560666716000,0.9327158203125,-1.3725981712341309,-3.6642203330993652,-8.99221134185791
1772881560676716000,0.942716064453125,-1.610499382019043,-3.980571746826172,-8.816558837890625
1772881560686716000,0.9527158203125,-1.8130913972854614,-4.268669128417969,-8.640691757202148
1772881560696716000,0.962716064453125,-1.821592926979065,-4.489505767822266,-8.526225090026855
1772881560706716000,0.9727158203125,-1.729284644126892,-4.650965213775635,-8.458633422851562
1772881560716716000,0.982716064453125,-1.6225377321243286,-4.799373626708984,-8.396652221679688
1772881560726716000,0.9927158203125,-1.4727033376693726,-4.969290733337402,-8.32512378692627
1772881560736716000,1.002716064453125,-1.2229235172271729,-5.157257556915283,-8.250911712646484
1772881560746716000,1.0127158203125,-0.9170082211494446,-5.3393073081970215,-8.174429893493652
1772881560756716000,1.022716064453125,-0.6264241337776184,-5.521396636962891,-8.08035659790039
1772881560766716000,1.0327158203125,-0.3466372787952423,-5.690842628479004,-7.979007244110107
1772881560776716000,1.042716064453125,-0.07371681183576584,-5.8370137214660645,-7.879989147186279
1772881560786716000,1.0527158203125,0.23800727725028992,-5.978653430938721,-7.769777297973633
1772881560796716000,1.062716064453125,0.5100398659706116,-6.114295959472656,-7.650204658508301
1772881560806716000,1.0727158203125,0.7152774930000305,-6.243214130401611,-7.528680801391602
1772881560816716000,1.082716064453125,0.8564238548278809,-6.384493350982666,-7.394266128540039
1772881560826716000,1.0927158203125,0.9696661233901978,-6.530984401702881,-7.250957012176514
1772881560836716000,1.102716064453125,1.0493887662887573,-6.71036434173584,-7.073908805847168
1772881560846716000,1.1127158203125,1.117611050605774,-6.9116363525390625,-6.866631031036377
1772881560856716000,1.122716064453125,1.193869948387146,-7.104238510131836,-6.653935432434082
1772881560866716000,1.1327158203125,1.2662397623062134,-7.3134684562683105,-6.409383773803711
1772881560876716000,1.142716064453125,1.3081356287002563,-7.526672840118408,-6.148850917816162
1772881560886716000,1.1527158203125,1.3108482360839844,-7.712838172912598,-5.913052082061768
1772881560896716000,1.162716064453125,1.2654874324798584,-7.865097522735596,-5.719192028045654
1772881560906716000,1.1727158203125,1.1845319271087646,-7.985125541687012,-5.568216800689697
1772881560916716000,1.182716064453125,1.081078290939331,-8.078848838806152,-5.45287561416626
1772881560926716000,1.1927158203125,0.9819020628929138,-8.155750274658203,-5.356305122375488
1772881560936716000,1.202716064453125,0.8965397477149963,-8.224388122558594,-5.2655510902404785
1772881560946716000,1.2127158203125,0.8379193544387817,-8.292835235595703,-5.166930675506592
1772881560956716000,1.222716064453125,0.8123787641525269,-8.363492012023926,-5.055930137634277
1772881560966716000,1.2327158203125,0.8087018728256226,-8.420859336853027,-4.960394859313965
1772881560976716000,1.242716064453125,0.8472869396209717,-8.451748847961426,-4.901065349578857
1772881560986716000,1.2527158203125,0.9111793041229248,-8.46465015411377,-4.867221832275391
1772881560996716000,1.262716064453125,0.9833158254623413,-8.470146179199219,-4.843564033508301
1772881561006716000,1.2727158203125,1.0798805952072144,-8.473331451416016,-4.817353248596191
1772881561016716000,1.282716064453125,1.2291698455810547,-8.47526741027832,-4.778008937835693
1772881561026716000,1.2927158203125,1.4679042100906372,-8.47896957397461,-4.703479766845703
1772881561036716000,1.302716064453125,1.8015800714492798,-8.492514610290527,-4.560909271240234
1772881561046716000,1.3127158203125,2.198378801345825,-8.507614135742188,-4.354081153869629
1772881561056716000,1.322716064453125,2.5914876461029053,-8.515359878540039,-4.11621618270874
1772881561066716000,1.3327158203125,2.8567605018615723,-8.528980255126953,-3.9071483612060547
1772881561076716000,1.342716064453125,2.9580514430999756,-8.558938980102539,-3.763625144958496
1772881561086716000,1.3527158203125,2.942580461502075,-8.606904983520508,-3.665079116821289
1772881561096716000,1.362716064453125,2.8784122467041016,-8.666619300842285,-3.574190378189087
1772881561106716000,1.3727158203125,2.8171608448028564,-8.74679183959961,-3.4245615005493164
1772881561116716000,1.382716064453125,2.7639646530151367,-8.86507511138916,-3.1529881954193115
1772881561126716000,1.3927158203125,2.70755672454834,-9.02484130859375,-2.718780517578125
1772881561136716000,1.402716064453125,2.6213107109069824,-9.203790664672852,-2.1422791481018066
1772881561146716000,1.4127158203125,2.5180695056915283,-9.367115020751953,-1.4445960521697998
1772881561156716000,1.422716064453125,2.4251723289489746,-9.482429504394531,-0.6102854609489441
1772881561166716000,1.4327158203125,2.319035053253174,-9.526199340820312,0.20976944267749786
1772881561176716000,1.442716064453125,2.1773970127105713,-9.537068367004395,0.6882261633872986
1772881561186716000,1.4527158203125,2.065247058868408,-9.554327011108398,0.7873871326446533
1772881561196716000,1.462716064453125,2.0924510955810547,-9.554116249084473,0.7147629857063293
1772881561206716000,1.4727158203125,2.215419292449951,-9.532210350036621,0.6318877339363098
1772881561216716000,1.482716064453125,2.3922433853149414,-9.493571281433105,0.5653778910636902
1772881561226716000,1.4927158203125,2.5786027908325195,-9.447542190551758,0.5149144530296326
1772881561236716000,1.502716064453125,2.74960994720459,-9.399845123291016,0.5029357671737671
1772881561246716000,1.5127158203125,2.896200656890869,-9.35469913482666,0.5215485692024231
1772881561256716000,1.522716064453125,3.015167474746704,-9.315481185913086,0.5485942959785461
1772881561266716000,1.5327158203125,3.11850643157959,-9.280430793762207,0.5647150874137878
1772881561276716000,1.542716064453125,3.2087581157684326,-9.249836921691895,0.5610487461090088
1772881561286716000,1.5527158203125,3.285797357559204,-9.224175453186035,0.537132978439331
1772881561296716000,1.562716064453125,3.354581356048584,-9.20151424407959,0.49930837750434875
1772881561306716000,1.5727158203125,3.415741205215454,-9.181594848632812,0.4487893581390381
1772881561316716000,1.582716064453125,3.468127489089966,-9.164844512939453,0.38485783338546753
1772881561326716000,1.5927158203125,3.5133652687072754,-9.149904251098633,0.3254687190055847
1772881561336716000,1.602716064453125,3.552098512649536,-9.135028839111328,0.32285377383232117
1772881561346716000,1.6127158203125,3.541792154312134,-9.137777328491211,0.3565341532230377
1772881561356716000,1.622716064453125,3.5017635822296143,-9.151429176330566,0.39923539757728577
1772881561366716000,1.6327158203125,3.4787354469299316,-9.157564163208008,0.4558427631855011
1772881561376716000,1.642716064453125,3.4725747108459473,-9.155527114868164,0.536594033241272
1772881561386716000,1.6527158203125,3.4856362342834473,-9.143257141113281,0.6492810845375061
1772881561396716000,1.662716064453125,3.517868757247925,-9.119741439819336,0.790755569934845
1772881561406716000,1.6727158203125,3.5562756061553955,-9.089720726013184,0.9488203525543213
1772881561416716000,1.682716064453125,3.5886073112487793,-9.058527946472168,1.111467957496643
1772881561426716000,1.6927158203125,3.5918450355529785,-9.035009384155273,1.2797075510025024
1772881561436716000,1.702716064453125,3.560288667678833,-9.020864486694336,1.4555882215499878
1772881561446716000,1.7127158203125,3.501600742340088,-9.013089179992676,1.6350566148757935
1772881561456716000,1.722716064453125,3.42716383934021,-9.013029098510742,1.7861257791519165
1772881561466716000,1.7327158203125,3.352471351623535,-9.019042015075684,1.894251823425293
1772881561476716000,1.742716064453125,3.2900917530059814,-9.024812698364258,1.9744458198547363
1772881561486716000,1.7527158203125,3.2441601753234863,-9.028643608093262,2.0320961475372314
1772881561496716000,1.762716064453125,3.21101975440979,-9.033458709716797,2.063098192214966
1772881561506716000,1.7727158203125,3.13887357711792,-9.051885604858398,2.093132257461548
1772881561516716000,1.782716064453125,2.9935433864593506,-9.086691856384277,2.1543262004852295
1772881561526716000,1.7927158203125,2.8093836307525635,-9.129654884338379,2.2197232246398926
1772881561536716000,1.802716064453125,2.6411166191101074,-9.168794631958008,2.2645277976989746
1772881561546716000,1.8127158203125,2.543121099472046,-9.192402839660645,2.2809271812438965
1772881561556716000,1.822716064453125,2.5585687160491943,-9.190316200256348,2.2720518112182617
1772881561566716000,1.8327158203125,2.679845094680786,-9.16113567352295,2.249981641769409
1772881561576716000,1.842716064453125,2.866898775100708,-9.112091064453125,2.2183501720428467
1772881561586716000,1.8527158203125,3.0915894508361816,-9.046466827392578,2.1849241256713867
1772881561596716000,1.862716064453125,3.3198416233062744,-8.971508979797363,2.1589534282684326
1772881561606716000,1.8727158203125,3.517876386642456,-8.899934768676758,2.141515016555786
1772881561616716000,1.882716064453125,3.6689531803131104,-8.841416358947754,2.130385160446167
1772881561626716000,1.8927158203125,3.7879250049591064,-8.793088912963867,2.122166872024536
1772881561636716000,1.902716064453125,3.890700578689575,-8.750717163085938,2.1113502979278564
1772881561646716000,1.9127158203125,3.9906747341156006,-8.708499908447266,2.0992658138275146
1772881561656716000,1.922716064453125,4.092899322509766,-8.662078857421875,2.094505548477173
1772881561666716000,1.9327158203125,4.190314292907715,-8.617006301879883,2.0877866744995117
1772881561676716000,1.942716064453125,4.285093784332275,-8.573189735412598,2.0757603645324707
1772881561686716000,1.9527158203125,4.3701629638671875,-8.53508472442627,2.055332660675049
1772881561696716000,1.962716064453125,4.448769569396973,-8.502058029174805,2.023329734802246
1772881561706716000,1.9727158203125,4.518279075622559,-8.475317001342773,1.9810470342636108
1772881561716716000,1.982716064453125,4.5865044593811035,-8.45064640045166,1.9289727210998535
1772881561726716000,1.9927158203125,4.655125617980957,-8.42513370513916,1.875453233718872
1772881561736716000,2.002716064453125,4.715257167816162,-8.401633262634277,1.8301095962524414
1772881561746716000,2.0127158203125,4.7688751220703125,-8.380688667297363,1.7866955995559692
1772881561756716000,2.022716064453125,4.814876079559326,-8.363998413085938,1.7409451007843018
1772881561766716000,2.0327158203125,4.847330570220947,-8.35482406616211,1.6943047046661377
1772881561776716000,2.042716064453125,4.869655609130859,-8.350743293762207,1.6498273611068726
1772881561786716000,2.0527158203125,4.886301517486572,-8.351181030273438,1.5975637435913086
1772881561796716000,2.062716064453125,4.893827438354492,-8.357793807983398,1.5388693809509277
1772881561806716000,2.0727158203125,4.894087314605713,-8.368824005126953,1.4768426418304443
1772881561816716000,2.082716064453125,4.890246391296387,-8.381855010986328,1.414351224899292
1772881561826716000,2.0927158203125,4.885382175445557,-8.395198822021484,1.3505772352218628
1772881561836716000,2.102716064453125,4.879375457763672,-8.408641815185547,1.2871767282485962
1772881561846716000,2.1127158203125,4.875913143157959,-8.4201078414917,1.223789930343628
1772881561856716000,2.122716064453125,4.882001876831055,-8.425762176513672,1.1588712930679321
1772881561866716000,2.1327158203125,4.893879413604736,-8.42794132232666,1.0909351110458374
1772881561876716000,2.142716064453125,4.904564380645752,-8.430719375610352,1.0191148519515991
1772881561886716000,2.1527158203125,4.905583381652832,-8.437750816345215,0.9539324045181274
1772881561896716000,2.162716064453125,4.888896942138672,-8.453524589538574,0.89832603931427
1772881561906716000,2.1727158203125,4.8559417724609375,-8.477210998535156,0.8527024388313293
1772881561916716000,2.182716064453125,4.817864894866943,-8.501752853393555,0.8238715529441833
1772881561926716000,2.1927158203125,4.782515525817871,-8.5234375,0.8055697679519653
1772881561936716000,2.202716064453125,4.751845359802246,-8.541979789733887,0.7905256152153015
1772881561946716000,2.2127158203125,4.7246832847595215,-8.55855941772461,0.7738288640975952
1772881561956716000,2.222716064453125,4.692622184753418,-8.578615188598633,0.7463706731796265
1772881561966716000,2.2327158203125,4.655636310577393,-8.602319717407227,0.7039437890052795
1772881561976716000,2.242716064453125,4.619300365447998,-8.626744270324707,0.6416600942611694
1772881561986716000,2.2527158203125,4.587209224700928,-8.649311065673828,0.5633186101913452
1772881561996716000,2.262716064453125,4.560114860534668,-8.669015884399414,0.47318634390830994
1772881562006716000,2.2727158203125,4.529621601104736,-8.689410209655762,0.38347700238227844
1772881562016716000,2.282716064453125,4.490893840789795,-8.712737083435059,0.30077826976776123
1772881562026716000,2.2927158203125,4.438431739807129,-8.74219799041748,0.21136924624443054
1772881562036716000,2.302716064453125,4.374614238739014,-8.776333808898926,0.09539008885622025
1772881562046716000,2.3127158203125,4.298886775970459,-8.81412410736084,-0.03457552194595337
1772881562056716000,2.322716064453125,4.20826530456543,-8.856247901916504,-0.1666305959224701
1772881562066716000,2.3327158203125,4.113542079925537,-8.896990776062012,-0.30449262261390686
1772881562076716000,2.342716064453125,4.028999328613281,-8.929593086242676,-0.44713205099105835
1772881562086716000,2.3527158203125,3.961866617202759,-8.95224380493164,-0.5756086111068726
1772881562096716000,2.362716064453125,3.9115631580352783,-8.966839790344238,-0.6825350522994995
1772881562106716000,2.3727158203125,3.871936559677124,-8.977142333984375,-0.7677388787269592
1772881562116716000,2.382716064453125,3.8342838287353516,-8.988005638122559,-0.8272797465324402
1772881562126716000,2.3927158203125,3.7854411602020264,-9.006082534790039,-0.8551563620567322
1772881562136716000,2.402716064453125,3.724351406097412,-9.029364585876465,-0.8775976896286011
1772881562146716000,2.4127158203125,3.65419340133667,-9.055337905883789,-0.9044942259788513
1772881562156716000,2.422716064453125,3.5890862941741943,-9.078600883483887,-0.9315908551216125
1772881562166716000,2.4327158203125,3.547126531600952,-9.091703414916992,-0.963953971862793
1772881562176716000,2.442716064453125,3.5295042991638184,-9.097354888916016,-0.9752576351165771
1772881562186716000,2.4527158203125,3.534837484359741,-9.096420288085938,-0.9645935297012329
1772881562196716000,2.462716064453125,3.554018974304199,-9.091917037963867,-0.9361560344696045
1772881562206716000,2.4727158203125,3.584909677505493,-9.083259582519531,-0.9017863273620605
1772881562216716000,2.482716064453125,3.623143196105957,-9.07052993774414,-0.8767624497413635
1772881562226716000,2.4927158203125,3.655024290084839,-9.060338973999023,-0.8493759632110596
1772881562236716000,2.502716064453125,3.6668643951416016,-9.059126853942871,-0.8103779554367065
1772881562246716000,2.5127158203125,3.6536808013916016,-9.068446159362793,-0.764384925365448
1772881562256716000,2.522716064453125,3.6197381019592285,-9.086087226867676,-0.714778482913971
1772881562266716000,2.5327158203125,3.5702431201934814,-9.110899925231934,-0.6443945169448853
1772881562276716000,2.542716064453125,3.516947031021118,-9.137375831604004,-0.556631326675415
1772881562286716000,2.5527158203125,3.4686124324798584,-9.160625457763672,-0.4712536931037903
1772881562296716000,2.562716064453125,3.4268152713775635,-9.180671691894531,-0.37759479880332947
1772881562306716000,2.5727158203125,3.394195079803467,-9.196198463439941,-0.28241166472435
1772881562316716000,2.582716064453125,3.3721728324890137,-9.206616401672363,-0.192490816116333
1772881562326716000,2.5927158203125,3.348742723464966,-9.216551780700684,-0.10719244182109833
1772881562336716000,2.602716064453125,3.3003275394439697,-9.234597206115723,-0.021302862092852592
1772881562346716000,2.6127158203125,3.214526653289795,-9.264747619628906,0.040782492607831955
1772881562356716000,2.622716064453125,3.08609676361084,-9.308149337768555,0.0689159706234932
1772881562366716000,2.6327158203125,2.9236085414886475,-9.360431671142578,0.07212958484888077
1772881562376716000,2.642716064453125,2.7569286823272705,-9.410951614379883,0.06091267243027687
1772881562386716000,2.6527158203125,2.609905481338501,-9.452923774719238,0.031530022621154785
1772881562396716000,2.662716064453125,2.498579263687134,-9.483002662658691,-0.012660001404583454
1772881562406716000,2.6727158203125,2.4422338008880615,-9.497322082519531,-0.08209134638309479
1772881562416716000,2.682716064453125,2.456451654434204,-9.49277400970459,-0.15323477983474731
1772881562426716000,2.6927158203125,2.5274546146392822,-9.473305702209473,-0.1970769464969635
1772881562436716000,2.702716064453125,2.613675832748413,-9.449698448181152,-0.20564115047454834
1772881562446716000,2.7127158203125,2.675027847290039,-9.433237075805664,-0.16925400495529175
1772881562456716000,2.722716064453125,2.6392061710357666,-9.444684982299805,-0.05373068526387215
1772881562466716000,2.7327158203125,2.4555084705352783,-9.493932723999023,0.07820222526788712
1772881562476716000,2.742716064453125,2.169468879699707,-9.562532424926758,0.14748837053775787
1772881562486716000,2.7527158203125,1.8548405170440674,-9.627888679504395,0.18365035951137543
1772881562496716000,2.762716064453125,1.564404845237732,-9.678790092468262,0.20987683534622192
1772881562506716000,2.7727158203125,1.3359249830245972,-9.71226978302002,0.23980773985385895
1772881562516716000,2.782716064453125,1.1978142261505127,-9.72945499420166,0.2707948684692383
1772881562526716000,2.7927158203125,1.1479761600494385,-9.734618186950684,0.2995705306529999
1772881562536716000,2.802716064453125,1.160075068473816,-9.73215389251709,0.3313438892364502
1772881562546716000,2.8127158203125,1.2075190544128418,-9.725485801696777,0.3566673994064331
1772881562556716000,2.822716064453125,1.2825435400009155,-9.715039253234863,0.378796249628067
1772881562566716000,2.8327158203125,1.3748626708984375,-9.7013578414917,0.4047050178050995
1772881562576716000,2.842716064453125,1.47756028175354,-9.684353828430176,0.44777217507362366
1772881562586716000,2.8527158203125,1.5928997993469238,-9.661784172058105,0.5319532155990601
1772881562596716000,2.862716064453125,1.7254098653793335,-9.630478858947754,0.6687551140785217
1772881562606716000,2.8727158203125,1.8802688121795654,-9.587297439575195,0.8477723598480225
1772881562616716000,2.882716064453125,2.0499956607818604,-9.533580780029297,1.0386300086975098
1772881562626716000,2.8927158203125,2.229198694229126,-9.475072860717773,1.1933345794677734
1772881562636716000,2.902716064453125,2.39959716796875,-9.421093940734863,1.286591649055481
1772881562646716000,2.9127158203125,2.5011532306671143,-9.384787559509277,1.3566089868545532
1772881562656716000,2.922716064453125,2.521850824356079,-9.37237548828125,1.4032950401306152
1772881562666716000,2.9327158203125,2.509516954421997,-9.374095916748047,1.4138704538345337
1772881562676716000,2.942716064453125,2.4898393154144287,-9.381261825561523,1.4010740518569946
1772881562686716000,2.9527158203125,2.471658945083618,-9.389647483825684,1.376888394355774
1772881562696716000,2.962716064453125,2.458751678466797,-9.397238731384277,1.3479046821594238
1772881562706716000,2.9727158203125,2.452333927154541,-9.401899337768555,1.3269215822219849
1772881562716716000,2.982716064453125,2.4529428482055664,-9.402066230773926,1.324615478515625
1772881562726716000,2.9927158203125,2.4611992835998535,-9.39782428741455,1.339328408241272
1772881562736716000,3.002716064453125,2.4846532344818115,-9.38826847076416,1.362819790840149
1772881562746716000,3.0127158203125,2.5276288986206055,-9.373011589050293,1.3885657787322998
1772881562756716000,3.022716064453125,2.588341236114502,-9.353034973144531,1.4112461805343628
1772881562766716000,3.0327158203125,2.6714115142822266,-9.327621459960938,1.4245827198028564
1772881562776716000,3.042716064453125,2.7681453227996826,-9.298433303833008,1.43070387840271
1772881562786716000,3.0527158203125,2.867243766784668,-9.267608642578125,1.4355194568634033
1772881562796716000,3.062716064453125,2.964736223220825,-9.236004829406738,1.4411598443984985
1772881562806716000,3.0727158203125,3.0608410835266113,-9.203410148620605,1.4487553834915161
1772881562816716000,3.082716064453125,3.1536033153533936,-9.169772148132324,1.4630320072174072
1772881562826716000,3.0927158203125,3.242196559906006,-9.135794639587402,1.4818272590637207
1772881562836716000,3.102716064453125,3.3256382942199707,-9.102372169494629,1.5024429559707642
1772881562846716000,3.1127158203125,3.4001126289367676,-9.071633338928223,1.5215370655059814
1772881562856716000,3.122716064453125,3.4611551761627197,-9.045804977416992,1.537593960762024
1772881562866716000,3.1327158203125,3.508775234222412,-9.026702880859375,1.5419232845306396
1772881562876716000,3.142716064453125,3.551206588745117,-9.011533737182617,1.5334827899932861
1772881562886716000,3.1527158203125,3.5986812114715576,-8.994882583618164,1.5205172300338745
1772881562896716000,3.162716064453125,3.65574049949646,-8.972810745239258,1.5148006677627563
1772881562906716000,3.1727158203125,3.719755172729492,-8.945293426513672,1.5216906070709229
1772881562916716000,3.182716064453125,3.7863152027130127,-8.914702415466309,1.536971926689148
1772881562926716000,3.1927158203125,3.8517017364501953,-8.88288688659668,1.5585544109344482
1772881562936716000,3.202716064453125,3.9128997325897217,-8.85157585144043,1.5840498208999634
1772881562946716000,3.2127158203125,3.9691951274871826,-8.821752548217773,1.6101410388946533
1772881562956716000,3.222716064453125,4.017284393310547,-8.795218467712402,1.6358346939086914
1772881562966716000,3.2327158203125,4.05616569519043,-8.773069381713867,1.6586624383926392
1772881562976716000,3.242716064453125,4.081027984619141,-8.757996559143066,1.6772207021713257
1772881562986716000,3.2527158203125,4.0880513191223145,-8.752216339111328,1.6902475357055664
1772881562996716000,3.262716064453125,4.078420639038086,-8.755352973937988,1.6972509622573853
1772881563006716000,3.2727158203125,4.056136608123779,-8.765116691589355,1.7002615928649902
1772881563016716000,3.282716064453125,4.027541637420654,-8.777881622314453,1.7023769617080688
1772881563026716000,3.2927158203125,4.00085973739624,-8.789875030517578,1.7034109830856323
1772881563036716000,3.302716064453125,3.9836416244506836,-8.797954559326172,1.7020537853240967
1772881563046716000,3.3127158203125,3.978977918624878,-8.801189422607422,1.6962218284606934
1772881563056716000,3.322716064453125,3.9872207641601562,-8.799506187438965,1.685569405555725
1772881563066716000,3.3327158203125,4.003886699676514,-8.794500350952148,1.6721376180648804
1772881563076716000,3.342716064453125,4.029941558837891,-8.786892890930176,1.6493858098983765
1772881563086716000,3.3527158203125,4.061947345733643,-8.777650833129883,1.619824767112732
1772881563096716000,3.362716064453125,4.093343734741211,-8.769597053527832,1.584010362625122
1772881563106716000,3.3727158203125,4.123912334442139,-8.76285171508789,1.541483998298645
1772881563116716000,3.382716064453125,4.153857231140137,-8.757613182067871,1.4899879693984985
1772881563126716000,3.3927158203125,4.183463096618652,-8.752561569213867,1.4358571767807007
1772881563136716000,3.402716064453125,4.21573543548584,-8.74553394317627,1.3833234310150146
1772881563146716000,3.4127158203125,4.253808498382568,-8.735162734985352,1.3313286304473877
1772881563156716000,3.422716064453125,4.29878568649292,-8.721110343933105,1.2779102325439453
1772881563166716000,3.4327158203125,4.350620746612549,-8.703453063964844,1.2216336727142334
1772881563176716000,3.442716064453125,4.406105041503906,-8.6837797164917,1.1612896919250488
1772881563186716000,3.4527158203125,4.465014457702637,-8.662622451782227,1.0922430753707886
1772881563196716000,3.462716064453125,4.523334503173828,-8.64191722869873,1.0134456157684326
1772881563206716000,3.4727158203125,4.581417083740234,-8.6209077835083,0.9278723001480103
1772881563216716000,3.482716064453125,4.641077041625977,-8.598264694213867,0.8370421528816223
1772881563226716000,3.4927158203125,4.700104236602783,-8.573899269104004,0.7534340620040894
1772881563236716000,3.502716064453125,4.75848913192749,-8.547234535217285,0.6870002746582031
1772881563246716000,3.5127158203125,4.817745208740234,-8.517707824707031,0.6390352249145508
1772881563256716000,3.522716064453125,4.871375560760498,-8.489599227905273,0.6056464314460754
1772881563266716000,3.5327158203125,4.909247398376465,-8.46981143951416,0.576165497303009
1772881563276716000,3.542716064453125,4.930865287780762,-8.45906925201416,0.5487269759178162
1772881563286716000,3.5527158203125,4.93681001663208,-8.457077026367188,0.5255023241043091
1772881563296716000,3.562716064453125,4.928959846496582,-8.462684631347656,0.5086348056793213
1772881563306716000,3.5727158203125,4.917907238006592,-8.470256805419922,0.48921698331832886
1772881563316716000,3.582716064453125,4.912613391876221,-8.474494934082031,0.4685554504394531
1772881563326716000,3.5927158203125,4.91254186630249,-8.475255012512207,0.4553699195384979
1772881563336716000,3.602716064453125,4.915916442871094,-8.473370552062988,0.45402178168296814
1772881563346716000,3.6127158203125,4.920497417449951,-8.47006607055664,0.46592774987220764
1772881563356716000,3.622716064453125,4.9293599128723145,-8.463749885559082,0.48654720187187195
1772881563366716000,3.6327158203125,4.942870140075684,-8.453997611999512,0.5180209279060364
1772881563376716000,3.642716064453125,4.956130504608154,-8.443864822387695,0.5552616119384766
1772881563386716000,3.6527158203125,4.9651947021484375,-8.436051368713379,0.5918295979499817
1772881563396716000,3.662716064453125,4.967206001281738,-8.431883811950684,0.6329166889190674
1772881563406716000,3.6727158203125,4.965599536895752,-8.429472923278809,0.6761629581451416
1772881563416716000,3.682716064453125,4.963581085205078,-8.426985740661621,0.7205262184143066
1772881563426716000,3.6927158203125,4.963533878326416,-8.422741889953613,0.7688596248626709
1772881563436716000,3.702716064453125,4.965450286865234,-8.416282653808594,0.8251515626907349
1772881563446716000,3.7127158203125,4.965567588806152,-8.409317016601562,0.8927005529403687
1772881563456716000,3.722716064453125,4.957263469696045,-8.404970169067383,0.9759047031402588
1772881563466716000,3.7327158203125,4.937944412231445,-8.403939247131348,1.0774550437927246
1772881563476716000,3.742716064453125,4.909207820892334,-8.404739379882812,1.196003794670105
1772881563486716000,3.7527158203125,4.88289737701416,-8.401747703552246,1.318454384803772
1772881563496716000,3.762716064453125,4.8617658615112305,-8.393392562866211,1.443813443183899
1772881563506716000,3.7727158203125,4.844311237335205,-8.38095760345459,1.5692641735076904
1772881563516716000,3.782716064453125,4.825984477996826,-8.367645263671875,1.6919752359390259
1772881563526716000,3.7927158203125,4.801339626312256,-8.356097221374512,1.8147104978561401
1772881563536716000,3.802716064453125,4.769474983215332,-8.346390724182129,1.9391368627548218
1772881563546716000,3.8127158203125,4.733375549316406,-8.337282180786133,2.0628316402435303
1772881563556716000,3.822716064453125,4.697270393371582,-8.327462196350098,2.1816062927246094
1772881563566716000,3.8327158203125,4.663971424102783,-8.315666198730469,2.295097589492798
1772881563576716000,3.842716064453125,4.6338911056518555,-8.30201244354248,2.402920961380005
1772881563586716000,3.8527158203125,4.609179973602295,-8.286898612976074,2.5006332397460938
1772881563596716000,3.862716064453125,4.589631080627441,-8.271275520324707,2.586829900741577
1772881563606716000,3.8727158203125,4.573973178863525,-8.255870819091797,2.6626572608947754
1772881563616716000,3.882716064453125,4.56214714050293,-8.240762710571289,2.728924512863159
1772881563626716000,3.8927158203125,4.556437015533447,-8.223140716552734,2.790919542312622
1772881563636716000,3.902716064453125,4.560387134552002,-8.200156211853027,2.851437568664551
1772881563646716000,3.9127158203125,4.57487678527832,-8.171021461486816,2.9112350940704346
1772881563656716000,3.922716064453125,4.603539943695068,-8.134424209594727,2.9679882526397705
1772881563666716000,3.9327158203125,4.647799491882324,-8.09054183959961,3.018521547317505
1772881563676716000,3.942716064453125,4.704043388366699,-8.040776252746582,3.0640289783477783
1772881563686716000,3.9527158203125,4.7681050300598145,-7.990762710571289,3.0956859588623047
1772881563696716000,3.962716064453125,4.829627990722656,-7.946064472198486,3.115307092666626
1772881563706716000,3.9727158203125,4.874741554260254,-7.911816120147705,3.1321635246276855
1772881563716716000,3.982716064453125,4.906408309936523,-7.884486675262451,3.1515722274780273
1772881563726716000,3.9927158203125,4.941079616546631,-7.85551118850708,3.1697075366973877
1772881563736716000,4.002716064453125,4.989989280700684,-7.81865930557251,3.1841726303100586
1772881563746716000,4.0127158203125,5.049726963043213,-7.774740219116211,3.1975080966949463
1772881563756716000,4.022716064453125,5.110404014587402,-7.728143692016602,3.2140259742736816
1772881563766716000,4.0327158203125,5.1654372215271,-7.682455062866211,3.2355105876922607
1772881563776716000,4.042716064453125,5.2099175453186035,-7.639812469482422,3.2650277614593506
1772881563786716000,4.0527158203125,5.245285987854004,-7.600767612457275,3.299347400665283
1772881563796716000,4.062716064453125,5.2776007652282715,-7.564863681793213,3.3301889896392822
1772881563806716000,4.0727158203125,5.312621593475342,-7.528808116912842,3.3561129570007324
1772881563816716000,4.082716064453125,5.3528313636779785,-7.4901838302612305,3.378568649291992
1772881563826716000,4.0927158203125,5.398583889007568,-7.449990749359131,3.3946008682250977
1772881563836716000,4.102716064453125,5.4506659507751465,-7.407352924346924,3.4046666622161865
1772881563846716000,4.1127158203125,5.505185127258301,-7.359863758087158,3.419903516769409
1772881563856716000,4.122716064453125,5.561435699462891,-7.310114860534668,3.4355556964874268
1772881563866716000,4.1327158203125,5.623339653015137,-7.25776481628418,3.4457640647888184
1772881563876716000,4.142716064453125,5.680258750915527,-7.201827049255371,3.4696877002716064
1772881563886716000,4.1527158203125,5.741600036621094,-7.1439948081970215,3.4882309436798096
1772881563896716000,4.162716064453125,5.805134296417236,-7.0852274894714355,3.502906322479248
1772881563906716000,4.1727158203125,5.8660407066345215,-7.02804708480835,3.516606330871582
1772881563916716000,4.182716064453125,5.921234607696533,-6.9749579429626465,3.529778242111206
1772881563926716000,4.1927158203125,5.975700378417969,-6.925327301025391,3.5357069969177246
1772881563936716000,4.202716064453125,6.031445503234863,-6.879158973693848,3.5311801433563232
1772881563946716000,4.2127158203125,6.086287021636963,-6.8363213539123535,3.520256757736206
1772881563956716000,4.222716064453125,6.138386249542236,-6.798374652862549,3.5032434463500977
1772881563966716000,4.2327158203125,6.186211109161377,-6.76626443862915,3.4812140464782715
1772881563976716000,4.242716064453125,6.229880332946777,-6.741324424743652,3.4515974521636963
1772881563986716000,4.2527158203125,6.270049095153809,-6.723491191864014,3.4134345054626465
1772881563996716000,4.262716064453125,6.305688381195068,-6.712236404418945,3.369652509689331
1772881564006716000,4.2727158203125,6.335974216461182,-6.707447052001953,3.3220434188842773
1772881564016716000,4.282716064453125,6.359924793243408,-6.710149765014648,3.2704193592071533
1772881564026716000,4.2927158203125,6.374863624572754,-6.722526550292969,3.215452194213867
1772881564036716000,4.302716064453125,6.37849235534668,-6.7457499504089355,3.1591248512268066
1772881564046716000,4.3127158203125,6.369935989379883,-6.779779434204102,3.10304594039917
1772881564056716000,4.322716064453125,6.35298490524292,-6.82195520401001,3.0448155403137207
1772881564066716000,4.3327158203125,6.331655979156494,-6.8678693771362305,2.985447883605957
1772881564076716000,4.342716064453125,6.3099846839904785,-6.912275314331055,2.9282970428466797
1772881564086716000,4.3527158203125,6.291038990020752,-6.951348304748535,2.8761072158813477
1772881564096716000,4.362716064453125,6.275134563446045,-6.984504699707031,2.8301544189453125
1772881564106716000,4.3727158203125,6.259899139404297,-7.014652252197266,2.7890350818634033
1772881564116716000,4.382716064453125,6.243617534637451,-7.044734954833984,2.7494235038757324
1772881564126716000,4.3927158203125,6.222618103027344,-7.0789713859558105,2.7087955474853516
1772881564136716000,4.402716064453125,6.193699836730957,-7.120429039001465,2.666074752807617
1772881564146716000,4.4127158203125,6.1569366455078125,-7.169968128204346,2.618029832839966
1772881564156716000,4.422716064453125,6.114058494567871,-7.226052284240723,2.563755512237549
1772881564166716000,4.4327158203125,6.067938327789307,-7.28591251373291,2.5031986236572266
1772881564176716000,4.442716064453125,6.020411968231201,-7.347431659698486,2.4372670650482178
1772881564186716000,4.4527158203125,5.9744415283203125,-7.408256530761719,2.3651998043060303
1772881564196716000,4.462716064453125,5.931206703186035,-7.466602325439453,2.289330244064331
1772881564206716000,4.4727158203125,5.893675804138184,-7.517472267150879,2.2186901569366455
1772881564216716000,4.482716064453125,5.861282825469971,-7.562496185302734,2.1504416465759277
1772881564226716000,4.4927158203125,5.833361625671387,-7.603579998016357,2.0803518295288086
1772881564236716000,4.502716064453125,5.810478687286377,-7.641602993011475,2.0036542415618896
1772881564246716000,4.5127158203125,5.79213809967041,-7.677933216094971,1.91594660282135
1772881564256716000,4.522716064453125,5.778239727020264,-7.713778018951416,1.811065912246704
1772881564266716000,4.5327158203125,5.771215438842773,-7.748655319213867,1.679822564125061
1772881564276716000,4.542716064453125,5.766275405883789,-7.783794403076172,1.527417778968811
1772881564286716000,4.5527158203125,5.760303497314453,-7.818614482879639,1.3632948398590088
1772881564296716000,4.562716064453125,5.754425048828125,-7.850746154785156,1.1927969455718994
1772881564306716000,4.5727158203125,5.749615669250488,-7.878127098083496,1.0234315395355225
1772881564316716000,4.582716064453125,5.747964859008789,-7.898705959320068,0.861242949962616
1772881564326716000,4.5927158203125,5.750232696533203,-7.91159200668335,0.7154906988143921
1772881564336716000,4.602716064453125,5.75268030166626,-7.919803619384766,0.5947848558425903
1772881564346716000,4.6127158203125,5.752411365509033,-7.92660665512085,0.49904707074165344
1772881564356716000,4.622716064453125,5.747390270233154,-7.93477201461792,0.4210597276687622
1772881564366716000,4.6327158203125,5.736299991607666,-7.945958137512207,0.35637563467025757
1772881564376716000,4.642716064453125,5.718990325927734,-7.960567951202393,0.30478164553642273
1772881564386716000,4.6527158203125,5.699697971343994,-7.975900650024414,0.2623865008354187
1772881564396716000,4.662716064453125,5.682634353637695,-7.98918342590332,0.22581200301647186
1772881564406716000,4.6727158203125,5.669774055480957,-7.999111175537109,0.19566038250923157
1772881564416716000,4.682716064453125,5.661946773529053,-8.005062103271484,0.17811571061611176
1772881564426716000,4.6927158203125,5.656338214874268,-8.009146690368652,0.17257609963417053
1772881564436716000,4.702716064453125,5.650966644287109,-8.012856483459473,0.17635340988636017
1772881564446716000,4.7127158203125,5.648292541503906,-8.014664649963379,0.17980381846427917
1772881564456716000,4.722716064453125,5.647676467895508,-8.014891624450684,0.1888151317834854
1772881564466716000,4.7327158203125,5.6457414627075195,-8.015732765197754,0.2098049372434616
1772881564476716000,4.742716064453125,5.637687683105469,-8.020456314086914,0.24321267008781433
1772881564486716000,4.7527158203125,5.6253790855407715,-8.027649879455566,0.28696081042289734
1772881564496716000,4.762716064453125,5.614089488983154,-8.033949851989746,0.3286984860897064
1772881564506716000,4.7727158203125,5.605977535247803,-8.037900924682617,0.36816006898880005
1772881564516716000,4.782716064453125,5.602104663848877,-8.038593292236328,0.40966302156448364
1772881564526716000,4.7927158203125,5.602626323699951,-8.035700798034668,0.45660892128944397
1772881564536716000,4.802716064453125,5.607113361358643,-8.029170989990234,0.5129193067550659
1772881564546716000,4.8127158203125,5.612954616546631,-8.020042419433594,0.5865727066993713
1772881564556716000,4.822716064453125,5.61893367767334,-8.008549690246582,0.6790457367897034
1772881564566716000,4.8327158203125,5.623880863189697,-7.994815826416016,0.7907301187515259
1772881564576716000,4.842716064453125,5.631951808929443,-7.9747724533081055,0.924399733543396
1772881564586716000,4.8527158203125,5.644032955169678,-7.947266578674316,1.0752840042114258
1772881564596716000,4.862716064453125,5.657908916473389,-7.914786338806152,1.230690836906433
1772881564606716000,4.8727158203125,5.6736907958984375,-7.879100799560547,1.3781810998916626
1772881564616716000,4.882716064453125,5.689451694488525,-7.842113971710205,1.5171595811843872
1772881564626716000,4.8927158203125,5.705451011657715,-7.803787708282471,1.6489719152450562
1772881564636716000,4.902716064453125,5.721444129943848,-7.764347076416016,1.7749296426773071
1772881564646716000,4.9127158203125,5.735492706298828,-7.725552082061768,1.894820213317871
1772881564656716000,4.922716064453125,5.7456865310668945,-7.688976287841797,2.0092556476593018
1772881564666716000,4.9327158203125,5.7503437995910645,-7.655000686645508,2.1224756240844727
1772881564676716000,4.942716064453125,5.747995853424072,-7.622994899749756,2.2407312393188477
1772881564686716000,4.9527158203125,5.738579750061035,-7.592670917510986,2.364410161972046
1772881564696716000,4.962716064453125,5.727981090545654,-7.562302112579346,2.4843902587890625
1772881564706716000,4.9727158203125,5.724598407745361,-7.527933597564697,2.5941426753997803
1772881564716716000,4.982716064453125,5.729681015014648,-7.487984657287598,2.6965208053588867
1772881564726716000,4.9927158203125,5.741161823272705,-7.443206787109375,2.7943029403686523
1772881564736716000,5.002716064453125,5.757722854614258,-7.394757270812988,2.8873164653778076
1772881564746716000,5.0127158203125,5.77939510345459,-7.341806888580322,2.9777252674102783
1772881564756716000,5.022716064453125,5.806177616119385,-7.284099102020264,3.066038131713867
1772881564766716000,5.0327158203125,5.833878040313721,-7.225979328155518,3.149837017059326
1772881564776716000,5.042716064453125,5.859853744506836,-7.173502445220947,3.2207703590393066
1772881564786716000,5.0527158203125,5.882835865020752,-7.127748966217041,3.2799124717712402
1772881564796716000,5.062716064453125,5.903188705444336,-7.087510585784912,3.3301563262939453
1772881564806716000,5.0727158203125,5.921820163726807,-7.049851417541504,3.3766889572143555
1772881564816716000,5.082716064453125,5.940438270568848,-7.013241291046143,3.419945478439331
1772881564826716000,5.0927158203125,5.9595112800598145,-6.978295803070068,3.4580347537994385
1772881564836716000,5.102716064453125,5.977585792541504,-6.945804595947266,3.4920828342437744
1772881564846716000,5.1127158203125,5.992873191833496,-6.9185471534729,3.519881010055542
1772881564856716000,5.122716064453125,6.006095886230469,-6.898004055023193,3.537618637084961
1772881564866716000,5.1327158203125,6.016572952270508,-6.883186340332031,3.54866099357605
1772881564876716000,5.142716064453125,6.032929420471191,-6.872148036956787,3.5422797203063965
1772881564886716000,5.1527158203125,6.055439472198486,-6.862527847290039,3.5224642753601074
1772881564896716000,5.162716064453125,6.074443817138672,-6.8527631759643555,3.5087273120880127
1772881564906716000,5.1727158203125,6.091770172119141,-6.838844299316406,3.505842447280884
1772881564916716000,5.182716064453125,6.108099937438965,-6.821329116821289,3.511547803878784
1772881564926716000,5.1927158203125,6.135151386260986,-6.800050735473633,3.5056545734405518
1772881564936716000,5.202716064453125,6.164409637451172,-6.777428150177002,3.4981284141540527
1772881564946716000,5.2127158203125,6.191971302032471,-6.7550129890441895,3.492804527282715
1772881564956716000,5.222716064453125,6.2152099609375,-6.733983039855957,3.4921395778656006
1772881564966716000,5.2327158203125,6.23633337020874,-6.718564033508301,3.4841673374176025
1772881564976716000,5.242716064453125,6.259375095367432,-6.709827899932861,3.459599733352661
1772881564986716000,5.2527158203125,6.282343864440918,-6.7063117027282715,3.424605131149292
1772881564996716000,5.262716064453125,6.3037590980529785,-6.707931041717529,3.3818154335021973
1772881565006716000,5.2727158203125,6.323599815368652,-6.714877128601074,3.3306002616882324
1772881565016716000,5.282716064453125,6.341724872589111,-6.7269439697265625,3.271257162094116
1772881565026716000,5.2927158203125,6.3565287590026855,-6.744133949279785,3.2064902782440186
1772881565036716000,5.302716064453125,6.369133472442627,-6.76421594619751,3.138456344604492
1772881565046716000,5.3127158203125,6.380610942840576,-6.785456657409668,3.0685136318206787
1772881565056716000,5.322716064453125,6.390721321105957,-6.8067193031311035,2.9996073246002197
1772881565066716000,5.3327158203125,6.397712230682373,-6.829034805297852,2.9332499504089355
1772881565076716000,5.342716064453125,6.400120258331299,-6.853588581085205,2.8700482845306396
1772881565086716000,5.3527158203125,6.397683143615723,-6.881112098693848,2.808974027633667
1772881565096716000,5.362716064453125,6.390322208404541,-6.911362171173096,2.7508606910705566
1772881565106716000,5.3727158203125,6.379959583282471,-6.941556453704834,2.698387384414673
1772881565116716000,5.382716064453125,6.370416641235352,-6.9684648513793945,2.6511640548706055
1772881565126716000,5.3927158203125,6.362544536590576,-6.989180088043213,2.6152937412261963
1772881565136716000,5.402716064453125,6.355367660522461,-7.002462863922119,2.5971555709838867
1772881565146716000,5.4127158203125,6.349477291107178,-7.007719993591309,2.597382068634033
1772881565156716000,5.422716064453125,6.34467077255249,-7.006793975830078,2.6115825176239014
1772881565166716000,5.4327158203125,6.340492248535156,-7.002732276916504,2.6325442790985107
1772881565176716000,5.442716064453125,6.3346123695373535,-7.000640869140625,2.6521871089935303
1772881565186716000,5.4527158203125,6.326086044311523,-7.003626346588135,2.6646244525909424
1772881565196716000,5.462716064453125,6.312918186187744,-7.0142340660095215,2.6679530143737793
1772881565206716000,5.4727158203125,6.295851230621338,-7.03198766708374,2.6615421772003174
1772881565216716000,5.482716064453125,6.276544094085693,-7.055458068847656,2.6449761390686035
1772881565226716000,5.4927158203125,6.25750207901001,-7.083315849304199,2.6154708862304688
1772881565236716000,5.502716064453125,6.238650321960449,-7.1146063804626465,2.575268268585205
1772881565246716000,5.5127158203125,6.218161106109619,-7.149799346923828,2.526900291442871
1772881565256716000,5.522716064453125,6.1952691078186035,-7.189624309539795,2.46947979927063
1772881565266716000,5.5327158203125,6.170259475708008,-7.231974124908447,2.4076621532440186
1772881565276716000,5.542716064453125,6.140488624572754,-7.2790985107421875,2.34083890914917
1772881565286716000,5.5527158203125,6.106368064880371,-7.332849025726318,2.2609713077545166
1772881565296716000,5.562716064453125,6.066768646240234,-7.394150733947754,2.165926456451416
1772881565306716000,5.5727158203125,6.02193021774292,-7.4624342918396,2.0539770126342773
1772881565316716000,5.582716064453125,5.9741058349609375,-7.535242557525635,1.9236849546432495
1772881565326716000,5.5927158203125,5.934272289276123,-7.60516357421875,1.765304684638977
1772881565336716000,5.602716064453125,5.904007911682129,-7.6673197746276855,1.5891181230545044
1772881565346716000,5.6127158203125,5.881089210510254,-7.719714641571045,1.4103833436965942
1772881565356716000,5.622716064453125,5.861416816711426,-7.762279987335205,1.249470829963684
1772881565366716000,5.6327158203125,5.845489501953125,-7.794482231140137,1.1165584325790405
1772881565376716000,5.642716064453125,5.833729267120361,-7.8169941902160645,1.0161644220352173
1772881565386716000,5.6527158203125,5.822401523590088,-7.834122180938721,0.9468658566474915
1772881565396716000,5.662716064453125,5.8110857009887695,-7.848539352416992,0.8956006765365601
1772881565406716000,5.6727158203125,5.79581356048584,-7.864089012145996,0.857341468334198
1772881565416716000,5.682716064453125,5.7723388671875,-7.884313106536865,0.8295100927352905
1772881565426716000,5.6927158203125,5.742024898529053,-7.907617568969727,0.8179972171783447
1772881565436716000,5.702716064453125,5.708731651306152,-7.931484699249268,0.819946825504303
1772881565446716000,5.7127158203125,5.672260761260986,-7.9561872482299805,0.8336256146430969
1772881565456716000,5.722716064453125,5.633419513702393,-7.981380462646484,0.855883777141571
1772881565466716000,5.7327158203125,5.594324588775635,-8.005817413330078,0.8836248517036438
1772881565476716000,5.742716064453125,5.558185577392578,-8.027515411376953,0.9143065810203552
1772881565486716000,5.7527158203125,5.526965618133545,-8.045010566711426,0.9491341710090637
1772881565496716000,5.762716064453125,5.499598979949951,-8.058512687683105,0.992558479309082
1772881565506716000,5.7727158203125,5.476284503936768,-8.067370414733887,1.0479596853256226
1772881565516716000,5.782716064453125,5.453409194946289,-8.07387924194336,1.1149790287017822
1772881565526716000,5.7927158203125,5.429276943206787,-8.079649925231934,1.1885311603546143
1772881565536716000,5.802716064453125,5.403746604919434,-8.085115432739258,1.2652353048324585
1772881565546716000,5.8127158203125,5.37744665145874,-8.089606285095215,1.3459968566894531
1772881565556716000,5.822716064453125,5.351587772369385,-8.09339714050293,1.4240152835845947
1772881565566716000,5.8327158203125,5.325347423553467,-8.096414566040039,1.5030404329299927
1772881565576716000,5.842716064453125,5.300617694854736,-8.096817016601562,1.5860015153884888
1772881565586716000,5.8527158203125,5.280964374542236,-8.091154098510742,1.6778035163879395
1772881565596716000,5.862716064453125,5.270363807678223,-8.075786590576172,1.7819416522979736
1772881565606716000,5.8727158203125,5.267496585845947,-8.052681922912598,1.8916091918945312
1772881565616716000,5.882716064453125,5.266406059265137,-8.024444580078125,2.0108816623687744
1772881565626716000,5.8927158203125,5.2657670974731445,-7.990710735321045,2.1425750255584717
1772881565636716000,5.902716064453125,5.263591766357422,-7.953053951263428,2.283403158187866
1772881565646716000,5.9127158203125,5.254182815551758,-7.916553974151611,2.4273695945739746
1772881565656716000,5.922716064453125,5.234238147735596,-7.884408950805664,2.570844888687134
1772881565666716000,5.9327158203125,5.202764511108398,-7.856026649475098,2.717440605163574
1772881565676716000,5.942716064453125,5.161181926727295,-7.8297438621521,2.8683977127075195
1772881565686716000,5.9527158203125,5.1152849197387695,-7.803997993469238,3.0169291496276855
1772881565696716000,5.962716064453125,5.069887161254883,-7.779555797576904,3.1535933017730713
1772881565706716000,5.9727158203125,5.026409149169922,-7.758847713470459,3.271982431411743
1772881565716716000,5.982716064453125,4.988488674163818,-7.740914344787598,3.370997905731201
1772881565726716000,5.9927158203125,4.962918281555176,-7.7221903800964355,3.450739860534668
1772881565736716000,6.002716064453125,4.959052085876465,-7.697509765625,3.5109148025512695
1772881565746716000,6.0127158203125,4.97901725769043,-7.663361072540283,3.557060718536377
1772881565756716000,6.022716064453125,5.012085437774658,-7.621805191040039,3.5996479988098145
1772881565766716000,6.0327158203125,5.046576499938965,-7.578827381134033,3.641953706741333
1772881565776716000,6.042716064453125,5.08120584487915,-7.5367431640625,3.6809301376342773
1772881565786716000,6.0527158203125,5.119540691375732,-7.496438980102539,3.7099969387054443
1772881565796716000,6.062716064453125,5.162917613983154,-7.457516670227051,3.728285551071167
1772881565806716000,6.0727158203125,5.210882186889648,-7.4194560050964355,3.737480878829956
1772881565816716000,6.082716064453125,5.264048099517822,-7.380682468414307,3.7397475242614746
1772881565826716000,6.0927158203125,5.319728851318359,-7.34121036529541,3.7386505603790283
1772881565836716000,6.102716064453125,5.373544692993164,-7.301754474639893,3.7389566898345947
1772881565846716000,6.1127158203125,5.424284934997559,-7.263813495635986,3.7395896911621094
1772881565856716000,6.122716064453125,5.475224018096924,-7.227248668670654,3.736199378967285
1772881565866716000,6.1327158203125,5.526615619659424,-7.191848278045654,3.7288365364074707
1772881565876716000,6.142716064453125,5.579278945922852,-7.158133029937744,3.7152621746063232
1772881565886716000,6.1527158203125,5.631820201873779,-7.124853134155273,3.6999261379241943
1772881565896716000,6.162716064453125,5.687203407287598,-7.089997291564941,3.682124376296997
1772881565906716000,6.1727158203125,5.744769096374512,-7.0499773025512695,3.6695823669433594
1772881565916716000,6.182716064453125,5.796651363372803,-7.005824565887451,3.6725525856018066
1772881565926716000,6.1927158203125,5.84655237197876,-6.95846700668335,3.6834709644317627
1772881565936716000,6.202716064453125,5.908950328826904,-6.907186985015869,3.6804165840148926
1772881565946716000,6.2127158203125,5.969823360443115,-6.860651016235352,3.6692051887512207
1772881565956716000,6.222716064453125,6.022249221801758,-6.82185697555542,3.655841112136841
1772881565966716000,6.2327158203125,6.0659918785095215,-6.790226459503174,3.6423821449279785
1772881565976716000,6.242716064453125,6.116267681121826,-6.759924411773682,3.6145665645599365
1772881565986716000,6.2527158203125,6.16650390625,-6.7304558753967285,3.584073305130005
1772881565996716000,6.262716064453125,6.215399742126465,-6.700830459594727,3.555004835128784
1772881566006716000,6.2727158203125,6.262358665466309,-6.671473026275635,3.5277047157287598
1772881566016716000,6.282716064453125,6.307131767272949,-6.644672393798828,3.4983983039855957
1772881566026716000,6.2927158203125,6.350748538970947,-6.62108039855957,3.464054584503174
1772881566036716000,6.302716064453125,6.393671989440918,-6.601500511169434,3.4222116470336914
1772881566046716000,6.3127158203125,6.435766220092773,-6.585591793060303,3.373617649078369
1772881566056716000,6.322716064453125,6.477424144744873,-6.57287073135376,3.3182430267333984
1772881566066716000,6.3327158203125,6.519570827484131,-6.562231540679932,3.256178617477417
1772881566076716000,6.342716064453125,6.561745643615723,-6.5521769523620605,3.1910595893859863
1772881566086716000,6.3527158203125,6.599714279174805,-6.544864654541016,3.1271228790283203
1772881566096716000,6.362716064453125,6.631317138671875,-6.543353080749512,3.062767744064331
1772881566106716000,6.3727158203125,6.657918453216553,-6.548768997192383,2.992680311203003
1772881566116716000,6.382716064453125,6.681211471557617,-6.558086395263672,2.9194698333740234
1772881566126716000,6.3927158203125,6.700595855712891,-6.567647457122803,2.852789878845215
1772881566136716000,6.402716064453125,6.713488578796387,-6.576082229614258,2.8026041984558105
1772881566146716000,6.4127158203125,6.719635009765625,-6.583353519439697,2.7706234455108643
1772881566156716000,6.422716064453125,6.723093509674072,-6.58833646774292,2.7503139972686768
1772881566166716000,6.4327158203125,6.727466106414795,-6.592954635620117,2.728466749191284
1772881566176716000,6.442716064453125,6.7342529296875,-6.594320297241211,2.708350658416748
1772881566186716000,6.4527158203125,6.74037504196167,-6.595480442047119,2.690234422683716
1772881566196716000,6.462716064453125,6.743436336517334,-6.600210189819336,2.6708970069885254
1772881566206716000,6.4727158203125,6.746435165405273,-6.60897159576416,2.6414954662323
1772881566216716000,6.482716064453125,6.748779296875,-6.624427318572998,2.5964062213897705
1772881566226716000,6.4927158203125,6.747520446777344,-6.650106430053711,2.533266544342041
1772881566236716000,6.502716064453125,6.740208625793457,-6.688160419464111,2.451220750808716
1772881566246716000,6.5127158203125,6.724159240722656,-6.740172386169434,2.350778341293335
1772881566256716000,6.522716064453125,6.6978678703308105,-6.805080890655518,2.236030101776123
1772881566266716000,6.5327158203125,6.661019325256348,-6.878500461578369,2.118356466293335
1772881566276716000,6.542716064453125,6.617735385894775,-6.958487510681152,1.9888262748718262
1772881566286716000,6.5527158203125,6.576533794403076,-7.03718376159668,1.8432694673538208
1772881566296716000,6.562716064453125,6.547530651092529,-7.104811191558838,1.6798490285873413
1772881566306716000,6.5727158203125,6.540412902832031,-7.154090881347656,1.4874037504196167
1772881566316716000,6.582716064453125,6.549516677856445,-7.187586784362793,1.2699717283248901
1772881566326716000,6.5927158203125,6.562447547912598,-7.211153984069824,1.0506834983825684
1772881566336716000,6.602716064453125,6.56743860244751,-7.233511447906494,0.8458507061004639
1772881566346716000,6.6127158203125,6.558912754058838,-7.260525703430176,0.6601622104644775
1772881566356716000,6.622716064453125,6.5372185707092285,-7.2931389808654785,0.49525442719459534
1772881566366716000,6.6327158203125,6.506277561187744,-7.329216480255127,0.34831488132476807
1772881566376716000,6.642716064453125,6.467096328735352,-7.368745803833008,0.2205384373664856
1772881566386716000,6.6527158203125,6.421388149261475,-7.41108512878418,0.10942354053258896
1772881566396716000,6.662716064453125,6.372786998748779,-7.45371675491333,0.009299003519117832
1772881566406716000,6.6727158203125,6.332585334777832,-7.487454891204834,-0.08232153207063675
1772881566416716000,6.682716064453125,6.315615653991699,-7.5006208419799805,-0.15514904260635376
1772881566426716000,6.6927158203125,6.322391033172607,-7.494291305541992,-0.18263933062553406
1772881566436716000,6.702716064453125,6.335424900054932,-7.483590602874756,-0.16928568482398987
1772881566446716000,6.7127158203125,6.343237400054932,-7.477437973022461,-0.14717485010623932
1772881566456716000,6.722716064453125,6.345006942749023,-7.476463317871094,-0.11734213680028915
1772881566466716000,6.7327158203125,6.342909812927246,-7.478693962097168,-0.08377537876367569
1772881566476716000,6.742716064453125,6.338114261627197,-7.483029842376709,-0.05430556833744049
1772881566486716000,6.7527158203125,6.334802150726318,-7.4860005378723145,-0.02160448394715786
1772881566496716000,6.762716064453125,6.333222389221191,-7.487337112426758,0.021515674889087677
1772881566506716000,6.7727158203125,6.332794189453125,-7.487367153167725,0.07373537868261337
1772881566516716000,6.782716064453125,6.3344621658325195,-7.485214710235596,0.1285952627658844
1772881566526716000,6.7927158203125,6.337988376617432,-7.4810028076171875,0.18674033880233765
1772881566536716000,6.802716064453125,6.341712951660156,-7.475905895233154,0.2527705132961273
1772881566546716000,6.8127158203125,6.345002174377441,-7.4701690673828125,0.32848405838012695
1772881566556716000,6.822716064453125,6.346322059631348,-7.464282989501953,0.4231652021408081
1772881566566716000,6.8327158203125,6.347055435180664,-7.456111907958984,0.5400575995445251
1772881566576716000,6.842716064453125,6.348345756530762,-7.444179534912109,0.6731192469596863
1772881566586716000,6.8527158203125,6.351622581481934,-7.426545143127441,0.8207991123199463
1772881566596716000,6.862716064453125,6.355520248413086,-7.404354095458984,0.9763680696487427
1772881566606716000,6.8727158203125,6.357492446899414,-7.37998628616333,1.1351062059402466
1772881566616716000,6.882716064453125,6.3566575050354,-7.354941368103027,1.2915611267089844
1772881566626716000,6.8927158203125,6.3517231941223145,-7.330206394195557,1.4470913410186768
1772881566636716000,6.902716064453125,6.343198776245117,-7.304611682891846,1.6052608489990234
1772881566646716000,6.9127158203125,6.331177234649658,-7.276956081390381,1.7698884010314941
1772881566656716000,6.922716064453125,6.315774917602539,-7.246675491333008,1.9408926963806152
1772881566666716000,6.9327158203125,6.2955145835876465,-7.216528415679932,2.1115407943725586
1772881566676716000,6.942716064453125,6.273287773132324,-7.1867170333862305,2.273179292678833
1772881566686716000,6.9527158203125,6.252206325531006,-7.157786846160889,2.4179272651672363
1772881566696716000,6.962716064453125,6.234481334686279,-7.130323886871338,2.5416743755340576
1772881566706716000,6.9727158203125,6.224666118621826,-7.100193500518799,2.647860050201416
1772881566716716000,6.982716064453125,6.227547645568848,-7.0621657371521,2.7411417961120605
1772881566726716000,6.9927158203125,6.242931842803955,-7.015021324157715,2.825892210006714
1772881566736716000,7.002716064453125,6.267756938934326,-6.9616546630859375,2.901890754699707
1772881566746716000,7.0127158203125,6.296999931335449,-6.908829212188721,2.9641618728637695
1772881566756716000,7.022716064453125,6.325503349304199,-6.863221645355225,3.009084463119507
1772881566766716000,7.0327158203125,6.351518630981445,-6.828479290008545,3.0332300662994385
1772881566776716000,7.042716064453125,6.372179985046387,-6.806530475616455,3.0392184257507324
1772881566786716000,7.0527158203125,6.38624906539917,-6.792879581451416,3.0402305126190186
1772881566796716000,7.062716064453125,6.401498317718506,-6.7734527587890625,3.0514822006225586
1772881566806716000,7.0727158203125,6.428091049194336,-6.736123561859131,3.0780961513519287
1772881566816716000,7.082716064453125,6.471579074859619,-6.67648983001709,3.1166539192199707
1772881566826716000,7.0927158203125,6.525832653045654,-6.600941181182861,3.1640913486480713
1772881566836716000,7.102716064453125,6.584619045257568,-6.517969131469727,3.213914632797241
1772881566846716000,7.1127158203125,6.644006252288818,-6.433358192443848,3.2618181705474854
1772881566856716000,7.122716064453125,6.6949896812438965,-6.353845596313477,3.3130266666412354
1772881566866716000,7.1327158203125,6.73904275894165,-6.2832112312316895,3.3581161499023438
1772881566876716000,7.142716064453125,6.791624546051025,-6.214305877685547,3.3803305625915527
1772881566886716000,7.1527158203125,6.8371381759643555,-6.152376174926758,3.4017913341522217
1772881566896716000,7.162716064453125,6.863438606262207,-6.1056623458862305,3.4328525066375732
1772881566906716000,7.1727158203125,6.885961532592773,-6.073129653930664,3.4454345703125
1772881566916716000,7.182716064453125,6.90009069442749,-6.054571628570557,3.449826240539551
1772881566926716000,7.1927158203125,6.908797264099121,-6.046396732330322,3.4467360973358154
1772881566936716000,7.202716064453125,6.92258882522583,-6.03792667388916,3.433889865875244
1772881566946716000,7.2127158203125,6.940056800842285,-6.0245842933654785,3.4220447540283203
1772881566956716000,7.222716064453125,6.960776329040527,-6.004073619842529,3.4160027503967285
1772881566966716000,7.2327158203125,6.9885783195495605,-5.97723388671875,3.4062914848327637
1772881566976716000,7.242716064453125,7.02030086517334,-5.950399398803711,3.387995958328247
1772881566986716000,7.2527158203125,7.056151390075684,-5.927803993225098,3.3529462814331055
1772881566996716000,7.262716064453125,7.094189643859863,-5.911797523498535,3.300532341003418
1772881567006716000,7.2727158203125,7.128633975982666,-5.907757759094238,3.232855796813965
1772881567016716000,7.282716064453125,7.150729656219482,-5.925670146942139,3.1502182483673096
1772881567026716000,7.2927158203125,7.154088497161865,-5.972148418426514,3.053334951400757
1772881567036716000,7.302716064453125,7.136210918426514,-6.050121784210205,2.939542770385742
1772881567046716000,7.3127158203125,7.09604549407959,-6.158237934112549,2.8093836307525635
1772881567056716000,7.322716064453125,7.043506145477295,-6.285528182983398,2.6554746627807617
1772881567066716000,7.3327158203125,6.986148834228516,-6.420007228851318,2.4794375896453857
1772881567076716000,7.342716064453125,6.928134441375732,-6.546022891998291,2.306708574295044
1772881567086716000,7.3527158203125,6.875815391540527,-6.650120258331299,2.1608924865722656
1772881567096716000,7.362716064453125,6.8332977294921875,-6.72984504699707,2.0458760261535645
1772881567106716000,7.3727158203125,6.797826290130615,-6.788546085357666,1.9686497449874878
1772881567116716000,7.382716064453125,6.763672351837158,-6.834446430206299,1.9270354509353638
1772881567126716000,7.3927158203125,6.728915691375732,-6.872583866119385,1.913029670715332
1772881567136716000,7.402716064453125,6.69639778137207,-6.904593467712402,1.9118705987930298
1772881567146716000,7.4127158203125,6.669806957244873,-6.931595325469971,1.9071050882339478
1772881567156716000,7.422716064453125,6.650479316711426,-6.95562219619751,1.8870165348052979
1772881567166716000,7.4327158203125,6.638830661773682,-6.978212833404541,1.8441392183303833
1772881567176716000,7.442716064453125,6.633181095123291,-6.999637603759766,1.7822362184524536
1772881567186716000,7.4527158203125,6.6258721351623535,-7.027032375335693,1.6997144222259521
1772881567196716000,7.462716064453125,6.609835624694824,-7.065225601196289,1.6009502410888672
1772881567206716000,7.4727158203125,6.581355094909668,-7.116730690002441,1.4860308170318604
1772881567216716000,7.482716064453125,6.54014253616333,-7.180742263793945,1.3542002439498901
1772881567226716000,7.4927158203125,6.487364292144775,-7.253811836242676,1.2110793590545654
1772881567236716000,7.502716064453125,6.424652576446533,-7.331750392913818,1.0675499439239502
1772881567246716000,7.5127158203125,6.356212615966797,-7.408535003662109,0.9394412636756897
1772881567256716000,7.522716064453125,6.293004989624023,-7.47489595413208,0.8333172798156738
1772881567266716000,7.5327158203125,6.260705471038818,-7.513491153717041,0.7220772504806519
1772881567276716000,7.542716064453125,6.270015716552734,-7.515730381011963,0.6091675758361816
1772881567286716000,7.5527158203125,6.304871082305908,-7.493253231048584,0.5197556614875793
1772881567296716000,7.562716064453125,6.350813388824463,-7.459399223327637,0.4414803683757782
1772881567306716000,7.5727158203125,6.387576580047607,-7.4319844245910645,0.3672335743904114
1772881567316716000,7.582716064453125,6.399830341339111,-7.424308776855469,0.30365678668022156
1772881567326716000,7.5927158203125,6.38164758682251,-7.441640377044678,0.2587548792362213
1772881567336716000,7.602716064453125,6.338807106018066,-7.479629039764404,0.21225084364414215
1772881567346716000,7.6127158203125,6.289956092834473,-7.522253036499023,0.15012983977794647
1772881567356716000,7.622716064453125,6.2453179359436035,-7.5603928565979,0.08280724287033081
1772881567366716000,7.6327158203125,6.209312915802002,-7.590414047241211,0.021238045766949654
1772881567376716000,7.642716064453125,6.184582233428955,-7.6105427742004395,-0.03123827837407589
1772881567386716000,7.6527158203125,6.167855262756348,-7.6238203048706055,-0.07292149215936661
1772881567396716000,7.662716064453125,6.153271198272705,-7.635281085968018,-0.10063070058822632
1772881567406716000,7.6727158203125,6.136185646057129,-7.648864269256592,-0.11178417503833771
1772881567416716000,7.682716064453125,6.113009929656982,-7.667411804199219,-0.11088866740465164
1772881567426716000,7.6927158203125,6.083037376403809,-7.6913533210754395,-0.100624680519104
1772881567436716000,7.702716064453125,6.044928550720215,-7.72151517868042,-0.08621884137392044
1772881567446716000,7.7127158203125,5.999847412109375,-7.756786823272705,-0.06688055396080017
1772881567456716000,7.722716064453125,5.951077938079834,-7.79445219039917,-0.03973071649670601
1772881567466716000,7.7327158203125,5.903292179107666,-7.830804347991943,-0.005890682339668274
1772881567476716000,7.742716064453125,5.862525463104248,-7.86130428314209,0.032681819051504135
1772881567486716000,7.7527158203125,5.832221984863281,-7.883484363555908,0.0790887176990509
1772881567496716000,7.762716064453125,5.813045501708984,-7.896749496459961,0.1422480046749115
1772881567506716000,7.7727158203125,5.8006911277771,-7.903611183166504,0.2351544201374054
1772881567516716000,7.782716064453125,5.7897820472717285,-7.907247543334961,0.35249587893486023
1772881567526716000,7.7927158203125,5.780921936035156,-7.906681060791016,0.4855164587497711
1772881567536716000,7.802716064453125,5.7752580642700195,-7.9004926681518555,0.6316646337509155
1772881567546716000,7.8127158203125,5.773702621459961,-7.887808322906494,0.7856346368789673
1772881567556716000,7.822716064453125,5.770378112792969,-7.873020648956299,0.9426882266998291
1772881567566716000,7.8327158203125,5.756117343902588,-7.862780570983887,1.1018972396850586
1772881567576716000,7.842716064453125,5.729075908660889,-7.858409881591797,1.2623324394226074
1772881567586716000,7.8527158203125,5.69123649597168,-7.858975887298584,1.4201117753982544
1772881567596716000,7.862716064453125,5.647696495056152,-7.862498760223389,1.5668538808822632
1772881567606716000,7.8727158203125,5.607708930969238,-7.864665508270264,1.6944161653518677
1772881567616716000,7.882716064453125,5.57682466506958,-7.862512111663818,1.802863359451294
1772881567626716000,7.8927158203125,5.558472633361816,-7.8519206047058105,1.9029216766357422
1772881567636716000,7.902716064453125,5.553598880767822,-7.829187870025635,2.0079233646392822
1772881567646716000,7.9127158203125,5.558448314666748,-7.794865131378174,2.124643564224243
1772881567656716000,7.922716064453125,5.566126346588135,-7.753043174743652,2.2536518573760986
1772881567666716000,7.9327158203125,5.56984806060791,-7.7086029052734375,2.3926191329956055
1772881567676716000,7.942716064453125,5.566709518432617,-7.667411804199219,2.5284204483032227
1772881567686716000,7.9527158203125,5.561985015869141,-7.631312847137451,2.6453304290771484
1772881567696716000,7.962716064453125,5.562277793884277,-7.600738048553467,2.731341600418091
1772881567706716000,7.9727158203125,5.566264629364014,-7.577023029327393,2.788512945175171
1772881567716716000,7.982716064453125,5.564853191375732,-7.56364631652832,2.827375888824463
1772881567726716000,7.9927158203125,5.551992416381836,-7.561352729797363,2.8586208820343018
1772881567736716000,8.002716064453125,5.526784896850586,-7.5678391456604,2.8901307582855225
1772881567746716000,8.0127158203125,5.492176055908203,-7.5814104080200195,2.9203755855560303
1772881567756716000,8.022716064453125,5.453789710998535,-7.598646640777588,2.947394609451294
1772881567766716000,8.0327158203125,5.423855304718018,-7.610710620880127,2.9714086055755615
1772881567776716000,8.042716064453124,5.41584587097168,-7.607511043548584,2.994126558303833
1772881567786716000,8.0527158203125,5.43934965133667,-7.579925537109375,3.0213546752929688
1772881567796716000,8.062716064453125,5.498027324676514,-7.5229926109313965,3.0572304725646973
1772881567806716000,8.0727158203125,5.58554220199585,-7.436768054962158,3.1091127395629883
1772881567816716000,8.082716064453125,5.683468341827393,-7.3286356925964355,3.187424421310425
1772881567826716000,8.0927158203125,5.774024963378906,-7.21372127532959,3.285308837890625
1772881567836716000,8.102716064453125,5.836812496185303,-7.112067222595215,3.394188642501831
1772881567846716000,8.1127158203125,5.880716800689697,-7.0302910804748535,3.4874842166900635
1772881567856716000,8.122716064453124,5.908286094665527,-6.9735107421875,3.5542502403259277
1772881567866716000,8.1327158203125,5.923269748687744,-6.942811012268066,3.5892398357391357
1772881567876716000,8.142716064453126,5.933807849884033,-6.931359767913818,3.593964099884033
1772881567886716000,8.1527158203125,5.951655864715576,-6.927030086517334,3.572734832763672
1772881567896716000,8.162716064453125,5.980493545532227,-6.918974876403809,3.5400383472442627
1772881567906716000,8.1727158203125,6.021903038024902,-6.900805473327637,3.5051321983337402
1772881567916716000,8.182716064453125,6.072848320007324,-6.871455192565918,3.4747684001922607
1772881567926716000,8.1927158203125,6.128986358642578,-6.8327531814575195,3.452449321746826
1772881567936716000,8.202716064453124,6.188447952270508,-6.785804271697998,3.4389476776123047
1772881567946716000,8.2127158203125,6.249966144561768,-6.732338905334473,3.4327712059020996
1772881567956716000,8.222716064453126,6.311699867248535,-6.675941467285156,3.429962158203125
1772881567966716000,8.2327158203125,6.373192310333252,-6.621345043182373,3.422074556350708
1772881567976716000,8.242716064453125,6.431901931762695,-6.575225353240967,3.4010934829711914
1772881567986716000,8.2527158203125,6.480806350708008,-6.545962810516357,3.3645083904266357
1772881567996716000,8.262716064453125,6.511921405792236,-6.540255546569824,3.315166711807251
1772881568006716000,8.2727158203125,6.5210041999816895,-6.561208248138428,3.255370855331421
1772881568016716000,8.282716064453124,6.506700038909912,-6.606602191925049,3.1915578842163086
1772881568026716000,8.2927158203125,6.4718523025512695,-6.671429634094238,3.1269054412841797
1772881568036716000,8.302716064453126,6.4247918128967285,-6.749616622924805,3.055342435836792
1772881568046716000,8.3127158203125,6.3722100257873535,-6.829091548919678,2.9881157875061035
1772881568056716000,8.322716064453125,6.318871974945068,-6.90239143371582,2.9324464797973633
1772881568066716000,8.3327158203125,6.271176338195801,-6.964325904846191,2.8880627155303955
1772881568076716000,8.342716064453125,6.235052585601807,-7.010193347930908,2.8551173210144043
1772881568086716000,8.3527158203125,6.215632915496826,-7.040046215057373,2.82383394241333
1772881568096716000,8.362716064453124,6.211126327514648,-7.060486316680908,2.7824156284332275
1772881568106716000,8.3727158203125,6.211312770843506,-7.080245494842529,2.7313218116760254
1772881568116716000,8.382716064453126,6.209627151489258,-7.106371879577637,2.6665332317352295
1772881568126716000,8.3927158203125,6.2037248611450195,-7.1417436599731445,2.584507942199707
1772881568136716000,8.402716064453125,6.198049545288086,-7.183876991271973,2.479207992553711
1772881568146716000,8.4127158203125,6.195727348327637,-7.2306132316589355,2.345546245574951
1772881568156716000,8.422716064453125,6.196380138397217,-7.280505657196045,2.183915853500366
1772881568166716000,8.4327158203125,6.201804161071777,-7.329811096191406,1.995469093322754
1772881568176716000,8.442716064453125,6.208366394042969,-7.378903388977051,1.782795786857605
1772881568186716000,8.4527158203125,6.213743209838867,-7.426704406738281,1.5504322052001953
1772881568196716000,8.462716064453126,6.214987277984619,-7.470993995666504,1.3147547245025635
1772881568206716000,8.4727158203125,6.213914394378662,-7.5071210861206055,1.09580659866333
1772881568216716000,8.482716064453125,6.215257167816162,-7.531242370605469,0.9062877297401428
1772881568226716000,8.4927158203125,6.223867893218994,-7.541433811187744,0.7487515807151794
1772881568236716000,8.502716064453125,6.243654727935791,-7.536468982696533,0.6235405802726746
1772881568246716000,8.5127158203125,6.26971960067749,-7.52183723449707,0.531956136226654
1772881568256716000,8.522716064453125,6.291297435760498,-7.507724285125732,0.4733344316482544
1772881568266716000,8.5327158203125,6.3026227951049805,-7.500454425811768,0.4364911615848541
1772881568276716000,8.542716064453124,6.3023529052734375,-7.502328395843506,0.4071866571903229
1772881568286716000,8.5527158203125,6.292434215545654,-7.512099266052246,0.3795064389705658
1772881568296716000,8.562716064453125,6.280067443847656,-7.523536682128906,0.357116162776947
1772881568306716000,8.5727158203125,6.274524688720703,-7.528703689575195,0.34547656774520874
1772881568316716000,8.582716064453125,6.281791687011719,-7.5226616859436035,0.3450198769569397
1772881568326716000,8.5927158203125,6.298250675201416,-7.5081634521484375,0.3604295253753662
1772881568336716000,8.602716064453125,6.318765163421631,-7.489316940307617,0.39206206798553467
1772881568346716000,8.6127158203125,6.336694240570068,-7.471701622009277,0.4363211691379547
1772881568356716000,8.622716064453124,6.345978260040283,-7.461037635803223,0.4815335273742676
1772881568366716000,8.6327158203125,6.3437724113464355,-7.459718227386475,0.5287216901779175
1772881568376716000,8.642716064453126,6.331785678863525,-7.466221809387207,0.5782836079597473
1772881568386716000,8.6527158203125,6.313085556030273,-7.477847576141357,0.6301850080490112
1772881568396716000,8.662716064453125,6.291162967681885,-7.491514682769775,0.6847326159477234
1772881568406716000,8.6727158203125,6.269711017608643,-7.5038604736328125,0.7437676191329956
1772881568416716000,8.682716064453125,6.249612808227539,-7.51370096206665,0.8105717897415161
1772881568426716000,8.6927158203125,6.231841564178467,-7.519967555999756,0.8857913613319397
1772881568436716000,8.702716064453124,6.215090274810791,-7.522970199584961,0.9736247062683105
1772881568446716000,8.7127158203125,6.198873519897461,-7.521852016448975,1.0798661708831787
1772881568456716000,8.722716064453126,6.179903030395508,-7.5193867683410645,1.1991642713546753
1772881568466716000,8.7327158203125,6.158337593078613,-7.514265537261963,1.3345648050308228
1772881568476716000,8.742716064453125,6.135843276977539,-7.5042805671691895,1.4857964515686035
1772881568486716000,8.7527158203125,6.111643314361572,-7.489553451538086,1.650696873664856
1772881568496716000,8.762716064453125,6.085024356842041,-7.469491481781006,1.8301808834075928
1772881568506716000,8.7727158203125,6.056323051452637,-7.443289756774902,2.0220706462860107
1772881568516716000,8.782716064453124,6.025119781494141,-7.411731719970703,2.2213847637176514
1772881568526716000,8.7927158203125,5.98795747756958,-7.378475666046143,2.423398494720459
1772881568536716000,8.802716064453126,5.944189071655273,-7.346199035644531,2.6211376190185547
1772881568546716000,8.8127158203125,5.902022838592529,-7.312346935272217,2.804657459259033
1772881568556716000,8.822716064453125,5.869563579559326,-7.27477502822876,2.9658515453338623
1772881568566716000,8.8327158203125,5.851765155792236,-7.233499526977539,3.0989859104156494
1772881568576716000,8.842716064453125,5.8472819328308105,-7.190803527832031,3.2049994468688965
1772881568586716000,8.8527158203125,5.854686737060547,-7.146205902099609,3.2901015281677246
1772881568596716000,8.862716064453124,5.869868755340576,-7.101576805114746,3.358962059020996
1772881568606716000,8.8727158203125,5.883584499359131,-7.061130046844482,3.419687509536743
1772881568616716000,8.882716064453126,5.892751693725586,-7.0255632400512695,3.4766831398010254
1772881568626716000,8.8927158203125,5.897487163543701,-6.995129585266113,3.529616594314575
1772881568636716000,8.902716064453125,5.901900768280029,-6.969724178314209,3.572239637374878
1772881568646716000,8.9127158203125,5.910286903381348,-6.9481730461120605,3.600247859954834
1772881568656716000,8.922716064453125,5.923300266265869,-6.928393363952637,3.616939067840576
1772881568666716000,8.9327158203125,5.943568229675293,-6.9060235023498535,3.6264612674713135
1772881568676716000,8.942716064453125,5.97001838684082,-6.880467414855957,3.631589651107788
1772881568686716000,8.9527158203125,5.9979753494262695,-6.852224349975586,3.638913631439209
1772881568696716000,8.962716064453126,6.027645587921143,-6.821555137634277,3.647501230239868
1772881568706716000,8.9727158203125,6.057048320770264,-6.792255878448486,3.6534676551818848
1772881568716716000,8.982716064453125,6.076502799987793,-6.766390800476074,3.6691222190856934
1772881568726716000,8.9927158203125,6.098952293395996,-6.73838472366333,3.6833879947662354
1772881568736716000,9.002716064453125,6.123354911804199,-6.708033084869385,3.6982710361480713
1772881568746716000,9.0127158203125,6.139016151428223,-6.677136421203613,3.7280993461608887
1772881568756716000,9.022716064453125,6.159674644470215,-6.642593860626221,3.7556278705596924
1772881568766716000,9.0327158203125,6.1822381019592285,-6.6055827140808105,3.783728837966919
1772881568776716000,9.042716064453124,6.209647178649902,-6.566626071929932,3.8065860271453857
1772881568786716000,9.0527158203125,6.243271350860596,-6.5271196365356445,3.8195111751556396
1772881568796716000,9.062716064453125,6.279951572418213,-6.489979267120361,3.822662830352783
1772881568806716000,9.0727158203125,6.315253734588623,-6.458807468414307,3.8172991275787354
1772881568816716000,9.082716064453125,6.346014499664307,-6.436504364013672,3.80393123626709
1772881568826716000,9.0927158203125,6.374223709106445,-6.420248031616211,3.7841877937316895
1772881568836716000,9.102716064453125,6.407834053039551,-6.40733003616333,3.749155282974243
1772881568846716000,9.1127158203125,6.444404125213623,-6.397860527038574,3.702354907989502
1772881568856716000,9.122716064453124,6.48261833190918,-6.391921043395996,3.645461082458496
1772881568866716000,9.1327158203125,6.522980213165283,-6.388580799102783,3.578709840774536
1772881568876716000,9.142716064453126,6.565367221832275,-6.386695384979248,3.5037786960601807
1772881568886716000,9.1527158203125,6.60770320892334,-6.386938571929932,3.4228153228759766
1772881568896716000,9.162716064453125,6.6482343673706055,-6.389770030975342,3.337996244430542
1772881568906716000,9.1727158203125,6.684020519256592,-6.395983695983887,3.2535598278045654
1772881568916716000,9.182716064453125,6.715024471282959,-6.404283046722412,3.1723811626434326
1772881568926716000,9.1927158203125,6.742005348205566,-6.414235591888428,3.09407901763916
1772881568936716000,9.202716064453124,6.764161109924316,-6.426718235015869,3.018908739089966
1772881568946716000,9.2127158203125,6.780996799468994,-6.441519260406494,2.948779344558716
1772881568956716000,9.222716064453126,6.791426181793213,-6.458354949951172,2.8873114585876465
1772881568966716000,9.2327158203125,6.797467231750488,-6.4767045974731445,2.8314523696899414
1772881568976716000,9.242716064453125,6.799773693084717,-6.497251987457275,2.7783432006835938
1772881568986716000,9.2527158203125,6.798065662384033,-6.521072864532471,2.726222038269043
1772881568996716000,9.262716064453125,6.792459011077881,-6.5484771728515625,2.674010992050171
1772881569006716000,9.2727158203125,6.78226900100708,-6.5813889503479,2.6184959411621094
1772881569016716000,9.282716064453124,6.76888370513916,-6.619808673858643,2.5555293560028076
1772881569026716000,9.2927158203125,6.752552032470703,-6.662938117980957,2.4856948852539062
1772881569036716000,9.302716064453126,6.729888439178467,-6.713627338409424,2.409602642059326
1772881569046716000,9.3127158203125,6.697830677032471,-6.776605606079102,2.321007013320923
1772881569056716000,9.322716064453125,6.65678071975708,-6.851517200469971,2.216838836669922
1772881569066716000,9.3327158203125,6.612442493438721,-6.935126304626465,2.085667848587036
1772881569076716000,9.342716064453125,6.575456619262695,-7.0166802406311035,1.9235258102416992
1772881569086716000,9.3527158203125,6.548593044281006,-7.090985298156738,1.7332749366760254
1772881569096716000,9.362716064453124,6.53238582611084,-7.155817031860352,1.5141329765319824
1772881569106716000,9.3727158203125,6.527312278747559,-7.208339214324951,1.2666593790054321
1772881569116716000,9.382716064453126,6.525990009307861,-7.249532699584961,1.0129728317260742
1772881569126716000,9.3927158203125,6.521235466003418,-7.2822265625,0.7829748392105103
1772881569136716000,9.402716064453125,6.514581680297852,-7.306049823760986,0.5935150384902954
1772881569146716000,9.4127158203125,6.511285781860352,-7.319573879241943,0.4442807137966156
1772881569156716000,9.422716064453125,6.512389183044434,-7.324652194976807,0.3296312093734741
1772881569166716000,9.4327158203125,6.514254570007324,-7.326277256011963,0.24603286385536194
1772881569176716000,9.442716064453125,6.506290912628174,-7.33498477935791,0.19120357930660248
1772881569186716000,9.4527158203125,6.484355926513672,-7.355274677276611,0.15313732624053955
1772881569196716000,9.462716064453126,6.454702854156494,-7.382001876831055,0.11510972678661346
1772881569206716000,9.4727158203125,6.426546573638916,-7.407067775726318,0.07233681529760361
1772881569216716000,9.482716064453125,6.40485954284668,-7.426107883453369,0.03285307437181473
1772881569226716000,9.4927158203125,6.3851637840271,-7.443121910095215,0.0038326489739120007
1772881569236716000,9.502716064453125,6.36539363861084,-7.460025310516357,-0.013497515581548214
1772881569246716000,9.5127158203125,6.345535755157471,-7.476917266845703,-0.01658567227423191
1772881569256716000,9.522716064453125,6.322216033935547,-7.4966630935668945,-0.002837150124832988
1772881569266716000,9.5327158203125,6.288873672485352,-7.524617671966553,0.024470428004860878
1772881569276716000,9.542716064453124,6.245713710784912,-7.560332775115967,0.0530104897916317
1772881569286716000,9.5527158203125,6.199747562408447,-7.59777307510376,0.08575022965669632
1772881569296716000,9.562716064453125,6.157416343688965,-7.631666660308838,0.11948888003826141
1772881569306716000,9.5727158203125,6.1213507652282715,-7.660175323486328,0.14547380805015564
1772881569316716000,9.582716064453125,6.092979907989502,-7.6823201179504395,0.16713197529315948
1772881569326716000,9.5927158203125,6.076259136199951,-7.694936275482178,0.19344881176948547
1772881569336716000,9.602716064453125,6.073263645172119,-7.6962690353393555,0.23088650405406952
1772881569346716000,9.6127158203125,6.081236362457275,-7.688426971435547,0.2775578796863556
1772881569356716000,9.622716064453124,6.0924177169799805,-7.6772541999816895,0.33555737137794495
1772881569366716000,9.6327158203125,6.1042633056640625,-7.664239883422852,0.409622460603714
1772881569376716000,9.642716064453126,6.110653877258301,-7.652573585510254,0.5180973410606384
1772881569386716000,9.6527158203125,6.101037979125977,-7.648791790008545,0.6661145687103271
1772881569396716000,9.662716064453125,6.075103282928467,-7.652742385864258,0.8360816240310669
1772881569406716000,9.6727158203125,6.036613464355469,-7.662256240844727,1.0097051858901978
1772881569416716000,9.682716064453125,5.98663854598999,-7.677824974060059,1.1753910779953003
1772881569426716000,9.6927158203125,5.927191734313965,-7.699733734130859,1.3239672183990479
1772881569436716000,9.702716064453124,5.861883640289307,-7.727241039276123,1.4486064910888672
1772881569446716000,9.7127158203125,5.799721717834473,-7.754680633544922,1.548720121383667
1772881569456716000,9.722716064453126,5.747389316558838,-7.776650428771973,1.6314473152160645
1772881569466716000,9.7327158203125,5.704055309295654,-7.792108058929443,1.7079812288284302
1772881569476716000,9.742716064453125,5.669933795928955,-7.79833459854126,1.7911466360092163
1772881569486716000,9.7527158203125,5.650269031524658,-7.791647434234619,1.8801823854446411
1772881569496716000,9.762716064453125,5.6509881019592285,-7.769692420959473,1.966876745223999
1772881569506716000,9.7727158203125,5.6784749031066895,-7.729465484619141,2.0446701049804688
1772881569516716000,9.782716064453124,5.733367919921875,-7.6712775230407715,2.109591007232666
1772881569526716000,9.7927158203125,5.806533336639404,-7.6034955978393555,2.1543941497802734
1772881569536716000,9.802716064453126,5.877741813659668,-7.54120397567749,2.1800904273986816
1772881569546716000,9.8127158203125,5.923972129821777,-7.49825382232666,2.202984094619751
1772881569556716000,9.822716064453125,5.927201271057129,-7.484490394592285,2.2407736778259277
1772881569566716000,9.8327158203125,5.878535270690918,-7.504101276397705,2.302534580230713
1772881569576716000,9.842716064453125,5.78125524520874,-7.548349857330322,2.4020581245422363
1772881569586716000,9.8527158203125,5.654291152954102,-7.596776962280273,2.547224283218384
1772881569596716000,9.862716064453124,5.540196895599365,-7.621994972229004,2.716947317123413
1772881569606716000,9.8727158203125,5.489609718322754,-7.609345436096191,2.8517441749572754
1772881569616716000,9.882716064453126,5.535618305206299,-7.552696228027344,2.9127495288848877
1772881569626716000,9.8927158203125,5.6716437339782715,-7.446375846862793,2.924778461456299
1772881569636716000,9.902716064453125,5.822206497192383,-7.32393741607666,2.93806529045105
1772881569646716000,9.9127158203125,5.940723419189453,-7.216659069061279,2.9661455154418945
1772881569656716000,9.922716064453125,6.017467975616455,-7.132473468780518,3.0146796703338623
1772881569666716000,9.9327158203125,6.054953575134277,-7.0660529136657715,3.0949673652648926
1772881569676716000,9.942716064453125,6.068767547607422,-7.0124592781066895,3.188396453857422
1772881569686716000,9.9527158203125,6.076439380645752,-6.9662652015686035,3.2739007472991943
1772881569696716000,9.962716064453126,6.086088180541992,-6.925325870513916,3.3421218395233154
1772881569706716000,9.9727158203125,6.089836120605469,-6.8956122398376465,3.396294593811035
1772881569716716000,9.982716064453125,6.090241432189941,-6.877381801605225,3.4323418140411377
1772881569726716000,9.9927158203125,6.0962066650390625,-6.86697244644165,3.442577838897705
1772881569736716000,10.002716064453125,6.113544464111328,-6.860566139221191,3.4245553016662598
1772881569746716000,10.0127158203125,6.1428141593933105,-6.855834007263184,3.3813838958740234
1772881569756716000,10.022716064453125,6.181085586547852,-6.852981090545654,3.3168082237243652
1772881569766716000,10.0327158203125,6.223886013031006,-6.852980613708496,3.2357845306396484
1772881569776716000,10.042716064453124,6.264279842376709,-6.856522083282471,3.149171829223633
1772881569786716000,10.0527158203125,6.294793605804443,-6.865242004394531,3.0682928562164307
1772881569796716000,10.062716064453125,6.315587043762207,-6.877695560455322,2.9968390464782715
1772881569806716000,10.0727158203125,6.330564022064209,-6.8909077644348145,2.934237480163574
1772881569816716000,10.082716064453125,6.344531059265137,-6.902566432952881,2.876087188720703
1772881569826716000,10.0927158203125,6.359679698944092,-6.912348747253418,2.8185606002807617
1772881569836716000,10.102716064453125,6.374751567840576,-6.922182559967041,2.7597687244415283
1772881569846716000,10.1127158203125,6.387510776519775,-6.934622764587402,2.6983542442321777
1772881569856716000,10.122716064453124,6.397712707519531,-6.950779914855957,2.6317873001098633
1772881569866716000,10.1327158203125,6.404260635375977,-6.970513343811035,2.5627660751342773
1772881569876716000,10.142716064453126,6.405930995941162,-6.993976593017578,2.4937357902526855
1772881569886716000,10.1527158203125,6.40335750579834,-7.019868850708008,2.426694869995117
1772881569896716000,10.162716064453125,6.398269176483154,-7.047266006469727,2.359783172607422
1772881569906716000,10.1727158203125,6.392312049865723,-7.075613498687744,2.2900736331939697
1772881569916716000,10.182716064453125,6.389511585235596,-7.104326248168945,2.207505941390991
1772881569926716000,10.1927158203125,6.392417907714844,-7.133471965789795,2.1026082038879395
1772881569936716000,10.202716064453124,6.399353504180908,-7.16328239440918,1.9763702154159546
1772881569946716000,10.2127158203125,6.40653133392334,-7.195288181304932,1.8315485715866089
1772881569956716000,10.222716064453126,6.410985469818115,-7.229798793792725,1.6732234954833984
1772881569966716000,10.2327158203125,6.411441802978516,-7.265691757202148,1.5078229904174805
1772881569976716000,10.242716064453125,6.406694412231445,-7.303354740142822,1.3362853527069092
1772881569986716000,10.2527158203125,6.3973870277404785,-7.341796875,1.1583811044692993
1772881569996716000,10.262716064453125,6.389965057373047,-7.375406742095947,0.9706287980079651
1772881570006716000,10.2727158203125,6.390101432800293,-7.3987812995910645,0.7713853120803833
1772881570016716000,10.282716064453124,6.396791934967041,-7.411587238311768,0.5655257105827332
1772881570026716000,10.2927158203125,6.40589714050293,-7.416518211364746,0.3607257008552551
1772881570036716000,10.302716064453126,6.417056560516357,-7.413878917694092,0.16179268062114716
1772881570046716000,10.3127158203125,6.429312705993652,-7.404998779296875,-0.017981989309191704
1772881570056716000,10.322716064453125,6.440943241119385,-7.3930344581604,-0.16635899245738983
1772881570066716000,10.3327158203125,6.448197364807129,-7.383402347564697,-0.2765771150588989
1772881570076716000,10.342716064453125,6.445341110229492,-7.382941722869873,-0.34658753871917725
1772881570086716000,10.3527158203125,6.438014507293701,-7.387000560760498,-0.3931639790534973
1772881570096716000,10.362716064453124,6.4283928871154785,-7.393744945526123,-0.4227154552936554
1772881570106716000,10.3727158203125,6.411781311035156,-7.406935214996338,-0.4435761570930481
1772881570116716000,10.382716064453126,6.388067722320557,-7.426142692565918,-0.4640927016735077
1772881570126716000,10.3927158203125,6.359775543212891,-7.449267864227295,-0.4817204773426056
1772881570136716000,10.402716064453125,6.3281636238098145,-7.475639820098877,-0.4894311726093292
1772881570146716000,10.4127158203125,6.2962646484375,-7.502554416656494,-0.4889910817146301
1772881570156716000,10.422716064453125,6.2685017585754395,-7.526151657104492,-0.4830330014228821
1772881570166716000,10.4327158203125,6.2451581954956055,-7.546616554260254,-0.46579840779304504
1772881570176716000,10.442716064453125,6.229551315307617,-7.561416149139404,-0.43366870284080505
1772881570186716000,10.4527158203125,6.224243640899658,-7.5680108070373535,-0.3929120898246765
1772881570196716000,10.462716064453126,6.222588062286377,-7.57149076461792,-0.3497582972049713
1772881570206716000,10.4727158203125,6.21809720993042,-7.577109336853027,-0.30508697032928467
1772881570216716000,10.482716064453125,6.206817150115967,-7.588135719299316,-0.2569228708744049
1772881570226716000,10.4927158203125,6.190976619720459,-7.602763652801514,-0.20045296847820282
1772881570236716000,10.502716064453125,6.172931671142578,-7.618793487548828,-0.13891351222991943
1772881570246716000,10.5127158203125,6.1549577713012695,-7.634267330169678,-0.06968876719474792
1772881570256716000,10.522716064453125,6.13822603225708,-7.648033618927002,0.01197653915733099
1772881570266716000,10.5327158203125,6.1225972175598145,-7.659736156463623,0.11238664388656616
1772881570276716000,10.542716064453124,6.111887454986572,-7.6657185554504395,0.2279917597770691
1772881570286716000,10.5527158203125,6.102746963500977,-7.668165683746338,0.3551293611526489
1772881570296716000,10.562716064453125,6.093757629394531,-7.667880535125732,0.49000442028045654
1772881570306716000,10.5727158203125,6.083901405334473,-7.6651482582092285,0.6340672373771667
1772881570316716000,10.582716064453125,6.07247257232666,-7.658988952636719,0.7970870733261108
1772881570326716000,10.5927158203125,6.0593743324279785,-7.647632122039795,0.983912467956543
1772881570336716000,10.602716064453125,6.042542457580566,-7.631112098693848,1.1934025287628174
1772881570346716000,10.6127158203125,6.016193866729736,-7.6134934425354,1.417931318283081
1772881570356716000,10.622716064453124,5.9806294441223145,-7.596518516540527,1.6417529582977295
1772881570366716000,10.6327158203125,5.9417548179626465,-7.579087734222412,1.8502326011657715
1772881570376716000,10.642716064453126,5.907193183898926,-7.558846473693848,2.034524917602539
1772881570386716000,10.6527158203125,5.886063098907471,-7.532077789306641,2.1891672611236572
1772881570396716000,10.662716064453125,5.87947416305542,-7.499540328979492,2.3149642944335938
1772881570406716000,10.6727158203125,5.883216381072998,-7.465036392211914,2.4148285388946533
1772881570416716000,10.682716064453125,5.8938374519348145,-7.430272102355957,2.494819402694702
1772881570426716000,10.6927158203125,5.904492378234863,-7.3977460861206055,2.5652894973754883
1772881570436716000,10.702716064453124,5.909056663513184,-7.369204044342041,2.635955810546875
1772881570446716000,10.7127158203125,5.907093048095703,-7.344558238983154,2.7081522941589355
1772881570456716000,10.722716064453126,5.901778221130371,-7.322333335876465,2.779001235961914
1772881570466716000,10.7327158203125,5.894515037536621,-7.302443981170654,2.845944881439209
1772881570476716000,10.742716064453125,5.885579586029053,-7.283912181854248,2.911180257797241
1772881570486716000,10.7527158203125,5.87841796875,-7.263566493988037,2.9757673740386963
1772881570496716000,10.762716064453125,5.874110221862793,-7.238258361816406,3.045135498046875
1772881570506716000,10.7727158203125,5.8787078857421875,-7.2025370597839355,3.1200406551361084
1772881570516716000,10.782716064453124,5.8942484855651855,-7.158121109008789,3.1921026706695557
1772881570526716000,10.7927158203125,5.921672821044922,-7.108327865600586,3.252054452896118
1772881570536716000,10.802716064453126,5.957561016082764,-7.057763576507568,3.2963368892669678
1772881570546716000,10.8127158203125,5.994129180908203,-7.009984493255615,3.3318042755126953
1772881570556716000,10.822716064453125,6.0283637046813965,-6.966426372528076,3.361266851425171
1772881570566716000,10.8327158203125,6.056420803070068,-6.925337314605713,3.395564079284668
1772881570576716000,10.842716064453125,6.091684341430664,-6.877790927886963,3.428961753845215
1772881570586716000,10.8527158203125,6.124690055847168,-6.826357364654541,3.4726643562316895
1772881570596716000,10.862716064453124,6.14822244644165,-6.776801109313965,3.527705669403076
1772881570606716000,10.8727158203125,6.169275283813477,-6.7311224937438965,3.5780467987060547
1772881570616716000,10.882716064453126,6.187282562255859,-6.694989204406738,3.6145577430725098
1772881570626716000,10.8927158203125,6.206737518310547,-6.669134140014648,3.6289737224578857
1772881570636716000,10.902716064453125,6.233428955078125,-6.651597023010254,3.6153860092163086
1772881570646716000,10.9127158203125,6.26693868637085,-6.639980316162109,3.578620672225952
1772881570656716000,10.922716064453125,6.30552339553833,-6.631619453430176,3.5259597301483154
1772881570666716000,10.9327158203125,6.346861839294434,-6.62495756149292,3.4637651443481445
1772881570676716000,10.942716064453125,6.388469696044922,-6.622382164001465,3.3914451599121094
1772881570686716000,10.9527158203125,6.428147315979004,-6.626823425292969,3.3067405223846436
1772881570696716000,10.962716064453126,6.464658260345459,-6.6402974128723145,3.2070302963256836
1772881570706716000,10.9727158203125,6.493276119232178,-6.664882183074951,3.096304416656494
1772881570716716000,10.982716064453125,6.509681224822998,-6.701497554779053,2.980666160583496
1772881570726716000,10.9927158203125,6.513967037200928,-6.748220443725586,2.86358904838562
1772881570736716000,11.002716064453125,6.506569862365723,-6.8024678230285645,2.7497947216033936
1772881570746716000,11.0127158203125,6.488600730895996,-6.859344005584717,2.6491217613220215
1772881570756716000,11.022716064453125,6.468233108520508,-6.909936904907227,2.5661487579345703
1772881570766716000,11.0327158203125,6.45557975769043,-6.94642448425293,2.4986138343811035
1772881570776716000,11.042716064453124,6.452061176300049,-6.96925163269043,2.4435293674468994
1772881570786716000,11.0527158203125,6.453089714050293,-6.98492431640625,2.3955931663513184
1772881570796716000,11.062716064453125,6.45564079284668,-6.99967098236084,2.345144033432007
1772881570806716000,11.0727158203125,6.455883979797363,-7.020663738250732,2.2808380126953125
1772881570816716000,11.082716064453125,6.452236175537109,-7.051497459411621,2.194406032562256
1772881570826716000,11.0927158203125,6.444562911987305,-7.0931830406188965,2.079603910446167
1772881570836716000,11.102716064453125,6.434326648712158,-7.1417131423950195,1.9405605792999268
1772881570846716000,11.1127158203125,6.424469470977783,-7.191022872924805,1.7848671674728394
1772881570856716000,11.122716064453124,6.419139862060547,-7.236939907073975,1.609890103340149
1772881570866716000,11.1327158203125,6.421520233154297,-7.27589225769043,1.412749171257019
1772881570876716000,11.142716064453126,6.435917377471924,-7.302882671356201,1.1904817819595337
1772881570886716000,11.1527158203125,6.4589314460754395,-7.317222595214844,0.954382061958313
1772881570896716000,11.162716064453125,6.484108924865723,-7.320801258087158,0.7297819256782532
1772881570906716000,11.1727158203125,6.509372234344482,-7.3152666091918945,0.5341697335243225
1772881570916716000,11.182716064453125,6.535972595214844,-7.301921844482422,0.36522963643074036
1772881570926716000,11.1927158203125,6.560920238494873,-7.285470008850098,0.2159447818994522
1772881570936716000,11.202716064453124,6.57910680770874,-7.271757125854492,0.08542954176664352
1772881570946716000,11.2127158203125,6.585613250732422,-7.266336441040039,-0.02110210806131363
1772881570956716000,11.222716064453126,6.5783185958862305,-7.272245407104492,-0.10273297876119614
1772881570966716000,11.2327158203125,6.555894374847412,-7.291311264038086,-0.16560934484004974
1772881570976716000,11.242716064453125,6.519762992858887,-7.322134971618652,-0.222275972366333
1772881570986716000,11.2527158203125,6.478957176208496,-7.356232166290283,-0.28170105814933777
1772881570996716000,11.262716064453125,6.441633224487305,-7.3865156173706055,-0.33933988213539124
1772881571006716000,11.2727158203125,6.414047718048096,-7.40801477432251,-0.3894856870174408
1772881571016716000,11.282716064453124,6.397843837738037,-7.41985559463501,-0.42863917350769043
1772881571026716000,11.2927158203125,6.394046783447266,-7.421594619750977,-0.4544040560722351
1772881571036716000,11.302716064453126,6.4038848876953125,-7.412554740905762,-0.4633292555809021
1772881571046716000,11.3127158203125,6.420563697814941,-7.398642063140869,-0.4548160135746002
1772881571056716000,11.322716064453125,6.437248229980469,-7.3856329917907715,-0.42970556020736694
1772881571066716000,11.3327158203125,6.451320171356201,-7.375175952911377,-0.397021621465683
1772881571076716000,11.342716064453125,6.461857318878174,-7.367777347564697,-0.3614465296268463
1772881571086716000,11.3527158203125,6.471568584442139,-7.361012935638428,-0.3235563039779663
1772881571096716000,11.362716064453124,6.485046863555908,-7.350934028625488,-0.27984553575515747
1772881571106716000,11.3727158203125,6.501222610473633,-7.338302135467529,-0.2320030927658081
1772881571116716000,11.382716064453126,6.514565467834473,-7.327973365783691,-0.1778470128774643
1772881571126716000,11.3927158203125,6.522963047027588,-7.321605205535889,-0.12424404174089432
1772881571136716000,11.402716064453125,6.522728443145752,-7.322681427001953,-0.05220614746212959
1772881571146716000,11.4127158203125,6.5113654136657715,-7.332714080810547,0.06171683222055435
1772881571156716000,11.422716064453125,6.4918212890625,-7.347190856933594,0.21314525604248047
1772881571166716000,11.4327158203125,6.467700481414795,-7.361340045928955,0.3871873915195465
1772881571176716000,11.442716064453125,6.442556858062744,-7.371281147003174,0.5727744102478027
1772881571186716000,11.4527158203125,6.420233249664307,-7.373917102813721,0.7591644525527954
1772881571196716000,11.462716064453126,6.400712490081787,-7.370352268218994,0.9376416802406311
1772881571206716000,11.4727158203125,6.38283634185791,-7.3629536628723145,1.1030374765396118
1772881571216716000,11.482716064453125,6.366123676300049,-7.351194858551025,1.2660166025161743
1772881571226716000,11.4927158203125,6.347972393035889,-7.335882186889648,1.434737205505371
1772881571236716000,11.502716064453125,6.325414180755615,-7.319321632385254,1.6084333658218384
1772881571246716000,11.5127158203125,6.299858093261719,-7.301145076751709,1.781977653503418
1772881571256716000,11.522716064453125,6.274168968200684,-7.280689239501953,1.9485282897949219
1772881571266716000,11.5327158203125,6.253900051116943,-7.2554802894592285,2.1016974449157715
1772881571276716000,11.542716064453124,6.238907337188721,-7.228577613830566,2.2347443103790283
1772881571286716000,11.5527158203125,6.228395938873291,-7.205206871032715,2.3371872901916504
1772881571296716000,11.562716064453125,6.220204830169678,-7.18865966796875,2.4088618755340576
1772881571306716000,11.5727158203125,6.210648536682129,-7.178913116455078,2.461998224258423
1772881571316716000,11.582716064453125,6.196712493896484,-7.174397945404053,2.509812116622925
1772881571326716000,11.5927158203125,6.172983646392822,-7.179294109344482,2.553898811340332
1772881571336716000,11.602716064453125,6.139774799346924,-7.192173480987549,2.5973446369171143
1772881571346716000,11.6127158203125,6.1026763916015625,-7.205547332763672,2.6472272872924805
1772881571356716000,11.622716064453124,6.074217319488525,-7.204234600067139,2.7153756618499756
1772881571366716000,11.6327158203125,6.075096607208252,-7.171906471252441,2.797739028930664
1772881571376716000,11.642716064453126,6.116670608520508,-7.105981826782227,2.874328136444092
1772881571386716000,11.6527158203125,6.192418575286865,-7.0161871910095215,2.9321422576904297
1772881571396716000,11.662716064453125,6.268837928771973,-6.926937103271484,2.981541633605957
1772881571406716000,11.6727158203125,6.313185214996338,-6.858401298522949,3.0457205772399902
1772881571416716000,11.682716064453125,6.324760913848877,-6.810050964355469,3.1290557384490967
1772881571426716000,11.6927158203125,6.325082778930664,-6.771090507507324,3.2118608951568604
1772881571436716000,11.702716064453124,6.326275825500488,-6.731794357299805,3.2911341190338135
1772881571446716000,11.7127158203125,6.337372303009033,-6.684329509735107,3.365684986114502
1772881571456716000,11.722716064453126,6.359447479248047,-6.62921142578125,3.4323983192443848
1772881571466716000,11.7327158203125,6.383006572723389,-6.574776649475098,3.4928383827209473
1772881571476716000,11.742716064453125,6.402831554412842,-6.527792930603027,3.5442984104156494
1772881571486716000,11.7527158203125,6.424185752868652,-6.487027645111084,3.5803184509277344
1772881571496716000,11.762716064453125,6.451389789581299,-6.447892665863037,3.6020333766937256
1772881571506716000,11.7727158203125,6.4861884117126465,-6.407421588897705,3.6117444038391113
1772881571516716000,11.782716064453124,6.5299811363220215,-6.363735675811768,3.610069513320923
1772881571526716000,11.7927158203125,6.58284854888916,-6.318900108337402,3.592768907546997
1772881571536716000,11.802716064453126,6.638915538787842,-6.278584957122803,3.560134172439575
1772881571546716000,11.8127158203125,6.691219806671143,-6.248827934265137,3.5142734050750732
1772881571556716000,11.822716064453125,6.730982303619385,-6.2376790046691895,3.457690954208374
1772881571566716000,11.8327158203125,6.7592244148254395,-6.249843597412109,3.379751682281494
1772881571576716000,11.842716064453125,6.774641513824463,-6.28654670715332,3.2793221473693848
1772881571586716000,11.8527158203125,6.7731852531433105,-6.348168849945068,3.1615025997161865
1772881571596716000,11.862716064453124,6.760959148406982,-6.427481651306152,3.0244483947753906
1772881571606716000,11.8727158203125,6.740694522857666,-6.5173211097717285,2.8736636638641357
1772881571616716000,11.882716064453126,6.708603858947754,-6.612900257110596,2.726639747619629
1772881571626716000,11.8927158203125,6.663057804107666,-6.704281330108643,2.612785816192627
1772881571636716000,11.902716064453125,6.6179094314575195,-6.778584003448486,2.5346553325653076
1772881571646716000,11.9127158203125,6.589883804321289,-6.825313091278076,2.481719493865967
1772881571656716000,11.922716064453125,6.579776763916016,-6.8484320640563965,2.444566488265991
1772881571666716000,11.9327158203125,6.584258079528809,-6.85713005065918,2.4078409671783447
1772881571676716000,11.942716064453125,6.591296195983887,-6.863400936126709,2.3704285621643066
1772881571686716000,11.9527158203125,6.589844703674316,-6.879364490509033,2.327803134918213
1772881571696716000,11.962716064453126,6.575428485870361,-6.910531520843506,2.275670289993286
1772881571706716000,11.9727158203125,6.549523830413818,-6.95567512512207,2.2119479179382324
1772881571716716000,11.982716064453125,6.51760196685791,-7.008762359619141,2.1374053955078125
1772881571726716000,11.9927158203125,6.491412162780762,-7.0599260330200195,2.0468029975891113
1772881571736716000,12.002716064453125,6.47477388381958,-7.107374668121338,1.9320770502090454
1772881571746716000,12.0127158203125,6.467557907104492,-7.1516900062561035,1.7872889041900635
1772881571756716000,12.022716064453125,6.468616962432861,-7.1934099197387695,1.6069337129592896
1772881571766716000,12.0327158203125,6.477578639984131,-7.23110294342041,1.3865480422973633
1772881571776716000,12.042716064453124,6.488125801086426,-7.265026092529297,1.1375466585159302
1772881571786716000,12.0527158203125,6.492352485656738,-7.297061920166016,0.8789997696876526
1772881571796716000,12.062716064453125,6.484796047210693,-7.328457355499268,0.6414932012557983
1772881571806716000,12.0727158203125,6.4705095291137695,-7.356216907501221,0.43470510840415955
1772881571816716000,12.082716064453125,6.457645416259766,-7.375729084014893,0.26043176651000977
1772881571826716000,12.0927158203125,6.450891017913818,-7.385155200958252,0.12599162757396698
1772881571836716000,12.102716064453125,6.4421491622924805,-7.393799781799316,0.02890620194375515
1772881571846716000,12.1127158203125,6.424510478973389,-7.409063339233398,-0.042676039040088654
1772881571856716000,12.122716064453124,6.397982597351074,-7.431414604187012,-0.10137688368558884
1772881571866716000,12.1327158203125,6.3649067878723145,-7.4589433670043945,-0.15010415017604828
1772881571876716000,12.142716064453126,6.331789016723633,-7.486144065856934,-0.19101381301879883
1772881571886716000,12.1527158203125,6.320032596588135,-7.494980335235596,-0.22985383868217468
1772881571896716000,12.162716064453125,6.337956428527832,-7.479041576385498,-0.25421342253685
1772881571906716000,12.1727158203125,6.372761249542236,-7.449727535247803,-0.2446448653936386
1772881571916716000,12.182716064453125,6.405266284942627,-7.422741889953613,-0.2141275405883789
1772881571926716000,12.1927158203125,6.424266338348389,-7.407384395599365,-0.17277176678180695
1772881571936716000,12.202716064453124,6.432148456573486,-7.401491165161133,-0.1256769895553589
1772881571946716000,12.2127158203125,6.43250036239624,-7.401847839355469,-0.07727190107107162
1772881571956716000,12.222716064453126,6.427153587341309,-7.406832695007324,-0.03014880232512951
1772881571966716000,12.2327158203125,6.419774532318115,-7.413261890411377,0.020711733028292656
1772881571976716000,12.242716064453125,6.415984630584717,-7.416121006011963,0.08172278851270676
1772881571986716000,12.2527158203125,6.418933868408203,-7.412422180175781,0.15387149155139923
1772881571996716000,12.262716064453125,6.426123142242432,-7.403988361358643,0.23722705245018005
1772881572006716000,12.2727158203125,6.434477806091309,-7.392996788024902,0.3338851034641266
1772881572016716000,12.282716064453124,6.441521167755127,-7.381178855895996,0.4420244097709656
1772881572026716000,12.2927158203125,6.442722797393799,-7.371796131134033,0.5642167329788208
1772881572036716000,12.302716064453126,6.435561180114746,-7.366446018218994,0.6995735168457031
1772881572046716000,12.3127158203125,6.41879415512085,-7.3656229972839355,0.8468026518821716
1772881572056716000,12.322716064453125,6.395023345947266,-7.366548538208008,1.004008173942566
1772881572066716000,12.3327158203125,6.366609573364258,-7.366612911224365,1.1703342199325562
1772881572076716000,12.342716064453125,6.334793567657471,-7.3646955490112305,1.3424021005630493
1772881572086716000,12.3527158203125,6.301817893981934,-7.359678745269775,1.5141383409500122
1772881572096716000,12.362716064453124,6.270077705383301,-7.3493123054504395,1.6864556074142456
1772881572106716000,12.3727158203125,6.242610454559326,-7.331209659576416,1.8583730459213257
1772881572116716000,12.382716064453126,6.221926689147949,-7.305299282073975,2.0225255489349365
1772881572126716000,12.3927158203125,6.208240509033203,-7.272080421447754,2.178297281265259
1772881572136716000,12.402716064453125,6.1991868019104,-7.233371734619141,2.327833414077759
1772881572146716000,12.4127158203125,6.192619800567627,-7.192196846008301,2.468632459640503
1772881572156716000,12.422716064453125,6.1851606369018555,-7.153937816619873,2.5952563285827637
1772881572166716000,12.4327158203125,6.173964023590088,-7.122971057891846,2.704782247543335
1772881572176716000,12.442716064453125,6.161194801330566,-7.098097324371338,2.797691822052002
1772881572186716000,12.4527158203125,6.146353244781494,-7.078945159912109,2.877718448638916
1772881572196716000,12.462716064453126,6.128398895263672,-7.065044403076172,2.94928240776062
1772881572206716000,12.4727158203125,6.106585502624512,-7.0560760498046875,3.015261173248291
1772881572216716000,12.482716064453125,6.08277702331543,-7.050529956817627,3.0757503509521484
1772881572226716000,12.4927158203125,6.062904357910156,-7.045030117034912,3.1271591186523438
1772881572236716000,12.502716064453125,6.052631378173828,-7.036843776702881,3.165259838104248
1772881572246716000,12.5127158203125,6.05867862701416,-7.017429351806641,3.1966371536254883
1772881572256716000,12.522716064453125,6.079391002655029,-6.985721111297607,3.22662091255188
1772881572266716000,12.5327158203125,6.103225231170654,-6.948060989379883,3.262742280960083
1772881572276716000,12.542716064453124,6.11757755279541,-6.909849166870117,3.3165645599365234
1772881572286716000,12.5527158203125,6.114314079284668,-6.873847484588623,3.396435022354126
1772881572296716000,12.562716064453125,6.107217311859131,-6.836174488067627,3.4841084480285645
1772881572306716000,12.5727158203125,6.095949649810791,-6.799022674560547,3.5753448009490967
1772881572316716000,12.582716064453125,6.076757431030273,-6.767356872558594,3.6669180393218994
1772881572326716000,12.5927158203125,6.059138298034668,-6.740604877471924,3.7445271015167236
1772881572336716000,12.602716064453125,6.048914432525635,-6.715660572052002,3.8053815364837646
1772881572346716000,12.6127158203125,6.048695087432861,-6.689355850219727,3.8517799377441406
1772881572356716000,12.622716064453124,6.0593953132629395,-6.660921573638916,3.8841006755828857
1772881572366716000,12.6327158203125,6.077923774719238,-6.634235858917236,3.900787115097046
1772881572376716000,12.642716064453126,6.1039347648620605,-6.611632823944092,3.8985490798950195
1772881572386716000,12.6527158203125,6.138859748840332,-6.592426300048828,3.8761720657348633
1772881572396716000,12.662716064453125,6.183691024780273,-6.576771259307861,3.831244707107544
1772881572406716000,12.6727158203125,6.236018657684326,-6.564573287963867,3.7668073177337646
1772881572416716000,12.682716064453125,6.29396390914917,-6.5550432205200195,3.686164617538452
1772881572426716000,12.6927158203125,6.353123664855957,-6.547482013702393,3.5970380306243896
1772881572436716000,12.702716064453124,6.408082962036133,-6.543277740478516,3.506047487258911
1772881572446716000,12.7127158203125,6.4588623046875,-6.543610095977783,3.4109604358673096
1772881572456716000,12.722716064453126,6.503861427307129,-6.5500078201293945,3.3117332458496094
1772881572466716000,12.7327158203125,6.539316177368164,-6.564500331878662,3.21170973777771
1772881572476716000,12.742716064453125,6.564253807067871,-6.587286949157715,3.1126549243927
1772881572486716000,12.7527158203125,6.578886032104492,-6.616650581359863,3.0180420875549316
1772881572496716000,12.762716064453125,6.584033966064453,-6.64957857131958,2.933257579803467
1772881572506716000,12.7727158203125,6.580554008483887,-6.6840996742248535,2.8617324829101562
1772881572516716000,12.782716064453124,6.571980953216553,-6.715493202209473,2.8074190616607666
1772881572526716000,12.7927158203125,6.559614658355713,-6.7450642585754395,2.765131711959839
1772881572536716000,12.802716064453126,6.544403553009033,-6.776858329772949,2.723116636276245
1772881572546716000,12.8127158203125,6.524375915527344,-6.815628528594971,2.6739702224731445
1772881572556716000,12.822716064453125,6.496308326721191,-6.867101669311523,2.6098403930664062
1772881572566716000,12.8327158203125,6.460344314575195,-6.929661750793457,2.5326123237609863
1772881572576716000,12.842716064453125,6.413522720336914,-7.006588935852051,2.4382009506225586
1772881572586716000,12.8527158203125,6.360111236572266,-7.09501314163208,2.31951904296875
1772881572596716000,12.862716064453124,6.310537338256836,-7.185954570770264,2.1701505184173584
1772881572606716000,12.8727158203125,6.274890422821045,-7.269145965576172,1.988882303237915
1772881572616716000,12.882716064453126,6.257641792297363,-7.337393760681152,1.7818397283554077
1772881572626716000,12.8927158203125,6.257887840270996,-7.388614654541016,1.5548627376556396
1772881572636716000,12.902716064453125,6.265865802764893,-7.426580429077148,1.3248411417007446
