time,seconds_elapsed,z,y,x
1772881559795998000,0.061998046875,-0.4445568323135376,1.4078905582427979,-0.17119485139846802
1772881559813343000,0.079343017578125,-0.9375247359275818,0.4329504072666168,-0.7295252680778503
1772881559830688000,0.09668798828125,-0.97600919008255,0.11835505068302155,-0.9005674123764038
1772881559848032800,0.11403271484375,-0.7255546450614929,0.6143772602081299,-0.21578797698020935
1772881559865377800,0.131377685546875,-0.31444263458251953,1.4366012811660767,0.6748528480529785
1772881559882722800,0.148722900390625,-0.342542439699173,1.4213296175003052,0.8110756874084473
1772881559900067800,0.16606787109375,-0.8636100888252258,0.873994767665863,0.5526798963546753
1772881559917412900,0.183412841796875,-1.4775291681289673,0.16600249707698822,0.4225656986236572
1772881559934758000,0.2007578125,-1.9289582967758179,0.10430516302585602,0.3675878942012787
1772881559952103000,0.21810302734375,-2.209956169128418,0.3877464234828949,0.48670652508735657
1772881559969448000,0.235447998046875,-2.539823055267334,0.9161444306373596,0.9301943182945251
1772881559986793000,0.25279296875,-3.3315038681030273,1.7939571142196655,1.4048362970352173
1772881560004138000,0.270137939453125,-4.722443103790283,2.012035846710205,1.1910336017608643
1772881560021483000,0.28748291015625,-5.344913959503174,2.467741012573242,-0.04413498193025589
1772881560038828000,0.304828125,-5.5477213859558105,2.542266607284546,-1.049007534980774
1772881560056173000,0.322173095703125,-5.707767963409424,2.154367446899414,-1.4717259407043457
1772881560073518000,0.33951806640625,-5.884918689727783,1.4433207511901855,-1.780212640762329
1772881560090863000,0.356863037109375,-6.358949661254883,1.7145447731018066,-1.9402592182159424
1772881560108207900,0.374207763671875,-7.118865489959717,3.5190393924713135,-1.6238312721252441
1772881560125553000,0.391552978515625,-8.398627281188965,5.853153705596924,-0.5206094980239868
1772881560142898000,0.40889794921875,-9.157320976257324,6.119490623474121,0.9564615488052368
1772881560160243000,0.426242919921875,-8.59593677520752,4.449997425079346,1.8874194622039795
1772881560177588000,0.443587890625,-7.868396282196045,4.245968341827393,2.875187873840332
1772881560194933000,0.46093310546875,-7.621607303619385,5.46281099319458,3.8739516735076904
1772881560212278000,0.478278076171875,-7.392532825469971,5.418217658996582,4.3437066078186035
1772881560229623000,0.495623046875,-5.429824352264404,2.176969289779663,2.3938262462615967
1772881560246968000,0.512968017578125,-3.307680130004883,0.6620246767997742,0.5997164845466614
1772881560264313000,0.53031298828125,-1.853821873664856,1.2160791158676147,0.5123628377914429
1772881560281658000,0.547658203125,-0.8495602011680603,3.0022475719451904,1.5764893293380737
1772881560299003100,0.565003173828125,-0.014508038759231567,3.6864161491394043,2.372446060180664
1772881560316348200,0.58234814453125,1.2756383419036865,2.0890047550201416,1.4054471254348755
1772881560333693200,0.599693115234375,2.176663875579834,1.2973240613937378,0.040775224566459656
1772881560351038200,0.6170380859375,2.7148358821868896,1.1751511096954346,-0.4656316637992859
1772881560368383200,0.63438330078125,2.5193591117858887,-0.10827577859163284,-1.4436261653900146
1772881560385728300,0.651728271484375,1.6287182569503784,-1.596953272819519,-2.564563035964966
1772881560403073000,0.669072998046875,0.9781472086906433,-1.7948734760284424,-2.6366450786590576
1772881560420418300,0.686418212890625,1.029459834098816,-0.6843212842941284,-1.7606650590896606
1772881560437763300,0.703763427734375,0.7423534393310547,0.7933606505393982,-0.5810851454734802
1772881560455108000,0.721108154296875,-0.08536835014820099,-0.10399972647428513,-0.4137081801891327
1772881560472453000,0.738453125,0.07895427197217941,1.409723162651062,0.5337430834770203
1772881560489798100,0.755798095703125,-0.047494735568761826,1.9430081844329834,0.10674861818552017
1772881560507143200,0.77314306640625,-0.33276858925819397,1.5080723762512207,-1.2829687595367432
1772881560524488200,0.79048828125,0.4961749315261841,0.9143118858337402,-1.242040753364563
1772881560541833200,0.807833251953125,1.5767947435379028,0.5172497630119324,-1.3147337436676025
1772881560559178200,0.82517822265625,1.4515674114227295,-0.06307178735733032,-1.5499166250228882
1772881560576523300,0.842523193359375,0.8907935619354248,-0.7130318880081177,-1.8657337427139282
1772881560593868300,0.859868408203125,0.8339831233024597,-1.519984245300293,-1.9482004642486572
1772881560611213300,0.87721337890625,0.6519454121589661,-1.1223113536834717,-1.2078323364257812
1772881560628558300,0.894558349609375,0.3379609286785126,-0.3459021747112274,-0.7124210596084595
1772881560645903400,0.9119033203125,-0.05971203371882439,-0.4027126133441925,-0.6501128673553467
1772881560663248400,0.929248291015625,-1.1580469608306885,0.25091269612312317,-0.35934120416641235
1772881560680593400,0.946593505859375,-2.1030547618865967,1.4176644086837769,-0.34468045830726624
1772881560697938400,0.9639384765625,-2.1079416275024414,-0.744796872138977,-0.42531460523605347
1772881560715283500,0.981283447265625,-1.3504693508148193,-1.6623157262802124,0.1104138121008873
1772881560732628500,0.99862841796875,-1.5105159282684326,-2.2597415447235107,0.5532907843589783
1772881560749973500,1.015973388671875,-1.690721035003662,-3.568213939666748,0.3969093859195709
1772881560767318500,1.033318603515625,-1.881921648979187,-3.4038913249969482,0.2124282270669937
1772881560784663600,1.05066357421875,-1.8135048151016235,-3.6977171897888184,0.01206457894295454
1772881560802008600,1.068008544921875,-1.863595724105835,-3.089906692504883,0.12446369975805283
1772881560819353300,1.085353271484375,-2.1421501636505127,-1.2243257761001587,0.7011200785636902
1772881560836698600,1.10269873046875,-2.7108652591705322,0.11407899856567383,1.3052653074264526
1772881560854043400,1.12004345703125,-3.3241734504699707,0.5710058808326721,1.4714205265045166
1772881560871388400,1.137388427734375,-3.8574583530426025,0.35903576016426086,1.1837031841278076
1772881560888733400,1.1547333984375,-3.666257619857788,0.24480405449867249,0.3150535225868225
1772881560906078500,1.172078369140625,-2.786001443862915,0.476321816444397,-0.3611738085746765
1772881560923423500,1.189423583984375,-1.9301799535751343,0.39018988609313965,-0.7191405892372131
1772881560940768500,1.2067685546875,-1.4909682273864746,-0.007483093533664942,-0.74540776014328
1772881560958113500,1.224113525390625,-1.3296998739242554,-0.9378301501274109,-0.7576250433921814
1772881560975458600,1.24145849609375,-0.6876810193061829,-1.4955496788024902,-0.4558578431606293
1772881560992803600,1.258803466796875,-0.1311832070350647,-0.6824886798858643,0.5917752385139465
1772881561010148600,1.276148681640625,-0.3162752389907837,1.6271910667419434,2.391382932662964
1772881561027493600,1.29349365234375,-0.9234748482704163,1.345582365989685,3.4970481395721436
1772881561044838700,1.310838623046875,-1.8715369701385498,-1.1632392406463623,3.607614755630493
1772881561062183700,1.32818359375,-2.0975568294525146,-2.078314781188965,2.6705482006073
1772881561079528700,1.34552880859375,-1.6259692907333374,-0.29703301191329956,0.44638943672180176
1772881561096873700,1.362873779296875,-1.687666654586792,0.8691078424453735,-0.64278244972229
1772881561114218800,1.38021875,-2.8513641357421875,0.4738783538341522,-0.7759509682655334
1772881561131563800,1.397563720703125,-5.275275707244873,-0.3019199073314667,-0.8510873317718506
1772881561148908800,1.41490869140625,-7.862287998199463,0.6968439817428589,-0.6262891292572021
1772881561166253800,1.43225390625,-8.727883338928223,0.4744892120361328,-0.799774706363678
1772881561183598800,1.449598876953125,-2.2062909603118896,1.8782564401626587,-1.4717259407043457
1772881561200943900,1.46694384765625,0.8565851449966431,1.4408773183822632,0.2961167097091675
1772881561218289000,1.484288818359375,0.7008146047592163,0.49770209193229675,1.594204306602478
1772881561235634000,1.501634033203125,0.2903134822845459,-0.47235119342803955,1.7017165422439575
1772881561252979000,1.51897900390625,-0.07009673118591309,-0.7118101716041565,1.3278672695159912
1772881561270323700,1.53632373046875,-0.0743727833032608,-0.38438665866851807,1.041982650756836
1772881561287669000,1.5536689453125,0.2603811025619507,-0.43569931387901306,0.8324559926986694
1772881561305013800,1.571013671875,0.6953168511390686,-0.9726494550704956,0.734106719493866
1772881561322358800,1.58835888671875,1.0764964818954468,-1.207221508026123,0.6742420196533203
1772881561339703800,1.605703857421875,0.3776671588420868,-1.3471095561981201,0.6369792222976685
1772881561357048800,1.623048828125,-0.6436987519264221,-0.24083344638347626,0.027336198836565018
1772881561374393900,1.640393798828125,-0.9692896604537964,-0.36544984579086304,0.07559451460838318
1772881561391739000,1.65773876953125,-1.3413063287734985,-0.8248201608657837,0.38957902789115906
1772881561409084000,1.675083984375,-1.6858340501785278,-0.6110175251960754,0.5264127254486084
1772881561426429000,1.692428955078125,-1.743866205215454,-0.37094762921333313,-0.0795651376247406
1772881561443774000,1.70977392578125,-1.6815580129623413,-0.706923246383667,-0.653167188167572
1772881561461119000,1.727118896484375,-0.9876156449317932,-0.9665408134460449,-0.7179188132286072
1772881561478464000,1.744464111328125,-0.36453354358673096,-1.2579232454299927,-0.4179842174053192
1772881561495809000,1.76180908203125,-0.0951421856880188,-0.8077159523963928,-0.18585561215877533
1772881561513154000,1.779154052734375,0.3404043912887573,-2.8846561908721924,-0.9005674123764038
1772881561530499000,1.7964990234375,0.39538222551345825,-3.4319911003112793,-1.245095133781433
1772881561547844000,1.813843994140625,0.09972367435693741,-0.4961749315261841,-0.5114465355873108
1772881561565189000,1.831189208984375,-0.15439607203006744,1.281441569328308,0.9198096394538879
1772881561582534100,1.8485341796875,-0.1922696828842163,1.8513784408569336,1.9417864084243774
1772881561599879200,1.865879150390625,-0.27168211340904236,1.6449061632156372,1.9802708625793457
1772881561617224200,1.88322412109375,-0.23564109206199646,0.8941532969474792,1.3956732749938965
1772881561634569200,1.9005693359375,-0.16050471365451813,0.5465712547302246,1.0480912923812866
1772881561651914200,1.917914306640625,-0.14950916171073914,0.6595812439918518,0.9998329281806946
1772881561669259300,1.93525927734375,-0.125074565410614,0.6101012229919434,0.9607375860214233
1772881561686604300,1.952604248046875,-0.040775224566459656,0.7011200785636902,0.8587231636047363
1772881561703949300,1.96994921875,0.10277800261974335,0.8074105381965637,0.6827940940856934
1772881561721294300,1.98729443359375,0.20601414144039154,0.9112575054168701,0.6504182815551758
1772881561738639400,2.004639404296875,0.10216713696718216,0.7939714789390564,0.5661189556121826
1772881561755984400,2.021984375,0.05635227635502815,0.7982475757598877,0.4445568323135376
1772881561773329400,2.039329345703125,0.17363831400871277,0.5270236134529114,0.22708898782730103
1772881561790674400,2.05667431640625,0.2646571695804596,0.6363683938980103,0.06765327602624893
1772881561808019500,2.07401953125,0.3208567202091217,0.7603739500045776,-0.10216713696718216
1772881561825364500,2.091364501953125,0.33918267488479614,0.773202121257782,-0.1363755613565445
1772881561842709500,2.10870947265625,0.35506516695022583,0.7121156454086304,-0.13698641955852509
1772881561860054500,2.126054443359375,0.3685041666030884,0.7463240623474121,0.019394956529140472
1772881561877399600,2.143399658203125,0.3923279047012329,0.8275690674781799,0.050549060106277466
1772881561894744600,2.16074462890625,0.35017824172973633,0.586888313293457,-0.17424917221069336
1772881561912089600,2.178089599609375,0.24510949850082397,0.443945974111557,-0.439364492893219
1772881561929434600,2.1954345703125,0.09178243577480316,0.3016144931316376,-0.42592546343803406
1772881561946779600,2.212779541015625,0.06734783947467804,0.3223838806152344,-0.3507890999317169
1772881561964124700,2.230124755859375,0.14981459081172943,0.5196931958198547,-0.42103853821754456
1772881561981469700,2.2474697265625,0.3104720115661621,0.8403972387313843,-0.3874409794807434
1772881561998814700,2.264814697265625,0.5206094980239868,0.9100357890129089,-0.29886558651924133
1772881562016159700,2.28215966796875,0.6653844714164734,0.495258629322052,-0.3831649422645569
1772881562033504800,2.2995048828125,0.9995275139808655,0.45188722014427185,-0.5731438994407654
1772881562050849800,2.316849853515625,1.197447657585144,0.7615956664085388,-0.8217658400535583
1772881562068194800,2.33419482421875,1.1015418767929077,1.0627520084381104,-1.0184643268585205
1772881562085539800,2.351539794921875,0.9421061873435974,1.1849249601364136,-0.7252492308616638
1772881562102884900,2.368884765625,0.36911505460739136,1.5422807931900024,-0.2897026240825653
1772881562120230000,2.38622998046875,0.05024362727999687,1.2234094142913818,-0.31719154119491577
1772881562137575000,2.403574951171875,0.09605848789215088,0.6815723776817322,-0.5994110703468323
1772881562154920000,2.420919921875,0.16875138878822327,0.5765036344528198,-0.6989820003509521
1772881562172265000,2.438264892578125,0.12415826320648193,0.4280634820461273,-0.3819431960582733
1772881562189610000,2.45560986328125,-0.064598947763443,-0.02519817277789116,-0.05024362727999687
1772881562206955000,2.472955078125,-0.1617264449596405,-0.2231183648109436,0.16600249707698822
1772881562224300000,2.490300048828125,-0.018784092739224434,-0.480903297662735,0.16600249707698822
1772881562241645000,2.50764501953125,0.055741410702466965,-1.1809543371200562,-0.2328922003507614
1772881562258990000,2.524989990234375,0.052687086164951324,-1.4216350317001343,-0.5432115197181702
1772881562276335000,2.542335205078125,-0.34437501430511475,-1.2585341930389404,-0.5725330114364624
1772881562293680000,2.55968017578125,-0.6491965651512146,-0.7136427760124207,-0.4283689260482788
1772881562311025200,2.577025146484375,-0.7970257997512817,-0.5590940117835999,-0.3043633699417114
1772881562328370200,2.5943701171875,-0.7005091905593872,-0.7912226319313049,-0.34345871210098267
1772881562345715200,2.611715087890625,-0.3975202441215515,-1.058781385421753,-0.8712459206581116
1772881562363060200,2.629060302734375,-0.037720900028944016,-0.10216713696718216,-1.4876084327697754
1772881562380405200,2.6464052734375,0.05329795181751251,0.7469348907470703,-1.613446593284607
1772881562397750300,2.663750244140625,0.22739441692829132,1.001665472984314,-1.1265873908996582
1772881562415095300,2.68109521484375,0.39538222551345825,1.1617120504379272,-0.027030766010284424
1772881562432440300,2.6984404296875,0.25182899832725525,-0.27687445282936096,0.7890845537185669
1772881562449785300,2.715785400390625,-0.16661337018013,-1.3953678607940674,0.4353938698768616
1772881562467130400,2.73313037109375,-1.1085668802261353,-0.74540776014328,-1.789986491203308
1772881562484475400,2.750475341796875,-0.6681333780288696,1.2722786664962769,-3.1283912658691406
1772881562501820400,2.7678203125,-0.4653262495994568,0.9582940936088562,-2.7514877319335938
1772881562519165400,2.78516552734375,-0.24052800238132477,-0.43020153045654297,-1.2292126417160034
1772881562536510500,2.802510498046875,-0.19837833940982819,-0.838259220123291,0.11896591633558273
1772881562553855500,2.81985546875,-0.2075413018465042,-0.4650208055973053,0.7255546450614929
1772881562571200500,2.837200439453125,-0.3400989770889282,-0.42959064245224,1.0352630615234375
1772881562588545500,2.854545654296875,-0.9540180563926697,-0.7527381181716919,1.310152292251587
1772881562605890600,2.871890625,-1.6998839378356934,-1.218217134475708,1.6803362369537354
1772881562623235600,2.889235595703125,-1.5068507194519043,-1.2322670221328735,2.0126466751098633
1772881562640580600,2.90658056640625,-0.4586067199707031,-0.725860059261322,1.7163772583007812
1772881562657925600,2.923925537109375,-0.14278964698314667,-0.5865828990936279,0.1305723488330841
1772881562675270700,2.941270751953125,0.2188423126935959,-0.4796815812587738,-0.22983787953853607
1772881562692615700,2.95861572265625,0.30375251173973083,-0.33918267488479614,-0.08567378669977188
1772881562709960700,2.975960693359375,0.18035782873630524,-0.2652680277824402,0.015729768201708794
1772881562727306000,2.993305908203125,-0.02672533318400383,-0.5731438994407654,0.15012001991271973
1772881562744651000,3.010651123046875,-0.02306014485657215,-0.7802270650863647,0.5025889873504639
1772881562761996000,3.02799609375,0.0062613640911877155,-0.42531460523605347,0.8220712542533875
1772881562779341000,3.045341064453125,0.04841103404760361,-0.16447533667087555,1.070082426071167
1772881562796686000,3.06268603515625,0.07651081681251526,-0.2897026240825653,1.107956051826477
1772881562814031000,3.080031005859375,0.0032070400193333626,-0.31413722038269043,1.104901671409607
1772881562831376100,3.097376220703125,-0.09269873052835464,-0.2848156988620758,1.0474803447723389
1772881562848721200,3.11472119140625,-0.1256854236125946,-0.2383899837732315,0.9124792814254761
1772881562866066200,3.132066162109375,-0.027947064489126205,-0.17119485139846802,0.641866147518158
1772881562883411200,3.1494111328125,0.06307178735733032,0.14034618437290192,0.5105302333831787
1772881562900756200,3.166756103515625,-0.08536835014820099,0.18310672044754028,0.6528617143630981
1772881562918101200,3.184101318359375,-0.25274530053138733,0.2032652497291565,0.7200568318367004
1772881562935446300,3.2014462890625,-0.33948808908462524,0.2185368686914444,0.6772963404655457
1772881562952791300,3.218791259765625,-0.32910341024398804,0.187382772564888,0.5923861265182495
1772881562970136300,3.23613623046875,-0.24663665890693665,0.11468986421823502,0.4378373324871063
1772881562987481300,3.2534814453125,-0.0951421856880188,-0.019700389355421066,0.13912445306777954
1772881563004826400,3.270826416015625,0.05085449293255806,-0.15836669504642487,-0.1455385386943817
1772881563022171400,3.28817138671875,0.07651081681251526,-0.2292270064353943,-0.24633121490478516
1772881563039516400,3.305516357421875,0.06490438431501389,-0.14004075527191162,-0.11377356201410294
1772881563056861400,3.322861328125,0.06979130208492279,0.08109229803085327,0.09880737960338593
1772881563074206500,3.34020654296875,0.12782345712184906,0.19898919761180878,0.2533561587333679
1772881563091551500,3.357551513671875,0.22617268562316895,0.28695371747016907,0.36514443159103394
1772881563108896500,3.374896484375,0.27198755741119385,0.46654796600341797,0.3174969553947449
1772881563126241500,3.392241455078125,0.2811505198478699,0.6980656981468201,0.25641047954559326
1772881563143586800,3.4095869140625,0.16081015765666962,0.8862120509147644,0.27779075503349304
1772881563160931800,3.426931884765625,0.11133010685443878,1.0377064943313599,0.37491825222969055
1772881563178276900,3.44427685546875,0.14798198640346527,1.1018472909927368,0.46288278698921204
1772881563195622000,3.461621826171875,0.22250749170780182,1.3064870834350586,0.5062541961669922
1772881563212967000,3.478966796875,0.24633121490478516,1.5074615478515625,0.5227475166320801
1772881563230312000,3.49631201171875,0.3263545036315918,1.0829105377197266,0.568562388420105
1772881563247657000,3.513656982421875,0.378888875246048,0.3205513060092926,0.6601921319961548
1772881563265002000,3.531001953125,0.2744309902191162,0.21181736886501312,0.5227475166320801
1772881563282347000,3.548346923828125,0.16325360536575317,0.3248273432254791,0.1971566081047058
1772881563299692000,3.565692138671875,0.12476912885904312,0.18371757864952087,-0.0948367565870285
1772881563317037000,3.583037109375,0.11866047978401184,0.2655734717845917,-0.09056070446968079
1772881563334382000,3.600382080078125,0.01847865991294384,0.11896591633558273,-0.019700389355421066
1772881563351727000,3.61772705078125,-0.1562286615371704,-0.012370011769235134,0.02306014485657215
1772881563369072000,3.635072021484375,-0.30222535133361816,-0.162031888961792,0.1262962967157364
1772881563386417200,3.652417236328125,-0.3260490894317627,-0.17974695563316345,0.12018764764070511
1772881563403762200,3.66976220703125,-0.39507678151130676,-0.15409064292907715,0.03283398225903511
1772881563421107200,3.687107177734375,-0.4396699368953705,-0.12110394239425659,0.013897174037992954
1772881563438452200,3.7044521484375,-0.48853909969329834,-0.2805396616458893,0.05238165333867073
1772881563455797200,3.72179736328125,-0.5960513353347778,-0.5945241451263428,-0.004428769461810589
1772881563473142300,3.739142333984375,-0.836121141910553,-0.8907935619354248,-0.17058399319648743
1772881563490487300,3.7564873046875,-0.9521854519844055,-0.9659299254417419,-0.12171480804681778
1772881563507832600,3.77383251953125,-0.9155336022377014,-1.0923789739608765,-0.012980876490473747
1772881563525177600,3.791177490234375,-0.7200568318367004,-1.328783631324768,-0.020311253145337105
1772881563542522600,3.808522705078125,-0.6406444311141968,-1.5279254913330078,-0.06856957077980042
1772881563559867600,3.82586767578125,-0.569173276424408,-1.4973822832107544,-0.030085090547800064
1772881563577212700,3.843212646484375,-0.513584554195404,-1.3935352563858032,0.04505127668380737
1772881563594557700,3.8605576171875,-0.46288278698921204,-1.1229221820831299,0.11713331937789917
1772881563611902700,3.87790283203125,-0.42684176564216614,-0.8272636532783508,0.11102467030286789
1772881563629247700,3.895247802734375,-0.4036289155483246,-0.6782126426696777,0.18310672044754028
1772881563646592800,3.9125927734375,-0.3407098352909088,-0.7460185885429382,0.41523534059524536
1772881563663937800,3.929937744140625,-0.28695371747016907,-0.6378955245018005,0.7115047574043274
1772881563681282800,3.94728271484375,-0.2130390852689743,-0.5328267812728882,0.9540180563926697
1772881563698627800,3.9646279296875,-0.043829549103975296,-0.35811948776245117,0.9228639602661133
1772881563715973000,3.98197314453125,0.07712167501449585,-0.5835285782814026,0.661413848400116
1772881563733318100,3.999318115234375,0.09056070446968079,-0.49189886450767517,0.7377719283103943
1772881563750663200,4.0166630859375,0.049632761627435684,-0.3617846667766571,0.9106466770172119
1772881563768008200,4.03400830078125,-0.047494735568761826,-0.3678933084011078,0.8587231636047363
1772881563785353200,4.051353271484375,-0.1464548259973526,-0.47357290983200073,0.6858484148979187
1772881563802698200,4.0686982421875,-0.1000291109085083,-0.39477136731147766,0.5905535221099854
1772881563820043300,4.086043212890625,-0.047494735568761826,-0.35323256254196167,0.6772963404655457
1772881563837388300,4.10338818359375,-0.02977965772151947,-0.13271036744117737,0.7554870247840881
1772881563854733300,4.1207333984375,-0.07315105944871902,-0.23105959594249725,0.855668842792511
1772881563872078300,4.138078369140625,-0.09880737960338593,-0.12232567369937897,0.8917098641395569
1772881563889423600,4.155423583984375,-0.1977674663066864,0.02367101050913334,0.8886555433273315
1772881563906768600,4.1727685546875,-0.25152358412742615,0.10797034949064255,0.8220712542533875
1772881563924113700,4.19011376953125,-0.2240346521139145,0.09880737960338593,0.7200568318367004
1772881563941458700,4.207458740234375,-0.18616104125976562,0.3413206934928894,0.6131555438041687
1772881563958803700,4.2248037109375,-0.1513417512178421,0.46838057041168213,0.5001455545425415
1772881563976148700,4.242148681640625,-0.10186170041561127,0.5911644101142883,0.35048365592956543
1772881563993493800,4.25949365234375,-0.03527744114398956,0.7286089658737183,0.20509785413742065
1772881564010838800,4.2768388671875,-0.018173227086663246,0.8074105381965637,0.05604684352874756
1772881564028183800,4.294183837890625,-0.016340631991624832,0.8758273720741272,-0.17058399319648743
1772881564045529000,4.311529052734375,-0.02000582218170166,0.8856012225151062,-0.47357290983200073
1772881564062874000,4.3288740234375,-0.0102319847792387,0.9320269227027893,-0.6928733587265015
1772881564080219100,4.34621923828125,-0.06337722390890121,0.9436333775520325,-0.7142536640167236
1772881564097564200,4.363564208984375,-0.16783510148525238,0.9130901098251343,-0.6079631447792053
1772881564114909200,4.3809091796875,-0.2234237939119339,0.8892664313316345,-0.5768090486526489
1772881564132254200,4.398254150390625,-0.2075413018465042,0.9137009978294373,-0.6837103962898254
1772881564149599200,4.41559912109375,-0.13362666964530945,0.9521854519844055,-0.8626937866210938
1772881564166944300,4.4329443359375,-0.056657709181308746,1.0328196287155151,-0.9708168506622314
1772881564184289300,4.450289306640625,-0.00045814859913662076,1.1256710290908813,-0.9879210591316223
1772881564201634300,4.46763427734375,0.05818486958742142,1.1213949918746948,-0.8865175247192383
1772881564218979600,4.4849794921875,0.06979130208492279,1.0254892110824585,-0.7105884552001953
1772881564236324600,4.50232470703125,0.1461493968963623,1.0768018960952759,-0.5884155035018921
1772881564253669600,4.519669677734375,0.3104720115661621,1.244789719581604,-0.49250972270965576
1772881564271014700,4.5370146484375,0.5969675779342651,1.6174172163009644,-0.3923279047012329
1772881564288359700,4.554359619140625,0.7441860437393188,1.8611522912979126,-0.3923279047012329
1772881564305704700,4.57170458984375,0.6586649417877197,2.0694570541381836,-0.35811948776245117
1772881564323049700,4.5890498046875,0.5010618567466736,1.992488145828247,-0.2231183648109436
1772881564340394800,4.606394775390625,0.2658788859844208,1.577100157737732,-0.12293653935194016
1772881564357739800,4.62373974609375,0.09728021919727325,1.1940879821777344,-0.13820815086364746
1772881564375084800,4.641084716796875,-0.010842849500477314,0.9363030195236206,-0.25060728192329407
1772881564392430000,4.65843017578125,0.030085090547800064,0.6400335431098938,-0.27748534083366394
1772881564409775000,4.675775146484375,0.08017600327730179,0.4231765866279602,-0.1870773434638977
1772881564427120000,4.6931201171875,-0.025503603741526604,0.23625195026397705,-0.11377356201410294
1772881564444465200,4.710465087890625,-0.06704241037368774,0.10797034949064255,-0.09789107739925385
1772881564461810200,4.72781005859375,-0.07070759683847427,-0.07589995115995407,-0.049632761627435684
1772881564479155200,4.7451552734375,-0.10430516302585602,-0.40637779235839844,-0.11255183815956116
1772881564496500200,4.762500244140625,-0.13790272176265717,-0.47357290983200073,-0.10766492038965225
1772881564513845200,4.77984521484375,-0.15500694513320923,-0.45158177614212036,-0.03558287397027016
1772881564531190300,4.797190185546875,-0.2032652497291565,-0.6000219583511353,0.06520981341600418
1772881564548535600,4.81453564453125,-0.33887723088264465,-0.9219476580619812,0.14950916171073914
1772881564565880300,4.83188037109375,-0.5789470672607422,-1.1565197706222534,0.1922696828842163
1772881564583225600,4.8492255859375,-0.8257364630699158,-1.4814997911453247,0.3174969553947449
1772881564600570600,4.866570556640625,-0.6834049820899963,-1.7747149467468262,0.4433351159095764
1772881564617915600,4.88391552734375,-0.4494437575340271,-1.800982117652893,0.5484038591384888
1772881564635260700,4.9012607421875,-0.41157013177871704,-1.6745331287384033,0.6088794469833374
1772881564652605700,4.918605712890625,-0.3523162603378296,-1.5981749296188354,0.6039925217628479
1772881564669950700,4.93595068359375,-0.32971426844596863,-1.5792381763458252,0.5184714794158936
1772881564687295700,4.953295654296875,-0.3657552897930145,-1.6849178075790405,0.425009161233902
1772881564704641000,4.97064111328125,-0.4243983030319214,-1.4136937856674194,0.4353938698768616
1772881564721985800,4.98798583984375,-0.43172869086265564,-1.2163845300674438,0.5618428587913513
1772881564739331000,5.0053310546875,-0.35964664816856384,-1.162628412246704,0.6852375864982605
1772881564756676000,5.022676025390625,-0.3413206934928894,-1.1027636528015137,0.8318451046943665
1772881564774021000,5.040021240234375,-0.29184064269065857,-0.930499792098999,0.7964149713516235
1772881564791366100,5.0573662109375,-0.1519526094198227,-0.7619010806083679,0.6583595275878906
1772881564808711200,5.074711181640625,-0.07009673118591309,-0.6806560754776001,0.5850557684898376
1772881564826056200,5.09205615234375,0.0032070400193333626,-0.6085740327835083,0.5740602016448975
1772881564843401200,5.109401123046875,0.07773254066705704,-0.5670352578163147,0.5319104790687561
1772881564860746500,5.12674658203125,0.2695440948009491,-0.5267181396484375,0.44577857851982117
1772881564878091500,5.144091552734375,0.48701193928718567,-0.3923279047012329,0.4494437575340271
1772881564895436500,5.1614365234375,0.6006327867507935,-0.4198168218135834,0.49281516671180725
1772881564912781600,5.178781494140625,0.6122392416000366,-0.780837893486023,0.5978838801383972
1772881564930126600,5.196126708984375,0.5780308246612549,-0.48334676027297974,0.6571378111839294
1772881564947471600,5.2134716796875,0.47235119342803955,-0.4045451879501343,0.6149880886077881
1772881564964816600,5.230816650390625,0.3923279047012329,-0.3367392122745514,0.49892380833625793
1772881564982162000,5.248161865234375,0.4381427764892578,0.027336198836565018,0.34315329790115356
1772881564999507000,5.2655068359375,0.46196648478507996,0.20937390625476837,0.21731515228748322
1772881565016852000,5.28285205078125,0.4949531853199005,0.38469210267066956,0.09819651395082474
1772881565034197000,5.300197021484375,0.5071704983711243,0.48914995789527893,-0.016646064817905426
1772881565051542000,5.3175419921875,0.4552469849586487,0.596662163734436,-0.07712167501449585
1772881565068887000,5.334886962890625,0.3575085997581482,0.6406444311141968,-0.15225805342197418
1772881565086232300,5.352232421875,0.24755294620990753,0.6834049820899963,-0.28176137804985046
1772881565103577300,5.369577392578125,0.16081015765666962,0.6571378111839294,-0.39110618829727173
1772881565120922400,5.38692236328125,0.042913250625133514,0.616209864616394,-0.3733910918235779
1772881565138267400,5.404267333984375,-0.16355904936790466,0.4286743700504303,-0.2695440948009491
1772881565155612400,5.4216123046875,-0.3584249019622803,0.21975859999656677,-0.13881902396678925
1772881565172957400,5.43895751953125,-0.3969093859195709,0.12324196845293045,-0.09666935354471207
1772881565190302500,5.456302490234375,-0.26251915097236633,0.1366809904575348,-0.16936226189136505
1772881565207647700,5.473647705078125,-0.06520981341600418,0.15745039284229279,-0.29214608669281006
1772881565224992800,5.49099267578125,0.07223475724458694,0.3150535225868225,-0.3837758004665375
1772881565242337800,5.508337890625,0.16447533667087555,0.5031998753547668,-0.44730573892593384
1772881565259682800,5.525682861328125,0.2328922003507614,0.6834049820899963,-0.5438223481178284
1772881565277027800,5.54302783203125,0.2530507445335388,0.7622065544128418,-0.6421716213226318
1772881565294372900,5.560372802734375,0.3068068325519562,1.0810779333114624,-0.8364266157150269
1772881565311718000,5.5777177734375,0.4033234715461731,1.4463751316070557,-1.014188289642334
1772881565329063200,5.595063232421875,0.4644099473953247,2.128710985183716,-0.9812015295028687
1772881565346408200,5.612408203125,0.3972148299217224,2.492175579071045,-0.7942769527435303
1772881565363753200,5.629753173828125,0.0899498388171196,2.2954771518707275,-0.6195695996284485
1772881565381098200,5.64709814453125,-0.19837833940982819,1.732259750366211,-0.4185950756072998
1772881565398443300,5.664443359375,-0.3987419903278351,1.3834559917449951,-0.32940882444381714
1772881565415788300,5.681788330078125,-0.4805978536605835,1.1287254095077515,-0.4222602844238281
1772881565433133300,5.69913330078125,-0.559399425983429,0.8080213665962219,-0.5059487819671631
1772881565450478300,5.716478271484375,-0.6351466774940491,0.6137663722038269,-0.5535961985588074
1772881565467823600,5.73382373046875,-0.781754195690155,0.6522508859634399,-0.595745861530304
1772881565485168600,5.751168701171875,-0.8312342762947083,0.6003273725509644,-0.5193877816200256
1772881565502513700,5.768513671875,-0.8251255750656128,0.2997818887233734,-0.39599308371543884
1772881565519858700,5.785858642578125,-0.8336777091026306,-0.02458730712532997,-0.3116937577724457
1772881565537203700,5.80320361328125,-0.8037453293800354,-0.20723587274551392,-0.29336780309677124
1772881565554548700,5.820548828125,-0.7890845537185669,-0.29886558651924133,-0.2701549530029297
1772881565571894000,5.83789404296875,-0.7903063297271729,-0.34956738352775574,-0.25671592354774475
1772881565589239000,5.855239013671875,-0.8904881477355957,-0.47174033522605896,-0.141262486577034
1772881565606584000,5.872583984375,-0.9827287197113037,-0.6372846961021423,0.08597921580076218
1772881565623929000,5.88992919921875,-1.1128429174423218,-0.837648332118988,0.19104796648025513
1772881565641274000,5.907274169921875,-1.1226167678833008,-1.143080711364746,0.26679518818855286
1772881565658619100,5.924619140625,-0.9045380353927612,-1.4857758283615112,0.19593487679958344
1772881565675964400,5.94196435546875,-0.8318451046943665,-1.761886715888977,0.10369429737329483
1772881565693309400,5.959309326171875,-0.7475457787513733,-1.7398955821990967,0.08414662629365921
1772881565710654500,5.976654541015625,-0.5349648594856262,-1.4552326202392578,0.051159925758838654
1772881565727999500,5.99399951171875,-0.3657552897930145,-1.03129243850708,0.13484840095043182
1772881565745344500,6.011344482421875,-0.37491825222969055,-0.40088000893592834,0.4017963111400604
1772881565762689500,6.028689453125,-0.35475972294807434,-0.3685041666030884,0.5991056561470032
1772881565780034600,6.04603466796875,-0.26251915097236633,-0.38499751687049866,0.6382009983062744
1772881565797379600,6.063379638671875,-0.12202023714780807,-0.18524473905563354,0.670576810836792
1772881565814724900,6.080724853515625,0.0001527161948615685,-0.05757400393486023,0.7218894362449646
1772881565832070000,6.09806982421875,0.06246092543005943,-0.05635227635502815,0.771980345249176
1772881565849415000,6.115414794921875,0.11316270381212234,-0.15347976982593536,0.753654420375824
1772881565866760000,6.132760009765625,0.2292270064353943,-0.1931859850883484,0.7829759120941162
1772881565884105000,6.15010498046875,0.33857181668281555,-0.19013166427612305,0.8086322546005249
1772881565901450200,6.1674501953125,0.38072147965431213,-0.2078467458486557,0.8770490884780884
1772881565918795300,6.184795166015625,0.3727802336215973,-0.5945241451263428,0.9711222648620605
1772881565936140300,6.202140380859375,0.26282456517219543,-0.24022257328033447,1.004719853401184
1772881565953485300,6.2194853515625,0.2860374450683594,-0.061850059777498245,0.855057954788208
1772881565970830300,6.236830322265625,0.26282456517219543,0.07803797721862793,0.6577486395835876
1772881565988175600,6.254175537109375,0.22617268562316895,0.2643517255783081,0.6003273725509644
1772881566005520600,6.271520751953125,0.16997312009334564,0.26251915097236633,0.568562388420105
1772881566022865700,6.28886572265625,0.17424917221069336,0.3113883137702942,0.5111411213874817
1772881566040210700,6.306210693359375,0.2084576040506363,0.4604393243789673,0.42745262384414673
1772881566057555700,6.3235556640625,0.21517711877822876,0.6210967898368835,0.3370446562767029
1772881566074900700,6.340900634765625,0.18890993297100067,0.7878628373146057,0.2698495090007782
1772881566092246000,6.35824609375,0.11438442766666412,0.846505880355835,0.14706569910049438
1772881566109591000,6.375591064453125,0.1107192412018776,0.9589049816131592,-0.023365577682852745
1772881566126936000,6.39293603515625,0.04841103404760361,0.9314160943031311,-0.09300415962934494
1772881566144281000,6.410281005859375,-0.10674861818552017,0.6327031850814819,-0.1259908676147461
1772881566161626000,6.427626220703125,-0.20387612283229828,0.5068650245666504,-0.13515383005142212
1772881566178971400,6.444971435546875,-0.1818849891424179,0.49281516671180725,-0.11133010685443878
1772881566196316400,6.46231640625,-0.0743727833032608,0.3468184769153595,-0.1259908676147461
1772881566213661400,6.479661376953125,0.07528908550739288,0.49342602491378784,-0.14981459081172943
1772881566231006500,6.49700634765625,0.26282456517219543,0.7793107628822327,-0.3092502951622009
1772881566248351500,6.5143515625,0.4350884258747101,1.087186574935913,-0.5933024287223816
1772881566265696500,6.531696533203125,0.5462658405303955,1.1757619380950928,-0.8773545622825623
1772881566283041800,6.549041748046875,0.652556300163269,1.4017819166183472,-1.0251837968826294
1772881566300386800,6.56638671875,0.6647735834121704,1.8947498798370361,-0.7869465351104736
1772881566317731800,6.58373193359375,0.6476693749427795,2.6473352909088135,-0.35811948776245117
1772881566335076900,6.601076904296875,0.40637779235839844,2.7420191764831543,-0.2493855506181717
1772881566352422000,6.618421875,0.17424917221069336,2.464075803756714,-0.41126471757888794
1772881566369767000,6.635766845703125,-0.053603384643793106,2.240499258041382,-0.5462658405303955
1772881566387112200,6.6531123046875,-0.1879936307668686,1.9106323719024658,-0.6690496206283569
1772881566404457200,6.670457275390625,-0.04566214233636856,1.4659227132797241,-0.6256782412528992
1772881566421802200,6.68780224609375,0.07895427197217941,0.7567087411880493,-0.10705405473709106
1772881566439147300,6.705147216796875,-0.2759581506252289,0.1971566081047058,0.10858121514320374
1772881566456492300,6.7224921875,-0.5001455545425415,0.2484692484140396,-0.006872228812426329
1772881566473837300,6.73983740234375,-0.495258629322052,0.1256854236125946,-0.06795870512723923
1772881566491182600,6.7571826171875,-0.4696022868156433,-0.023976443335413933,-0.03436114266514778
1772881566508527600,6.774527587890625,-0.505032479763031,-0.2176205813884735,-0.0038179049734026194
1772881566525872600,6.79187255859375,-0.5129737257957458,-0.2738201320171356,0.05238165333867073
1772881566543217700,6.8092177734375,-0.5734493136405945,-0.4436405599117279,0.07315105944871902
1772881566560562700,6.826562744140625,-0.7402154207229614,-0.7826704978942871,0.06826414167881012
1772881566577907700,6.84390771484375,-0.9503529071807861,-1.032514214515686,0.11468986421823502
1772881566595253000,6.8612529296875,-0.9937242865562439,-1.3208423852920532,0.2032652497291565
1772881566612598000,6.878597900390625,-0.7408262491226196,-1.6659809350967407,0.2643517255783081
1772881566629943000,6.895943115234375,-0.5630646347999573,-1.835801362991333,0.29367324709892273
1772881566647288000,6.9132880859375,-0.5251910090446472,-2.050215005874634,0.33887723088264465
1772881566664633000,6.930633056640625,-0.45616328716278076,-2.2371394634246826,0.3669770061969757
1772881566681978400,6.947978271484375,-0.27290382981300354,-2.1558945178985596,0.37980517745018005
1772881566699323400,6.965323486328125,-0.2026543915271759,-1.6323834657669067,0.3718639314174652
1772881566716668400,6.98266845703125,-0.22220206260681152,-1.2133301496505737,0.5190823674201965
1772881566734013400,7.000013427734375,-0.125074565410614,-1.1229221820831299,0.781143307685852
1772881566751358500,7.0173583984375,0.05451968312263489,-0.9243911504745483,0.8520036339759827
1772881566768703700,7.034703857421875,0.2805396616458893,-0.6268999576568604,0.698676586151123
1772881566786048800,7.052048828125,0.5102248191833496,-0.5688678026199341,0.5025889873504639
1772881566803393800,7.069393798828125,0.45280352234840393,-0.790000855922699,0.6748528480529785
1772881566820738800,7.08673876953125,0.23777911067008972,-0.8126028776168823,1.0829105377197266
1772881566838084000,7.104083984375,0.13820815086364746,-0.8242093324661255,1.2423462867736816
1772881566855429000,7.12142919921875,0.2438877671957016,-0.9689842462539673,1.2686134576797485
1772881566872774100,7.138774169921875,0.439364492893219,-0.8645263910293579,1.236237645149231
1772881566890119200,7.156119140625,0.6042979955673218,-0.9659299254417419,1.1580469608306885
1772881566907464200,7.173464111328125,0.6000219583511353,-0.6684387922286987,0.7677043080329895
1772881566924809500,7.1908095703125,0.6458367705345154,-0.5432115197181702,0.46715885400772095
1772881566942154500,7.208154541015625,0.5621483325958252,-0.26282456517219543,0.4280634820461273
1772881566959499500,7.22549951171875,0.38438665866851807,-0.17913609743118286,0.504421591758728
1772881566976844500,7.242844482421875,0.2646571695804596,0.06154462695121765,0.5093085169792175
1772881566994189600,7.260189453125,0.3220784664154053,0.4237874448299408,0.41523534059524536
1772881567011534800,7.277534912109375,0.40515607595443726,0.7163916826248169,0.17455461621284485
1772881567028880000,7.2948798828125,0.5780308246612549,0.8794925808906555,-0.3361283540725708
1772881567046225000,7.312224853515625,0.8144354820251465,1.0639737844467163,-0.9909753799438477
1772881567063570000,7.32956982421875,1.0380120277404785,1.5178462266921997,-1.5041017532348633
1772881567080915200,7.346915283203125,0.9708168506622314,1.4537054300308228,-1.457065224647522
1772881567098260200,7.36426025390625,0.5542070865631104,1.0627520084381104,-0.9445496797561646
1772881567115605200,7.381605224609375,0.13271036744117737,0.5355756878852844,-0.6189587116241455
1772881567132950300,7.3989501953125,-0.03894263133406639,0.12140937149524689,-0.4912880063056946
1772881567150295300,7.41629541015625,-0.027947064489126205,0.19165882468223572,-0.3813323378562927
1772881567167640600,7.433640625,0.03130681812763214,0.6553052067756653,-0.32391104102134705
1772881567184985600,7.450985595703125,0.0001527161948615685,1.190422773361206,-0.3672824501991272
1772881567202330600,7.46833056640625,-0.002290742937475443,1.5997021198272705,-0.6403390169143677
1772881567219675600,7.485675537109375,0.1614210158586502,1.8428263664245605,-0.9347758293151855
1772881567237020700,7.503020751953125,0.33918267488479614,1.7957897186279297,-1.1143701076507568
1772881567254366000,7.520365966796875,0.25182899832725525,1.4616466760635376,-1.0997092723846436
1772881567271711000,7.5377109375,0.10461059212684631,1.866650104522705,-0.397825688123703
1772881567289056000,7.555055908203125,-0.14034618437290192,1.6766711473464966,0.28206682205200195
1772881567306401000,7.572401123046875,-0.33460119366645813,1.6925536394119263,0.4085158109664917
1772881567323746000,7.58974609375,-0.46776971220970154,1.399949312210083,-0.11133010685443878
1772881567341091300,7.60709130859375,-0.300392746925354,1.195920467376709,-0.6232348084449768
1772881567358436400,7.624436279296875,-0.09086613357067108,1.179427146911621,-0.6177369952201843
1772881567375781400,7.641781494140625,0.07406735420227051,0.7603739500045776,-0.407599538564682
1772881567393126400,7.65912646484375,0.21945317089557648,0.27229297161102295,-0.2530507445335388
1772881567410471400,7.676471435546875,0.16264274716377258,-0.05696314200758934,-0.27198755741119385
1772881567427816700,7.693816650390625,-0.022449281066656113,-0.10949750989675522,-0.3990474045276642
1772881567445161700,7.71116162109375,-0.11774418503046036,-0.14798198640346527,-0.5590940117835999
1772881567462506800,7.7285068359375,-0.17088942229747772,-0.31352636218070984,-0.605519711971283
1772881567479851800,7.745851806640625,-0.24724751710891724,-0.3813323378562927,-0.4442514181137085
1772881567497196800,7.76319677734375,-0.3559814393520355,-0.6372846961021423,-0.18463388085365295
1772881567514542000,7.7805419921875,-0.6498073935508728,-1.0483967065811157,-0.0746782198548317
1772881567531887000,7.79788720703125,-0.8287907838821411,-1.292131781578064,-0.012370011769235134
1772881567549232000,7.815232177734375,-0.966846227645874,-1.4130829572677612,0.11163553595542908
1772881567566577200,7.8325771484375,-0.9338595271110535,-1.5456405878067017,-0.0032070400193333626
1772881567583922400,7.84992236328125,-0.8959859013557434,-1.6360485553741455,-0.21090106666088104
1772881567601267500,7.867267333984375,-0.7903063297271729,-1.4424045085906982,-0.2952004075050354
1772881567618612500,7.884612548828125,-0.6546943187713623,-1.021518588066101,-0.17547090351581573
1772881567635957500,7.90195751953125,-0.6375901103019714,-0.9983057379722595,0.12202023714780807
1772881567653302500,7.919302490234375,-0.689513623714447,-1.2567015886306763,0.393244206905365
1772881567670647800,7.936647705078125,-0.6821832656860352,-1.5120429992675781,0.4543306827545166
1772881567687992800,7.953992919921875,-0.5233584046363831,-1.2829687595367432,0.39629852771759033
1772881567705337900,7.971337890625,-0.2906189262866974,-0.6989820003509521,0.342542439699173
1772881567722683000,7.988682861328125,-0.04016435891389847,-0.5829176902770996,0.14462223649024963
1772881567740028200,8.006028076171875,0.05940660089254379,-0.7087558507919312,-0.07712167501449585
1772881567757373200,8.023373291015625,0.26160284876823425,-0.8975130915641785,-0.12110394239425659
1772881567774718200,8.04071826171875,0.20173808932304382,-0.7423534393310547,0.1256854236125946
1772881567792063200,8.058063232421874,0.04413498193025589,-0.6745474338531494,0.7426588535308838
1772881567809408300,8.075408203125,-0.22586725652217865,-0.6824886798858643,1.3920080661773682
1772881567826753500,8.09275341796875,-0.5062541961669922,-0.9879210591316223,1.6314671039581299
1772881567844098600,8.1100986328125,-0.5129737257957458,-1.0569487810134888,1.2423462867736816
1772881567861443600,8.127443603515625,-0.21975859999656677,-0.6366738080978394,0.6766854524612427
1772881567878788600,8.14478857421875,0.11743875592947006,-0.12232567369937897,0.24297146499156952
1772881567896134000,8.1621337890625,0.23167046904563904,0.27107125520706177,0.2704603672027588
1772881567913479000,8.17947900390625,0.1565341055393219,0.3523162603378296,0.5227475166320801
1772881567930824000,8.196823974609375,0.014202605932950974,0.2900080680847168,0.6956222653388977
1772881567948169000,8.2141689453125,-0.1672242283821106,0.2887863218784332,0.7762564420700073
1772881567965514200,8.23151416015625,-0.2845102846622467,0.4280634820461273,0.734717607498169
1772881567982859300,8.248859375,-0.2545779049396515,0.7322741746902466,0.4757109582424164
1772881568000204300,8.266204345703125,-0.11652245372533798,0.9265291690826416,-0.06001746281981468
1772881568017549300,8.28354931640625,-0.004734201822429895,0.9753983616828918,-0.6714931130409241
1772881568034894300,8.300894287109376,0.0691804364323616,1.0370956659317017,-1.1198678016662598
1772881568052239600,8.318239501953125,0.07895427197217941,0.8959859013557434,-1.1858412027359009
1772881568069584600,8.335584716796875,0.162031888961792,0.4897608458995819,-0.9066760540008545
1772881568086929700,8.3529296875,0.24999640882015228,0.2283107042312622,-0.4033234715461731
1772881568104274700,8.370274658203124,0.3782780170440674,0.3663661479949951,-0.14859285950660706
1772881568121620000,8.387619873046875,0.4747946560382843,0.6375901103019714,-0.27137666940689087
1772881568138965000,8.404965087890625,0.5658134818077087,1.1250602006912231,-0.43631017208099365
1772881568156310000,8.42231005859375,0.7313578724861145,1.6821688413619995,-0.5047270059585571
1772881568173655000,8.439655029296874,0.808937668800354,2.2863142490386963,-0.5016726851463318
1772881568191000000,8.457,0.7722858190536499,2.8208208084106445,-0.531605064868927
1772881568208345300,8.474345458984375,0.5548179149627686,2.743851900100708,-0.46257734298706055
1772881568225690400,8.4916904296875,0.2444986253976822,2.2673773765563965,-0.18829907476902008
1772881568243035400,8.509035400390625,-0.001679878099821508,1.6772819757461548,0.17516547441482544
1772881568260380700,8.526380615234375,-0.21120649576187134,1.0682498216629028,0.16844595968723297
1772881568277725700,8.5437255859375,-0.32299473881721497,0.8941532969474792,-0.05513054504990578
1772881568295070700,8.56107080078125,-0.3309359848499298,0.7964149713516235,-0.23167046904563904
1772881568312415700,8.578415771484375,-0.34865108132362366,0.5306887626647949,-0.07712167501449585
1772881568329760800,8.5957607421875,-0.44700029492378235,0.27779075503349304,0.14950916171073914
1772881568347105800,8.613105712890626,-0.5569559335708618,0.002290742937475443,0.19349141418933868
1772881568364451000,8.630451171875,-0.5422952175140381,-0.07528908550739288,0.016340631991624832
1772881568381796000,8.647796142578125,-0.5380191802978516,-0.14309507608413696,-0.1815795600414276
1772881568399141000,8.66514111328125,-0.5581777095794678,-0.19990549981594086,-0.2689332067966461
1772881568416486400,8.682486328125,-0.606436014175415,-0.3367392122745514,-0.2286161482334137
1772881568433831400,8.69983154296875,-0.6620246767997742,-0.531605064868927,-0.14492766559123993
1772881568451176400,8.717176513671875,-0.7548761367797852,-0.9182825088500977,-0.09117157012224197
1772881568468521500,8.734521484375,-0.8605557680130005,-1.242040753364563,-0.0795651376247406
1772881568485866500,8.751866455078124,-0.9124792814254761,-1.6482658386230469,0.004123337101191282
1772881568503211800,8.769211669921875,-0.9149227142333984,-2.078314781188965,0.12018764764070511
1772881568520556800,8.786556884765625,-0.8684970140457153,-2.3562581539154053,0.23747368156909943
1772881568537901800,8.80390185546875,-0.8923207521438599,-2.249356746673584,0.17638720571994781
1772881568555246800,8.821246826171874,-0.8526145219802856,-1.7661627531051636,0.22525638341903687
1772881568572592000,8.838592041015625,-0.6754637360572815,-1.197447657585144,0.37430739402770996
1772881568589937200,8.855937255859375,-0.4799869954586029,-0.8077159523963928,0.5184714794158936
1772881568607282200,8.8732822265625,-0.3058905303478241,-0.6745474338531494,0.5300779342651367
1772881568624627200,8.890627197265625,-0.1672242283821106,-0.7130318880081177,0.46166107058525085
1772881568641972500,8.907972412109375,0.009315688163042068,-0.5951350331306458,0.41034841537475586
1772881568659317500,8.9253173828125,0.1663079410791397,-0.4381427764892578,0.4280634820461273
1772881568676662500,8.94266259765625,0.2438877671957016,-0.36361727118492126,0.5508472919464111
1772881568694007600,8.960007568359375,0.28664830327033997,-0.4815141558647156,0.6485856771469116
1772881568711352600,8.9773525390625,0.44180795550346375,-0.672104001045227,0.6968439817428589
1772881568728697900,8.99469775390625,0.42531460523605347,-0.7099775671958923,0.6980656981468201
1772881568746043000,9.01204296875,0.458301305770874,-0.9995275139808655,0.753654420375824
1772881568763388000,9.029387939453125,0.35323256254196167,-0.8309288024902344,0.7695369124412537
1772881568780733000,9.04673291015625,0.23655737936496735,-0.5169443488121033,0.7493783831596375
1772881568798078200,9.064078125,0.1718057245016098,-0.14859285950660706,0.6663007736206055
1772881568815423200,9.08142333984375,0.24510949850082397,-0.007483093533664942,0.5148062705993652
1772881568832768300,9.098768310546875,0.31841325759887695,0.14401137828826904,0.42562004923820496
1772881568850113500,9.116113525390626,0.36361727118492126,0.3926333487033844,0.3681987524032593
1772881568867458600,9.13345849609375,0.39538222551345825,0.6168206930160522,0.30283620953559875
1772881568884803600,9.150803466796875,0.40576693415641785,0.8129082918167114,0.24174973368644714
1772881568902148600,9.168148681640625,0.36972591280937195,0.9509637355804443,0.13301581144332886
1772881568919494000,9.185493896484376,0.27809619903564453,0.966235339641571,0.02672533318400383
1772881568936839000,9.2028388671875,0.21639885008335114,0.9240856766700745,-0.05696314200758934
1772881568954184000,9.220183837890625,0.18646647036075592,0.7628173828125,-0.13515383005142212
1772881568971529000,9.237529052734375,0.191964253783226,0.6217076182365417,-0.18952079117298126
1772881568988874200,9.254874267578124,0.22617268562316895,0.5624537467956543,-0.27137666940689087
1772881569006219300,9.27221923828125,0.26221370697021484,0.5648971796035767,-0.3782780170440674
1772881569023564300,9.289564208984375,0.27748534083366394,0.7371610999107361,-0.490066260099411
1772881569040909600,9.30690966796875,0.28237223625183105,0.8941532969474792,-0.6843212842941284
1772881569058254600,9.324254638671874,0.40637779235839844,1.1507165431976318,-0.9598212838172913
1772881569075599600,9.341599609375,0.541378915309906,1.7737985849380493,-1.042288064956665
1772881569092944600,9.358944580078125,0.6079631447792053,2.4652974605560303,-0.873078465461731
1772881569110290000,9.3762900390625,0.5578722357749939,3.27713680267334,-0.615293562412262
1772881569127635000,9.393635009765624,0.2536616027355194,3.238041400909424,-0.47723811864852905
1772881569144980000,9.41097998046875,-0.04566214233636856,2.4970624446868896,-0.2750418782234192
1772881569162325000,9.428324951171875,-0.2704603672027588,1.8446589708328247,-0.06795870512723923
1772881569179670000,9.445669921875,-0.41034841537475586,1.2215768098831177,-0.18646647036075592
1772881569197015300,9.463015380859375,-0.41523534059524536,1.0560325384140015,-0.40149086713790894
1772881569214360300,9.4803603515625,-0.3773617148399353,1.0877974033355713,-0.3507890999317169
1772881569231705300,9.497705322265626,-0.30344706773757935,0.7286089658737183,-0.3422369956970215
1772881569249050400,9.51505029296875,-0.2594648003578186,0.3352120518684387,-0.35017824172973633
1772881569266395600,9.532395751953125,-0.3474293351173401,-0.0062613640911877155,-0.4589121639728546
1772881569283740700,9.54974072265625,-0.46227192878723145,0.11163553595542908,-0.5804742574691772
1772881569301085700,9.567085693359376,-0.503810703754425,0.15073087811470032,-0.5138899683952332
1772881569318430700,9.5844306640625,-0.39018988609313965,0.1305723488330841,-0.3630063831806183
1772881569335776000,9.60177587890625,-0.46838057041168213,0.021838415414094925,-0.0691804364323616
1772881569353121000,9.61912109375,-0.48181959986686707,-0.27198755741119385,0.12935061752796173
1772881569370466000,9.636466064453124,-0.41157013177871704,-0.901178240776062,0.16539163887500763
1772881569387811000,9.65381103515625,-0.6247619390487671,-1.7032437324523926,-0.03375028073787689
1772881569405156000,9.671156005859375,-0.7738129496574402,-1.93781578540802,-0.24816381931304932
1772881569422501400,9.68850146484375,-0.7078395485877991,-1.8168646097183228,-0.42531460523605347
1772881569439846400,9.705846435546874,-0.4812087416648865,-1.430798053741455,-0.550541877746582
1772881569457191400,9.72319140625,-0.37430739402770996,-0.9647082090377808,-0.43081238865852356
1772881569474536700,9.74053662109375,-0.4494437575340271,-0.8126028776168823,-0.3043633699417114
1772881569491881700,9.7578818359375,-0.4604393243789673,-0.9127846956253052,0.01695149764418602
1772881569509226800,9.775226806640624,-0.36880961060523987,-0.7881683111190796,0.5648971796035767
1772881569526571800,9.79257177734375,-0.37919431924819946,-0.26221370697021484,0.9931133985519409
1772881569543917000,9.8099169921875,-0.2441931962966919,-0.05146535858511925,0.7951932549476624
1772881569561262000,9.827261962890624,-0.20631958544254303,-0.5395463109016418,0.016340631991624832
1772881569578607000,9.844607177734375,-0.27840161323547363,-1.5108213424682617,-0.7619010806083679
1772881569595952000,9.8619521484375,-0.4598284661769867,-2.4973678588867188,-0.6568323373794556
1772881569613297400,9.87929736328125,0.0032070400193333626,-1.5468623638153076,0.5209149122238159
1772881569630642400,9.896642333984374,-0.004734201822429895,-0.10888664424419403,1.9314017295837402
1772881569647987500,9.913987548828125,-0.27656903862953186,-0.1925751268863678,1.6155846118927002
1772881569665332500,9.93133251953125,-0.4744892120361328,-0.7093667387962341,0.9161444306373596
1772881569682677800,9.948677734375,-0.3309359848499298,-1.1076505184173584,0.6033816933631897
1772881569700022800,9.966022705078124,-0.10674861818552017,-0.8663589954376221,0.5300779342651367
1772881569717367800,9.983367919921875,0.12660172581672668,-0.6714931130409241,0.37064221501350403
1772881569734712800,10.000712890625,0.3043633699417114,-0.1253799945116043,0.3370446562767029
1772881569752058000,10.01805810546875,0.4277580678462982,0.40973755717277527,0.35537058115005493
1772881569769403100,10.035403076171875,0.4534143805503845,0.8581122756004333,0.2551887631416321
1772881569786748200,10.052748046875,0.29336780309677124,0.9894482493400574,0.013286309316754341
1772881569804093400,10.070093505859376,0.14981459081172943,0.8507819175720215,-0.11743875592947006
1772881569821438500,10.0874384765625,0.12415826320648193,0.753043532371521,-0.06856957077980042
1772881569838783500,10.104783447265625,0.20479241013526917,0.7041743993759155,-0.020311253145337105
1772881569856128500,10.12212841796875,0.32391104102134705,0.7200568318367004,-0.0746782198548317
1772881569873473800,10.139473876953126,0.448527455329895,0.6601921319961548,-0.16019928455352783
1772881569890818800,10.15681884765625,0.6097957491874695,0.44211336970329285,-0.19562944769859314
1772881569908163800,10.174163818359375,0.7496837973594666,0.3052796721458435,-0.17302745580673218
1772881569925508900,10.1915087890625,0.9091194868087769,0.5765036344528198,-0.12293653935194016
1772881569942854100,10.208854248046874,1.0667226314544678,0.9424116611480713,-0.12110394239425659
1772881569960199200,10.22619921875,1.1155917644500732,1.2484549283981323,-0.21456626057624817
1772881569977544200,10.243544189453125,1.0942115783691406,1.4537054300308228,-0.3202458620071411
1772881569994889500,10.260889404296876,1.0050252676010132,1.772576928138733,-0.35811948776245117
1772881570012234500,10.278234375,0.88285231590271,2.201403856277466,-0.16508620977401733
1772881570029579500,10.29557958984375,0.7105884552001953,2.3761112689971924,-0.016035201027989388
1772881570046924500,10.312924560546875,0.560315728187561,2.1549782752990723,0.1256854236125946
1772881570064269800,10.330269775390626,0.33918267488479614,1.5062397718429565,0.16844595968723297
1772881570081614800,10.34761474609375,0.15042544901371002,0.753043532371521,-0.04046979174017906
1772881570098960000,10.3649599609375,0.039858926087617874,0.47815442085266113,-0.11682789027690887
1772881570116305000,10.382304931640626,-0.02611446939408779,0.4402807950973511,-0.2890917658805847
1772881570133650200,10.399650146484374,-0.04993819445371628,0.2790125012397766,-0.3966039717197418
1772881570150995200,10.4169951171875,-0.10858121514320374,0.1049160286784172,-0.40637779235839844
1772881570168340200,10.43434033203125,-0.26190826296806335,0.04260781779885292,-0.3269653618335724
1772881570185685200,10.451685302734376,-0.4592176079750061,-0.052687086164951324,-0.1302669197320938
1772881570203030500,10.469030517578124,-0.43722647428512573,-0.19685117900371552,-0.06062832847237587
1772881570220375600,10.48637548828125,-0.4341721534729004,-0.29703301191329956,-0.14981459081172943
1772881570237720600,10.503720458984375,-0.5215258002281189,-0.3361283540725708,-0.21090106666088104
1772881570255065900,10.52106591796875,-0.5789470672607422,-0.5480984449386597,-0.2176205813884735
1772881570272411000,10.538410888671875,-0.6546943187713623,-0.9610430002212524,-0.15958842635154724
1772881570289756000,10.555755859375,-0.6919570565223694,-1.2695297002792358,-0.05757400393486023
1772881570307101000,10.573100830078126,-0.7261655330657959,-1.4943280220031738,-0.0007635809597559273
1772881570324446000,10.590446044921874,-0.9399681687355042,-1.8590142726898193,0.044440411031246185
1772881570341791200,10.607791259765625,-1.0902409553527832,-2.3092215061187744,0.06276635825634003
1772881570359136300,10.62513623046875,-0.8856012225151062,-2.592662811279297,0.01695149764418602
1772881570376481300,10.642481201171876,-0.6583595275878906,-2.2780675888061523,0.12324196845293045
1772881570393826300,10.659826416015624,-0.5612320303916931,-1.5719077587127686,0.351705402135849
1772881570411171600,10.677171630859375,-0.41645705699920654,-1.019685983657837,0.45799586176872253
1772881570428516600,10.6945166015625,-0.25579962134361267,-0.8743002414703369,0.45616328716278076
1772881570445861600,10.711861572265626,-0.16905683279037476,-1.021518588066101,0.37003132700920105
1772881570463207000,10.72920703125,-0.03711003437638283,-1.124754786491394,0.36025750637054443
1772881570480552000,10.746552001953125,0.0386371985077858,-1.144302487373352,0.3712530732154846
1772881570497897000,10.76389697265625,0.03558287397027016,-1.226769208908081,0.4634936451911926
1772881570515242000,10.781241943359374,0.0007635809597559273,-1.2310452461242676,0.7102830410003662
1772881570532587300,10.798587158203125,0.0746782198548317,-0.9359975457191467,0.8623883724212646
1772881570549932300,10.815932373046875,0.17852523922920227,-0.7625119686126709,0.8330668210983276
1772881570567277300,10.83327734375,0.264046311378479,-0.8779653906822205,0.781754195690155
1772881570584622600,10.85062255859375,0.14370593428611755,-0.7619010806083679,0.8666644096374512
1772881570601967600,10.867967529296875,0.026419902220368385,-0.8498656153678894,0.7774781584739685
1772881570619312600,10.885312744140625,0.03802633285522461,-0.513279139995575,0.5758927464485168
1772881570636657700,10.90265771484375,0.16264274716377258,0.05604684352874756,0.40607234835624695
1772881570654003000,10.9200029296875,0.2842048406600952,0.48792824149131775,0.3272708058357239
1772881570671348000,10.937347900390625,0.3324631452560425,0.698676586151123,0.29306238889694214
1772881570688693000,10.95469287109375,0.4027126133441925,0.9448550939559937,0.17821979522705078
1772881570706038300,10.972038330078124,0.4558578431606293,1.226463794708252,-0.07406735420227051
1772881570723383300,10.98938330078125,0.47723811864852905,1.2973240613937378,-0.39049530029296875
1772881570740728300,11.006728271484375,0.48212501406669617,1.1928662061691284,-0.6256782412528992
1772881570758073300,11.0240732421875,0.4137081801891327,0.8281798958778381,-0.6189587116241455
1772881570775418600,11.041418701171875,0.305585116147995,0.5905535221099854,-0.305585116147995
1772881570792763600,11.058763671875,0.26099199056625366,0.5172497630119324,-0.13942988216876984
1772881570810108700,11.076108642578125,0.347123920917511,0.7432697415351868,-0.20601414144039154
1772881570827454000,11.093453857421874,0.5902481079101562,1.1305580139160156,-0.3966039717197418
1772881570844799000,11.110799072265625,0.7429642677307129,1.4903573989868164,-0.5090031027793884
1772881570862144000,11.12814404296875,0.837648332118988,1.9259039163589478,-0.44608399271965027
1772881570879489000,11.145489013671876,0.7771727442741394,2.6925392150878906,-0.21151192486286163
1772881570896834300,11.162834228515624,0.5493201613426208,2.8965680599212646,-0.005650499369949102
1772881570914179300,11.180179443359375,0.2903134822845459,2.383441686630249,0.1727220118045807
1772881570931524400,11.1975244140625,0.028863361105322838,2.139706611633301,0.2386954128742218
1772881570948869400,11.214869384765626,-0.19043709337711334,1.7719659805297852,0.06826414167881012
1772881570966214700,11.232214599609375,-0.31932955980300903,1.3193151950836182,-0.22678354382514954
1772881570983559700,11.2495595703125,-0.30283620953559875,1.2295180559158325,-0.4650208055973053
1772881571000904700,11.26690478515625,-0.3168860971927643,1.2423462867736816,-0.4082103967666626
1772881571018250000,11.28425,-0.3975202441215515,1.0957386493682861,-0.19868376851081848
1772881571035595000,11.301594970703125,-0.4427242577075958,0.7506000995635986,0.064598947763443
1772881571052940000,11.31893994140625,-0.425009161233902,0.208152174949646,0.18982623517513275
1772881571070285000,11.33628515625,-0.42073312401771545,-0.03741546720266342,0.17516547441482544
1772881571087630300,11.35363037109375,-0.4799869954586029,0.01511890348047018,0.15012001991271973
1772881571104975400,11.370975341796875,-0.5325213670730591,-0.06734783947467804,0.2136499583721161
1772881571122320400,11.3883203125,-0.4494437575340271,-0.346513032913208,0.14950916171073914
1772881571139665400,11.40566552734375,-0.38957902789115906,-0.8315396904945374,-0.03252854943275452
1772881571157010700,11.4230107421875,-0.6675224900245667,-1.5603013038635254,-0.233503058552742
1772881571174355700,11.440355712890625,-0.8996511101722717,-1.8431317806243896,-0.23105959594249725
1772881571191700700,11.45770068359375,-0.8422298431396484,-1.9616395235061646,-0.09178243577480316
1772881571209046000,11.4750458984375,-0.5013672709465027,-2.017228126525879,0.02367101050913334
1772881571226391000,11.49239111328125,-0.4958694875240326,-2.1216859817504883,0.09086613357067108
1772881571243736000,11.509736083984375,-0.4280634820461273,-2.289062976837158,0.09819651395082474
1772881571261081000,11.5270810546875,-0.3529271185398102,-2.131459951400757,0.20937390625476837
1772881571278426400,11.54442626953125,-0.258853942155838,-1.7368413209915161,0.3669770061969757
1772881571295771400,11.561771484375,-0.009621120058000088,-1.1956150531768799,0.35903576016426086
1772881571313116400,11.579116455078125,0.2078467458486557,-1.049007534980774,0.26679518818855286
1772881571330461700,11.596461669921876,0.347123920917511,-1.1113157272338867,0.0902552679181099
1772881571347806700,11.613806640625,0.41615164279937744,-1.3318378925323486,0.015729768201708794
1772881571365151700,11.63115185546875,0.20723587274551392,-1.5712969303131104,0.4598284661769867
1772881571382496800,11.648496826171876,0.16081015765666962,-1.197447657585144,1.2686134576797485
1772881571399842000,11.665842041015624,0.14004075527191162,-0.9127846956253052,1.3602432012557983
1772881571417187000,11.68318701171875,0.20051635801792145,-1.5731295347213745,0.9002619981765747
1772881571434532000,11.700531982421875,0.29825472831726074,-1.5810707807540894,0.7463240623474121
1772881571451877400,11.71787744140625,0.3526217043399811,-1.4301871061325073,0.9198096394538879
1772881571469222400,11.735222412109374,0.24999640882015228,-1.1143701076507568,0.9130901098251343
1772881571486567400,11.7525673828125,0.17363831400871277,-0.7063124179840088,0.7334958910942078
1772881571503912400,11.769912353515625,0.17852523922920227,-0.36422812938690186,0.7194460034370422
1772881571521257700,11.7872578125,0.1876882016658783,-0.039858926087617874,0.7774781584739685
1772881571538602800,11.804602783203125,0.17302745580673218,0.38591381907463074,0.6944005489349365
1772881571555947800,11.82194775390625,0.19074252247810364,0.6443096399307251,0.3877464234828949
1772881571573293000,11.83929296875,0.3929387629032135,0.9711222648620605,-0.05757400393486023
1772881571590638000,11.85663818359375,0.5749764442443848,1.2490657567977905,-0.625067412853241
1772881571607983000,11.873983154296875,0.6812669634819031,1.585652232170105,-1.0300707817077637
1772881571625328400,11.891328369140625,0.4857902228832245,1.3034327030181885,-1.208443284034729
1772881571642673400,11.90867333984375,0.19013166427612305,0.773202121257782,-0.827874481678009
1772881571660018400,11.926018310546874,0.04230238497257233,0.5325213670730591,-0.27687445282936096
1772881571677363500,11.943363525390625,0.0154243353754282,0.5813905596733093,-0.10461059212684631
1772881571694708700,11.960708740234375,0.05940660089254379,0.7066178321838379,-0.3862192630767822
1772881571712053800,11.9780537109375,0.17424917221069336,0.8764382600784302,-0.6928733587265015
1772881571729398800,11.995398681640625,0.2585485279560089,1.1934770345687866,-0.6800451874732971
1772881571746743800,12.012743896484375,0.4033234715461731,1.7805181741714478,-0.5560396909713745
1772881571764089000,12.030089111328126,0.5633700489997864,2.618013620376587,-0.43569931387901306
1772881571781434000,12.04743408203125,0.5810851454734802,3.3266167640686035,-0.3575085997581482
1772881571798779100,12.064779052734375,0.388662725687027,3.1555747985839844,-0.41676250100135803
1772881571816124400,12.08212451171875,0.06612611562013626,2.7035348415374756,-0.29886558651924133
1772881571833469400,12.099469482421876,-0.3199404180049896,2.101222038269043,-0.13698641955852509
1772881571850814500,12.116814453125,-0.40607234835624695,1.4799726009368896,-0.2909243404865265
1772881571868159700,12.13415966796875,-0.2594648003578186,0.9931133985519409,-0.45280352234840393
1772881571885504800,12.1515048828125,-0.06643154472112656,0.6882919073104858,-0.24144430458545685
1772881571902849800,12.168849853515624,-0.17394374310970306,0.3724747896194458,0.3107774555683136
1772881571920194800,12.18619482421875,-0.27779075503349304,-0.13454297184944153,0.3107774555683136
1772881571937540000,12.2035400390625,-0.2900080680847168,-0.35323256254196167,0.09941824525594711
1772881571954885000,12.220885009765626,-0.3065013885498047,-0.37033677101135254,-0.02825249545276165
1772881571972230100,12.238230224609374,-0.37919431924819946,-0.42103853821754456,-0.06612611562013626
1772881571989575200,12.2555751953125,-0.494647741317749,-0.5884155035018921,0.07498364895582199
1772881572006920400,12.27292041015625,-0.6113229393959045,-0.8071050643920898,0.1464548259973526
1772881572024265500,12.290265380859376,-0.6412553191184998,-1.1259765625,0.11224640160799026
1772881572041610500,12.307610595703125,-0.6571378111839294,-1.4747803211212158,-0.022754713892936707
1772881572058955800,12.324955810546875,-0.6779071688652039,-1.7692171335220337,-0.12110394239425659
1772881572076300800,12.34230078125,-0.5270236134529114,-2.1558945178985596,-0.09728021919727325
1772881572093645800,12.359645751953124,-0.2643517255783081,-2.4521639347076416,0.04810560122132301
1772881572110990800,12.376990966796875,-0.2484692484140396,-2.4576616287231445,0.27656903862953186
1772881572128336100,12.394336181640625,-0.2893971800804138,-2.1778857707977295,0.4757109582424164
1772881572145681200,12.41168115234375,-0.3480401933193207,-1.9213224649429321,0.5667297840118408
1772881572163026200,12.429026123046874,-0.2179260104894638,-1.6665918827056885,0.49403688311576843
1772881572180371500,12.446371337890625,-0.12202023714780807,-1.3147337436676025,0.35964664816856384
1772881572197716500,12.463716552734375,0.0001527161948615685,-1.1809543371200562,0.2484692484140396
1772881572215061500,12.4810615234375,0.058795735239982605,-1.0887137651443481,0.14950916171073914
1772881572232406500,12.498406494140625,0.16081015765666962,-0.9262236952781677,0.18677189946174622
1772881572249751800,12.515751708984375,0.16386447846889496,-0.6892082095146179,0.42745262384414673
1772881572267096800,12.533096923828126,0.10888664424419403,-0.7179188132286072,0.6125446557998657
1772881572284441900,12.55044189453125,0.03252854943275452,-1.2493711709976196,0.5600103139877319
1772881572301787100,12.567787109375,-0.1366809904575348,-1.2750275135040283,0.5074759125709534
1772881572319132200,12.585132080078125,-0.056657709181308746,-1.3855940103530884,0.42562004923820496
1772881572336477200,12.602477294921876,0.07773254066705704,-1.0642791986465454,0.43661558628082275
1772881572353822200,12.619822265625,0.036804601550102234,-0.6116283535957336,0.49281516671180725
1772881572371167500,12.63716748046875,0.06551524996757507,-0.20051635801792145,0.47815442085266113
1772881572388512500,12.654512451171875,0.21517711877822876,0.1922696828842163,0.46166107058525085
1772881572405857800,12.67185791015625,0.35995206236839294,0.6088794469833374,0.45310893654823303
1772881572423202800,12.689202880859375,0.3990474045276642,0.9540180563926697,0.39568766951560974
1772881572440547800,12.7065478515625,0.3776671588420868,1.0450369119644165,0.29733842611312866
1772881572457893000,12.72389306640625,0.3929387629032135,1.1171189546585083,0.15989385545253754
1772881572475238100,12.741238037109374,0.3929387629032135,1.106734275817871,-0.07528908550739288
1772881572492583200,12.758583251953125,0.3318522870540619,1.0474803447723389,-0.30314165353775024
1772881572509928200,12.77592822265625,0.2084576040506363,0.8336777091026306,-0.4558578431606293
1772881572527273500,12.7932734375,0.10827577859163284,0.5624537467956543,-0.4595230221748352
1772881572544618500,12.810618408203124,0.162031888961792,0.5789470672607422,-0.5193877816200256
1772881572561963500,12.827963623046875,0.25671592354774475,0.8452841639518738,-0.7637336850166321
1772881572579308500,12.84530859375,0.4686860144138336,1.0083850622177124,-1.032514214515686
1772881572596653800,12.86265380859375,0.7142536640167236,1.494633436203003,-1.1583523750305176
1772881572613998800,12.879998779296875,0.7832813858985901,2.2484405040740967,-0.9182825088500977
1772881572631343900,12.89734375,0.754570722579956,2.811047077178955,-0.540768027305603
1772881572648689200,12.914689208984376,0.5535961985588074,2.9356634616851807,-0.2964221239089966
1772881572666034200,12.9320341796875,0.2695440948009491,2.589913845062256,-0.22128576040267944
1772881572683379200,12.949379150390625,0.05696314200758934,2.3174681663513184,-0.2176205813884735
1772881572700724200,12.96672412109375,-0.0743727833032608,2.2368340492248535,-0.2848156988620758
1772881572718069500,12.984069580078126,-0.008399390615522861,1.8055635690689087,-0.36483898758888245
1772881572735414500,13.00141455078125,-0.030390523374080658,0.7762564420700073,-0.1510363221168518
1772881572752759600,13.018759521484375,-0.208152174949646,0.22159120440483093,-0.09239330142736435
1772881572770104800,13.036104736328125,-0.3400989770889282,0.3352120518684387,-0.13209950923919678
1772881572787449900,13.053449951171874,-0.38102689385414124,0.29245150089263916,0.064598947763443
1772881572804795000,13.070794921875,-0.44577857851982117,-0.03252854943275452,0.32910341024398804
1772881572822140000,13.088139892578125,-0.5630646347999573,-0.4503600597381592,0.4286743700504303
1772881572839485200,13.105485107421876,-0.6357575058937073,-0.7038689255714417,0.35353797674179077
1772881572856830200,13.122830322265624,-0.7029526233673096,-0.7765618562698364,0.17027856409549713
1772881572874175200,13.14017529296875,-0.8672752976417542,-1.1748456954956055,-0.04169152304530144
1772881572891520500,13.1575205078125,-0.8196278214454651,-1.1809543371200562,-0.0746782198548317
1772881572908865500,13.174865478515626,-0.6656898856163025,-1.5810707807540894,0.050549060106277466
1772881572926210600,13.19221044921875,-0.5929969549179077,-2.268293619155884,0.18310672044754028
1772881572943555600,13.2095556640625,-0.5111411213874817,-2.816850185394287,0.34987279772758484
1772881572960900900,13.22690087890625,-0.42073312401771545,-2.708116292953491,0.5422952175140381
1772881572978246000,13.244245849609374,-0.24174973368644714,-2.176053047180176,0.7799215912818909
1772881572995591000,13.2615908203125,-0.09697478264570236,-1.2805253267288208,0.7286089658737183
1772881573012936200,13.278936279296875,-0.002901607658714056,-1.0789399147033691,0.29672756791114807
1772881573030281200,13.29628125,0.06551524996757507,-1.2750275135040283,-0.06246092543005943
1772881573047626200,13.313626220703124,0.26771149039268494,-1.2621994018554688,-0.1357647031545639
1772881573064971500,13.330971435546875,0.2689332067966461,-0.9335541129112244,0.21670427918434143
1772881573082316500,13.348316650390625,0.03375028073787689,-0.7411317229270935,0.7170025110244751
1772881573099661600,13.36566162109375,-0.17516547441482544,-0.5560396909713745,0.9644027948379517
1772881573117006600,13.383006591796875,-0.1000291109085083,-0.7832813858985901,0.7359393239021301
1772881573134352000,13.400351806640625,0.17058399319648743,-1.0202969312667847,0.7279980778694153
1772881573151697000,13.41769677734375,0.24083344638347626,-0.9708168506622314,0.8813251852989197
1772881573169042000,13.4350419921875,0.0948367565870285,-1.1436915397644043,0.699287474155426
1772881573186387200,13.45238720703125,0.008093958720564842,-1.2279908657073975,0.4634936451911926
1772881573203732200,13.469732177734375,0.0435241162776947,-0.9604321718215942,0.4030180275440216
1772881573221077200,13.4870771484375,0.08811724185943604,-0.4845684766769409,0.4549415409564972
1772881573238422500,13.504422607421875,0.07651081681251526,0.10980294644832611,0.4390590488910675
1772881573255767600,13.521767578125,0.12232567369937897,0.5655080676078796,0.25763222575187683
1772881573273112600,13.539112548828125,0.18829907476902008,0.8972076177597046,-0.03497200831770897
1772881573290457900,13.556457763671874,0.22128576040267944,1.1177297830581665,-0.3831649422645569
1772881573307803000,13.573802978515625,0.33490660786628723,1.2735003232955933,-0.5871937870979309
1772881573325148000,13.59114794921875,0.2805396616458893,1.613752007484436,-0.47723811864852905
1772881573342493000,13.608492919921876,0.18096868693828583,1.3498584032058716,-0.4271472096443176
1772881573359838200,13.625838134765624,0.03191768378019333,1.0645846128463745,-0.36544984579086304
1772881573377183200,13.643183349609375,-0.07864884287118912,0.734717607498169,-0.33918267488479614
1772881573394528300,13.6605283203125,0.08689551800489426,0.7194460034370422,-0.4289797842502594
1772881573411873500,13.67787353515625,0.22495095431804657,0.8031344413757324,-0.5480984449386597
1772881573429218600,13.695218505859375,0.2860374450683594,0.9082031846046448,-0.735023021697998
1772881573446563600,13.7125634765625,0.34956738352775574,1.1702642440795898,-0.9359975457191467
1772881573463908900,13.729908935546876,0.3568977415561676,1.5917608737945557,-0.8938478827476501
1772881573481254000,13.74725390625,0.41187557578086853,2.2838706970214844,-0.7111993432044983
1772881573498599000,13.764598876953125,0.503505289554596,2.9680392742156982,-0.5480984449386597
1772881573515944000,13.78194384765625,0.4857902228832245,3.0615015029907227,-0.6159043908119202
1772881573533289200,13.799289306640626,0.37094762921333313,2.715752124786377,-0.7234166264533997
1772881573550634200,13.81663427734375,0.15775582194328308,2.395048141479492,-0.5749764442443848
1772881573567979300,13.833979248046875,-0.21670427918434143,1.6326888799667358,-0.2487746775150299
1772881573585324500,13.851324462890625,-0.3578140437602997,0.8868229389190674,-0.14431680738925934
1772881573602669600,13.868669677734376,-0.2802342176437378,0.6241511106491089,-0.10461059212684631
1772881573620014600,13.8860146484375,-0.2643517255783081,0.28206682205200195,0.03222311660647392
1772881573637359600,13.903359619140625,-0.4066832363605499,-0.1571449637413025,0.14462223649024963
1772881573654705000,13.920704833984376,-0.48914995789527893,-0.39477136731147766,0.05787943676114082
1772881573672050000,13.9380498046875,-0.5526798963546753,-0.5560396909713745,-0.05329795181751251
1772881573689395200,13.955395263671875,-0.7396045327186584,-0.5578722357749939,-0.02214384824037552
1772881573706740200,13.972740234375,-0.8239038586616516,-0.7948877811431885,0.12935061752796173
1772881573724085200,13.990085205078126,-0.7976366877555847,-0.8578068614006042,0.09636391699314117
1772881573741430300,14.00743017578125,-0.8348994255065918,-1.1827869415283203,-0.05696314200758934
1772881573758775600,14.024775634765625,-0.9411898851394653,-1.6775873899459839,-0.15286891162395477
1772881573776120600,14.04212060546875,-0.616209864616394,-2.065486431121826,-0.12354740500450134
1772881573793465600,14.059465576171876,-0.4042397737503052,-2.2615740299224854,-0.008704823441803455
1772881573810810600,14.076810546875,-0.39141160249710083,-2.277456521987915,0.19837833940982819
1772881573828156000,14.094156005859375,-0.4738783538341522,-2.100916624069214,0.28206682205200195
1772881573845501000,14.1115009765625,-0.5612320303916931,-1.8388557434082031,0.27229297161102295
1772881573862846000,14.128845947265624,-0.4751000702381134,-1.364824652671814,0.04566214233636856
1772881573880191200,14.146191162109375,-0.23258677124977112,-1.0716094970703125,-0.026419902220368385
1772881573897536300,14.163536376953125,-0.03955349326133728,-0.9683734178543091,0.25579962134361267
1772881573914881300,14.18088134765625,-0.11652245372533798,-0.4851793646812439,0.6669116020202637
1772881573932226300,14.198226318359374,-0.15012001991271973,-0.29153522849082947,0.7964149713516235
1772881573949571600,14.215571533203125,-0.08048143237829208,-0.6470585465431213,0.5887209177017212
1772881573966916600,14.23291650390625,0.014813470654189587,-0.8993456959724426,0.6406444311141968
1772881573984261600,14.25026171875,0.1766926348209381,-1.234710454940796,0.7157807946205139
1772881574001607000,14.26760693359375,0.13881902396678925,-1.1858412027359009,0.781754195690155
1772881574018952000,14.284951904296875,0.1516471803188324,-1.1253656148910522,0.7408262491226196
1772881574036297000,14.302296875,0.16019928455352783,-1.014188289642334,0.6204859018325806
1772881574053642000,14.31964208984375,0.08689551800489426,-0.7221949100494385,0.5826122760772705
1772881574070987300,14.3369873046875,0.05757400393486023,-0.35017824172973633,0.5276344418525696
1772881574088332300,14.354332275390625,0.13454297184944153,0.05299251899123192,0.47326749563217163
1772881574105677600,14.371677490234376,0.24205516278743744,0.45066550374031067,0.43661558628082275
1772881574123022600,14.389022705078125,0.25243985652923584,0.8575014472007751,0.3260490894317627
1772881574140367600,14.40636767578125,0.28725916147232056,1.1488839387893677,0.10186170041561127
1772881574157713000,14.423712890625,0.3611738085746765,1.4427099227905273,-0.17608177661895752
1772881574175058000,14.441057861328124,0.42959064245224,1.560606837272644,-0.4912880063056946
1772881574192403000,14.45840283203125,0.38438665866851807,1.392619013786316,-0.6708822250366211
1772881574209748200,14.475748291015625,0.2964221239089966,0.9686788320541382,-0.662330150604248
1772881574227093200,14.49309326171875,0.22739441692829132,0.6907353401184082,-0.5798633694648743
1772881574244438300,14.510438232421874,0.24327689409255981,0.54962557554245,-0.6586649417877197
1772881574261783300,14.527783203125,0.4185950756072998,0.651639997959137,-0.8339831233024597
1772881574279128600,14.545128662109375,0.6769908666610718,0.884379506111145,-1.0288490056991577
1772881574296473600,14.5624736328125,0.9934188723564148,1.2246311902999878,-1.0374010801315308
1772881574313818600,14.579818603515625,1.3037381172180176,1.8489350080490112,-0.8614720702171326
1772881574331163600,14.59716357421875,1.3880374431610107,2.5532619953155518,-0.6562215089797974
1772881574348509000,14.614509033203126,1.2512037754058838,2.930776596069336,-0.480903297662735
1772881574365854000,14.63185400390625,1.047785758972168,2.8031058311462402,-0.27198755741119385
1772881574383199000,14.649198974609375,0.6653844714164734,2.2808163166046143,0.06826414167881012
1772881574400544300,14.666544189453125,0.0007635809597559273,1.7487531900405884,0.2637408673763275
1772881574417889300,14.68388916015625,-0.20082180202007294,1.2405136823654175,0.18127411603927612
1772881574435234300,14.701234375,-0.22647811472415924,0.9075923562049866,0.09941824525594711
1772881574452579300,14.718579345703125,-0.2075413018465042,0.34315329790115356,0.08109229803085327
1772881574469924600,14.735924560546875,-0.25091269612312317,0.18982623517513275,0.0010690133785828948
1772881574487269600,14.75326953125,-0.37552911043167114,0.21548254787921906,-0.030695954337716103
1772881574504614700,14.77061474609375,-0.5288561582565308,0.25702136754989624,0.05971203371882439
1772881574521960000,14.7879599609375,-0.5429060459136963,0.10186170041561127,0.16783510148525238
1772881574539305000,14.805304931640626,-0.5386300086975098,-0.15286891162395477,0.19471314549446106
1772881574556650000,14.82264990234375,-0.6479747891426086,-0.3972148299217224,0.16661337018013
1772881574573995300,14.839995361328125,-0.753043532371521,-0.6739365458488464,0.030390523374080658
1772881574591340300,14.85734033203125,-0.7298306822776794,-0.9170607328414917,-0.15347976982593536
1772881574608685300,14.874685302734376,-0.7072287201881409,-1.2902991771697998,-0.31413722038269043
1772881574626030300,14.8920302734375,-0.9534072279930115,-1.7936517000198364,-0.35323256254196167
1772881574643375600,14.909375732421875,-1.1256710290908813,-2.3703081607818604,-0.2029598206281662
1772881574660720600,14.926720703125,-0.6436987519264221,-2.9878923892974854,0.10063996911048889
1772881574678065700,14.944065673828124,-0.5844448804855347,-2.540128469467163,0.20631958544254303
1772881574695411000,14.961410888671875,-0.44761115312576294,-1.7624976634979248,0.44211336970329285
1772881574712756000,14.978755859375,-0.27840161323547363,-0.9549343585968018,0.651639997959137
1772881574730101000,14.99610107421875,-0.09392046183347702,-0.57008957862854,0.6754637360572815
1772881574747446000,15.013446044921874,0.06246092543005943,-0.4381427764892578,0.6375901103019714
1772881574764791300,15.030791259765625,0.22739441692829132,-0.4344775676727295,0.578336238861084
1772881574782136300,15.04813623046875,0.3013090491294861,-0.5358811020851135,0.5099193453788757
1772881574799481300,15.0654814453125,0.4442514181137085,-0.9616538882255554,0.4549415409564972
1772881574816826600,15.08282666015625,0.3611738085746765,-0.9182825088500977,0.45249807834625244
1772881574834171600,15.100171630859375,0.3367392122745514,-1.2731949090957642,0.485484778881073
1772881574851516700,15.1175166015625,0.13515383005142212,-1.2029454708099365,0.4610501825809479
1772881574868862000,15.134862060546874,-0.002901607658714056,-0.9665408134460449,0.4641045033931732
1772881574886207000,15.15220703125,-0.056657709181308746,-0.6837103962898254,0.5917752385139465
1772881574903552000,15.169552001953125,-0.16478078067302704,-0.31352636218070984,0.7316632866859436
1772881574920897300,15.186897216796876,-0.13790272176265717,-0.039858926087617874,0.6687442064285278
1772881574938242300,15.2042421875,-0.030390523374080658,0.258853942155838,0.6253728270530701
1772881574955587300,15.22158740234375,0.04413498193025589,0.45066550374031067,0.5154171586036682
1772881574972932600,15.2389326171875,0.07040216773748398,0.6375901103019714,0.44761115312576294
1772881574990277600,15.256277587890626,0.13942988216876984,0.8672752976417542,0.32421648502349854
1772881575007622700,15.27362255859375,0.23716825246810913,1.104901671409607,0.08048143237829208
1772881575024967700,15.2909677734375,0.3165806829929352,1.2600613832473755,-0.2897026240825653
1772881575042313000,15.30831298828125,0.42042768001556396,1.3975058794021606,-0.6604975461959839
1772881575059658000,15.325657958984374,0.471129447221756,1.3736821413040161,-0.9341649413108826
1772881575077003000,15.3430029296875,0.46807512640953064,1.180648922920227,-1.0709986686706543
1772881575094348300,15.360348388671875,0.43753188848495483,0.9491311311721802,-1.0074687004089355
1772881575111693300,15.377693359375,0.5346593856811523,1.2606722116470337,-0.7918334603309631
1772881575129038300,15.395038330078124,0.7484620809555054,1.864817500114441,-0.233503058552742
1772881575146383600,15.412383544921875,1.0569487810134888,2.3431246280670166,0.3413206934928894
1772881575163728600,15.429728759765625,1.0068578720092773,1.9185734987258911,0.1617264449596405
1772881575181073700,15.44707373046875,0.7283035516738892,1.9698861837387085,-0.14737112820148468
1772881575198418700,15.464418701171875,0.3043633699417114,2.1006112098693848,-0.2237292230129242
1772881575215764000,15.481763916015625,-0.02611446939408779,1.8141156435012817,-0.27137666940689087
1772881575233109000,15.49910888671875,-0.3352120518684387,1.1867575645446777,-0.3459021747112274
1772881575250454000,15.5164541015625,-0.5545125007629395,0.8581122756004333,-0.233503058552742
1772881575267799300,15.53379931640625,-0.5612320303916931,0.7396045327186584,-0.023976443335413933
1772881575285144300,15.551144287109375,-0.41034841537475586,0.8141300082206726,0.0792597085237503
1772881575302489300,15.5684892578125,-0.23197589814662933,0.7518218159675598,0.24602578580379486
1772881575319834600,15.585834716796874,-0.30833399295806885,0.21609342098236084,0.35903576016426086
1772881575337179600,15.6031796875,-0.453719824552536,-0.2652680277824402,0.24052800238132477
1772881575354524700,15.620524658203125,-0.38957902789115906,-0.3874409794807434,-0.04535670951008797
1772881575371869700,15.63786962890625,-0.3663661479949951,-0.522442102432251,-0.2750418782234192
1772881575389215000,15.655215087890625,-0.41523534059524536,-0.7093667387962341,-0.41492989659309387
1772881575406560000,15.67256005859375,-0.46227192878723145,-0.9781472086906433,-0.4845684766769409
1772881575423905000,15.689905029296876,-0.5447386503219604,-1.3495529890060425,-0.4943423271179199
1772881575441250300,15.707250244140624,-0.6333140730857849,-1.6543744802474976,-0.4796815812587738
1772881575458595300,15.72459521484375,-0.5716167092323303,-1.9689699411392212,-0.4344775676727295
1772881575475940400,15.7419404296875,-0.30711227655410767,-2.142455577850342,-0.31413722038269043
1772881575493285400,15.759285400390626,-0.17027856409549713,-2.2340853214263916,-0.07589995115995407
1772881575510630700,15.776630615234374,-0.20998476445674896,-2.3898556232452393,0.21609342098236084
1772881575536648200,15.802648193359374,-0.26251915097236633,-1.6855286359786987,0.606436014175415
1772881575553993200,15.8199931640625,0.023976443335413933,-0.8468112945556641,0.8122974634170532
1772881575571338500,15.83733837890625,0.06673697382211685,-0.5688678026199341,0.8764382600784302
1772881575588683500,15.85468359375,0.15836669504642487,-0.929888904094696,0.6950113773345947
1772881575606028500,15.872028564453124,0.2658788859844208,-1.1473567485809326,0.586888313293457
1772881575623373800,15.889373779296875,0.24755294620990753,-1.2426517009735107,0.7145590782165527
1772881575640718800,15.90671875,0.2603811025619507,-1.4509565830230713,0.9411898851394653
1772881575658064000,15.92406396484375,0.2237292230129242,-1.6604832410812378,1.0822997093200684
1772881575675409200,15.9414091796875,0.19501857459545135,-1.8596251010894775,0.8733839392662048
1772881575692754200,15.958754150390625,0.23533566296100616,-1.687361240386963,0.6436987519264221
1772881575710099200,15.97609912109375,0.27626359462738037,-1.2011128664016724,0.6461422443389893
1772881575727444200,15.9934443359375,0.17974695563316345,-0.8028290271759033,0.5001455545425415
1772881575744789500,16.01078955078125,0.16752967238426208,-0.4760163724422455,0.11774418503046036
1772881575762134500,16.028134521484375,0.2658788859844208,-0.07651081681251526,-0.02519817277789116
1772881575779479600,16.0454794921875,0.33857181668281555,0.24297146499156952,0.034666575491428375
1772881575796824800,16.062824951171876,0.347123920917511,0.5410735011100769,0.08292489498853683
1772881575814169900,16.080169921875,0.31841325759887695,0.7713695168495178,0.011453714221715927
1772881575831515100,16.09751513671875,0.29703301191329956,0.9039271473884583,-0.11133010685443878
1772881575848860200,16.114860107421876,0.27748534083366394,1.0541999340057373,-0.23472478985786438
1772881575866205200,16.132205078125,0.2237292230129242,1.0902409553527832,-0.3068068325519562
1772881575883550200,16.14955029296875,0.16325360536575317,1.0932952165603638,-0.31902414560317993
1772881575900895500,16.1668955078125,0.12476912885904312,0.957683265209198,-0.34468045830726624
1772881575918240500,16.184240478515626,0.11743875592947006,0.919198751449585,-0.35995206236839294
1772881575935585500,16.20158544921875,0.17302745580673218,0.9650136232376099,-0.4815141558647156
1772881575952930600,16.2189306640625,0.3202458620071411,1.1702642440795898,-0.6928733587265015
1772881575970275800,16.23627587890625,0.46135562658309937,1.6003129482269287,-0.7954986691474915
1772881575987620900,16.253620849609376,0.5584831237792969,2.0181446075439453,-0.7759509682655334
1772881576004966000,16.2709658203125,0.6207913160324097,2.8061599731445312,-0.5560396909713745
1772881576022311200,16.288311279296874,0.5187768936157227,2.911839723587036,-0.4497492015361786
1772881576039656200,16.30565625,0.4344775676727295,2.6552765369415283,-0.18524473905563354
1772881576057001200,16.323001220703127,0.25793763995170593,1.9094105958938599,0.1262962967157364
1772881576074346500,16.340346435546873,-0.02367101050913334,1.0719150304794312,0.19104796648025513
1772881576091691500,16.35769140625,-0.2753472924232483,0.771980345249176,0.06582067906856537
1772881576109036500,16.37503662109375,-0.39141160249710083,0.8257364630699158,-0.08078686892986298
1772881576126381600,16.392381591796877,-0.30711227655410767,0.7469348907470703,-0.11255183815956116
1772881576143726800,16.409726806640624,-0.2533561587333679,0.4488328993320465,0.014508038759231567
1772881576161071900,16.42707177734375,-0.41218101978302,0.060322895646095276,0.09208786487579346
1772881576178417000,16.4444169921875,-0.5862774848937988,-0.13271036744117737,0.0798705667257309
1772881576195762200,16.46176220703125,-0.6137663722038269,-0.20357069373130798,-0.030085090547800064
1772881576213107200,16.479107177734374,-0.5276344418525696,-0.34468045830726624,-0.1773035079240799
1772881576230452200,16.4964521484375,-0.44211336970329285,-0.47784897685050964,-0.2793179154396057
1772881576247797200,16.51379736328125,-0.4592176079750061,-0.7967203855514526,-0.3721693754196167
1772881576265142500,16.531142578125,-0.5325213670730591,-1.2603667974472046,-0.39110618829727173
1772881576282487600,16.548487548828124,-0.7035635113716125,-1.680641770362854,-0.3367392122745514
1772881576299832600,16.56583251953125,-0.7273872494697571,-2.0966405868530273,-0.2548833191394806
1772881576317177900,16.583177734375,-0.6229293346405029,-2.400851249694824,-0.16508620977401733
1772881576334523000,16.60052294921875,-0.6650790572166443,-2.458272695541382,-0.05757400393486023
1772881576351868000,16.617867919921874,-0.753043532371521,-2.296393394470215,0.05787943676114082
1772881576369213000,16.635212890625,-0.7279980778694153,-1.845575213432312,0.17027856409549713
1772881576386558200,16.65255810546875,-0.505032479763031,-1.1192569732666016,0.3119991719722748
1772881576403903200,16.6699033203125,-0.37430739402770996,-0.6256782412528992,0.4598284661769867
1772881576421248300,16.687248291015624,-0.3248273432254791,-0.6134609580039978,0.5160280466079712
1772881576438593500,16.704593505859375,-0.33337944746017456,-0.6989820003509521,0.4378373324871063
1772881576455938600,16.7219384765625,-0.2838993966579437,-0.7557924389839172,0.39996370673179626
1772881576473283600,16.73928369140625,-0.3315468728542328,-0.81810063123703,0.4860956370830536
1772881576490628600,16.756628662109375,-0.2331976294517517,-0.8578068614006042,0.6534726023674011
1772881576507974000,16.773973876953125,-0.14828743040561676,-1.1131483316421509,0.7072287201881409
1772881576525319000,16.79131884765625,-0.08597921580076218,-1.2090541124343872,0.6620246767997742
1772881576542664000,16.808663818359374,-0.060933761298656464,-1.1058179140090942,0.5294670462608337
1772881576560009200,16.82600927734375,-0.03527744114398956,-0.6965385675430298,0.5123628377914429
1772881576577354200,16.843354248046875,-0.02916879393160343,-0.35506516695022583,0.5025889873504639
1772881576594699300,16.86069921875,0.02458730712532997,0.04810560122132301,0.4335612654685974
1772881576612044500,16.87804443359375,0.052076224237680435,0.4195113778114319,0.5062541961669922
1772881576629389600,16.8953896484375,0.09178243577480316,0.5667297840118408,0.5826122760772705
1772881576646734600,16.912734619140625,0.18952079117298126,0.7927497625350952,0.47693267464637756
1772881576664080000,16.930079833984376,0.30802857875823975,1.0639737844467163,0.2851211428642273
1772881576681425000,16.9474248046875,0.397825688123703,1.2508983612060547,0.14401137828826904
1772881576698770000,16.96477001953125,0.43753188848495483,1.3761255741119385,0.0206166859716177
1772881576716115200,16.982115234375,0.3605629503726959,1.300378441810608,-0.09239330142736435
1772881576733460200,16.999460205078126,0.26160284876823425,1.034041404724121,-0.15592323243618011
1772881576750805200,17.01680517578125,0.28176137804985046,0.7432697415351868,-0.2176205813884735
1772881576768150300,17.034150390625,0.35811948776245117,0.7560978531837463,-0.28664830327033997
1772881576785495600,17.05149560546875,0.4143190383911133,0.7218894362449646,-0.49984011054039
1772881576802840600,17.068840576171876,0.6183478832244873,0.8129082918167114,-0.8083268404006958
1772881576820185600,17.086185546875,0.9274454712867737,1.261283040046692,-0.9317215085029602
1772881576837531000,17.10353076171875,1.1467459201812744,2.117715358734131,-0.74540776014328
1772881576854876000,17.1208759765625,1.154076337814331,2.786001443862915,-0.42959064245224
1772881576872221000,17.138220947265626,0.9610430002212524,3.140303134918213,0.08353576064109802
1772881576889566000,17.15556591796875,0.6556106209754944,2.01997709274292,0.3523162603378296
1772881576906911200,17.1729111328125,0.480903297662735,1.7499748468399048,0.3920224606990814
1772881576924256300,17.19025634765625,0.19562944769859314,1.9136866331100464,0.04993819445371628
1772881576941601300,17.207601318359377,-0.004734201822429895,1.7261511087417603,-0.45769044756889343
1772881576958946600,17.224946533203124,-0.19898919761180878,1.0749692916870117,-0.5737547278404236
1772881576976291600,17.24229150390625,-0.2704603672027588,0.4445568323135376,-0.34345871210098267
1772881576993636600,17.25963671875,-0.24236060678958893,0.31322091817855835,-0.06979130208492279
1772881577010982000,17.27698193359375,-0.3162752389907837,0.18982623517513275,0.004734201822429895
1772881577028327000,17.294326904296874,-0.4586067199707031,0.03955349326133728,0.02367101050913334
1772881577045672000,17.311671875,-0.4696022868156433,-0.07773254066705704,-0.03436114266514778
1772881577063017000,17.329016845703126,-0.4915934205055237,-0.2029598206281662,-0.07223475724458694
1772881577080362200,17.3463623046875,-0.5166388750076294,-0.4741837978363037,-0.05146535858511925
1772881577097707300,17.363707275390624,-0.6107120513916016,-0.8724676370620728,-0.1974620372056961
1772881577115052300,17.38105224609375,-0.671187698841095,-1.2163845300674438,-0.24755294620990753
1772881577132397600,17.3983974609375,-0.8330668210983276,-1.6934698820114136,-0.162031888961792
1772881577149742600,17.41574267578125,-0.9735657572746277,-1.9830198287963867,0.041386090219020844
1772881577167087600,17.433087646484374,-0.8287907838821411,-2.2456915378570557,0.25274530053138733
1772881577184432600,17.4504326171875,-0.5459604263305664,-2.472322463989258,0.31932955980300903
1772881577201778000,17.46777783203125,-0.4812087416648865,-2.363588571548462,0.38652467727661133
1772881577219123000,17.485123046875,-0.47143489122390747,-1.995237112045288,0.5948295593261719
1772881577236468000,17.502468017578124,-0.29733842611312866,-1.567631721496582,0.6730202436447144
1772881577253813200,17.519813232421875,-0.13790272176265717,-1.1100940704345703,0.6235402226448059
1772881577271158300,17.537158203125,-0.0383317656815052,-0.819322407245636,0.6229293346405029
1772881577288503300,17.55450341796875,0.030085090547800064,-0.8871283531188965,0.578336238861084
1772881577305848300,17.571848388671874,0.10705405473709106,-1.3959786891937256,0.39446592330932617
1772881577323193600,17.589193603515625,0.18341214954853058,-1.5987858772277832,0.5184714794158936
1772881577340538600,17.60653857421875,0.24633121490478516,-1.0166317224502563,0.9332486391067505
1772881577357883600,17.623883544921874,0.39049530029296875,-1.188895583152771,0.8226821422576904
1772881577375229000,17.64122900390625,0.2787070572376251,-1.3238966464996338,0.6870701313018799
1772881577392574000,17.658573974609375,0.21639885008335114,-1.504712700843811,0.5978838801383972
1772881577409919000,17.6759189453125,0.1669187992811203,-1.3904809951782227,0.5997164845466614
1772881577427264300,17.69326416015625,0.12721258401870728,-1.154076337814331,0.6180424690246582
1772881577444609300,17.710609375,0.14309507608413696,-0.6079631447792053,0.671187698841095
1772881577461954300,17.727954345703125,0.18096868693828583,-0.10399972647428513,0.7328850030899048
1772881577479299300,17.74529931640625,0.18280129134655,0.3920224606990814,0.7426588535308838
1772881577496644600,17.76264453125,0.16386447846889496,0.699287474155426,0.6039925217628479
1772881577513989600,17.77998974609375,0.1925751268863678,0.8807142972946167,0.4341721534729004
1772881577531334700,17.797334716796875,0.28848087787628174,1.0187697410583496,0.2753472924232483
1772881577548680000,17.814679931640626,0.33979353308677673,1.0120502710342407,0.15256348252296448
1772881577566025000,17.83202490234375,0.3312414288520813,1.0725258588790894,0.05482511222362518
1772881577583370000,17.849369873046875,0.3361283540725708,1.2765547037124634,-0.08261945843696594
1772881577600715300,17.86671533203125,0.3361283540725708,1.4506511688232422,-0.2945895493030548
1772881577618060300,17.884060302734376,0.38499751687049866,1.3804017305374146,-0.6898190379142761
1772881577635405300,17.9014052734375,0.4754055142402649,1.3461933135986328,-1.1290308237075806
1772881577652750600,17.91875048828125,0.6165152788162231,1.3278672695159912,-1.5169299840927124
1772881577670095600,17.936095703125,0.7557924389839172,1.5160136222839355,-1.6158900260925293
1772881577687440600,17.953440673828126,0.7002037763595581,2.2863142490386963,-1.1039854288101196
1772881577704785700,17.97078564453125,0.5340485572814941,3.2985169887542725,-0.18280129134655
1772881577722131000,17.988130859375,0.2994764447212219,3.0297365188598633,0.5025889873504639
1772881577739476000,18.00547607421875,0.19379685819149017,1.7469205856323242,0.46776971220970154
1772881577756821000,18.022821044921876,0.12232567369937897,1.458592414855957,0.3113883137702942
1772881577774166000,18.040166015625,-0.18432845175266266,1.3028218746185303,0.14828743040561676
1772881577791511300,18.05751123046875,-0.494647741317749,1.3584105968475342,-0.06123919412493706
1772881577808856300,18.074856201171876,-0.7371610999107361,1.1800380945205688,-0.3269653618335724
1772881577826201300,18.092201416015627,-0.8617774844169617,0.7738129496574402,-0.3678933084011078
1772881577843546600,18.109546630859374,-0.8104648590087891,0.3614792227745056,-0.38072147965431213
1772881577860891600,18.1268916015625,-0.5984947681427002,0.19593487679958344,-0.5346593856811523
1772881577878236700,18.144236572265626,-0.33337944746017456,0.3205513060092926,-0.521831214427948
1772881577895581700,18.161581787109377,-0.3669770061969757,0.425009161233902,-0.5169443488121033
1772881577912927000,18.178927001953124,-0.46838057041168213,0.2435823380947113,-0.3605629503726959
1772881577930272000,18.19627197265625,-0.4860956370830536,-0.43081238865852356,-0.13332124054431915
1772881577947617000,18.213616943359376,-0.5392408967018127,-1.1265873908996582,-0.17058399319648743
1772881577964962300,18.23096240234375,-0.6944005489349365,-1.5926772356033325,-0.4448622763156891
1772881577982307300,18.248307373046874,-0.9589049816131592,-1.9518656730651855,-0.4796815812587738
1772881577999652400,18.26565234375,-0.957072377204895,-2.111912250518799,-0.3092502951622009
1772881578016997600,18.28299755859375,-0.7762564420700073,-2.19682240486145,-0.13515383005142212
1772881578034342700,18.3003427734375,-0.597273051738739,-2.3226606845855713,-0.029474224895238876
1772881578051687700,18.317687744140624,-0.48914995789527893,-2.2230896949768066,0.1360701322555542
1772881578069032700,18.33503271484375,-0.4610501825809479,-1.742339015007019,0.5539016127586365
1772881578086378000,18.3523779296875,-0.27779075503349304,-1.261588454246521,0.8886555433273315
1772881578103723000,18.369722900390624,-0.13790272176265717,-0.6562215089797974,1.0456477403640747
1772881578121068000,18.387068115234374,-0.014508038759231567,-0.4185950756072998,0.9008728265762329
1772881578138413000,18.4044130859375,0.04474584385752678,-0.6629409790039062,0.3620901107788086
1772881578155758300,18.42175830078125,0.22678354382514954,-1.2970186471939087,-0.18890993297100067
1772881578173103400,18.439103271484374,0.4185950756072998,-1.6073379516601562,-0.2542724609375
1772881578190448400,18.456448486328124,0.4228711426258087,-1.245095133781433,0.4091266989707947
1772881578207793700,18.473793701171875,0.32391104102134705,-0.8608611822128296,0.7896954417228699
1772881578225138700,18.491138671875,0.2023489624261856,-1.4723368883132935,0.6571378111839294
1772881578242483700,18.508483642578124,0.07162389904260635,-1.7753257751464844,0.5080868005752563
1772881578259829000,18.5258291015625,0.04780016839504242,-1.4674499034881592,0.7200568318367004
1772881578277174000,18.543174072265625,-0.057268574833869934,-0.939662754535675,0.7292198538780212
1772881578294519000,18.56051904296875,-0.13240493834018707,-0.28848087787628174,0.48792824149131775
1772881578311864000,18.577864013671874,-0.10125083476305008,0.29367324709892273,0.39568766951560974
1772881578329209300,18.595209228515625,-0.06643154472112656,0.6406444311141968,0.41218101978302
1772881578346554400,18.612554443359375,-0.06887500733137131,0.8477275967597961,0.32360562682151794
1772881578363899400,18.6298994140625,-0.0102319847792387,1.0902409553527832,0.19471314549446106
1772881578381244700,18.64724462890625,0.0844520553946495,1.3810125589370728,0.08109229803085327
1772881578398589700,18.664589599609375,0.22189663350582123,1.6668972969055176,-0.10583232343196869
1772881578415934700,18.681934814453125,0.2811505198478699,1.7304271459579468,-0.33001968264579773
1772881578433279700,18.69927978515625,0.2835939824581146,1.5838196277618408,-0.5517635941505432
1772881578450625000,18.716625,0.2793179154396057,1.2374593019485474,-0.755181610584259
1772881578467970000,18.733969970703125,0.34345871210098267,1.0346522331237793,-0.9781472086906433
1772881578485315000,18.751315185546876,0.41492989659309387,0.9986112117767334,-1.0997092723846436
1772881578502660400,18.768660400390626,0.48273590207099915,1.0829105377197266,-1.0538945198059082
1772881578520005400,18.78600537109375,0.5358811020851135,1.2930480241775513,-0.708145022392273
1772881578537350400,18.803350341796875,0.5242747068405151,2.2288928031921387,-0.0001527161948615685
1772881578554695400,18.8206953125,0.6440041661262512,2.810436248779297,0.3040579557418823
1772881578572040700,18.838040771484376,0.6898190379142761,2.8757987022399902,0.16661337018013
1772881578589385700,18.8553857421875,0.6012436747550964,2.6729915142059326,-0.19440771639347076
1772881578606730800,18.872730712890625,0.3819431960582733,2.5025603771209717,-0.3617846667766571
1772881578624076000,18.890075927734376,0.09300415962934494,2.1842997074127197,-0.36544984579086304
1772881578641421000,18.907421142578126,-0.22525638341903687,1.4323252439498901,-0.5022835731506348
1772881578658766000,18.92476611328125,-0.3578140437602997,0.9753983616828918,-0.43692103028297424
1772881578676111000,18.942111083984376,-0.3211621642112732,0.7316632866859436,-0.295811265707016
1772881578693456400,18.959456298828126,-0.1977674663066864,0.6101012229919434,-0.2658788859844208
1772881578710801400,18.976801513671877,-0.22220206260681152,0.5325213670730591,-0.22739441692829132
1772881578728146400,18.994146484375,-0.301003634929657,0.23197589814662933,-0.17302745580673218
1772881578745491700,19.01149169921875,-0.37369653582572937,-0.18402300775051117,-0.19440771639347076
1772881578762836700,19.028836669921876,-0.41706791520118713,-0.4546361267566681,-0.18035782873630524
1772881578780181800,19.046181640625,-0.4231765866279602,-0.5896372199058533,-0.18585561215877533
1772881578797526800,19.06352685546875,-0.44700029492378235,-0.6299542784690857,-0.1876882016658783
1772881578814872000,19.0808720703125,-0.4696022868156433,-0.8797979950904846,-0.1718057245016098
1772881578832217000,19.098217041015626,-0.5477929711341858,-1.2793035507202148,-0.18463388085365295
1772881578849562000,19.11556201171875,-0.7310523986816406,-1.7453933954238892,-0.0795651376247406
1772881578866907100,19.1329072265625,-0.6565269231796265,-2.039830207824707,-0.005650499369949102
1772881578884252400,19.15025244140625,-0.36453354358673096,-2.318995475769043,0.13240493834018707
1772881578901597400,19.167597412109377,-0.3168860971927643,-2.142455577850342,0.310166597366333
1772881578918942500,19.1849423828125,-0.36392268538475037,-1.695913314819336,0.4903717041015625
1772881578936287700,19.202287841796874,-0.2802342176437378,-1.3422226905822754,0.5606211423873901
1772881578953632800,19.2196328125,-0.18310672044754028,-1.123533010482788,0.6210967898368835
1772881578970977800,19.236977783203123,-0.16905683279037476,-0.8358157277107239,0.7469348907470703
1772881578988322800,19.25432275390625,-0.14401137828826904,-0.9091194868087769,0.7273872494697571
1772881579005668000,19.271668212890624,-0.1000291109085083,-1.2408190965652466,0.46227192878723145
1772881579023013000,19.28901318359375,-0.0206166859716177,-1.5041017532348633,0.33826637268066406
1772881579040358100,19.306358154296873,-0.10186170041561127,-1.3684898614883423,0.660802960395813
1772881579057703400,19.323703369140624,-0.007788525894284248,-1.2017236948013306,0.8910989761352539
1772881579075048400,19.34104833984375,-0.04260781779885292,-1.428965449333191,0.9137009978294373
1772881579092393500,19.3583935546875,-0.04627300798892975,-1.542586326599121,0.9595158696174622
1772881579109738500,19.375738525390624,-0.01511890348047018,-1.3031272888183594,0.9937242865562439
1772881579127083800,19.393083740234374,0.03802633285522461,-0.9604321718215942,0.8055779337882996
1772881579144428800,19.4104287109375,0.1406516134738922,-0.5664243698120117,0.6394227147102356
1772881579161773800,19.42777392578125,0.22006404399871826,-0.19440771639347076,0.641866147518158
1772881579179119000,19.445119140625,0.2835939824581146,0.07070759683847427,0.6974548697471619
1772881579196464000,19.462464111328124,0.34956738352775574,0.4702131748199463,0.6272054314613342
1772881579213809200,19.47980908203125,0.3324631452560425,0.8177952170372009,0.4231765866279602
1772881579231154200,19.497154296875,0.3159697949886322,0.985783040523529,0.23136503994464874
1772881579248499500,19.51449951171875,0.30802857875823975,1.0334304571151733,0.02306014485657215
1772881579265844500,19.531844482421874,0.2756527364253998,1.0639737844467163,-0.12782345712184906
1772881579283189500,19.549189453125,0.24633121490478516,0.9686788320541382,-0.22983787953853607
1772881579300534800,19.56653466796875,0.32452189922332764,0.9100357890129089,-0.3868301212787628
1772881579317879800,19.5838798828125,0.48823368549346924,0.8471167087554932,-0.5090031027793884
1772881579335224800,19.601224853515625,0.6653844714164734,0.9839504361152649,-0.5963567495346069
1772881579352570000,19.618570068359375,0.8388700485229492,1.226463794708252,-0.6397281289100647
1772881579369915100,19.6359150390625,0.9720385670661926,1.7524182796478271,-0.5340485572814941
1772881579387260200,19.65326025390625,0.9976949095726013,2.3962697982788086,-0.2597702443599701
1772881579404605200,19.670605224609375,1.0025818347930908,2.842200994491577,-0.06490438431501389
1772881579421950500,19.687950439453125,0.790000855922699,2.431089162826538,-0.1259908676147461
1772881579439295500,19.70529541015625,0.490066260099411,1.7182098627090454,-0.25549420714378357
1772881579456640500,19.722640625,0.19013166427612305,1.5245658159255981,-0.23594652116298676
1772881579473985500,19.739985595703125,-0.08536835014820099,1.0456477403640747,-0.08200860023498535
1772881579491330800,19.757330810546875,-0.31261005997657776,0.6284271478652954,-0.009926552884280682
1772881579508675800,19.77467578125,-0.4066832363605499,0.42073312401771545,-0.11194097250699997
1772881579526020900,19.792020751953125,-0.3565923273563385,0.4280634820461273,-0.24022257328033447
1772881579543366100,19.8093662109375,-0.3559814393520355,0.402407169342041,-0.21945317089557648
1772881579560711200,19.826711181640626,-0.4915934205055237,0.3016144931316376,-0.08628465235233307
1772881579578056200,19.84405615234375,-0.5105302333831787,0.031001387163996696,-0.1406516134738922
1772881579595401200,19.861401123046875,-0.5190823674201965,-0.29214608669281006,-0.2536616027355194
1772881579612746500,19.87874658203125,-0.5093085169792175,-0.6281217336654663,-0.30741769075393677
1772881579630091500,19.896091552734376,-0.539851725101471,-0.9274454712867737,-0.4088212549686432
1772881579647436500,19.9134365234375,-0.5801688432693481,-1.1956150531768799,-0.4656316637992859
1772881579664781600,19.930781494140625,-0.5991056561470032,-1.4430153369903564,-0.4589121639728546
1772881579682126800,19.948126953125,-0.7451022863388062,-1.788153886795044,-0.43631017208099365
1772881579699472000,19.965471923828126,-0.836732029914856,-2.0544910430908203,-0.4540252387523651
1772881579716817000,19.98281689453125,-0.6235402226448059,-2.159559726715088,-0.3782780170440674
1772881579734162200,20.000162109375,-0.578336238861084,-2.0715951919555664,-0.07834340631961823
1772881579751507200,20.017507080078126,-0.5936078429222107,-1.5645774602890015,0.22525638341903687
1772881579768852200,20.034852294921876,-0.5471821427345276,-1.0532835721969604,0.35353797674179077
1772881579786197200,20.052197265625,-0.5123628377914429,-0.6397281289100647,0.3675878942012787
1772881579803542500,20.06954248046875,-0.5453495383262634,-0.7130318880081177,0.34437501430511475
1772881579820887600,20.086887451171876,-0.45188722014427185,-1.1039854288101196,0.3174969553947449
1772881579838232600,20.104232666015626,-0.3162752389907837,-1.2096649408340454,0.434783011674881
1772881579855577900,20.121577880859373,-0.14278964698314667,-0.88285231590271,0.6974548697471619
1772881579872923000,20.1389228515625,0.02519817277789116,-0.8602503538131714,0.8067996501922607
1772881579890268000,20.156267822265626,0.01847865991294384,-1.1210895776748657,0.8257364630699158
1772881579907613000,20.173613037109376,-0.005345067009329796,-1.465617299079895,0.9112575054168701
1772881579924958200,20.190958251953123,-0.1769980639219284,-1.8840596675872803,0.7261655330657959
1772881579942303200,20.20830322265625,-0.18493930995464325,-1.8095341920852661,0.5893318057060242
1772881579959648300,20.225648193359376,-0.08597921580076218,-1.215773582458496,0.5856665968894958
1772881579976993500,20.24299365234375,-0.11774418503046036,-0.4589121639728546,0.539851725101471
1772881579994338600,20.260338623046874,-0.0951421856880188,-0.0154243353754282,0.3883572816848755
1772881580011683600,20.27768359375,0.03558287397027016,0.25152358412742615,0.23441936075687408
1772881580029028600,20.295028564453126,0.15775582194328308,0.58749920129776,0.1611155867576599
1772881580046374000,20.312373779296873,0.14431680738925934,0.8794925808906555,0.0896444097161293
1772881580063719000,20.329718994140624,0.13515383005142212,1.0682498216629028,-0.012370011769235134
1772881580081064000,20.34706396484375,0.14492766559123993,1.3156499862670898,-0.09666935354471207
1772881580098409000,20.364408935546876,0.18463388085365295,1.5276200771331787,-0.17974695563316345
1772881580115754200,20.381754150390623,0.2530507445335388,1.5526655912399292,-0.32330018281936646
1772881580133099300,20.399099365234374,0.346513032913208,1.3596322536468506,-0.5542070865631104
1772881580150444300,20.4164443359375,0.46685341000556946,1.197142243385315,-0.7344121932983398
1772881580167789600,20.43378955078125,0.6268999576568604,1.2148573398590088,-0.8113811612129211
1772881580185134600,20.451134521484374,0.809548556804657,1.5697697401046753,-0.8071050643920898
1772881580202479600,20.468479736328124,0.8596394658088684,2.2759294509887695,-0.4961749315261841
1772881580219824600,20.48582470703125,0.9451605081558228,2.6247332096099854,-0.10949750989675522
1772881580237170000,20.503169921875,0.9476040005683899,2.6497786045074463,-0.03130681812763214
1772881580254515000,20.520514892578124,0.7209731340408325,2.0187554359436035,-0.1101083755493164
1772881580271860000,20.53785986328125,0.34895649552345276,1.696218729019165,-0.0691804364323616
1772881580289205200,20.555205322265625,-0.011453714221715927,1.4091123342514038,-0.06307178735733032
1772881580306550300,20.57255029296875,-0.22159120440483093,1.2032508850097656,-0.1724165827035904
1772881580323895300,20.589895263671874,-0.2802342176437378,1.1940879821777344,-0.19868376851081848
1772881580341240300,20.607240234375,-0.25213444232940674,0.9424116611480713,-0.06123919412493706
1772881580358585600,20.624585693359375,-0.14523309469223022,0.5337430834770203,0.18005239963531494
1772881580375930600,20.6419306640625,-0.19593487679958344,0.07681624591350555,0.1971566081047058
1772881580393275600,20.659275634765624,-0.2747364342212677,-0.14798198640346527,0.08536835014820099
1772881580410621000,20.676620849609375,-0.3358229100704193,-0.28176137804985046,-0.03802633285522461
1772881580427966000,20.693966064453125,-0.36880961060523987,-0.4912880063056946,-0.19501857459545135
1772881580445311000,20.71131103515625,-0.48731738328933716,-0.7814487814903259,-0.1766926348209381
1772881580462656000,20.728656005859374,-0.5575668215751648,-1.0465641021728516,-0.12843431532382965
1772881580480001300,20.746001220703125,-0.5581777095794678,-1.2505929470062256,-0.16508620977401733
1772881580497346300,20.76334619140625,-0.5624537467956543,-1.450345754623413,-0.28725916147232056
1772881580514691300,20.78069140625,-0.6638572812080383,-1.7343977689743042,-0.4027126133441925
1772881580532036400,20.798036376953124,-0.6253728270530701,-2.0544910430908203,-0.41126471757888794
1772881580549381600,20.815381591796875,-0.4744892120361328,-2.2029311656951904,-0.2890917658805847
1772881580566726700,20.8327265625,-0.5056433081626892,-2.268293619155884,0.04932733252644539
1772881580584071700,20.85007177734375,-0.6210967898368835,-2.2456915378570557,0.3510945439338684
1772881580601416700,20.867416748046875,-0.6119337677955627,-2.162614107131958,0.476321816444397
1772881580618762000,20.884761962890625,-0.48243045806884766,-1.769827961921692,0.3712530732154846
1772881580636107000,20.90210693359375,-0.31932955980300903,-1.289688229560852,0.3883572816848755
1772881580653452000,20.9194521484375,-0.20082180202007294,-1.095433235168457,0.5111411213874817
1772881580670797000,20.936797119140625,-0.07803797721862793,-1.080161690711975,0.42073312401771545
1772881580688142300,20.954142333984375,0.04718930274248123,-1.1033744812011719,0.3095557391643524
1772881580705487400,20.9714873046875,0.07162389904260635,-0.994029700756073,0.46227192878723145
1772881580722832400,20.988832275390624,0.13454297184944153,-1.077107310295105,0.7756455540657043
1772881580740177700,21.006177734375,0.030695954337716103,-1.215773582458496,0.9986112117767334
1772881580757522700,21.023522705078125,-0.12812888622283936,-1.5053235292434692,0.8599448800086975
1772881580774867700,21.04086767578125,-0.17394374310970306,-1.3953678607940674,0.660802960395813
1772881580792212700,21.058212646484375,-0.06520981341600418,-0.9097303748130798,0.494647741317749
1772881580809558000,21.07555810546875,0.06368265300989151,-0.26710063219070435,0.37919431924819946
1772881580826903000,21.092903076171876,0.12843431532382965,0.20448698103427887,0.2790125012397766
1772881580844248000,21.110248046875,0.12965604662895203,0.45127636194229126,0.16355904936790466
1772881580861593300,21.12759326171875,0.1418733447790146,0.586888313293457,0.10613775253295898
1772881580878938400,21.1449384765625,0.1870773434638977,0.7463240623474121,0.04627300798892975
1772881580896283400,21.162283447265626,0.2842048406600952,0.966235339641571,-0.0850629210472107
1772881580913628400,21.17962841796875,0.3165806829929352,1.0651954412460327,-0.30802857875823975
1772881580930973700,21.1969736328125,0.31413722038269043,1.1965314149856567,-0.4399753510951996
1772881580948318700,21.214318603515625,0.3000873327255249,1.2313506603240967,-0.4955640435218811
1772881580965663700,21.231663818359376,0.3422369956970215,1.0499238967895508,-0.6061305999755859
1772881580983008800,21.2490087890625,0.4350884258747101,0.864220917224884,-0.7814487814903259
1772881581000354000,21.26635400390625,0.46257734298706055,0.8397863507270813,-0.9103412628173828
1772881581017699000,21.283698974609376,0.5829176902770996,1.012661099433899,-0.9787580966949463
1772881581035044000,21.301044189453126,0.7417425513267517,1.4805835485458374,-0.9469931125640869
1772881581052389400,21.318389404296877,0.7527381181716919,2.221562385559082,-0.6549997329711914
1772881581069734400,21.335734375,0.7741183638572693,2.892292022705078,-0.22617268562316895
1772881581087079400,21.353079345703126,0.653167188167572,3.3290603160858154,0.027336198836565018
1772881581104424400,21.370424560546876,0.29153522849082947,2.814101219177246,0.05238165333867073
1772881581121769700,21.387769775390623,0.0025961752980947495,2.034027099609375,0.05971203371882439
1772881581139114800,21.40511474609375,-0.1360701322555542,1.690721035003662,0.024281874299049377
1772881581156459800,21.422459716796876,-0.22953243553638458,1.4958550930023193,-0.09850194305181503
1772881581173804800,21.4398046875,-0.31810784339904785,1.1665990352630615,-0.07895427197217941
1772881581191150000,21.457150146484373,-0.2545779049396515,0.7958040833473206,0.001679878099821508
1772881581208495000,21.4744951171875,-0.18860450387001038,0.26740604639053345,0.13790272176265717
1772881581225840000,21.491840087890626,-0.29245150089263916,-0.10644318908452988,0.07864884287118912
1772881581243185400,21.509185302734377,-0.43600472807884216,-0.25243985652923584,0.016340631991624832
1772881581260530400,21.526530517578124,-0.5056433081626892,-0.33307403326034546,-0.0899498388171196
1772881581277875500,21.54387548828125,-0.559399425983429,-0.45646870136260986,-0.1302669197320938
