time,seconds_elapsed,z,y,x
1772881559795998000,0.061998046875,-0.4422661066055298,1.3988803625106812,-0.15577052533626556
1772881559813343000,0.079343017578125,-0.9352339506149292,0.42394015192985535,-0.7141009569168091
1772881559830688000,0.09668798828125,-0.9737184643745422,0.10934479534626007,-0.8851430416107178
1772881559848032800,0.11403271484375,-0.7232639193534851,0.6053670048713684,-0.2003636509180069
1772881559865377800,0.131377685546875,-0.3121519088745117,1.4275909662246704,0.6902772188186646
1772881559882722800,0.148722900390625,-0.3402516841888428,1.4123194217681885,0.8265000581741333
1772881559900067800,0.16606787109375,-0.861319363117218,0.8649845123291016,0.5681042671203613
1772881559917412900,0.183412841796875,-1.4752384424209595,0.15699224174022675,0.4379900395870209
1772881559934758000,0.2007578125,-1.92666757106781,0.09529490768909454,0.38301220536231995
1772881559952103000,0.21810302734375,-2.207665205001831,0.3787361681461334,0.5021308660507202
1772881559969448000,0.235447998046875,-2.537532329559326,0.9071341753005981,0.9456186890602112
1772881559986793000,0.25279296875,-3.3292131423950195,1.7849469184875488,1.4202606678009033
1772881560004138000,0.270137939453125,-4.720152378082275,2.003025531768799,1.2064579725265503
1772881560021483000,0.28748291015625,-5.342623233795166,2.458730697631836,-0.02871064469218254
1772881560038828000,0.304828125,-5.545430660247803,2.5332562923431396,-1.033583164215088
1772881560056173000,0.322173095703125,-5.705477237701416,2.145357131958008,-1.4563016891479492
1772881560073518000,0.33951806640625,-5.882627964019775,1.4343105554580688,-1.7647883892059326
1772881560090863000,0.356863037109375,-6.356658935546875,1.7055344581604004,-1.924834966659546
1772881560108207900,0.374207763671875,-7.116574764251709,3.5100290775299072,-1.6084070205688477
1772881560125553000,0.391552978515625,-8.396336555480957,5.844143390655518,-0.5051851868629456
1772881560142898000,0.40889794921875,-9.155030250549316,6.110480308532715,0.9718858599662781
1772881560160243000,0.426242919921875,-8.593646049499512,4.4409871101379395,1.9028438329696655
1772881560177588000,0.443587890625,-7.866105556488037,4.236958026885986,2.8906121253967285
1772881560194933000,0.46093310546875,-7.619316577911377,5.453800678253174,3.889376163482666
1772881560212278000,0.478278076171875,-7.390242099761963,5.409207820892334,4.359130859375
1772881560229623000,0.495623046875,-5.4275336265563965,2.167959213256836,2.4092507362365723
1772881560246968000,0.512968017578125,-3.305389404296875,0.6530144214630127,0.6151408553123474
1772881560264313000,0.53031298828125,-1.8515311479568481,1.2070688009262085,0.5277871489524841
1772881560281658000,0.547658203125,-0.8472694754600525,2.9932374954223633,1.5919135808944702
1772881560299003100,0.565003173828125,-0.012217295356094837,3.677406072616577,2.3878703117370605
1772881560316348200,0.58234814453125,1.2779290676116943,2.0799946784973145,1.4208714962005615
1772881560333693200,0.599693115234375,2.178954601287842,1.288313865661621,0.056199558079242706
1772881560351038200,0.6170380859375,2.7171266078948975,1.1661409139633179,-0.45020735263824463
1772881560368383200,0.63438330078125,2.5216498374938965,-0.11728604137897491,-1.4282019138336182
1772881560385728300,0.651728271484375,1.6310089826583862,-1.6059634685516357,-2.5491387844085693
1772881560403073000,0.669072998046875,0.9804379940032959,-1.803883671760559,-2.621220827102661
1772881560420418300,0.686418212890625,1.0317505598068237,-0.6933315396308899,-1.7452406883239746
1772881560437763300,0.703763427734375,0.7446441650390625,0.7843503952026367,-0.5656607747077942
1772881560455108000,0.721108154296875,-0.08307760953903198,-0.1130099818110466,-0.39828383922576904
1772881560472453000,0.738453125,0.08124501258134842,1.4007129669189453,0.5491674542427063
1772881560489798100,0.755798095703125,-0.04520399495959282,1.9339978694915771,0.12217295914888382
1772881560507143200,0.77314306640625,-0.33047783374786377,1.499062180519104,-1.2675443887710571
1772881560524488200,0.79048828125,0.4984656572341919,0.9053016304969788,-1.2266165018081665
1772881560541833200,0.807833251953125,1.5790854692459106,0.5082395076751709,-1.2993093729019165
1772881560559178200,0.82517822265625,1.4538581371307373,-0.0720820426940918,-1.5344923734664917
1772881560576523300,0.842523193359375,0.8930842876434326,-0.7220421433448792,-1.8503093719482422
1772881560593868300,0.859868408203125,0.8362739086151123,-1.5289945602416992,-1.9327762126922607
1772881560611213300,0.87721337890625,0.6542361974716187,-1.1313215494155884,-1.1924080848693848
1772881560628558300,0.894558349609375,0.3402516841888428,-0.3549124300479889,-0.6969966888427734
1772881560645903400,0.9119033203125,-0.05742128938436508,-0.411722868680954,-0.6346884965896606
1772881560663248400,0.929248291015625,-1.1557561159133911,0.2419024556875229,-0.3439168632030487
1772881560680593400,0.946593505859375,-2.100764036178589,1.4086542129516602,-0.3292561173439026
1772881560697938400,0.9639384765625,-2.1056509017944336,-0.7538071274757385,-0.4098902642726898
1772881560715283500,0.981283447265625,-1.3481786251068115,-1.6713260412216187,0.12583814561367035
1772881560732628500,0.99862841796875,-1.5082250833511353,-2.268751859664917,0.5687150955200195
1772881560749973500,1.015973388671875,-1.6884303092956543,-3.5772242546081543,0.41233372688293457
1772881560767318500,1.033318603515625,-1.8796309232711792,-3.4129016399383545,0.22785256803035736
1772881560784663600,1.05066357421875,-1.8112140893936157,-3.7067275047302246,0.027488915249705315
1772881560802008600,1.068008544921875,-1.8613049983978271,-3.098917007446289,0.13988803327083588
1772881560819353300,1.085353271484375,-2.139859437942505,-1.2333359718322754,0.7165443897247314
1772881560836698600,1.10269873046875,-2.7085745334625244,0.10506874322891235,1.3206896781921387
1772881560854043400,1.12004345703125,-3.321882724761963,0.5619956254959106,1.4868448972702026
1772881560871388400,1.137388427734375,-3.8551676273345947,0.3500255048274994,1.1991275548934937
1772881560888733400,1.1547333984375,-3.6639668941497803,0.235793799161911,0.33047783374786377
1772881560906078500,1.172078369140625,-2.7837107181549072,0.4673115611076355,-0.34574946761131287
1772881560923423500,1.189423583984375,-1.9278892278671265,0.3811796307563782,-0.7037162184715271
1772881560940768500,1.2067685546875,-1.4886775016784668,-0.01649334840476513,-0.729983389377594
1772881560958113500,1.224113525390625,-1.3274091482162476,-0.9468404054641724,-0.7422007322311401
1772881560975458600,1.24145849609375,-0.685390293598175,-1.5045599937438965,-0.4404335021972656
1772881560992803600,1.258803466796875,-0.1288924664258957,-0.6914989352226257,0.6071996092796326
1772881561010148600,1.276148681640625,-0.3139844834804535,1.618180751800537,2.4068071842193604
1772881561027493600,1.29349365234375,-0.9211840629577637,1.3365721702575684,3.51247239112854
1772881561044838700,1.310838623046875,-1.869246244430542,-1.1722495555877686,3.6230390071868896
1772881561062183700,1.32818359375,-2.095266103744507,-2.087324857711792,2.6859724521636963
1772881561079528700,1.34552880859375,-1.6236785650253296,-0.30604326725006104,0.4618137776851654
1772881561096873700,1.362873779296875,-1.6853759288787842,0.8600975871086121,-0.6273581385612488
1772881561114218800,1.38021875,-2.8490734100341797,0.46486809849739075,-0.7605266571044922
1772881561131563800,1.397563720703125,-5.272984981536865,-0.31093016266822815,-0.8356630206108093
1772881561148908800,1.41490869140625,-7.859997272491455,0.6878337264060974,-0.6108647584915161
1772881561166253800,1.43225390625,-8.725592613220215,0.46547895669937134,-0.7843503952026367
1772881561183598800,1.449598876953125,-2.204000234603882,1.869246244430542,-1.4563016891479492
1772881561200943900,1.46694384765625,0.8588758707046509,1.431867003440857,0.31154105067253113
1772881561218289000,1.484288818359375,0.7031053900718689,0.4886918365955353,1.609628677368164
1772881561235634000,1.501634033203125,0.2926042377948761,-0.481361448764801,1.7171409130096436
1772881561252979000,1.51897900390625,-0.06780599057674408,-0.720820426940918,1.3432916402816772
1772881561270323700,1.53632373046875,-0.0720820426940918,-0.39339691400527954,1.0574069023132324
1772881561287669000,1.5536689453125,0.2626718580722809,-0.44470956921577454,0.8478803038597107
1772881561305013800,1.571013671875,0.6976075768470764,-0.9816597104072571,0.749531090259552
1772881561322358800,1.58835888671875,1.0787872076034546,-1.2162318229675293,0.6896663308143616
1772881561339703800,1.605703857421875,0.3799578845500946,-1.3561197519302368,0.6524035930633545
1772881561357048800,1.623048828125,-0.6414080262184143,-0.24984370172023773,0.04276053607463837
1772881561374393900,1.640393798828125,-0.9669989347457886,-0.3744601011276245,0.09101885557174683
1772881561391739000,1.65773876953125,-1.3390156030654907,-0.8338304162025452,0.4050033390522003
1772881561409084000,1.675083984375,-1.68354332447052,-0.6200277805328369,0.5418370366096497
1772881561426429000,1.692428955078125,-1.7415754795074463,-0.3799578845500946,-0.06414080411195755
1772881561443774000,1.70977392578125,-1.6792672872543335,-0.7159335017204285,-0.637742817401886
1772881561461119000,1.727118896484375,-0.9853248596191406,-0.9755510687828064,-0.7024945020675659
1772881561478464000,1.744464111328125,-0.36224281787872314,-1.266933560371399,-0.40255987644195557
1772881561495809000,1.76180908203125,-0.09285144507884979,-0.8167262077331543,-0.17043127119541168
1772881561513154000,1.779154052734375,0.3426951467990875,-2.8936665058135986,-0.8851430416107178
1772881561530499000,1.7964990234375,0.39767298102378845,-3.4410014152526855,-1.229670763015747
1772881561547844000,1.813843994140625,0.10201441496610641,-0.5051851868629456,-0.49602219462394714
1772881561565189000,1.831189208984375,-0.15210533142089844,1.2724313735961914,0.9352339506149292
1772881561582534100,1.8485341796875,-0.1899789422750473,1.8423681259155273,1.9572107791900635
1772881561599879200,1.865879150390625,-0.26939135789871216,1.635895848274231,1.9956952333450317
1772881561617224200,1.88322412109375,-0.23335035145282745,0.8851430416107178,1.4110976457595825
1772881561634569200,1.9005693359375,-0.15821397304534912,0.5375609993934631,1.063515543937683
1772881561651914200,1.917914306640625,-0.14721840620040894,0.6505709886550903,1.0152572393417358
1772881561669259300,1.93525927734375,-0.12278381735086441,0.6010909676551819,0.9761618971824646
1772881561686604300,1.952604248046875,-0.03848448023200035,0.6921098232269287,0.8741474747657776
1772881561703949300,1.96994921875,0.10506874322891235,0.7984002828598022,0.6982184648513794
1772881561721294300,1.98729443359375,0.20830489695072174,0.9022472500801086,0.665842592716217
1772881561738639400,2.004639404296875,0.10445787757635117,0.7849612236022949,0.5815432667732239
1772881561755984400,2.021984375,0.05864302068948746,0.7892373204231262,0.45998117327690125
1772881561773329400,2.039329345703125,0.17592905461788177,0.5180133581161499,0.24251331388950348
1772881561790674400,2.05667431640625,0.2669478952884674,0.6273581385612488,0.08307760953903198
1772881561808019500,2.07401953125,0.3231474757194519,0.7513636946678162,-0.08674279600381851
1772881561825364500,2.091364501953125,0.34147340059280396,0.7641918659210205,-0.12095122784376144
1772881561842709500,2.10870947265625,0.35735589265823364,0.7031053900718689,-0.12156209349632263
1772881561860054500,2.126054443359375,0.3707949221134186,0.7373138070106506,0.03481929376721382
1772881561877399600,2.143399658203125,0.3946186602115631,0.8185588121414185,0.06597339361906052
1772881561894744600,2.16074462890625,0.35246896743774414,0.5778780579566956,-0.1588248461484909
1772881561912089600,2.178089599609375,0.24740023910999298,0.43493571877479553,-0.42394015192985535
1772881561929434600,2.1954345703125,0.09407317638397217,0.2926042377948761,-0.4105011224746704
1772881561946779600,2.212779541015625,0.06963858753442764,0.3133736252784729,-0.33536475896835327
1772881561964124700,2.230124755859375,0.15210533142089844,0.5106829404830933,-0.4056142270565033
1772881561981469700,2.2474697265625,0.3127627670764923,0.8313869833946228,-0.37201663851737976
1772881561998814700,2.264814697265625,0.5229002237319946,0.9010255336761475,-0.2834412455558777
1772881562016159700,2.28215966796875,0.6676751971244812,0.4862483739852905,-0.36774060130119324
1772881562033504800,2.2995048828125,1.0018181800842285,0.4428769648075104,-0.5577195286750793
1772881562050849800,2.316849853515625,1.1997383832931519,0.7525854110717773,-0.8063415288925171
1772881562068194800,2.33419482421875,1.1038326025009155,1.053741693496704,-1.0030399560928345
1772881562085539800,2.351539794921875,0.94439697265625,1.1759146451950073,-0.7098248600959778
1772881562102884900,2.368884765625,0.37140578031539917,1.5332705974578857,-0.27427828311920166
1772881562120230000,2.38622998046875,0.05253437161445618,1.2143992185592651,-0.3017672002315521
1772881562137575000,2.403574951171875,0.09834922850131989,0.6725621223449707,-0.5839866995811462
1772881562154920000,2.420919921875,0.17104214429855347,0.5674933791160583,-0.6835576891899109
1772881562172265000,2.438264892578125,0.12644900381565094,0.41905322670936584,-0.36651885509490967
1772881562189610000,2.45560986328125,-0.06230820715427399,-0.034208428114652634,-0.03481929376721382
1772881562206955000,2.472955078125,-0.1594357043504715,-0.23212862014770508,0.18142683804035187
1772881562224300000,2.490300048828125,-0.01649334840476513,-0.48991355299949646,0.18142683804035187
1772881562241645000,2.50764501953125,0.05803215503692627,-1.1899645328521729,-0.21746785938739777
1772881562258990000,2.524989990234375,0.05497783049941063,-1.4306453466415405,-0.5277871489524841
1772881562276335000,2.542335205078125,-0.34208428859710693,-1.2675443887710571,-0.5571087002754211
1772881562293680000,2.55968017578125,-0.646905779838562,-0.7226530313491821,-0.41294458508491516
1772881562311025200,2.577025146484375,-0.7947350740432739,-0.5681042671203613,-0.2889390289783478
1772881562328370200,2.5943701171875,-0.6982184648513794,-0.8002328872680664,-0.3280344009399414
1772881562345715200,2.611715087890625,-0.3952295184135437,-1.0677915811538696,-0.8558215498924255
1772881562363060200,2.629060302734375,-0.03543015569448471,-0.11117739230394363,-1.4721840620040894
1772881562380405200,2.6464052734375,0.05558869615197182,0.7379246354103088,-1.598022222518921
1772881562397750300,2.663750244140625,0.22968515753746033,0.9926552772521973,-1.1111630201339722
1772881562415095300,2.68109521484375,0.39767298102378845,1.1527018547058105,-0.011606430634856224
1772881562432440300,2.6984404296875,0.25411975383758545,-0.28588470816612244,0.8045089244842529
1772881562449785300,2.715785400390625,-0.164322629570961,-1.4043781757354736,0.4508182108402252
1772881562467130400,2.73313037109375,-1.1062761545181274,-0.7544180154800415,-1.7745622396469116
1772881562484475400,2.750475341796875,-0.665842592716217,1.2632683515548706,-3.112967014312744
1772881562501820400,2.7678203125,-0.4630354940891266,0.9492838382720947,-2.736063241958618
1772881562519165400,2.78516552734375,-0.23823726177215576,-0.43921178579330444,-1.2137882709503174
1772881562536510500,2.802510498046875,-0.19608759880065918,-0.8472694754600525,0.13439024984836578
1772881562553855500,2.81985546875,-0.2052505612373352,-0.4740310609340668,0.7409789562225342
1772881562571200500,2.837200439453125,-0.337808221578598,-0.43860089778900146,1.0506874322891235
1772881562588545500,2.854545654296875,-0.9517273306846619,-0.7617483735084534,1.3255765438079834
1772881562605890600,2.871890625,-1.6975932121276855,-1.2272273302078247,1.6957606077194214
1772881562623235600,2.889235595703125,-1.5045599937438965,-1.2412772178649902,2.028071165084839
1772881562640580600,2.90658056640625,-0.4563159942626953,-0.7348703145980835,1.7318016290664673
1772881562657925600,2.923925537109375,-0.14049890637397766,-0.5955931544303894,0.14599667489528656
1772881562675270700,2.941270751953125,0.2211330533027649,-0.4886918365955353,-0.21441353857517242
1772881562692615700,2.95861572265625,0.30604326725006104,-0.3481929302215576,-0.07024945318698883
1772881562709960700,2.975960693359375,0.18264856934547424,-0.27427828311920166,0.031154103577136993
1772881562727306000,2.993305908203125,-0.024434590712189674,-0.5821541547775269,0.16554436087608337
1772881562744651000,3.010651123046875,-0.020769402384757996,-0.7892373204231262,0.5180133581161499
1772881562761996000,3.02799609375,0.008552107028663158,-0.43432486057281494,0.8374956250190735
1772881562779341000,3.045341064453125,0.05070177838206291,-0.17348559200763702,1.0855066776275635
1772881562796686000,3.06268603515625,0.07880155742168427,-0.2987128794193268,1.1233803033828735
1772881562814031000,3.080031005859375,0.0054977829568088055,-0.3231474757194519,1.120326042175293
1772881562831376100,3.097376220703125,-0.09040798991918564,-0.2938259541988373,1.062904715538025
1772881562848721200,3.11472119140625,-0.1233946830034256,-0.24740023910999298,0.9279035925865173
1772881562866066200,3.132066162109375,-0.0256563201546669,-0.1802051067352295,0.657290518283844
1772881562883411200,3.1494111328125,0.06536252796649933,0.13133592903614044,0.5259546041488647
1772881562900756200,3.166756103515625,-0.08307760953903198,0.1740964651107788,0.6682860851287842
1772881562918101200,3.184101318359375,-0.25045454502105713,0.19425499439239502,0.7354812026023865
1772881562935446300,3.2014462890625,-0.33719736337661743,0.20952661335468292,0.6927206516265869
1772881562952791300,3.218791259765625,-0.32681265473365784,0.17837251722812653,0.6078104376792908
1772881562970136300,3.23613623046875,-0.24434591829776764,0.10567960888147354,0.45326167345046997
1772881562987481300,3.2534814453125,-0.09285144507884979,-0.02871064469218254,0.1545487940311432
1772881563004826400,3.270826416015625,0.053145237267017365,-0.16737695038318634,-0.13011419773101807
1772881563022171400,3.28817138671875,0.07880155742168427,-0.23823726177215576,-0.2309068888425827
1772881563039516400,3.305516357421875,0.06719512492418289,-0.1490510106086731,-0.09834922850131989
1772881563056861400,3.322861328125,0.0720820426940918,0.0720820426940918,0.11423171311616898
1772881563074206500,3.34020654296875,0.13011419773101807,0.1899789422750473,0.26878049969673157
1772881563091551500,3.357551513671875,0.22846342623233795,0.2779434621334076,0.3805687427520752
1772881563108896500,3.374896484375,0.27427828311920166,0.4575377106666565,0.3329212963581085
1772881563126241500,3.392241455078125,0.2834412455558777,0.6890554428100586,0.2718348205089569
1772881563143586800,3.4095869140625,0.16310089826583862,0.8772017955780029,0.2932150959968567
1772881563160931800,3.426931884765625,0.11362084746360779,1.0286962985992432,0.3903425931930542
1772881563178276900,3.44427685546875,0.15027274191379547,1.0928370952606201,0.4783071279525757
1772881563195622000,3.461621826171875,0.22479823231697083,1.2974767684936523,0.5216785073280334
1772881563212967000,3.478966796875,0.24862197041511536,1.4984513521194458,0.5381718873977661
1772881563230312000,3.49631201171875,0.328645259141922,1.0739002227783203,0.5839866995811462
1772881563247657000,3.513656982421875,0.3811796307563782,0.31154105067253113,0.675616443157196
1772881563265002000,3.531001953125,0.2767217457294464,0.20280711352825165,0.5381718873977661
1772881563282347000,3.548346923828125,0.16554436087608337,0.31581708788871765,0.21258094906806946
1772881563299692000,3.565692138671875,0.12705987691879272,0.1747073233127594,-0.07941242307424545
1772881563317037000,3.583037109375,0.12095122784376144,0.2565632164478302,-0.07513637095689774
1772881563334382000,3.600382080078125,0.020769402384757996,0.10995566099882126,-0.004276053514331579
1772881563351727000,3.61772705078125,-0.1539379209280014,-0.021380268037319183,0.03848448023200035
1772881563369072000,3.635072021484375,-0.29993459582328796,-0.17104214429855347,0.14172062277793884
1772881563386417200,3.652417236328125,-0.3237583339214325,-0.18875721096992493,0.13561198115348816
1772881563403762200,3.66976220703125,-0.39278605580329895,-0.16310089826583862,0.04825831577181816
1772881563421107200,3.687107177734375,-0.4373791813850403,-0.13011419773101807,0.02932151034474373
1772881563438452200,3.7044521484375,-0.4862483739852905,-0.28954991698265076,0.06780599057674408
1772881563455797200,3.72179736328125,-0.5937605500221252,-0.6035344004631042,0.010995565913617611
1772881563473142300,3.739142333984375,-0.8338304162025452,-0.8998038172721863,-0.15515965223312378
1772881563490487300,3.7564873046875,-0.9498947262763977,-0.9749401807785034,-0.10629047453403473
1772881563507832600,3.77383251953125,-0.9132428169250488,-1.1013891696929932,0.002443459117785096
1772881563525177600,3.791177490234375,-0.7177661061286926,-1.3377938270568848,-0.004886918235570192
1772881563542522600,3.808522705078125,-0.638353705406189,-1.536935806274414,-0.053145237267017365
1772881563559867600,3.82586767578125,-0.5668824911117554,-1.5063925981521606,-0.014660755172371864
1772881563577212700,3.843212646484375,-0.5112938284873962,-1.4025455713272095,0.06047561392188072
1772881563594557700,3.8605576171875,-0.46059203147888184,-1.1319323778152466,0.13255766034126282
1772881563611902700,3.87790283203125,-0.42455101013183594,-0.8362739086151123,0.12644900381565094
1772881563629247700,3.895247802734375,-0.4013381600379944,-0.6872228980064392,0.19853104650974274
1772881563646592800,3.9125927734375,-0.3384190797805786,-0.7550288438796997,0.430659681558609
1772881563663937800,3.929937744140625,-0.28466299176216125,-0.646905779838562,0.7269290685653687
1772881563681282800,3.94728271484375,-0.2107483446598053,-0.5418370366096497,0.9694424271583557
1772881563698627800,3.9646279296875,-0.04153880476951599,-0.36712974309921265,0.9382883310317993
1772881563715973000,3.98197314453125,0.07941242307424545,-0.5925388336181641,0.6768381595611572
1772881563733318100,3.999318115234375,0.09285144507884979,-0.5009090900421143,0.7531962990760803
1772881563750663200,4.0166630859375,0.05192350596189499,-0.3707949221134186,0.9260709881782532
1772881563768008200,4.03400830078125,-0.04520399495959282,-0.37690356373786926,0.8741474747657776
1772881563785353200,4.051353271484375,-0.1441640853881836,-0.4825831651687622,0.7012727856636047
1772881563802698200,4.0686982421875,-0.0977383628487587,-0.40378162264823914,0.6059778332710266
1772881563820043300,4.086043212890625,-0.04520399495959282,-0.36224281787872314,0.6927206516265869
1772881563837388300,4.10338818359375,-0.027488915249705315,-0.14172062277793884,0.7709113359451294
1772881563854733300,4.1207333984375,-0.07086031138896942,-0.24006985127925873,0.8710931539535522
1772881563872078300,4.138078369140625,-0.09651663154363632,-0.13133592903614044,0.9071341753005981
1772881563889423600,4.155423583984375,-0.1954767256975174,0.014660755172371864,0.9040798544883728
1772881563906768600,4.1727685546875,-0.24923282861709595,0.09896009415388107,0.8374956250190735
1772881563924113700,4.19011376953125,-0.22174391150474548,0.08979712426662445,0.7354812026023865
1772881563941458700,4.207458740234375,-0.18387030065059662,0.33231043815612793,0.62857985496521
1772881563958803700,4.2248037109375,-0.1490510106086731,0.45937031507492065,0.5155698657035828
1772881563976148700,4.242148681640625,-0.09957095980644226,0.5821541547775269,0.3659079968929291
1772881563993493800,4.25949365234375,-0.03298669680953026,0.7195987105369568,0.2205221801996231
1772881564010838800,4.2768388671875,-0.01588248461484909,0.7984002828598022,0.07147117704153061
1772881564028183800,4.294183837890625,-0.014049889519810677,0.8668171167373657,-0.15515965223312378
1772881564045529000,4.311529052734375,-0.017715077847242355,0.8765909671783447,-0.4581485986709595
1772881564062874000,4.3288740234375,-0.007941242307424545,0.9230166673660278,-0.6774490475654602
1772881564080219100,4.34621923828125,-0.06108647957444191,0.934623122215271,-0.6988292932510376
1772881564097564200,4.363564208984375,-0.16554436087608337,0.9040798544883728,-0.5925388336181641
1772881564114909200,4.3809091796875,-0.2211330533027649,0.880256175994873,-0.5613847374916077
1772881564132254200,4.398254150390625,-0.2052505612373352,0.9046907424926758,-0.6682860851287842
1772881564149599200,4.41559912109375,-0.13133592903614044,0.943175196647644,-0.8472694754600525
1772881564166944300,4.4329443359375,-0.05436696484684944,1.0238093137741089,-0.9553925395011902
1772881564184289300,4.450289306640625,0.001832594396546483,1.1166608333587646,-0.972496747970581
1772881564201634300,4.46763427734375,0.06047561392188072,1.1123847961425781,-0.8710931539535522
1772881564218979600,4.4849794921875,0.0720820426940918,1.0164790153503418,-0.695164144039154
1772881564236324600,4.50232470703125,0.1484401375055313,1.0677915811538696,-0.5729911923408508
1772881564253669600,4.519669677734375,0.3127627670764923,1.2357794046401978,-0.4770853817462921
1772881564271014700,4.5370146484375,0.5992583632469177,1.6084070205688477,-0.37690356373786926
1772881564288359700,4.554359619140625,0.7464767694473267,1.8521419763565063,-0.37690356373786926
1772881564305704700,4.57170458984375,0.6609556674957275,2.0604469776153564,-0.3426951467990875
1772881564323049700,4.5890498046875,0.5033525824546814,1.9834779500961304,-0.20769402384757996
1772881564340394800,4.606394775390625,0.268169641494751,1.5680898427963257,-0.10751219838857651
1772881564357739800,4.62373974609375,0.09957095980644226,1.1850776672363281,-0.12278381735086441
1772881564375084800,4.641084716796875,-0.008552107028663158,0.9272927641868591,-0.23518294095993042
1772881564392430000,4.65843017578125,0.03237583488225937,0.6310232877731323,-0.2620609998703003
1772881564409775000,4.675775146484375,0.0824667438864708,0.41416633129119873,-0.17165300250053406
1772881564427120000,4.6931201171875,-0.023212861269712448,0.22724169492721558,-0.09834922850131989
1772881564444465200,4.710465087890625,-0.06475166976451874,0.09896009415388107,-0.0824667438864708
1772881564461810200,4.72781005859375,-0.06841685622930527,-0.08491020649671555,-0.034208428114652634
1772881564479155200,4.7451552734375,-0.10201441496610641,-0.4153880476951599,-0.09712749719619751
1772881564496500200,4.762500244140625,-0.13561198115348816,-0.4825831651687622,-0.0922405794262886
1772881564513845200,4.77984521484375,-0.15271618962287903,-0.46059203147888184,-0.020158538594841957
1772881564531190300,4.797190185546875,-0.2009745091199875,-0.6090322136878967,0.08063415437936783
1772881564548535600,4.81453564453125,-0.33658650517463684,-0.9309579133987427,0.1649334877729416
1772881564565880300,4.83188037109375,-0.5766563415527344,-1.1655299663543701,0.20769402384757996
1772881564583225600,4.8492255859375,-0.823445737361908,-1.490510106086731,0.3329212963581085
1772881564600570600,4.866570556640625,-0.6811142563819885,-1.7837251424789429,0.45875945687294006
1772881564617915600,4.88391552734375,-0.4471530318260193,-1.8099923133850098,0.56382817029953
1772881564635260700,4.9012607421875,-0.40927940607070923,-1.68354332447052,0.6243038177490234
1772881564652605700,4.918605712890625,-0.3500255048274994,-1.6071852445602417,0.6194168925285339
1772881564669950700,4.93595068359375,-0.3274235129356384,-1.588248372077942,0.5338957905769348
1772881564687295700,4.953295654296875,-0.3634645342826843,-1.6939280033111572,0.4404335021972656
1772881564704641000,4.97064111328125,-0.4221075773239136,-1.4227041006088257,0.4508182108402252
1772881564721985800,4.98798583984375,-0.42943793535232544,-1.2253947257995605,0.5772672295570374
1772881564739331000,5.0053310546875,-0.35735589265823364,-1.1716386079788208,0.7006618976593018
1772881564756676000,5.022676025390625,-0.3390299379825592,-1.1117738485336304,0.8472694754600525
1772881564774021000,5.040021240234375,-0.28954991698265076,-0.9395100474357605,0.8118392825126648
1772881564791366100,5.0573662109375,-0.1496618688106537,-0.7709113359451294,0.6737838387489319
1772881564808711200,5.074711181640625,-0.06780599057674408,-0.6896663308143616,0.6004800796508789
1772881564826056200,5.09205615234375,0.0054977829568088055,-0.6175842881202698,0.5894845128059387
1772881564843401200,5.109401123046875,0.08002328872680664,-0.5760455131530762,0.5473348498344421
1772881564860746500,5.12674658203125,0.2718348205089569,-0.535728394985199,0.4612029194831848
1772881564878091500,5.144091552734375,0.48930269479751587,-0.4013381600379944,0.46486809849739075
1772881564895436500,5.1614365234375,0.6029235124588013,-0.42882707715034485,0.5082395076751709
1772881564912781600,5.178781494140625,0.6145299673080444,-0.7898481488227844,0.6133082509040833
1772881564930126600,5.196126708984375,0.5803215503692627,-0.4923570156097412,0.6725621223449707
1772881564947471600,5.2134716796875,0.47464191913604736,-0.41355544328689575,0.6304124593734741
1772881564964816600,5.230816650390625,0.3946186602115631,-0.34574946761131287,0.5143481492996216
1772881564982162000,5.248161865234375,0.4404335021972656,0.018325943499803543,0.3585776388645172
1772881564999507000,5.2655068359375,0.46425724029541016,0.2003636509180069,0.23273947834968567
1772881565016852000,5.28285205078125,0.4972439408302307,0.3756818473339081,0.11362084746360779
1772881565034197000,5.300197021484375,0.5094612240791321,0.48013970255851746,-0.001221729558892548
1772881565051542000,5.3175419921875,0.4575377106666565,0.5876519083976746,-0.0616973415017128
1772881565068887000,5.334886962890625,0.3597993552684784,0.6316341757774353,-0.13683371245861053
1772881565086232300,5.352232421875,0.24984370172023773,0.6743947267532349,-0.2663370370864868
1772881565103577300,5.369577392578125,0.16310089826583862,0.648127555847168,-0.3756818473339081
1772881565120922400,5.38692236328125,0.04520399495959282,0.6071996092796326,-0.35796675086021423
1772881565138267400,5.404267333984375,-0.16126830875873566,0.4196641147136688,-0.25411975383758545
1772881565155612400,5.4216123046875,-0.35613417625427246,0.2107483446598053,-0.1233946830034256
1772881565172957400,5.43895751953125,-0.3946186602115631,0.11423171311616898,-0.08124501258134842
1772881565190302500,5.456302490234375,-0.26022839546203613,0.12767073512077332,-0.1539379209280014
1772881565207647700,5.473647705078125,-0.06291907280683517,0.1484401375055313,-0.2767217457294464
1772881565224992800,5.49099267578125,0.07452550530433655,0.30604326725006104,-0.36835145950317383
1772881565242337800,5.508337890625,0.16676609218120575,0.49418962001800537,-0.4318813979625702
1772881565259682800,5.525682861328125,0.23518294095993042,0.6743947267532349,-0.5283980369567871
1772881565277027800,5.54302783203125,0.25534147024154663,0.7531962990760803,-0.6267472505569458
1772881565294372900,5.560372802734375,0.3090975880622864,1.0720677375793457,-0.8210022449493408
1772881565311718000,5.5777177734375,0.4056142270565033,1.4373648166656494,-0.998763918876648
1772881565329063200,5.595063232421875,0.4667007029056549,2.1197006702423096,-0.9657772183418274
1772881565346408200,5.612408203125,0.3995055556297302,2.4831652641296387,-0.7788525819778442
1772881565363753200,5.629753173828125,0.0922405794262886,2.2864668369293213,-0.6041452884674072
1772881565381098200,5.64709814453125,-0.19608759880065918,1.7232495546340942,-0.40317076444625854
1772881565398443300,5.664443359375,-0.3964512348175049,1.3744457960128784,-0.3139844834804535
1772881565415788300,5.681788330078125,-0.4783071279525757,1.1197150945663452,-0.4068359434604645
1772881565433133300,5.69913330078125,-0.5571087002754211,0.7990111112594604,-0.49052441120147705
1772881565450478300,5.716478271484375,-0.6328558921813965,0.6047561168670654,-0.5381718873977661
1772881565467823600,5.73382373046875,-0.7794634699821472,0.6432406306266785,-0.5803215503692627
1772881565485168600,5.751168701171875,-0.8289434909820557,0.5913171172142029,-0.5039634704589844
1772881565502513700,5.768513671875,-0.822834849357605,0.29077163338661194,-0.3805687427520752
1772881565519858700,5.785858642578125,-0.8313869833946228,-0.033597562462091446,-0.29626941680908203
1772881565537203700,5.80320361328125,-0.8014546036720276,-0.2162461280822754,-0.2779434621334076
1772881565554548700,5.820548828125,-0.7867938280105591,-0.3078758418560028,-0.25473061203956604
1772881565571894000,5.83789404296875,-0.7880155444145203,-0.3585776388645172,-0.2412915825843811
1772881565589239000,5.855239013671875,-0.8881973624229431,-0.48075059056282043,-0.12583814561367035
1772881565606584000,5.872583984375,-0.9804379940032959,-0.6462949514389038,0.10140355676412582
1772881565623929000,5.88992919921875,-1.110552191734314,-0.8466585874557495,0.20647229254245758
1772881565641274000,5.907274169921875,-1.120326042175293,-1.1520910263061523,0.2822195291519165
1772881565658619100,5.924619140625,-0.9022472500801086,-1.4947861433029175,0.21135921776294708
1772881565675964400,5.94196435546875,-0.8295543789863586,-1.7708970308303833,0.11911863088607788
1772881565693309400,5.959309326171875,-0.7452550530433655,-1.748905897140503,0.09957095980644226
1772881565710654500,5.976654541015625,-0.5326740741729736,-1.464242935180664,0.0665842592716217
1772881565727999500,5.99399951171875,-0.3634645342826843,-1.0403027534484863,0.15027274191379547
1772881565745344500,6.011344482421875,-0.37262752652168274,-0.4098902642726898,0.4172206521034241
1772881565762689500,6.028689453125,-0.35246896743774414,-0.37751442193984985,0.6145299673080444
1772881565780034600,6.04603466796875,-0.26022839546203613,-0.39400777220726013,0.6536253094673157
1772881565797379600,6.063379638671875,-0.11972949653863907,-0.19425499439239502,0.6860011219978333
1772881565814724900,6.080724853515625,0.002443459117785096,-0.0665842592716217,0.7373138070106506
1772881565832070000,6.09806982421875,0.06475166976451874,-0.06536252796649933,0.7874047160148621
1772881565849415000,6.115414794921875,0.11545344442129135,-0.16249002516269684,0.7690787315368652
1772881565866760000,6.132760009765625,0.2315177470445633,-0.20219624042510986,0.7984002828598022
1772881565884105000,6.15010498046875,0.34086254239082336,-0.19914191961288452,0.8240565657615662
1772881565901450200,6.1674501953125,0.38301220536231995,-0.21685700118541718,0.8924734592437744
1772881565918795300,6.184795166015625,0.3750709891319275,-0.6035344004631042,0.9865466356277466
1772881565936140300,6.202140380859375,0.26511532068252563,-0.24923282861709595,1.0201442241668701
1772881565953485300,6.2194853515625,0.2883281707763672,-0.07086031138896942,0.870482325553894
1772881565970830300,6.236830322265625,0.26511532068252563,0.06902772188186646,0.6731730103492737
1772881565988175600,6.254175537109375,0.22846342623233795,0.25534147024154663,0.6157516837120056
1772881566005520600,6.271520751953125,0.17226386070251465,0.25350889563560486,0.5839866995811462
1772881566022865700,6.28886572265625,0.17653992772102356,0.3023780584335327,0.526565432548523
1772881566040210700,6.306210693359375,0.2107483446598053,0.4514290690422058,0.4428769648075104
1772881566057555700,6.3235556640625,0.21746785938739777,0.6120865345001221,0.35246896743774414
1772881566074900700,6.340900634765625,0.19120067358016968,0.7788525819778442,0.28527384996414185
1772881566092246000,6.35824609375,0.11667517572641373,0.8374956250190735,0.16249002516269684
1772881566109591000,6.375591064453125,0.1130099818110466,0.9498947262763977,-0.007941242307424545
1772881566126936000,6.39293603515625,0.05070177838206291,0.9224058389663696,-0.07757982611656189
1772881566144281000,6.410281005859375,-0.10445787757635117,0.6236929297447205,-0.11056652665138245
1772881566161626000,6.427626220703125,-0.20158538222312927,0.4978547990322113,-0.11972949653863907
1772881566178971400,6.444971435546875,-0.1795942485332489,0.4838049113750458,-0.09590577334165573
1772881566196316400,6.46231640625,-0.0720820426940918,0.337808221578598,-0.11056652665138245
1772881566213661400,6.479661376953125,0.07757982611656189,0.48441576957702637,-0.13439024984836578
1772881566231006500,6.49700634765625,0.26511532068252563,0.7703005075454712,-0.2938259541988373
1772881566248351500,6.5143515625,0.4373791813850403,1.0781763792037964,-0.5778780579566956
1772881566265696500,6.531696533203125,0.5485565662384033,1.166751742362976,-0.8619301915168762
1772881566283041800,6.549041748046875,0.6548470258712769,1.3927717208862305,-1.0097594261169434
1772881566300386800,6.56638671875,0.667064368724823,1.8857395648956299,-0.7715222239494324
1772881566317731800,6.58373193359375,0.6499601006507874,2.6383249759674072,-0.3426951467990875
1772881566335076900,6.601076904296875,0.40866854786872864,2.733009099960327,-0.23396120965480804
1772881566352422000,6.618421875,0.17653992772102356,2.4550654888153076,-0.3958403766155243
1772881566369767000,6.635766845703125,-0.0513126403093338,2.2314889430999756,-0.5308414697647095
1772881566387112200,6.6531123046875,-0.18570289015769958,1.9016220569610596,-0.6536253094673157
1772881566404457200,6.670457275390625,-0.043371398001909256,1.4569125175476074,-0.6102539300918579
1772881566421802200,6.68780224609375,0.08124501258134842,0.7476984858512878,-0.09162971377372742
1772881566439147300,6.705147216796875,-0.27366742491722107,0.18814635276794434,0.12400554865598679
1772881566456492300,6.7224921875,-0.4978547990322113,0.23945899307727814,0.008552107028663158
1772881566473837300,6.73983740234375,-0.4929678738117218,0.11667517572641373,-0.05253437161445618
1772881566491182600,6.7571826171875,-0.4673115611076355,-0.03298669680953026,-0.01893680728971958
1772881566508527600,6.774527587890625,-0.5027416944503784,-0.22663083672523499,0.011606430634856224
1772881566525872600,6.79187255859375,-0.5106829404830933,-0.2828303873538971,0.06780599057674408
1772881566543217700,6.8092177734375,-0.5711585879325867,-0.4526508152484894,0.08857539296150208
1772881566560562700,6.826562744140625,-0.7379246354103088,-0.7916807532310486,0.08368847519159317
1772881566577907700,6.84390771484375,-0.9480621218681335,-1.0415244102478027,0.13011419773101807
1772881566595253000,6.8612529296875,-0.9914335608482361,-1.32985258102417,0.21868959069252014
1772881566612598000,6.878597900390625,-0.7385355234146118,-1.674991250038147,0.27977606654167175
1772881566629943000,6.895943115234375,-0.5607738494873047,-1.8448116779327393,0.3090975880622864
1772881566647288000,6.9132880859375,-0.5229002237319946,-2.059225082397461,0.3543015718460083
1772881566664633000,6.930633056640625,-0.45387253165245056,-2.246149778366089,0.38240134716033936
1772881566681978400,6.947978271484375,-0.2706131041049957,-2.164904832839966,0.3952295184135437
1772881566699323400,6.965323486328125,-0.2003636509180069,-1.6413936614990234,0.38728827238082886
1772881566716668400,6.98266845703125,-0.21991132199764252,-1.22234046459198,0.5345066785812378
1772881566734013400,7.000013427734375,-0.12278381735086441,-1.1319323778152466,0.7965676784515381
1772881566751358500,7.0173583984375,0.056810423731803894,-0.9334014058113098,0.8674280047416687
1772881566768703700,7.034703857421875,0.2828303873538971,-0.6359102129936218,0.7141009569168091
1772881566786048800,7.052048828125,0.5125155448913574,-0.5778780579566956,0.5180133581161499
1772881566803393800,7.069393798828125,0.45509424805641174,-0.7990111112594604,0.6902772188186646
1772881566820738800,7.08673876953125,0.24006985127925873,-0.8216131329536438,1.0983349084854126
1772881566838084000,7.104083984375,0.14049890637397766,-0.833219587802887,1.2577705383300781
1772881566855429000,7.12142919921875,0.2461785078048706,-0.9779945015907288,1.284037709236145
1772881566872774100,7.138774169921875,0.4416552484035492,-0.8735366463661194,1.2516618967056274
1772881566890119200,7.156119140625,0.6065887212753296,-0.9749401807785034,1.173471212387085
1772881566907464200,7.173464111328125,0.6023126840591431,-0.6774490475654602,0.7831286191940308
1772881566924809500,7.1908095703125,0.648127555847168,-0.5522217750549316,0.4825831651687622
1772881566942154500,7.208154541015625,0.564439058303833,-0.2718348205089569,0.44348782300949097
1772881566959499500,7.22549951171875,0.38667741417884827,-0.18814635276794434,0.5198459029197693
1772881566976844500,7.242844482421875,0.2669478952884674,0.05253437161445618,0.5247328281402588
1772881566994189600,7.260189453125,0.3243691921234131,0.4147771894931793,0.430659681558609
1772881567011534800,7.277534912109375,0.40744680166244507,0.7073814272880554,0.1899789422750473
1772881567028880000,7.2948798828125,0.5803215503692627,0.870482325553894,-0.32070401310920715
1772881567046225000,7.312224853515625,0.8167262077331543,1.05496346950531,-0.9755510687828064
1772881567063570000,7.32956982421875,1.0403027534484863,1.508836030960083,-1.4886775016784668
1772881567080915200,7.346915283203125,0.9731075763702393,1.444695234298706,-1.441640853881836
1772881567098260200,7.36426025390625,0.5564978122711182,1.053741693496704,-0.9291253089904785
1772881567115605200,7.381605224609375,0.13500112295150757,0.526565432548523,-0.6035344004631042
1772881567132950300,7.3989501953125,-0.036651886999607086,0.11239911615848541,-0.47586366534233093
1772881567150295300,7.41629541015625,-0.0256563201546669,0.18264856934547424,-0.3659079968929291
1772881567167640600,7.433640625,0.033597562462091446,0.6462949514389038,-0.3084867000579834
1772881567184985600,7.450985595703125,0.002443459117785096,1.1814124584197998,-0.35185810923576355
1772881567202330600,7.46833056640625,0,1.5906919240951538,-0.6249146461486816
1772881567219675600,7.485675537109375,0.1637117564678192,1.8338160514831543,-0.9193515181541443
1772881567237020700,7.503020751953125,0.34147340059280396,1.786779522895813,-1.0989457368850708
1772881567254366000,7.520365966796875,0.25411975383758545,1.452636480331421,-1.084285020828247
1772881567271711000,7.5377109375,0.10690133273601532,1.8576397895812988,-0.38240134716033936
1772881567289056000,7.555055908203125,-0.1380554437637329,1.6676608324050903,0.2974911332130432
1772881567306401000,7.572401123046875,-0.33231043815612793,1.68354332447052,0.42394015192985535
1772881567323746000,7.58974609375,-0.46547895669937134,1.3909391164779663,-0.09590577334165573
1772881567341091300,7.60709130859375,-0.2981020212173462,1.1869102716445923,-0.6078104376792908
1772881567358436400,7.624436279296875,-0.08857539296150208,1.1704169511795044,-0.6023126840591431
1772881567375781400,7.641781494140625,0.07635809481143951,0.7513636946678162,-0.39217519760131836
1772881567393126400,7.65912646484375,0.22174391150474548,0.2632827162742615,-0.23762640357017517
1772881567410471400,7.676471435546875,0.1649334877729416,-0.06597339361906052,-0.2565632164478302
1772881567427816700,7.693816650390625,-0.020158538594841957,-0.1185077652335167,-0.3836230933666229
1772881567445161700,7.71116162109375,-0.11545344442129135,-0.15699224174022675,-0.5436696410179138
1772881567462506800,7.7285068359375,-0.16859868168830872,-0.3225366175174713,-0.5900954008102417
1772881567479851800,7.745851806640625,-0.24495677649974823,-0.3903425931930542,-0.42882707715034485
1772881567497196800,7.76319677734375,-0.3536907136440277,-0.6462949514389038,-0.1692095398902893
1772881567514542000,7.7805419921875,-0.647516667842865,-1.0574069023132324,-0.05925388261675835
1772881567531887000,7.79788720703125,-0.8265000581741333,-1.3011419773101807,0.0030543238390237093
1772881567549232000,7.815232177734375,-0.9645555019378662,-1.422093152999878,0.12705987691879272
1772881567566577200,7.8325771484375,-0.9315688014030457,-1.554650902748108,0.012217295356094837
1772881567583922400,7.84992236328125,-0.8936951756477356,-1.6450588703155518,-0.1954767256975174
1772881567601267500,7.867267333984375,-0.7880155444145203,-1.451414704322815,-0.27977606654167175
1772881567618612500,7.884612548828125,-0.6524035930633545,-1.0305289030075073,-0.16004657745361328
1772881567635957500,7.90195751953125,-0.6352993845939636,-1.007315993309021,0.13744457066059113
1772881567653302500,7.919302490234375,-0.6872228980064392,-1.265711784362793,0.40866854786872864
1772881567670647800,7.936647705078125,-0.6798924803733826,-1.5210533142089844,0.46975502371788025
1772881567687992800,7.953992919921875,-0.5210676789283752,-1.2919789552688599,0.411722868680954
1772881567705337900,7.971337890625,-0.2883281707763672,-0.7079922556877136,0.35796675086021423
1772881567722683000,7.988682861328125,-0.03787361457943916,-0.5919279456138611,0.16004657745361328
1772881567740028200,8.006028076171875,0.0616973415017128,-0.7177661061286926,-0.0616973415017128
1772881567757373200,8.023373291015625,0.26389357447624207,-0.9065233469009399,-0.10567960888147354
1772881567774718200,8.04071826171875,0.20402882993221283,-0.7513636946678162,0.14110976457595825
1772881567792063200,8.058063232421874,0.046425722539424896,-0.6835576891899109,0.758083164691925
1772881567809408300,8.075408203125,-0.22357651591300964,-0.6914989352226257,1.4074324369430542
1772881567826753500,8.09275341796875,-0.5039634704589844,-0.9969313144683838,1.646891474723816
1772881567844098600,8.1100986328125,-0.5106829404830933,-1.065959095954895,1.2577705383300781
1772881567861443600,8.127443603515625,-0.21746785938739777,-0.6456840634346008,0.6921098232269287
1772881567878788600,8.14478857421875,0.11972949653863907,-0.13133592903614044,0.258395791053772
1772881567896134000,8.1621337890625,0.23396120965480804,0.2620609998703003,0.28588470816612244
1772881567913479000,8.17947900390625,0.1588248461484909,0.3433060050010681,0.5381718873977661
1772881567930824000,8.196823974609375,0.01649334840476513,0.2809978127479553,0.711046576499939
1772881567948169000,8.2141689453125,-0.1649334877729416,0.27977606654167175,0.7916807532310486
1772881567965514200,8.23151416015625,-0.2822195291519165,0.41905322670936584,0.750141978263855
1772881567982859300,8.248859375,-0.2522871494293213,0.7232639193534851,0.49113526940345764
1772881568000204300,8.266204345703125,-0.11423171311616898,0.9175189137458801,-0.04459312930703163
1772881568017549300,8.28354931640625,-0.002443459117785096,0.9663881063461304,-0.6560688018798828
1772881568034894300,8.300894287109376,0.07147117704153061,1.028085470199585,-1.1044435501098633
1772881568052239600,8.318239501953125,0.08124501258134842,0.8869756460189819,-1.1704169511795044
1772881568069584600,8.335584716796875,0.164322629570961,0.48075059056282043,-0.8912517428398132
1772881568086929700,8.3529296875,0.2522871494293213,0.21930044889450073,-0.38789913058280945
1772881568104274700,8.370274658203124,0.3805687427520752,0.35735589265823364,-0.1331685185432434
1772881568121620000,8.387619873046875,0.4770853817462921,0.62857985496521,-0.2559523284435272
1772881568138965000,8.404965087890625,0.5681042671203613,1.1160500049591064,-0.42088583111763
1772881568156310000,8.42231005859375,0.7336485981941223,1.6731586456298828,-0.48930269479751587
1772881568173655000,8.439655029296874,0.8112284541130066,2.27730393409729,-0.4862483739852905
1772881568191000000,8.457,0.7745765447616577,2.8118104934692383,-0.5161807537078857
1772881568208345300,8.474345458984375,0.5571087002754211,2.7348415851593018,-0.4471530318260193
1772881568225690400,8.4916904296875,0.2467893660068512,2.2583670616149902,-0.17287473380565643
1772881568243035400,8.509035400390625,0.000610864779446274,1.6682716608047485,0.1905898153781891
1772881568260380700,8.526380615234375,-0.20891575515270233,1.0592395067214966,0.18387030065059662
1772881568277725700,8.5437255859375,-0.32070401310920715,0.8851430416107178,-0.039706211537122726
1772881568295070700,8.56107080078125,-0.328645259141922,0.7874047160148621,-0.2162461280822754
1772881568312415700,8.578415771484375,-0.34636032581329346,0.5216785073280334,-0.0616973415017128
1772881568329760800,8.5957607421875,-0.44470956921577454,0.26878049969673157,0.1649334877729416
1772881568347105800,8.613105712890626,-0.554665207862854,-0.006719512399286032,0.20891575515270233
1772881568364451000,8.630451171875,-0.5400044918060303,-0.08429934084415436,0.03176496922969818
1772881568381796000,8.647796142578125,-0.535728394985199,-0.15210533142089844,-0.16615521907806396
1772881568399141000,8.66514111328125,-0.5558869242668152,-0.20891575515270233,-0.25350889563560486
1772881568416486400,8.682486328125,-0.6041452884674072,-0.34574946761131287,-0.21319180727005005
1772881568433831400,8.69983154296875,-0.6597339510917664,-0.5406153202056885,-0.12950333952903748
1772881568451176400,8.717176513671875,-0.7525854110717773,-0.9272927641868591,-0.07574722915887833
1772881568468521500,8.734521484375,-0.8582650423049927,-1.2510510683059692,-0.06414080411195755
1772881568485866500,8.751866455078124,-0.9101884961128235,-1.6572761535644531,0.01954767294228077
1772881568503211800,8.769211669921875,-0.9126319885253906,-2.087324857711792,0.13561198115348816
1772881568520556800,8.786556884765625,-0.8662062287330627,-2.3652684688568115,0.2528980076313019
1772881568537901800,8.80390185546875,-0.8900299668312073,-2.2583670616149902,0.19181154668331146
1772881568555246800,8.821246826171874,-0.8503237962722778,-1.7751730680465698,0.2406807243824005
1772881568572592000,8.838592041015625,-0.6731730103492737,-1.2064579725265503,0.3897317349910736
1772881568589937200,8.855937255859375,-0.4776962697505951,-0.8167262077331543,0.5338957905769348
1772881568607282200,8.8732822265625,-0.3035998046398163,-0.6835576891899109,0.545502245426178
1772881568624627200,8.890627197265625,-0.1649334877729416,-0.7220421433448792,0.4770853817462921
1772881568641972500,8.907972412109375,0.011606430634856224,-0.6041452884674072,0.4257727563381195
1772881568659317500,8.9253173828125,0.16859868168830872,-0.4471530318260193,0.44348782300949097
1772881568676662500,8.94266259765625,0.2461785078048706,-0.37262752652168274,0.5662716627120972
1772881568694007600,8.960007568359375,0.2889390289783478,-0.49052441120147705,0.6640099883079529
1772881568711352600,8.9773525390625,0.44409868121147156,-0.6811142563819885,0.7122683525085449
1772881568728697900,8.99469775390625,0.4276053309440613,-0.7189878225326538,0.7134900689125061
1772881568746043000,9.01204296875,0.46059203147888184,-1.008537769317627,0.7690787315368652
1772881568763388000,9.029387939453125,0.3555232882499695,-0.8399390578269958,0.7849612236022949
1772881568780733000,9.04673291015625,0.23884813487529755,-0.5259546041488647,0.7648026943206787
1772881568798078200,9.064078125,0.1740964651107788,-0.15760311484336853,0.6817250847816467
1772881568815423200,9.08142333984375,0.24740023910999298,-0.01649334840476513,0.5302306413650513
1772881568832768300,9.098768310546875,0.32070401310920715,0.13500112295150757,0.4410443603992462
1772881568850113500,9.116113525390626,0.3659079968929291,0.3836230933666229,0.3836230933666229
1772881568867458600,9.13345849609375,0.39767298102378845,0.6078104376792908,0.3182605504989624
1772881568884803600,9.150803466796875,0.40805765986442566,0.80389803647995,0.2571740746498108
1772881568902148600,9.168148681640625,0.37201663851737976,0.9419534802436829,0.1484401375055313
1772881568919494000,9.185493896484376,0.28038692474365234,0.9572250843048096,0.04214967042207718
1772881568936839000,9.2028388671875,0.21868959069252014,0.915075421333313,-0.04153880476951599
1772881568954184000,9.220183837890625,0.18875721096992493,0.7538071274757385,-0.11972949653863907
1772881568971529000,9.237529052734375,0.19425499439239502,0.6126973628997803,-0.1740964651107788
1772881568988874200,9.254874267578124,0.22846342623233795,0.5534434914588928,-0.2559523284435272
1772881569006219300,9.27221923828125,0.26450446248054504,0.5558869242668152,-0.36285367608070374
1772881569023564300,9.289564208984375,0.27977606654167175,0.7281508445739746,-0.47464191913604736
1772881569040909600,9.30690966796875,0.28466299176216125,0.8851430416107178,-0.6688969135284424
1772881569058254600,9.324254638671874,0.40866854786872864,1.1417062282562256,-0.94439697265625
1772881569075599600,9.341599609375,0.5436696410179138,1.7647883892059326,-1.026863694190979
1772881569092944600,9.358944580078125,0.6102539300918579,2.456287384033203,-0.8576541543006897
1772881569110290000,9.3762900390625,0.5601630210876465,3.2681264877319336,-0.5998691916465759
1772881569127635000,9.393635009765624,0.2559523284435272,3.2290313243865967,-0.4618137776851654
1772881569144980000,9.41097998046875,-0.043371398001909256,2.4880521297454834,-0.25961753726005554
1772881569162325000,9.428324951171875,-0.268169641494751,1.8356486558914185,-0.05253437161445618
1772881569179670000,9.445669921875,-0.40805765986442566,1.212566614151001,-0.17104214429855347
1772881569197015300,9.463015380859375,-0.41294458508491516,1.0470222234725952,-0.3860665261745453
1772881569214360300,9.4803603515625,-0.3750709891319275,1.0787872076034546,-0.33536475896835327
1772881569231705300,9.497705322265626,-0.30115634202957153,0.7195987105369568,-0.32681265473365784
1772881569249050400,9.51505029296875,-0.2571740746498108,0.32620179653167725,-0.3347539007663727
1772881569266395600,9.532395751953125,-0.3451386094093323,-0.015271619893610477,-0.44348782300949097
1772881569283740700,9.54974072265625,-0.45998117327690125,0.1026252806186676,-0.565049946308136
1772881569301085700,9.567085693359376,-0.5015199780464172,0.14172062277793884,-0.4984656572341919
1772881569318430700,9.5844306640625,-0.38789913058280945,0.12156209349632263,-0.347582072019577
1772881569335776000,9.60177587890625,-0.46608981490135193,0.01282816007733345,-0.053756099194288254
1772881569353121000,9.61912109375,-0.47952884435653687,-0.2809978127479553,0.14477495849132538
1772881569370466000,9.636466064453124,-0.40927940607070923,-0.9101884961128235,0.18081597983837128
1772881569387811000,9.65381103515625,-0.6224712133407593,-1.7122539281845093,-0.018325943499803543
1772881569405156000,9.671156005859375,-0.7715222239494324,-1.9468261003494263,-0.23273947834968567
1772881569422501400,9.68850146484375,-0.7055488228797913,-1.8258748054504395,-0.4098902642726898
1772881569439846400,9.705846435546874,-0.4789179861545563,-1.4398082494735718,-0.5351175665855408
1772881569457191400,9.72319140625,-0.37201663851737976,-0.9737184643745422,-0.4153880476951599
1772881569474536700,9.74053662109375,-0.4471530318260193,-0.8216131329536438,-0.2889390289783478
1772881569491881700,9.7578818359375,-0.4581485986709595,-0.9217949509620667,0.03237583488225937
1772881569509226800,9.775226806640624,-0.36651885509490967,-0.7971785664558411,0.5803215503692627
1772881569526571800,9.79257177734375,-0.37690356373786926,-0.2712239623069763,1.008537769317627
1772881569543917000,9.8099169921875,-0.2419024556875229,-0.06047561392188072,0.8106175661087036
1772881569561262000,9.827261962890624,-0.20402882993221283,-0.5485565662384033,0.03176496922969818
1772881569578607000,9.844607177734375,-0.2761108875274658,-1.5198315382003784,-0.7464767694473267
1772881569595952000,9.8619521484375,-0.4575377106666565,-2.506378173828125,-0.6414080262184143
1772881569613297400,9.87929736328125,0.0054977829568088055,-1.5558725595474243,0.536339282989502
1772881569630642400,9.896642333984374,-0.002443459117785096,-0.1178968995809555,1.9468261003494263
1772881569647987500,9.913987548828125,-0.27427828311920166,-0.20158538222312927,1.6310089826583862
1772881569665332500,9.93133251953125,-0.472198486328125,-0.7183769941329956,0.9315688014030457
1772881569682677800,9.948677734375,-0.328645259141922,-1.1166608333587646,0.618806004524231
1772881569700022800,9.966022705078124,-0.10445787757635117,-0.8753692507743835,0.545502245426178
1772881569717367800,9.983367919921875,0.1288924664258957,-0.6805033683776855,0.3860665261745453
1772881569734712800,10.000712890625,0.3066541254520416,-0.13439024984836578,0.35246896743774414
1772881569752058000,10.01805810546875,0.43004879355430603,0.4007273018360138,0.3707949221134186
1772881569769403100,10.035403076171875,0.4557051360607147,0.8491020202636719,0.2706131041049957
1772881569786748200,10.052748046875,0.29565855860710144,0.9804379940032959,0.02871064469218254
1772881569804093400,10.070093505859376,0.15210533142089844,0.84177166223526,-0.10201441496610641
1772881569821438500,10.0874384765625,0.12644900381565094,0.7440332770347595,-0.053145237267017365
1772881569838783500,10.104783447265625,0.20708316564559937,0.695164144039154,-0.004886918235570192
1772881569856128500,10.12212841796875,0.32620179653167725,0.711046576499939,-0.05925388261675835
1772881569873473800,10.139473876953126,0.4508182108402252,0.6511818766593933,-0.14477495849132538
1772881569890818800,10.15681884765625,0.6120865345001221,0.43310311436653137,-0.1802051067352295
1772881569908163800,10.174163818359375,0.7519745230674744,0.29626941680908203,-0.15760311484336853
1772881569925508900,10.1915087890625,0.9114102721214294,0.5674933791160583,-0.10751219838857651
1772881569942854100,10.208854248046874,1.0690133571624756,0.9334014058113098,-0.10567960888147354
1772881569960199200,10.22619921875,1.117882490158081,1.239444613456726,-0.19914191961288452
1772881569977544200,10.243544189453125,1.0965023040771484,1.444695234298706,-0.30482152104377747
1772881569994889500,10.260889404296876,1.007315993309021,1.7635666131973267,-0.3426951467990875
1772881570012234500,10.278234375,0.8851430416107178,2.1923937797546387,-0.1496618688106537
1772881570029579500,10.29557958984375,0.7128791809082031,2.367100954055786,-0.000610864779446274
1772881570046924500,10.312924560546875,0.5626064538955688,2.145967960357666,0.14110976457595825
1772881570064269800,10.330269775390626,0.34147340059280396,1.4972295761108398,0.18387030065059662
1772881570081614800,10.34761474609375,0.15271618962287903,0.7440332770347595,-0.025045456364750862
1772881570098960000,10.3649599609375,0.04214967042207718,0.46914416551589966,-0.10140355676412582
1772881570116305000,10.382304931640626,-0.023823726922273636,0.4312705397605896,-0.27366742491722107
1772881570133650200,10.399650146484374,-0.04764745384454727,0.27000224590301514,-0.3811796307563782
1772881570150995200,10.4169951171875,-0.10629047453403473,0.09590577334165573,-0.3909534513950348
1772881570168340200,10.43434033203125,-0.25961753726005554,0.033597562462091446,-0.31154105067253113
1772881570185685200,10.451685302734376,-0.4569268524646759,-0.0616973415017128,-0.11484257876873016
1772881570203030500,10.469030517578124,-0.43493571877479553,-0.205861434340477,-0.04520399495959282
1772881570220375600,10.48637548828125,-0.4318813979625702,-0.30604326725006104,-0.13439024984836578
1772881570237720600,10.503720458984375,-0.5192350745201111,-0.3451386094093323,-0.1954767256975174
1772881570255065900,10.52106591796875,-0.5766563415527344,-0.5571087002754211,-0.20219624042510986
1772881570272411000,10.538410888671875,-0.6524035930633545,-0.9700532555580139,-0.1441640853881836
1772881570289756000,10.555755859375,-0.6896663308143616,-1.278540015220642,-0.04214967042207718
1772881570307101000,10.573100830078126,-0.7238747477531433,-1.5033382177352905,0.014660755172371864
1772881570324446000,10.590446044921874,-0.9376774430274963,-1.868024468421936,0.059864748269319534
1772881570341791200,10.607791259765625,-1.0879502296447754,-2.3182318210601807,0.07819069176912308
1772881570359136300,10.62513623046875,-0.8833104968070984,-2.601673126220703,0.03237583488225937
1772881570376481300,10.642481201171876,-0.6560688018798828,-2.2870776653289795,0.1386663019657135
1772881570393826300,10.659826416015624,-0.5589412450790405,-1.5809180736541748,0.36712974309921265
1772881570411171600,10.677171630859375,-0.41416633129119873,-1.0286962985992432,0.4734202027320862
1772881570428516600,10.6945166015625,-0.25350889563560486,-0.8833104968070984,0.471587598323822
1772881570445861600,10.711861572265626,-0.16676609218120575,-1.0305289030075073,0.3854556679725647
1772881570463207000,10.72920703125,-0.03481929376721382,-1.1337649822235107,0.3756818473339081
1772881570480552000,10.746552001953125,0.0409279391169548,-1.1533126831054688,0.38667741417884827
1772881570497897000,10.76389697265625,0.03787361457943916,-1.2357794046401978,0.4789179861545563
1772881570515242000,10.781241943359374,0.0030543238390237093,-1.2400555610656738,0.7257073521614075
1772881570532587300,10.798587158203125,0.0769689604640007,-0.9450078010559082,0.8778126835823059
1772881570549932300,10.815932373046875,0.18081597983837128,-0.7715222239494324,0.8484911918640137
1772881570567277300,10.83327734375,0.2663370370864868,-0.8869756460189819,0.7971785664558411
1772881570584622600,10.85062255859375,0.14599667489528656,-0.7709113359451294,0.8820887207984924
1772881570601967600,10.867967529296875,0.02871064469218254,-0.8588758707046509,0.7929024696350098
1772881570619312600,10.885312744140625,0.040317077189683914,-0.5222893953323364,0.5913171172142029
1772881570636657700,10.90265771484375,0.1649334877729416,0.047036588191986084,0.4214966893196106
1772881570654003000,10.9200029296875,0.2864955961704254,0.4789179861545563,0.3426951467990875
1772881570671348000,10.937347900390625,0.3347539007663727,0.6896663308143616,0.3084867000579834
1772881570688693000,10.95469287109375,0.4050033390522003,0.9358448386192322,0.19364413619041443
1772881570706038300,10.972038330078124,0.4581485986709595,1.2174534797668457,-0.05864302068948746
1772881570723383300,10.98938330078125,0.47952884435653687,1.288313865661621,-0.3750709891319275
1772881570740728300,11.006728271484375,0.48441576957702637,1.1838558912277222,-0.6102539300918579
1772881570758073300,11.0240732421875,0.4159989058971405,0.8191696405410767,-0.6035344004631042
1772881570775418600,11.041418701171875,0.3078758418560028,0.5815432667732239,-0.29016077518463135
1772881570792763600,11.058763671875,0.2632827162742615,0.5082395076751709,-0.12400554865598679
1772881570810108700,11.076108642578125,0.3494146466255188,0.7342594861984253,-0.1905898153781891
1772881570827454000,11.093453857421874,0.5925388336181641,1.1215476989746094,-0.3811796307563782
1772881570844799000,11.110799072265625,0.7452550530433655,1.4813470840454102,-0.4935787320137024
1772881570862144000,11.12814404296875,0.8399390578269958,1.916893720626831,-0.430659681558609
1772881570879489000,11.145489013671876,0.7794634699821472,2.6835289001464844,-0.19608759880065918
1772881570896834300,11.162834228515624,0.5516108870506287,2.8875577449798584,0.009773836471140385
1772881570914179300,11.180179443359375,0.2926042377948761,2.3744313716888428,0.18814635276794434
1772881570931524400,11.1975244140625,0.031154103577136993,2.1306962966918945,0.25411975383758545
1772881570948869400,11.214869384765626,-0.18814635276794434,1.7629557847976685,0.08368847519159317
1772881570966214700,11.232214599609375,-0.3170388340950012,1.3103049993515015,-0.21135921776294708
1772881570983559700,11.2495595703125,-0.30054548382759094,1.2205078601837158,-0.44959646463394165
1772881571000904700,11.26690478515625,-0.31459537148475647,1.2333359718322754,-0.39278605580329895
1772881571018250000,11.28425,-0.3952295184135437,1.0867284536361694,-0.18325942754745483
1772881571035595000,11.301594970703125,-0.4404335021972656,0.7415898442268372,0.08002328872680664
1772881571052940000,11.31893994140625,-0.42271843552589417,0.19914191961288452,0.2052505612373352
1772881571070285000,11.33628515625,-0.41844236850738525,-0.046425722539424896,0.1905898153781891
1772881571087630300,11.35363037109375,-0.4776962697505951,0.006108647678047419,0.16554436087608337
1772881571104975400,11.370975341796875,-0.5302306413650513,-0.07635809481143951,0.22907429933547974
1772881571122320400,11.3883203125,-0.4471530318260193,-0.3555232882499695,0.1649334877729416
1772881571139665400,11.40566552734375,-0.38728827238082886,-0.8405499458312988,-0.017104214057326317
1772881571157010700,11.4230107421875,-0.6652317643165588,-1.5693116188049316,-0.21807873249053955
1772881571174355700,11.440355712890625,-0.8973603844642639,-1.8521419763565063,-0.2156352698802948
1772881571191700700,11.45770068359375,-0.8399390578269958,-1.9706497192382812,-0.07635809481143951
1772881571209046000,11.4750458984375,-0.4990765154361725,-2.026238441467285,0.03909534588456154
1772881571226391000,11.49239111328125,-0.4935787320137024,-2.1306962966918945,0.10629047453403473
1772881571243736000,11.509736083984375,-0.4257727563381195,-2.2980732917785645,0.11362084746360779
1772881571261081000,11.5270810546875,-0.35063639283180237,-2.140470266342163,0.22479823231697083
1772881571278426400,11.54442626953125,-0.2565632164478302,-1.7458515167236328,0.38240134716033936
1772881571295771400,11.561771484375,-0.007330377586185932,-1.2046253681182861,0.3744601011276245
1772881571313116400,11.579116455078125,0.2101374864578247,-1.0580178499221802,0.2822195291519165
1772881571330461700,11.596461669921876,0.3494146466255188,-1.120326042175293,0.10567960888147354
1772881571347806700,11.613806640625,0.41844236850738525,-1.3408482074737549,0.031154103577136993
1772881571365151700,11.63115185546875,0.20952661335468292,-1.580307126045227,0.47525280714035034
1772881571382496800,11.648496826171876,0.16310089826583862,-1.2064579725265503,1.284037709236145
1772881571399842000,11.665842041015624,0.14233149588108063,-0.9217949509620667,1.3756674528121948
1772881571417187000,11.68318701171875,0.20280711352825165,-1.5821397304534912,0.915686309337616
1772881571434532000,11.700531982421875,0.30054548382759094,-1.590080976486206,0.7617483735084534
1772881571451877400,11.71787744140625,0.3549124300479889,-1.4391974210739136,0.9352339506149292
1772881571469222400,11.735222412109374,0.2522871494293213,-1.1233803033828735,0.9285144805908203
1772881571486567400,11.7525673828125,0.17592905461788177,-0.7153226733207703,0.748920202255249
1772881571503912400,11.769912353515625,0.18081597983837128,-0.37323838472366333,0.7348703145980835
1772881571521257700,11.7872578125,0.1899789422750473,-0.04886918142437935,0.7929024696350098
1772881571538602800,11.804602783203125,0.17531819641590118,0.37690356373786926,0.7098248600959778
1772881571555947800,11.82194775390625,0.19303326308727264,0.6352993845939636,0.40317076444625854
1772881571573293000,11.83929296875,0.3952295184135437,0.9621120095252991,-0.04214967042207718
1772881571590638000,11.85663818359375,0.5772672295570374,1.2400555610656738,-0.6096430420875549
1772881571607983000,11.873983154296875,0.6835576891899109,1.5766420364379883,-1.0146464109420776
1772881571625328400,11.891328369140625,0.4880809485912323,1.2944225072860718,-1.193018913269043
1772881571642673400,11.90867333984375,0.19242240488529205,0.7641918659210205,-0.8124501705169678
1772881571660018400,11.926018310546874,0.04459312930703163,0.5235111117362976,-0.2614501118659973
1772881571677363500,11.943363525390625,0.017715077847242355,0.5723803043365479,-0.08918625861406326
1772881571694708700,11.960708740234375,0.0616973415017128,0.6976075768470764,-0.3707949221134186
1772881571712053800,11.9780537109375,0.17653992772102356,0.8674280047416687,-0.6774490475654602
1772881571729398800,11.995398681640625,0.2608392536640167,1.18446683883667,-0.6646208763122559
1772881571746743800,12.012743896484375,0.4056142270565033,1.7715078592300415,-0.5406153202056885
1772881571764089000,12.030089111328126,0.5656607747077942,2.6090035438537598,-0.4202749729156494
1772881571781434000,12.04743408203125,0.583375871181488,3.3176066875457764,-0.34208428859710693
1772881571798779100,12.064779052734375,0.3909534513950348,3.146564483642578,-0.4013381600379944
1772881571816124400,12.08212451171875,0.06841685622930527,2.6945245265960693,-0.2834412455558777
1772881571833469400,12.099469482421876,-0.3176496922969818,2.092211961746216,-0.12156209349632263
1772881571850814500,12.116814453125,-0.40378162264823914,1.470962405204773,-0.27550002932548523
1772881571868159700,12.13415966796875,-0.2571740746498108,0.9841031432151794,-0.4373791813850403
1772881571885504800,12.1515048828125,-0.06414080411195755,0.6792816519737244,-0.2260199636220932
1772881571902849800,12.168849853515624,-0.17165300250053406,0.3634645342826843,0.32620179653167725
1772881571920194800,12.18619482421875,-0.27550002932548523,-0.143553227186203,0.32620179653167725
1772881571937540000,12.2035400390625,-0.2877173125743866,-0.36224281787872314,0.11484257876873016
1772881571954885000,12.220885009765626,-0.3042106628417969,-0.379347026348114,-0.01282816007733345
1772881571972230100,12.238230224609374,-0.37690356373786926,-0.43004879355430603,-0.05070177838206291
1772881571989575200,12.2555751953125,-0.4923570156097412,-0.5974257588386536,0.09040798991918564
1772881572006920400,12.27292041015625,-0.6090322136878967,-0.8161153197288513,0.16187916696071625
1772881572024265500,12.290265380859376,-0.6389645338058472,-1.1349867582321167,0.12767073512077332
1772881572041610500,12.307610595703125,-0.6548470258712769,-1.4837905168533325,-0.007330377586185932
1772881572058955800,12.324955810546875,-0.675616443157196,-1.7782273292541504,-0.10567960888147354
1772881572076300800,12.34230078125,-0.5247328281402588,-2.164904832839966,-0.0818558782339096
1772881572093645800,12.359645751953124,-0.2620609998703003,-2.461174249649048,0.06352993845939636
1772881572110990800,12.376990966796875,-0.2461785078048706,-2.466671943664551,0.2919933497905731
1772881572128336100,12.394336181640625,-0.287106454372406,-2.1868958473205566,0.49113526940345764
1772881572145681200,12.41168115234375,-0.34574946761131287,-1.9303326606750488,0.5821541547775269
1772881572163026200,12.429026123046874,-0.2156352698802948,-1.6756020784378052,0.5094612240791321
1772881572180371500,12.446371337890625,-0.11972949653863907,-1.3237439393997192,0.3750709891319275
1772881572197716500,12.463716552734375,0.002443459117785096,-1.1899645328521729,0.26389357447624207
1772881572215061500,12.4810615234375,0.06108647957444191,-1.0977239608764648,0.1649334877729416
1772881572232406500,12.498406494140625,0.16310089826583862,-0.9352339506149292,0.20219624042510986
1772881572249751800,12.515751708984375,0.16615521907806396,-0.6982184648513794,0.4428769648075104
1772881572267096800,12.533096923828126,0.11117739230394363,-0.7269290685653687,0.627968966960907
1772881572284441900,12.55044189453125,0.03481929376721382,-1.2583814859390259,0.5754346251487732
1772881572301787100,12.567787109375,-0.13439024984836578,-1.284037709236145,0.5229002237319946
1772881572319132200,12.585132080078125,-0.05436696484684944,-1.3946043252944946,0.4410443603992462
1772881572336477200,12.602477294921876,0.08002328872680664,-1.073289394378662,0.4520399272441864
1772881572353822200,12.619822265625,0.03909534588456154,-0.6206386089324951,0.5082395076751709
1772881572371167500,12.63716748046875,0.06780599057674408,-0.20952661335468292,0.4935787320137024
1772881572388512500,12.654512451171875,0.21746785938739777,0.18325942754745483,0.4770853817462921
1772881572405857800,12.67185791015625,0.36224281787872314,0.5998691916465759,0.4685332775115967
1772881572423202800,12.689202880859375,0.4013381600379944,0.9450078010559082,0.4111120104789734
1772881572440547800,12.7065478515625,0.3799578845500946,1.0360267162322998,0.3127627670764923
1772881572457893000,12.72389306640625,0.3952295184135437,1.1081087589263916,0.17531819641590118
1772881572475238100,12.741238037109374,0.3952295184135437,1.0977239608764648,-0.059864748269319534
1772881572492583200,12.758583251953125,0.3341430425643921,1.0384701490402222,-0.2877173125743866
1772881572509928200,12.77592822265625,0.2107483446598053,0.8246674537658691,-0.4404335021972656
1772881572527273500,12.7932734375,0.11056652665138245,0.5534434914588928,-0.44409868121147156
1772881572544618500,12.810618408203124,0.164322629570961,0.5699368119239807,-0.5039634704589844
1772881572561963500,12.827963623046875,0.25900667905807495,0.8362739086151123,-0.7483093738555908
1772881572579308500,12.84530859375,0.47097674012184143,0.9993748068809509,-1.01708984375
1772881572596653800,12.86265380859375,0.7165443897247314,1.4856231212615967,-1.1429280042648315
1772881572613998800,12.879998779296875,0.7855721116065979,2.2394301891326904,-0.9028581380844116
1772881572631343900,12.89734375,0.7568614482879639,2.802036762237549,-0.5253437161445618
1772881572648689200,12.914689208984376,0.5558869242668152,2.9266531467437744,-0.2809978127479553
1772881572666034200,12.9320341796875,0.2718348205089569,2.5809037685394287,-0.205861434340477
1772881572683379200,12.949379150390625,0.05925388261675835,2.308458089828491,-0.20219624042510986
1772881572700724200,12.96672412109375,-0.0720820426940918,2.2278237342834473,-0.26939135789871216
1772881572718069500,12.984069580078126,-0.006108647678047419,1.796553373336792,-0.3494146466255188
1772881572735414500,13.00141455078125,-0.028099779039621353,0.7672461867332458,-0.13561198115348816
1772881572752759600,13.018759521484375,-0.205861434340477,0.21258094906806946,-0.0769689604640007
1772881572770104800,13.036104736328125,-0.337808221578598,0.32620179653167725,-0.11667517572641373
1772881572787449900,13.053449951171874,-0.3787361681461334,0.2834412455558777,0.08002328872680664
1772881572804795000,13.070794921875,-0.44348782300949097,-0.04153880476951599,0.3445277214050293
1772881572822140000,13.088139892578125,-0.5607738494873047,-0.45937031507492065,0.44409868121147156
1772881572839485200,13.105485107421876,-0.6334667801856995,-0.7128791809082031,0.3689623177051544
1772881572856830200,13.122830322265624,-0.7006618976593018,-0.7855721116065979,0.18570289015769958
1772881572874175200,13.14017529296875,-0.8649845123291016,-1.1838558912277222,-0.02626718580722809
1772881572891520500,13.1575205078125,-0.8173370957374573,-1.1899645328521729,-0.05925388261675835
1772881572908865500,13.174865478515626,-0.6633991599082947,-1.590080976486206,0.06597339361906052
1772881572926210600,13.19221044921875,-0.5907062292098999,-2.27730393409729,0.19853104650974274
1772881572943555600,13.2095556640625,-0.5088503360748291,-2.8258605003356934,0.3652971386909485
1772881572960900900,13.22690087890625,-0.41844236850738525,-2.7171266078948975,0.5577195286750793
1772881572978246000,13.244245849609374,-0.23945899307727814,-2.185063362121582,0.7953459620475769
1772881572995591000,13.2615908203125,-0.09468404203653336,-1.2895355224609375,0.7440332770347595
1772881573012936200,13.278936279296875,-0.000610864779446274,-1.0879502296447754,0.3121519088745117
1772881573030281200,13.29628125,0.06780599057674408,-1.284037709236145,-0.047036588191986084
1772881573047626200,13.313626220703124,0.27000224590301514,-1.2712095975875854,-0.12034036219120026
1772881573064971500,13.330971435546875,0.2712239623069763,-0.9425643682479858,0.23212862014770508
1772881573082316500,13.348316650390625,0.0360410213470459,-0.750141978263855,0.7324268817901611
1772881573099661600,13.36566162109375,-0.17287473380565643,-0.565049946308136,0.9798271059989929
1772881573117006600,13.383006591796875,-0.0977383628487587,-0.7922916412353516,0.7513636946678162
1772881573134352000,13.400351806640625,0.17287473380565643,-1.0293071269989014,0.7434224486351013
1772881573151697000,13.41769677734375,0.24312418699264526,-0.9798271059989929,0.8967494964599609
1772881573169042000,13.4350419921875,0.09712749719619751,-1.1527018547058105,0.7147117853164673
1772881573186387200,13.45238720703125,0.010384701192378998,-1.2370011806488037,0.4789179861545563
1772881573203732200,13.469732177734375,0.04581485688686371,-0.9694424271583557,0.41844236850738525
1772881573221077200,13.4870771484375,0.09040798991918564,-0.4935787320137024,0.47036588191986084
1772881573238422500,13.504422607421875,0.07880155742168427,0.10079269111156464,0.45448338985443115
1772881573255767600,13.521767578125,0.12461641430854797,0.5564978122711182,0.2730565667152405
1772881573273112600,13.539112548828125,0.1905898153781891,0.8881973624229431,-0.01954767294228077
1772881573290457900,13.556457763671874,0.22357651591300964,1.1087195873260498,-0.36774060130119324
1772881573307803000,13.573802978515625,0.33719736337661743,1.2644901275634766,-0.5717694163322449
1772881573325148000,13.59114794921875,0.2828303873538971,1.6047418117523193,-0.4618137776851654
1772881573342493000,13.608492919921876,0.18325942754745483,1.3408482074737549,-0.411722868680954
1772881573359838200,13.625838134765624,0.034208428114652634,1.0555742979049683,-0.3500255048274994
1772881573377183200,13.643183349609375,-0.07635809481143951,0.7257073521614075,-0.3237583339214325
1772881573394528300,13.6605283203125,0.08918625861406326,0.7104357481002808,-0.41355544328689575
1772881573411873500,13.67787353515625,0.22724169492721558,0.794124186038971,-0.5326740741729736
1772881573429218600,13.695218505859375,0.2883281707763672,0.8991929292678833,-0.7195987105369568
1772881573446563600,13.7125634765625,0.35185810923576355,1.1612539291381836,-0.9205732345581055
1772881573463908900,13.729908935546876,0.3591884970664978,1.582750678062439,-0.8784235715866089
1772881573481254000,13.74725390625,0.41416633129119873,2.274860382080078,-0.6957749724388123
1772881573498599000,13.764598876953125,0.5057960152626038,2.959028959274292,-0.5326740741729736
1772881573515944000,13.78194384765625,0.4880809485912323,3.0524911880493164,-0.6004800796508789
1772881573533289200,13.799289306640626,0.37323838472366333,2.7067418098449707,-0.7079922556877136
1772881573550634200,13.81663427734375,0.16004657745361328,2.386037826538086,-0.5595521330833435
1772881573567979300,13.833979248046875,-0.21441353857517242,1.6236785650253296,-0.23335035145282745
1772881573585324500,13.851324462890625,-0.3555232882499695,0.8778126835823059,-0.1288924664258957
1772881573602669600,13.868669677734376,-0.2779434621334076,0.6151408553123474,-0.08918625861406326
1772881573620014600,13.8860146484375,-0.2620609998703003,0.2730565667152405,0.04764745384454727
1772881573637359600,13.903359619140625,-0.4043924808502197,-0.16615521907806396,0.16004657745361328
1772881573654705000,13.920704833984376,-0.4868592321872711,-0.40378162264823914,0.07330377399921417
1772881573672050000,13.9380498046875,-0.5503891706466675,-0.565049946308136,-0.03787361457943916
1772881573689395200,13.955395263671875,-0.7373138070106506,-0.5668824911117554,-0.006719512399286032
1772881573706740200,13.972740234375,-0.8216131329536438,-0.80389803647995,0.14477495849132538
1772881573724085200,13.990085205078126,-0.7953459620475769,-0.8668171167373657,0.11178825795650482
1772881573741430300,14.00743017578125,-0.832608699798584,-1.191797137260437,-0.04153880476951599
1772881573758775600,14.024775634765625,-0.9388991594314575,-1.6865977048873901,-0.13744457066059113
1772881573776120600,14.04212060546875,-0.6139190793037415,-2.0744967460632324,-0.1081230640411377
1772881573793465600,14.059465576171876,-0.401949018239975,-2.2705843448638916,0.006719512399286032
1772881573810810600,14.076810546875,-0.389120876789093,-2.2864668369293213,0.21380266547203064
1772881573828156000,14.094156005859375,-0.471587598323822,-2.10992693901062,0.2974911332130432
1772881573845501000,14.1115009765625,-0.5589412450790405,-1.8478659391403198,0.2877173125743866
1772881573862846000,14.128845947265624,-0.4728093445301056,-1.3738348484039307,0.06108647957444191
1772881573880191200,14.146191162109375,-0.23029601573944092,-1.0806198120117188,-0.010995565913617611
1772881573897536300,14.163536376953125,-0.037262752652168274,-0.9773836731910706,0.2712239623069763
1772881573914881300,14.18088134765625,-0.11423171311616898,-0.49418962001800537,0.6823359727859497
1772881573932226300,14.198226318359374,-0.14782927930355072,-0.30054548382759094,0.8118392825126648
1772881573949571600,14.215571533203125,-0.07819069176912308,-0.6560688018798828,0.6041452884674072
1772881573966916600,14.23291650390625,0.017104214057326317,-0.9083559513092041,0.6560688018798828
1772881573984261600,14.25026171875,0.17898337543010712,-1.2437206506729126,0.7312051653862
1772881574001607000,14.26760693359375,0.14110976457595825,-1.1948515176773071,0.7971785664558411
1772881574018952000,14.284951904296875,0.1539379209280014,-1.1343759298324585,0.7562506198883057
1772881574036297000,14.302296875,0.16249002516269684,-1.0231984853744507,0.6359102129936218
1772881574053642000,14.31964208984375,0.08918625861406326,-0.7312051653862,0.5980366468429565
1772881574070987300,14.3369873046875,0.059864748269319534,-0.3591884970664978,0.5430588126182556
1772881574088332300,14.354332275390625,0.13683371245861053,0.043982263654470444,0.4886918365955353
1772881574105677600,14.371677490234376,0.24434591829776764,0.4416552484035492,0.4520399272441864
1772881574123022600,14.389022705078125,0.25473061203956604,0.8484911918640137,0.34147340059280396
1772881574140367600,14.40636767578125,0.28954991698265076,1.1398736238479614,0.11728604137897491
1772881574157713000,14.423712890625,0.3634645342826843,1.433699607849121,-0.16065743565559387
1772881574175058000,14.441057861328124,0.4318813979625702,1.5515965223312378,-0.47586366534233093
1772881574192403000,14.45840283203125,0.38667741417884827,1.3836086988449097,-0.6554579138755798
1772881574209748200,14.475748291015625,0.2987128794193268,0.9596685767173767,-0.646905779838562
1772881574227093200,14.49309326171875,0.22968515753746033,0.6817250847816467,-0.564439058303833
1772881574244438300,14.510438232421874,0.24556763470172882,0.5406153202056885,-0.6432406306266785
1772881574261783300,14.527783203125,0.42088583111763,0.6426297426223755,-0.8185588121414185
1772881574279128600,14.545128662109375,0.6792816519737244,0.8753692507743835,-1.0134246349334717
1772881574296473600,14.5624736328125,0.9957095980644226,1.2156208753585815,-1.0219768285751343
1772881574313818600,14.579818603515625,1.3060288429260254,1.839924693107605,-0.8460476994514465
1772881574331163600,14.59716357421875,1.390328288078308,2.5442519187927246,-0.6407971382141113
1772881574348509000,14.614509033203126,1.2534945011138916,2.9217662811279297,-0.46547895669937134
1772881574365854000,14.63185400390625,1.0500766038894653,2.794095516204834,-0.2565632164478302
1772881574383199000,14.649198974609375,0.6676751971244812,2.271806001663208,0.08368847519159317
1772881574400544300,14.666544189453125,0.0030543238390237093,1.7397428750991821,0.27916520833969116
1772881574417889300,14.68388916015625,-0.19853104650974274,1.2315033674240112,0.19669845700263977
1772881574435234300,14.701234375,-0.22418737411499023,0.8985821008682251,0.11484257876873016
1772881574452579300,14.718579345703125,-0.2052505612373352,0.3341430425643921,0.09651663154363632
1772881574469924600,14.735924560546875,-0.24862197041511536,0.18081597983837128,0.01649334840476513
1772881574487269600,14.75326953125,-0.37323838472366333,0.20647229254245758,-0.015271619893610477
1772881574504614700,14.77061474609375,-0.526565432548523,0.24801109731197357,0.07513637095689774
1772881574521960000,14.7879599609375,-0.5406153202056885,0.09285144507884979,0.18325942754745483
1772881574539305000,14.805304931640626,-0.536339282989502,-0.16187916696071625,0.2101374864578247
1772881574556650000,14.82264990234375,-0.6456840634346008,-0.4062250852584839,0.18203771114349365
1772881574573995300,14.839995361328125,-0.7507528066635132,-0.6829468011856079,0.04581485688686371
1772881574591340300,14.85734033203125,-0.7275399565696716,-0.9260709881782532,-0.1380554437637329
1772881574608685300,14.874685302734376,-0.7049379348754883,-1.2993093729019165,-0.2987128794193268
1772881574626030300,14.8920302734375,-0.9511164426803589,-1.8026620149612427,-0.337808221578598
1772881574643375600,14.909375732421875,-1.1233803033828735,-2.3793182373046875,-0.18753549456596375
1772881574660720600,14.926720703125,-0.6414080262184143,-2.9969027042388916,0.11606431007385254
1772881574678065700,14.944065673828124,-0.5821541547775269,-2.5491387844085693,0.22174391150474548
1772881574695411000,14.961410888671875,-0.4453204274177551,-1.7715078592300415,0.4575377106666565
1772881574712756000,14.978755859375,-0.2761108875274658,-0.9639446139335632,0.667064368724823
1772881574730101000,14.99610107421875,-0.09162971377372742,-0.5790998339653015,0.6908880472183228
1772881574747446000,15.013446044921874,0.06475166976451874,-0.4471530318260193,0.6530144214630127
1772881574764791300,15.030791259765625,0.22968515753746033,-0.44348782300949097,0.5937605500221252
1772881574782136300,15.04813623046875,0.3035998046398163,-0.544891357421875,0.5253437161445618
1772881574799481300,15.0654814453125,0.4465421438217163,-0.9706641435623169,0.47036588191986084
1772881574816826600,15.08282666015625,0.3634645342826843,-0.9272927641868591,0.4679224193096161
1772881574834171600,15.100171630859375,0.3390299379825592,-1.2822052240371704,0.5009090900421143
1772881574851516700,15.1175166015625,0.13744457066059113,-1.2119556665420532,0.4764745235443115
1772881574868862000,15.134862060546874,-0.000610864779446274,-0.9755510687828064,0.47952884435653687
1772881574886207000,15.15220703125,-0.05436696484684944,-0.6927206516265869,0.6071996092796326
1772881574903552000,15.169552001953125,-0.16249002516269684,-0.3225366175174713,0.7470875978469849
1772881574920897300,15.186897216796876,-0.13561198115348816,-0.04886918142437935,0.6841685771942139
1772881574938242300,15.2042421875,-0.028099779039621353,0.24984370172023773,0.6407971382141113
1772881574955587300,15.22158740234375,0.046425722539424896,0.4416552484035492,0.5308414697647095
1772881574972932600,15.2389326171875,0.07269290834665298,0.62857985496521,0.4630354940891266
1772881574990277600,15.256277587890626,0.14172062277793884,0.8582650423049927,0.3396408259868622
1772881575007622700,15.27362255859375,0.23945899307727814,1.0958913564682007,0.09590577334165573
1772881575024967700,15.2909677734375,0.318871408700943,1.2510510683059692,-0.27427828311920166
1772881575042313000,15.30831298828125,0.42271843552589417,1.388495683670044,-0.6450732350349426
1772881575059658000,15.325657958984374,0.4734202027320862,1.3646719455718994,-0.9187406301498413
1772881575077003000,15.3430029296875,0.47036588191986084,1.1716386079788208,-1.0555742979049683
1772881575094348300,15.360348388671875,0.43982264399528503,0.9401208758354187,-0.9920443892478943
1772881575111693300,15.377693359375,0.5369501113891602,1.2516618967056274,-0.7764091491699219
1772881575129038300,15.395038330078124,0.7507528066635132,1.8558071851730347,-0.21807873249053955
1772881575146383600,15.412383544921875,1.0592395067214966,2.3341143131256104,0.35674503445625305
1772881575163728600,15.429728759765625,1.0091485977172852,1.9095633029937744,0.17715078592300415
1772881575181073700,15.44707373046875,0.730594277381897,1.9608759880065918,-0.13194678723812103
1772881575198418700,15.464418701171875,0.3066541254520416,2.0916008949279785,-0.20830489695072174
1772881575215764000,15.481763916015625,-0.023823726922273636,1.805105447769165,-0.2559523284435272
1772881575233109000,15.49910888671875,-0.3329212963581085,1.1777472496032715,-0.33047783374786377
1772881575250454000,15.5164541015625,-0.5522217750549316,0.8491020202636719,-0.21807873249053955
1772881575267799300,15.53379931640625,-0.5589412450790405,0.730594277381897,-0.008552107028663158
1772881575285144300,15.551144287109375,-0.40805765986442566,0.8051197528839111,0.09468404203653336
1772881575302489300,15.5684892578125,-0.22968515753746033,0.7428115606307983,0.2614501118659973
1772881575319834600,15.585834716796874,-0.30604326725006104,0.20708316564559937,0.3744601011276245
1772881575337179600,15.6031796875,-0.4514290690422058,-0.27427828311920166,0.2559523284435272
1772881575354524700,15.620524658203125,-0.38728827238082886,-0.3964512348175049,-0.029932374134659767
1772881575371869700,15.63786962890625,-0.3640754222869873,-0.5314523577690125,-0.25961753726005554
1772881575389215000,15.655215087890625,-0.41294458508491516,-0.7183769941329956,-0.3995055556297302
1772881575406560000,15.67256005859375,-0.45998117327690125,-0.9871574640274048,-0.46914416551589966
1772881575423905000,15.689905029296876,-0.5424479246139526,-1.3585633039474487,-0.4789179861545563
1772881575441250300,15.707250244140624,-0.6310232877731323,-1.6633847951889038,-0.46425724029541016
1772881575458595300,15.72459521484375,-0.5693259835243225,-1.977980136871338,-0.41905322670936584
1772881575475940400,15.7419404296875,-0.30482152104377747,-2.151465654373169,-0.2987128794193268
1772881575493285400,15.759285400390626,-0.16798780858516693,-2.2430953979492188,-0.06047561392188072
1772881575510630700,15.776630615234374,-0.20769402384757996,-2.3988659381866455,0.2315177470445633
1772881575536648200,15.802648193359374,-0.26022839546203613,-1.694538950920105,0.6218603253364563
1772881575553993200,15.8199931640625,0.02626718580722809,-0.8558215498924255,0.8277217745780945
1772881575571338500,15.83733837890625,0.06902772188186646,-0.5778780579566956,0.8918625712394714
1772881575588683500,15.85468359375,0.16065743565559387,-0.9388991594314575,0.7104357481002808
1772881575606028500,15.872028564453124,0.268169641494751,-1.1563670635223389,0.6023126840591431
1772881575623373800,15.889373779296875,0.24984370172023773,-1.2516618967056274,0.729983389377594
1772881575640718800,15.90671875,0.2626718580722809,-1.459966778755188,0.9566142559051514
1772881575658064000,15.92406396484375,0.2260199636220932,-1.6694934368133545,1.0977239608764648
1772881575675409200,15.9414091796875,0.19730933010578156,-1.8686354160308838,0.8888082504272461
1772881575692754200,15.958754150390625,0.23762640357017517,-1.6963714361190796,0.6591231226921082
1772881575710099200,15.97609912109375,0.27855435013771057,-1.2101231813430786,0.6615665555000305
1772881575727444200,15.9934443359375,0.18203771114349365,-0.8118392825126648,0.5155698657035828
1772881575744789500,16.01078955078125,0.1698204129934311,-0.48502662777900696,0.1331685185432434
1772881575762134500,16.028134521484375,0.268169641494751,-0.08552107214927673,-0.009773836471140385
1772881575779479600,16.0454794921875,0.34086254239082336,0.23396120965480804,0.050090912729501724
1772881575796824800,16.062824951171876,0.3494146466255188,0.5320632457733154,0.09834922850131989
1772881575814169900,16.080169921875,0.32070401310920715,0.7623592615127563,0.026878049597144127
1772881575831515100,16.09751513671875,0.2993237376213074,0.8949168920516968,-0.09590577334165573
1772881575848860200,16.114860107421876,0.27977606654167175,1.045189619064331,-0.21930044889450073
1772881575866205200,16.132205078125,0.2260199636220932,1.081230640411377,-0.29138249158859253
1772881575883550200,16.14955029296875,0.16554436087608337,1.084285020828247,-0.3035998046398163
1772881575900895500,16.1668955078125,0.12705987691879272,0.9486730098724365,-0.3292561173439026
1772881575918240500,16.184240478515626,0.11972949653863907,0.9101884961128235,-0.3445277214050293
1772881575935585500,16.20158544921875,0.17531819641590118,0.9560033679008484,-0.46608981490135193
1772881575952930600,16.2189306640625,0.3225366175174713,1.1612539291381836,-0.6774490475654602
1772881575970275800,16.23627587890625,0.46364638209342957,1.591302752494812,-0.7800742983818054
1772881575987620900,16.253620849609376,0.5607738494873047,2.009134292602539,-0.7605266571044922
1772881576004966000,16.2709658203125,0.6230821013450623,2.797149896621704,-0.5406153202056885
1772881576022311200,16.288311279296874,0.5210676789283752,2.90282940864563,-0.43432486057281494
1772881576039656200,16.30565625,0.4367683231830597,2.646266222000122,-0.1698204129934311
1772881576057001200,16.323001220703127,0.26022839546203613,1.9004002809524536,0.14172062277793884
1772881576074346500,16.340346435546873,-0.021380268037319183,1.062904715538025,0.20647229254245758
1772881576091691500,16.35769140625,-0.2730565667152405,0.7629700899124146,0.08124501258134842
1772881576109036500,16.37503662109375,-0.389120876789093,0.8167262077331543,-0.06536252796649933
1772881576126381600,16.392381591796877,-0.30482152104377747,0.7379246354103088,-0.09712749719619751
1772881576143726800,16.409726806640624,-0.2510654330253601,0.43982264399528503,0.029932374134659767
1772881576161071900,16.42707177734375,-0.4098902642726898,0.0513126403093338,0.10751219838857651
1772881576178417000,16.4444169921875,-0.5839866995811462,-0.14172062277793884,0.09529490768909454
1772881576195762200,16.46176220703125,-0.6114756464958191,-0.21258094906806946,-0.014660755172371864
1772881576213107200,16.479107177734374,-0.5253437161445618,-0.3536907136440277,-0.16187916696071625
1772881576230452200,16.4964521484375,-0.43982264399528503,-0.4868592321872711,-0.26389357447624207
1772881576247797200,16.51379736328125,-0.4569268524646759,-0.8057306408882141,-0.35674503445625305
1772881576265142500,16.531142578125,-0.5302306413650513,-1.2693769931793213,-0.3756818473339081
1772881576282487600,16.548487548828124,-0.7012727856636047,-1.6896519660949707,-0.32131487131118774
1772881576299832600,16.56583251953125,-0.7250964641571045,-2.1056509017944336,-0.23945899307727814
1772881576317177900,16.583177734375,-0.6206386089324951,-2.4098615646362305,-0.1496618688106537
1772881576334523000,16.60052294921875,-0.6627882719039917,-2.467282772064209,-0.04214967042207718
1772881576351868000,16.617867919921874,-0.7507528066635132,-2.305403709411621,0.07330377399921417
1772881576369213000,16.635212890625,-0.7257073521614075,-1.8545855283737183,0.18570289015769958
1772881576386558200,16.65255810546875,-0.5027416944503784,-1.1282672882080078,0.3274235129356384
1772881576403903200,16.6699033203125,-0.37201663851737976,-0.6346884965896606,0.47525280714035034
1772881576421248300,16.687248291015624,-0.3225366175174713,-0.6224712133407593,0.5314523577690125
1772881576438593500,16.704593505859375,-0.33108872175216675,-0.7079922556877136,0.45326167345046997
1772881576455938600,16.7219384765625,-0.2816086709499359,-0.7648026943206787,0.4153880476951599
1772881576473283600,16.73928369140625,-0.3292561173439026,-0.8271108865737915,0.5015199780464172
1772881576490628600,16.756628662109375,-0.2309068888425827,-0.8668171167373657,0.6688969135284424
1772881576507974000,16.773973876953125,-0.14599667489528656,-1.1221586465835571,0.7226530313491821
1772881576525319000,16.79131884765625,-0.08368847519159317,-1.2180644273757935,0.6774490475654602
1772881576542664000,16.808663818359374,-0.05864302068948746,-1.1148282289505005,0.544891357421875
1772881576560009200,16.82600927734375,-0.03298669680953026,-0.7055488228797913,0.5277871489524841
1772881576577354200,16.843354248046875,-0.026878049597144127,-0.3640754222869873,0.5180133581161499
1772881576594699300,16.86069921875,0.026878049597144127,0.03909534588456154,0.44898560643196106
1772881576612044500,16.87804443359375,0.05436696484684944,0.4105011224746704,0.5216785073280334
1772881576629389600,16.8953896484375,0.09407317638397217,0.5577195286750793,0.5980366468429565
1772881576646734600,16.912734619140625,0.19181154668331146,0.7837395071983337,0.4923570156097412
1772881576664080000,16.930079833984376,0.31031930446624756,1.05496346950531,0.30054548382759094
1772881576681425000,16.9474248046875,0.4001164436340332,1.2418880462646484,0.1594357043504715
1772881576698770000,16.96477001953125,0.43982264399528503,1.3671153783798218,0.0360410213470459
1772881576716115200,16.982115234375,0.36285367608070374,1.2913681268692017,-0.0769689604640007
1772881576733460200,16.999460205078126,0.26389357447624207,1.0250310897827148,-0.14049890637397766
1772881576750805200,17.01680517578125,0.28405213356018066,0.7342594861984253,-0.20219624042510986
1772881576768150300,17.034150390625,0.360410213470459,0.7470875978469849,-0.2712239623069763
1772881576785495600,17.05149560546875,0.4166097939014435,0.7128791809082031,-0.48441576957702637
1772881576802840600,17.068840576171876,0.6206386089324951,0.80389803647995,-0.7929024696350098
1772881576820185600,17.086185546875,0.9297361969947815,1.2522728443145752,-0.916297197341919
1772881576837531000,17.10353076171875,1.1490366458892822,2.1087052822113037,-0.729983389377594
1772881576854876000,17.1208759765625,1.1563670635223389,2.776991367340088,-0.41416633129119873
1772881576872221000,17.138220947265626,0.963333785533905,3.1312928199768066,0.09896009415388107
1772881576889566000,17.15556591796875,0.6579013466835022,2.0109667778015137,0.36774060130119324
1772881576906911200,17.1729111328125,0.4831940531730652,1.740964651107788,0.40744680166244507
1772881576924256300,17.19025634765625,0.19792018830776215,1.9046764373779297,0.06536252796649933
1772881576941601300,17.207601318359377,-0.002443459117785096,1.7171409130096436,-0.4422661066055298
1772881576958946600,17.224946533203124,-0.19669845700263977,1.065959095954895,-0.5583304166793823
1772881576976291600,17.24229150390625,-0.268169641494751,0.4355465769767761,-0.3280344009399414
1772881576993636600,17.25963671875,-0.24006985127925873,0.3042106628417969,-0.05436696484684944
1772881577010982000,17.27698193359375,-0.3139844834804535,0.18081597983837128,0.020158538594841957
1772881577028327000,17.294326904296874,-0.4563159942626953,0.030543239787220955,0.03909534588456154
1772881577045672000,17.311671875,-0.4673115611076355,-0.08674279600381851,-0.01893680728971958
1772881577063017000,17.329016845703126,-0.48930269479751587,-0.21197007596492767,-0.056810423731803894
1772881577080362200,17.3463623046875,-0.5143481492996216,-0.4831940531730652,-0.0360410213470459
1772881577097707300,17.363707275390624,-0.6084213256835938,-0.8814778923988342,-0.18203771114349365
1772881577115052300,17.38105224609375,-0.6688969135284424,-1.2253947257995605,-0.23212862014770508
1772881577132397600,17.3983974609375,-0.8307760953903198,-1.7024801969528198,-0.14660754799842834
1772881577149742600,17.41574267578125,-0.9712749719619751,-1.9920300245285034,0.056810423731803894
1772881577167087600,17.433087646484374,-0.8265000581741333,-2.254701852798462,0.268169641494751
1772881577184432600,17.4504326171875,-0.5436696410179138,-2.481332778930664,0.3347539007663727
1772881577201778000,17.46777783203125,-0.4789179861545563,-2.372598886489868,0.401949018239975
1772881577219123000,17.485123046875,-0.46914416551589966,-2.0042474269866943,0.6102539300918579
1772881577236468000,17.502468017578124,-0.29504770040512085,-1.5766420364379883,0.6884446144104004
1772881577253813200,17.519813232421875,-0.13561198115348816,-1.119104266166687,0.6389645338058472
1772881577271158300,17.537158203125,-0.0360410213470459,-0.8283326625823975,0.638353705406189
1772881577288503300,17.55450341796875,0.03237583488225937,-0.896138608455658,0.5937605500221252
1772881577305848300,17.571848388671874,0.10934479534626007,-1.4049890041351318,0.4098902642726898
1772881577323193600,17.589193603515625,0.18570289015769958,-1.6077960729599,0.5338957905769348
1772881577340538600,17.60653857421875,0.24862197041511536,-1.025641918182373,0.9486730098724365
1772881577357883600,17.623883544921874,0.39278605580329895,-1.1979057788848877,0.8381064534187317
1772881577375229000,17.64122900390625,0.2809978127479553,-1.33290696144104,0.7024945020675659
1772881577392574000,17.658573974609375,0.21868959069252014,-1.5137228965759277,0.6133082509040833
1772881577409919000,17.6759189453125,0.1692095398902893,-1.3994911909103394,0.6151408553123474
1772881577427264300,17.69326416015625,0.12950333952903748,-1.1630865335464478,0.6334667801856995
1772881577444609300,17.710609375,0.14538581669330597,-0.6169734001159668,0.6866120100021362
1772881577461954300,17.727954345703125,0.18325942754745483,-0.1130099818110466,0.7483093738555908
1772881577479299300,17.74529931640625,0.185092031955719,0.38301220536231995,0.758083164691925
1772881577496644600,17.76264453125,0.16615521907806396,0.6902772188186646,0.6194168925285339
1772881577513989600,17.77998974609375,0.1948658674955368,0.8717040419578552,0.44959646463394165
1772881577531334700,17.797334716796875,0.29077163338661194,1.0097594261169434,0.29077163338661194
1772881577548680000,17.814679931640626,0.34208428859710693,1.0030399560928345,0.16798780858516693
1772881577566025000,17.83202490234375,0.3335321843624115,1.063515543937683,0.07024945318698883
1772881577583370000,17.849369873046875,0.3384190797805786,1.2675443887710571,-0.06719512492418289
1772881577600715300,17.86671533203125,0.3384190797805786,1.441640853881836,-0.27916520833969116
1772881577618060300,17.884060302734376,0.38728827238082886,1.3713914155960083,-0.6743947267532349
1772881577635405300,17.9014052734375,0.4776962697505951,1.3371829986572266,-1.1136064529418945
1772881577652750600,17.91875048828125,0.618806004524231,1.3188570737838745,-1.5015056133270264
1772881577670095600,17.936095703125,0.758083164691925,1.5070034265518188,-1.6004657745361328
1772881577687440600,17.953440673828126,0.7024945020675659,2.27730393409729,-1.0885610580444336
1772881577704785700,17.97078564453125,0.536339282989502,3.2895069122314453,-0.16737695038318634
1772881577722131000,17.988130859375,0.3017672002315521,3.020726442337036,0.5180133581161499
1772881577739476000,18.00547607421875,0.19608759880065918,1.737910270690918,0.4831940531730652
1772881577756821000,18.022821044921876,0.12461641430854797,1.4495820999145508,0.32681265473365784
1772881577774166000,18.040166015625,-0.18203771114349365,1.293811559677124,0.1637117564678192
1772881577791511300,18.05751123046875,-0.4923570156097412,1.349400281906128,-0.04581485688686371
1772881577808856300,18.074856201171876,-0.7348703145980835,1.1710277795791626,-0.31154105067253113
1772881577826201300,18.092201416015627,-0.8594867587089539,0.7648026943206787,-0.35246896743774414
1772881577843546600,18.109546630859374,-0.8081740736961365,0.35246896743774414,-0.3652971386909485
1772881577860891600,18.1268916015625,-0.5962040424346924,0.18692462146282196,-0.5192350745201111
1772881577878236700,18.144236572265626,-0.33108872175216675,0.31154105067253113,-0.5064069032669067
1772881577895581700,18.161581787109377,-0.3646862804889679,0.4159989058971405,-0.5015199780464172
1772881577912927000,18.178927001953124,-0.46608981490135193,0.23457208275794983,-0.3451386094093323
1772881577930272000,18.19627197265625,-0.4838049113750458,-0.43982264399528503,-0.1178968995809555
1772881577947617000,18.213616943359376,-0.5369501113891602,-1.135597586631775,-0.15515965223312378
1772881577964962300,18.23096240234375,-0.6921098232269287,-1.6016874313354492,-0.42943793535232544
1772881577982307300,18.248307373046874,-0.9566142559051514,-1.9608759880065918,-0.46425724029541016
1772881577999652400,18.26565234375,-0.9547816514968872,-2.120922565460205,-0.2938259541988373
1772881578016997600,18.28299755859375,-0.7739656567573547,-2.2058327198028564,-0.11972949653863907
1772881578034342700,18.3003427734375,-0.5949822664260864,-2.3316707611083984,-0.014049889519810677
1772881578051687700,18.317687744140624,-0.4868592321872711,-2.232100009918213,0.15149445831775665
1772881578069032700,18.33503271484375,-0.45875945687294006,-1.7513493299484253,0.5693259835243225
1772881578086378000,18.3523779296875,-0.27550002932548523,-1.2705987691879272,0.9040798544883728
1772881578103723000,18.369722900390624,-0.13561198115348816,-0.6652317643165588,1.0610721111297607
1772881578121068000,18.387068115234374,-0.012217295356094837,-0.4276053309440613,0.916297197341919
1772881578138413000,18.4044130859375,0.047036588191986084,-0.6719512343406677,0.37751442193984985
1772881578155758300,18.42175830078125,0.22907429933547974,-1.3060288429260254,-0.17348559200763702
1772881578173103400,18.439103271484374,0.42088583111763,-1.616348147392273,-0.23884813487529755
1772881578190448400,18.456448486328124,0.4251618981361389,-1.2541054487228394,0.42455101013183594
1772881578207793700,18.473793701171875,0.32620179653167725,-0.8698714375495911,0.8051197528839111
1772881578225138700,18.491138671875,0.20463970303535461,-1.4813470840454102,0.6725621223449707
1772881578242483700,18.508483642578124,0.07391463965177536,-1.784335970878601,0.5235111117362976
1772881578259829000,18.5258291015625,0.050090912729501724,-1.4764602184295654,0.7354812026023865
1772881578277174000,18.543174072265625,-0.05497783049941063,-0.9486730098724365,0.7446441650390625
1772881578294519000,18.56051904296875,-0.13011419773101807,-0.2974911332130432,0.5033525824546814
1772881578311864000,18.577864013671874,-0.09896009415388107,0.28466299176216125,0.4111120104789734
1772881578329209300,18.595209228515625,-0.06414080411195755,0.6316341757774353,0.4276053309440613
1772881578346554400,18.612554443359375,-0.0665842592716217,0.8387173414230347,0.3390299379825592
1772881578363899400,18.6298994140625,-0.007941242307424545,1.081230640411377,0.2101374864578247
1772881578381244700,18.64724462890625,0.08674279600381851,1.3720022439956665,0.09651663154363632
1772881578398589700,18.664589599609375,0.22418737411499023,1.6578869819641113,-0.09040798991918564
1772881578415934700,18.681934814453125,0.2834412455558777,1.72141695022583,-0.31459537148475647
1772881578433279700,18.69927978515625,0.28588470816612244,1.5748094320297241,-0.536339282989502
1772881578450625000,18.716625,0.2816086709499359,1.2284491062164307,-0.739757239818573
1772881578467970000,18.733969970703125,0.34574946761131287,1.025641918182373,-0.962722897529602
1772881578485315000,18.751315185546876,0.4172206521034241,0.9896009564399719,-1.084285020828247
1772881578502660400,18.768660400390626,0.48502662777900696,1.0739002227783203,-1.0384701490402222
1772881578520005400,18.78600537109375,0.5381718873977661,1.284037709236145,-0.6927206516265869
1772881578537350400,18.803350341796875,0.526565432548523,2.2198827266693115,0.015271619893610477
1772881578554695400,18.8206953125,0.6462949514389038,2.8014259338378906,0.3194822669029236
1772881578572040700,18.838040771484376,0.6921098232269287,2.866788387298584,0.18203771114349365
1772881578589385700,18.8553857421875,0.6035344004631042,2.6639811992645264,-0.17898337543010712
1772881578606730800,18.872730712890625,0.3842339515686035,2.4935500621795654,-0.34636032581329346
1772881578624076000,18.890075927734376,0.09529490768909454,2.1752893924713135,-0.3500255048274994
1772881578641421000,18.907421142578126,-0.22296564280986786,1.4233149290084839,-0.4868592321872711
1772881578658766000,18.92476611328125,-0.3555232882499695,0.9663881063461304,-0.4214966893196106
1772881578676111000,18.942111083984376,-0.318871408700943,0.7226530313491821,-0.28038692474365234
1772881578693456400,18.959456298828126,-0.1954767256975174,0.6010909676551819,-0.25045454502105713
1772881578710801400,18.976801513671877,-0.21991132199764252,0.5235111117362976,-0.21197007596492767
1772881578728146400,18.994146484375,-0.2987128794193268,0.22296564280986786,-0.15760311484336853
1772881578745491700,19.01149169921875,-0.37140578031539917,-0.19303326308727264,-0.17898337543010712
1772881578762836700,19.028836669921876,-0.4147771894931793,-0.46364638209342957,-0.1649334877729416
1772881578780181800,19.046181640625,-0.42088583111763,-0.5986474752426147,-0.17043127119541168
1772881578797526800,19.06352685546875,-0.44470956921577454,-0.6389645338058472,-0.17226386070251465
1772881578814872000,19.0808720703125,-0.4673115611076355,-0.8888082504272461,-0.15638138353824615
1772881578832217000,19.098217041015626,-0.545502245426178,-1.288313865661621,-0.1692095398902893
1772881578849562000,19.11556201171875,-0.7287616729736328,-1.7544035911560059,-0.06414080411195755
1772881578866907100,19.1329072265625,-0.6542361974716187,-2.0488405227661133,0.009773836471140385
1772881578884252400,19.15025244140625,-0.36224281787872314,-2.328005790710449,0.14782927930355072
1772881578901597400,19.167597412109377,-0.31459537148475647,-2.151465654373169,0.32559093832969666
1772881578918942500,19.1849423828125,-0.36163195967674255,-1.7049236297607422,0.5057960152626038
1772881578936287700,19.202287841796874,-0.2779434621334076,-1.351232886314392,0.5760455131530762
1772881578953632800,19.2196328125,-0.18081597983837128,-1.1325433254241943,0.6365211009979248
1772881578970977800,19.236977783203123,-0.16676609218120575,-0.8448259830474854,0.7623592615127563
1772881578988322800,19.25432275390625,-0.14172062277793884,-0.9181297421455383,0.7428115606307983
1772881579005668000,19.271668212890624,-0.0977383628487587,-1.2498292922973633,0.4776962697505951
1772881579023013000,19.28901318359375,-0.018325943499803543,-1.5131120681762695,0.3536907136440277
1772881579040358100,19.306358154296873,-0.09957095980644226,-1.377500057220459,0.676227331161499
1772881579057703400,19.323703369140624,-0.0054977829568088055,-1.2107340097427368,0.9065233469009399
1772881579075048400,19.34104833984375,-0.040317077189683914,-1.4379756450653076,0.9291253089904785
1772881579092393500,19.3583935546875,-0.043982263654470444,-1.5515965223312378,0.9749401807785034
1772881579109738500,19.375738525390624,-0.01282816007733345,-1.3121376037597656,1.0091485977172852
1772881579127083800,19.393083740234374,0.040317077189683914,-0.9694424271583557,0.8210022449493408
1772881579144428800,19.4104287109375,0.14294235408306122,-0.5754346251487732,0.6548470258712769
1772881579161773800,19.42777392578125,0.22235478460788727,-0.20341797173023224,0.657290518283844
1772881579179119000,19.445119140625,0.28588470816612244,0.0616973415017128,0.7128791809082031
1772881579196464000,19.462464111328124,0.35185810923576355,0.4612029194831848,0.6426297426223755
1772881579213809200,19.47980908203125,0.3347539007663727,0.8087849617004395,0.43860089778900146
1772881579231154200,19.497154296875,0.3182605504989624,0.9767727851867676,0.2467893660068512
1772881579248499500,19.51449951171875,0.31031930446624756,1.0244202613830566,0.03848448023200035
1772881579265844500,19.531844482421874,0.2779434621334076,1.05496346950531,-0.11239911615848541
1772881579283189500,19.549189453125,0.24862197041511536,0.9596685767173767,-0.21441353857517242
1772881579300534800,19.56653466796875,0.32681265473365784,0.9010255336761475,-0.37140578031539917
1772881579317879800,19.5838798828125,0.49052441120147705,0.8381064534187317,-0.4935787320137024
1772881579335224800,19.601224853515625,0.6676751971244812,0.9749401807785034,-0.5809323787689209
1772881579352570000,19.618570068359375,0.841160774230957,1.2174534797668457,-0.6243038177490234
1772881579369915100,19.6359150390625,0.9743293523788452,1.7434080839157104,-0.5186241865158081
1772881579387260200,19.65326025390625,0.9999856352806091,2.3872594833374023,-0.24434591829776764
1772881579404605200,19.670605224609375,1.0048725605010986,2.83319091796875,-0.049480047076940536
1772881579421950500,19.687950439453125,0.7922916412353516,2.422078847885132,-0.11056652665138245
1772881579439295500,19.70529541015625,0.4923570156097412,1.7091996669769287,-0.24006985127925873
1772881579456640500,19.722640625,0.19242240488529205,1.515555500984192,-0.2205221801996231
1772881579473985500,19.739985595703125,-0.08307760953903198,1.036637544631958,-0.0665842592716217
1772881579491330800,19.757330810546875,-0.31031930446624756,0.6194168925285339,0.0054977829568088055
1772881579508675800,19.77467578125,-0.4043924808502197,0.411722868680954,-0.09651663154363632
1772881579526020900,19.792020751953125,-0.3543015718460083,0.41905322670936584,-0.22479823231697083
1772881579543366100,19.8093662109375,-0.3536907136440277,0.39339691400527954,-0.20402882993221283
1772881579560711200,19.826711181640626,-0.48930269479751587,0.2926042377948761,-0.07086031138896942
1772881579578056200,19.84405615234375,-0.5082395076751709,0.021991131827235222,-0.12522727251052856
1772881579595401200,19.861401123046875,-0.516791582107544,-0.30115634202957153,-0.23823726177215576
1772881579612746500,19.87874658203125,-0.5070177912712097,-0.6371319890022278,-0.2919933497905731
1772881579630091500,19.896091552734376,-0.5375609993934631,-0.9364557266235352,-0.39339691400527954
1772881579647436500,19.9134365234375,-0.5778780579566956,-1.2046253681182861,-0.45020735263824463
1772881579664781600,19.930781494140625,-0.5968148708343506,-1.4520255327224731,-0.44348782300949097
1772881579682126800,19.948126953125,-0.7428115606307983,-1.7971642017364502,-0.42088583111763
1772881579699472000,19.965471923828126,-0.8344413042068481,-2.0635011196136475,-0.43860089778900146
1772881579716817000,19.98281689453125,-0.6212494969367981,-2.168570041656494,-0.36285367608070374
1772881579734162200,20.000162109375,-0.5760455131530762,-2.0806055068969727,-0.06291907280683517
1772881579751507200,20.017507080078126,-0.5913171172142029,-1.5735876560211182,0.2406807243824005
1772881579768852200,20.034852294921876,-0.544891357421875,-1.0622938871383667,0.3689623177051544
1772881579786197200,20.052197265625,-0.5100721120834351,-0.6487383842468262,0.38301220536231995
1772881579803542500,20.06954248046875,-0.5430588126182556,-0.7220421433448792,0.3597993552684784
1772881579820887600,20.086887451171876,-0.44959646463394165,-1.1129956245422363,0.3329212963581085
1772881579838232600,20.104232666015626,-0.3139844834804535,-1.2186752557754517,0.45020735263824463
1772881579855577900,20.121577880859373,-0.14049890637397766,-0.8918625712394714,0.7128791809082031
1772881579872923000,20.1389228515625,0.027488915249705315,-0.8692606091499329,0.8222240209579468
1772881579890268000,20.156267822265626,0.020769402384757996,-1.130099892616272,0.841160774230957
1772881579907613000,20.173613037109376,-0.0030543238390237093,-1.4746276140213013,0.9266818761825562
1772881579924958200,20.190958251953123,-0.1747073233127594,-1.8930699825286865,0.7415898442268372
1772881579942303200,20.20830322265625,-0.18264856934547424,-1.8185445070266724,0.6047561168670654
1772881579959648300,20.225648193359376,-0.08368847519159317,-1.2247838973999023,0.6010909676551819
1772881579976993500,20.24299365234375,-0.11545344442129135,-0.4679224193096161,0.555276095867157
1772881579994338600,20.260338623046874,-0.09285144507884979,-0.024434590712189674,0.40378162264823914
1772881580011683600,20.27768359375,0.03787361457943916,0.24251331388950348,0.24984370172023773
1772881580029028600,20.295028564453126,0.16004657745361328,0.5784889459609985,0.17653992772102356
1772881580046374000,20.312373779296873,0.14660754799842834,0.870482325553894,0.10506874322891235
1772881580063719000,20.329718994140624,0.13744457066059113,1.0592395067214966,0.0030543238390237093
1772881580081064000,20.34706396484375,0.14721840620040894,1.3066397905349731,-0.08124501258134842
1772881580098409000,20.364408935546876,0.18692462146282196,1.518609881401062,-0.164322629570961
1772881580115754200,20.381754150390623,0.25534147024154663,1.543655276298523,-0.3078758418560028
1772881580133099300,20.399099365234374,0.3488037884235382,1.3506220579147339,-0.5387827157974243
1772881580150444300,20.4164443359375,0.46914416551589966,1.1881320476531982,-0.7189878225326538
1772881580167789600,20.43378955078125,0.6291907429695129,1.2058470249176025,-0.7959567904472351
1772881580185134600,20.451134521484374,0.8118392825126648,1.5607595443725586,-0.7916807532310486
1772881580202479600,20.468479736328124,0.8619301915168762,2.2669191360473633,-0.48075059056282043
1772881580219824600,20.48582470703125,0.9474512934684753,2.615722894668579,-0.09407317638397217
1772881580237170000,20.503169921875,0.9498947262763977,2.640768527984619,-0.01588248461484909
1772881580254515000,20.520514892578124,0.7232639193534851,2.0097451210021973,-0.09468404203653336
1772881580271860000,20.53785986328125,0.35124725103378296,1.6872085332870483,-0.053756099194288254
1772881580289205200,20.555205322265625,-0.009162971749901772,1.4001020193099976,-0.04764745384454727
1772881580306550300,20.57255029296875,-0.21930044889450073,1.194240689277649,-0.15699224174022675
1772881580323895300,20.589895263671874,-0.2779434621334076,1.1850776672363281,-0.18325942754745483
1772881580341240300,20.607240234375,-0.24984370172023773,0.9334014058113098,-0.04581485688686371
1772881580358585600,20.624585693359375,-0.14294235408306122,0.5247328281402588,0.1954767256975174
1772881580375930600,20.6419306640625,-0.19364413619041443,0.06780599057674408,0.21258094906806946
1772881580393275600,20.659275634765624,-0.2724456787109375,-0.15699224174022675,0.10079269111156464
1772881580410621000,20.676620849609375,-0.3335321843624115,-0.29077163338661194,-0.02260199747979641
1772881580427966000,20.693966064453125,-0.36651885509490967,-0.500298261642456,-0.1795942485332489
1772881580445311000,20.71131103515625,-0.48502662777900696,-0.7904590368270874,-0.16126830875873566
1772881580462656000,20.728656005859374,-0.555276095867157,-1.0555742979049683,-0.1130099818110466
1772881580480001300,20.746001220703125,-0.5558869242668152,-1.2596031427383423,-0.1496618688106537
1772881580497346300,20.76334619140625,-0.5601630210876465,-1.4593559503555298,-0.2718348205089569
1772881580514691300,20.78069140625,-0.6615665555000305,-1.7434080839157104,-0.38728827238082886
1772881580532036400,20.798036376953124,-0.6230821013450623,-2.0635011196136475,-0.3958403766155243
1772881580549381600,20.815381591796875,-0.472198486328125,-2.2119414806365967,-0.27366742491722107
1772881580566726700,20.8327265625,-0.5033525824546814,-2.27730393409729,0.06475166976451874
1772881580584071700,20.85007177734375,-0.618806004524231,-2.254701852798462,0.36651885509490967
1772881580601416700,20.867416748046875,-0.6096430420875549,-2.171624183654785,0.4917461574077606
1772881580618762000,20.884761962890625,-0.48013970255851746,-1.7788382768630981,0.38667741417884827
1772881580636107000,20.90210693359375,-0.3170388340950012,-1.2986985445022583,0.40378162264823914
1772881580653452000,20.9194521484375,-0.19853104650974274,-1.1044435501098633,0.526565432548523
1772881580670797000,20.936797119140625,-0.07574722915887833,-1.0891718864440918,0.4361574649810791
1772881580688142300,20.954142333984375,0.049480047076940536,-1.1123847961425781,0.3249800503253937
1772881580705487400,20.9714873046875,0.07391463965177536,-1.0030399560928345,0.4776962697505951
1772881580722832400,20.988832275390624,0.13683371245861053,-1.0861176252365112,0.7910698652267456
1772881580740177700,21.006177734375,0.03298669680953026,-1.2247838973999023,1.0140355825424194
1772881580757522700,21.023522705078125,-0.12583814561367035,-1.5143338441848755,0.8753692507743835
1772881580774867700,21.04086767578125,-0.17165300250053406,-1.4043781757354736,0.676227331161499
1772881580792212700,21.058212646484375,-0.06291907280683517,-0.9187406301498413,0.5100721120834351
1772881580809558000,21.07555810546875,0.06597339361906052,-0.2761108875274658,0.3946186602115631
1772881580826903000,21.092903076171876,0.13072505593299866,0.1954767256975174,0.29443681240081787
1772881580844248000,21.110248046875,0.13194678723812103,0.4422661066055298,0.17898337543010712
1772881580861593300,21.12759326171875,0.1441640853881836,0.5778780579566956,0.12156209349632263
1772881580878938400,21.1449384765625,0.1893680840730667,0.7373138070106506,0.0616973415017128
1772881580896283400,21.162283447265626,0.2864955961704254,0.9572250843048096,-0.06963858753442764
1772881580913628400,21.17962841796875,0.318871408700943,1.056185245513916,-0.2926042377948761
1772881580930973700,21.1969736328125,0.31642794609069824,1.1875211000442505,-0.42455101013183594
1772881580948318700,21.214318603515625,0.3023780584335327,1.22234046459198,-0.48013970255851746
1772881580965663700,21.231663818359376,0.3445277214050293,1.0409135818481445,-0.5907062292098999
1772881580983008800,21.2490087890625,0.4373791813850403,0.8552106618881226,-0.7660244107246399
1772881581000354000,21.26635400390625,0.46486809849739075,0.8307760953903198,-0.8949168920516968
1772881581017699000,21.283698974609376,0.5852084755897522,1.0036507844924927,-0.963333785533905
1772881581035044000,21.301044189453126,0.7440332770347595,1.4715732336044312,-0.9315688014030457
1772881581052389400,21.318389404296877,0.7550288438796997,2.212552309036255,-0.6395754218101501
1772881581069734400,21.335734375,0.7764091491699219,2.883281707763672,-0.2107483446598053
1772881581087079400,21.353079345703126,0.6554579138755798,3.320050001144409,0.04276053607463837
1772881581104424400,21.370424560546876,0.2938259541988373,2.805091142654419,0.06780599057674408
1772881581121769700,21.387769775390623,0.004886918235570192,2.0250167846679688,0.07513637095689774
1772881581139114800,21.40511474609375,-0.1337793916463852,1.6817107200622559,0.039706211537122726
1772881581156459800,21.422459716796876,-0.22724169492721558,1.4868448972702026,-0.08307760953903198
1772881581173804800,21.4398046875,-0.31581708788871765,1.1575887203216553,-0.06352993845939636
1772881581191150000,21.457150146484373,-0.2522871494293213,0.7867938280105591,0.017104214057326317
1772881581208495000,21.4744951171875,-0.18631376326084137,0.258395791053772,0.1533270627260208
1772881581225840000,21.491840087890626,-0.29016077518463135,-0.11545344442129135,0.09407317638397217
1772881581243185400,21.509185302734377,-0.43371400237083435,-0.2614501118659973,0.03176496922969818
1772881581260530400,21.526530517578124,-0.5033525824546814,-0.34208428859710693,-0.07452550530433655
1772881581277875500,21.54387548828125,-0.5571087002754211,-0.46547895669937134,-0.11484257876873016
