time,seconds_elapsed,z,y,x
1772729278922386400,0.000386474609375,5.776273727416992,7.331608772277832,3.084348440170288
1772729278939733200,0.017733154296875,5.955735683441162,7.791030406951904,2.486142635345459
1772729278957080000,0.035080078125,6.072983741760254,8.523234367370605,3.081955671310425
1772729278974426600,0.052426513671875,6.262016773223877,9.497113227844238,4.089334011077881
1772729278990773500,0.0687734375,7.008577346801758,10.193424224853516,5.436492919921875
1772729279008120300,0.086120361328125,8.173882484436035,10.2747802734375,6.2189459800720215
1772729279034140400,0.112140380859375,8.7505521774292,9.906285285949707,5.288137912750244
1772729279051487200,0.1294873046875,8.303094863891602,8.307880401611328,6.424728870391846
1772729279068834000,0.146833984375,7.606783390045166,6.166304111480713,7.678567886352539
1772729279086180600,0.1641806640625,7.144968509674072,5.000999450683594,7.719245910644531
1772729279103527400,0.18152734375,6.604190349578857,4.493721008300781,7.2095746994018555
1772729279120874200,0.198874267578125,5.54177713394165,4.2831525802612305,5.675775527954102
1772729279138221000,0.216220947265625,4.4721856117248535,3.8333017826080322,4.309473514556885
1772729279155567900,0.23356787109375,3.1824541091918945,4.275974273681641,3.90987229347229
1772729279172914400,0.25091455078125,2.2755744457244873,5.936593055725098,4.237689018249512
1772729279190261200,0.26826123046875,2.194218397140503,7.401000499725342,4.579862594604492
1772729279207608000,0.285608154296875,1.8089739084243774,8.757730484008789,4.309473514556885
1772729279224955000,0.302954833984375,1.7060825824737549,8.992227554321289,4.235296249389648
1772729279242301700,0.3203017578125,3.7112679481506348,7.637889862060547,4.984249591827393
1772729279259648500,0.3376484375,5.819344520568848,7.020541667938232,5.103890895843506
1772729279276995000,0.3549951171875,4.780859470367432,7.774280548095703,3.483949661254883
1772729279294342000,0.372341796875,5.034498691558838,8.14516830444336,2.878565549850464
1772729279311688700,0.389688720703125,4.0079779624938965,8.087740898132324,2.6249263286590576
1772729279329035500,0.407035400390625,3.3547372817993164,8.200202941894531,2.3258235454559326
1772729279346382000,0.424382080078125,4.067798614501953,7.441678524017334,3.3068809509277344
1772729279363729000,0.44172900390625,4.058227062225342,6.664011001586914,3.6993038654327393
1772729279381075700,0.45907568359375,3.7495529651641846,5.460421085357666,4.381258487701416
1772729279398422500,0.476422607421875,3.6705899238586426,4.357329845428467,4.453042984008789
1772729279415769300,0.493769287109375,3.675375461578369,3.4648072719573975,4.1347975730896
1772729279433116000,0.511115966796875,4.835894584655762,3.7112679481506348,2.5435705184936523
1772729279450462700,0.528462646484375,5.85284423828125,4.682754039764404,2.0650060176849365
1772729279467809500,0.5458095703125,6.984649181365967,5.747560024261475,1.9142581224441528
1772729279485156400,0.56315625,6.704689025878906,4.867001056671143,3.689732551574707
1772729279502503200,0.580503173828125,5.039284706115723,2.5435705184936523,7.010970115661621
1772729279519849700,0.597849609375,5.089533805847168,0.9236295223236084,8.109275817871094
1772729279537196500,0.615196533203125,3.242274761199951,1.337587833404541,7.317251682281494
1772729279554543400,0.63254345703125,4.656432628631592,0.009571290574967861,7.216753005981445
1772729279571890200,0.64989013671875,4.347758769989014,0.7824530005455017,8.930013656616211
1772729279589237000,0.667237060546875,3.5150563716888428,3.177668571472168,9.269794464111328
1772729279606583600,0.68458349609375,3.7734813690185547,2.00518536567688,11.179266929626465
1772729279623930400,0.701930419921875,3.1657042503356934,1.3160524368286133,11.492727279663086
1772729279641277200,0.719277099609375,2.526820659637451,0.7465606927871704,12.835101127624512
1772729279658624000,0.7366240234375,1.545763373374939,0.031106693670153618,13.16530990600586
1772729279675970600,0.753970458984375,1.277767300605774,0.02153540402650833,13.60319709777832
1772729279693317400,0.7713173828125,2.806781053543091,1.2538390159606934,13.777873039245605
1772729279710664200,0.788664306640625,2.909672260284424,2.8833513259887695,13.88794231414795
1772729279728011000,0.806010986328125,3.0723843574523926,3.8189449310302734,14.612967491149902
1772729279745357800,0.82335791015625,3.9768712520599365,6.608976364135742,14.82114315032959
1772729279762704400,0.840704345703125,6.3361945152282715,10.358529090881348,13.509876251220703
1772729279780051200,0.85805126953125,10.750951766967773,9.779465675354004,14.112868309020996
1772729279797398000,0.87539794921875,9.116654396057129,8.583054542541504,15.775879859924316
1772729279814744800,0.892744873046875,9.346364974975586,5.733202934265137,15.232708930969238
1772729279832091400,0.91009130859375,9.142974853515625,3.5533416271209717,10.152746200561523
1772729279849438200,0.927438232421875,6.38165807723999,1.1437692642211914,6.300302028656006
1772729279866785000,0.944784912109375,5.575276851654053,-1.6414763927459717,4.883750915527344
1772729279884132600,0.962132568359375,5.4556355476379395,-5.843272686004639,4.986642360687256
1772729279901478700,0.979478759765625,4.941178798675537,-7.013363361358643,4.680361270904541
1772729279918825200,0.9968251953125,4.632504463195801,-4.1970109939575195,5.513063430786133
1772729279936172000,1.014172119140625,5.247459888458252,0.014356935396790504,5.982056617736816
1772729279953518800,1.031518798828125,4.871787071228027,1.8783657550811768,7.314858913421631
1772729279970865700,1.04886572265625,1.0432707071304321,-1.1461620330810547,11.624332427978516
1772729279988212200,1.066212158203125,-3.036491870880127,-4.534399032592773,14.08415412902832
1772729280005559000,1.08355908203125,-4.125226020812988,-4.620540618896484,13.670195579528809
1772729280022905900,1.10090576171875,-0.29431718587875366,-1.0528420209884644,11.753544807434082
1772729280040252700,1.118252685546875,1.674975872039795,-1.4333007335662842,12.028719902038574
1772729280057599200,1.13559912109375,4.297509670257568,-2.5914268493652344,12.978670120239258
1772729280074946000,1.152946044921875,6.723831653594971,-2.6871397495269775,13.311272621154785
1772729280092294000,1.1702939453125,5.773880958557129,0.16749759018421173,12.882957458496094
1772729280109639700,1.1876396484375,0.97148597240448,-0.8542376756668091,12.662817001342773
1772729280126986200,1.204986328125,2.0243279933929443,0.32303106784820557,12.16511058807373
1772729280144333000,1.2223330078125,1.4739787578582764,1.210768222808838,9.68375301361084
1772729280161680000,1.239679931640625,4.216153621673584,2.076970100402832,12.624532699584961
1772729280179026700,1.257026611328125,2.2205393314361572,4.335794448852539,15.431313514709473
1772729280196373500,1.27437353515625,-4.319045066833496,-4.275974273681641,15.175281524658203
1772729280213720000,1.291719970703125,-7.389036178588867,-3.610769271850586,9.796216011047363
1772729280231067000,1.30906689453125,-6.747759819030762,0.07417750358581543,5.733202934265137
1772729280248413700,1.32641357421875,-3.9122650623321533,2.289931297302246,5.843272686004639
1772729280265760300,1.34376025390625,-0.27756741642951965,2.012363910675049,6.8410797119140625
1772729280283107000,1.361107177734375,1.7276179790496826,0.8733802437782288,7.489534854888916
1772729280300454000,1.378453857421875,1.2969099283218384,-2.447857618331909,8.183453559875488
1772729280317800700,1.39580078125,-1.4572290182113647,-5.359922885894775,7.216753005981445
1772729280335147300,1.413147216796875,-1.4021940231323242,-6.745367050170898,4.515256404876709
1772729280352494000,1.430494140625,0.2105683982372284,-5.115854740142822,3.6083765029907227
1772729280369841000,1.4478408203125,4.632504463195801,-3.22552490234375,2.7254250049591064
1772729280387187700,1.465187744140625,6.393621921539307,-4.4650068283081055,4.642076015472412
1772729280404534300,1.4825341796875,-1.3663017749786377,2.909672260284424,2.282752752304077
1772729280421881000,1.499881103515625,3.8572301864624023,-6.51326322555542,7.0683979988098145
1772729280439228000,1.517227783203125,-2.857030153274536,-10.040284156799316,12.31825065612793
1772729280456574500,1.534574462890625,-9.035298347473145,-13.433306694030762,14.112868309020996
1772729280473921300,1.55192138671875,-0.638883650302887,-7.750352382659912,12.215359687805176
1772729280491268000,1.56926806640625,3.0484559535980225,-3.0795626640319824,9.035298347473145
1772729280508615000,1.586614990234375,5.343173027038574,-2.1272194385528564,7.401000499725342
1772729280525961500,1.60396142578125,5.132604598999023,-4.766502857208252,8.078168869018555
1772729280543308300,1.621308349609375,4.12761926651001,-6.6113691329956055,7.336394309997559
1772729280560655000,1.638655029296875,3.94097900390625,-6.448657035827637,8.788837432861328
1772729280578001700,1.656001708984375,2.589034080505371,-5.972485542297363,8.578269004821777
1772729280595348500,1.673348388671875,-0.12921242415905,-7.685746192932129,9.954142570495605
1772729280612695300,1.6906953125,-1.8400806188583374,-8.585447311401367,11.124232292175293
1772729280630042000,1.7080419921875,-1.9860427379608154,-9.07119083404541,11.81336498260498
1772729280647388700,1.725388671875,0.48574298620224,-9.219545364379883,10.63370418548584
1772729280664735500,1.742735595703125,0.1746760457754135,-8.779266357421875,8.642875671386719
1772729280682082300,1.760082275390625,-1.3615161180496216,-11.767901420593262,7.685746192932129
1772729280699429000,1.77742919921875,-5.848058700561523,-12.655638694763184,5.027320384979248
1772729280716775700,1.794775634765625,-9.454042434692383,-10.76530933380127,1.730010747909546
1772729280734122500,1.81212255859375,-6.2428741455078125,-7.525427341461182,0.851844847202301
1772729280751469300,1.82946923828125,-1.9884356260299683,-5.328815937042236,1.5720844268798828
1772729280768815900,1.84681591796875,-0.7824530005455017,-4.811966419219971,1.550549030303955
1772729280786162700,1.86416259765625,-1.5242279767990112,-4.058227062225342,1.9286150932312012
1772729280803509500,1.881509521484375,-2.1822543144226074,-3.9050865173339844,2.1056840419769287
1772729280820856000,1.89885595703125,-0.7513462901115417,-4.163511276245117,2.234896421432495
1772729280838203000,1.916202880859375,1.0169496536254883,-3.9912281036376953,2.029113531112671
1772729280855549700,1.9335498046875,2.2468605041503906,-8.906085968017578,3.565305709838867
1772729280872896500,1.950896484375,12.076576232910156,-23.07638168334961,12.416357040405273
1772729280890243000,1.9682431640625,3.6538400650024414,-18.46302032470703,4.261617183685303
1772729280907590000,1.98558984375,1.5146567821502686,-8.898907661437988,3.1920254230499268
1772729280924936700,2.002936767578125,-2.8666014671325684,-5.120640277862549,0.44027936458587646
1772729280942283300,2.020283203125,-3.1178479194641113,-4.47697114944458,-0.14835500717163086
1772729280959630000,2.037630126953125,-2.517249345779419,-5.1804609298706055,1.6390835046768188
1772729280976977000,2.054976806640625,0.4498506486415863,-5.9437713623046875,2.1918256282806396
1772729280994323500,2.072323486328125,3.656233072280884,-7.5326056480407715,1.9286150932312012
1772729281011670300,2.089670166015625,0.6364908218383789,-8.453842163085938,2.933600664138794
1772729281029017000,2.10701708984375,2.991028308868408,-10.736595153808594,3.735196113586426
1772729281046363600,2.12436376953125,5.3694939613342285,-14.964713096618652,6.807580471038818
1772729281063710500,2.14171044921875,5.154139995574951,-15.718451499938965,4.735395908355713
1772729281081057300,2.159057373046875,1.8640087842941284,-13.050455093383789,2.919243574142456
1772729281098403800,2.17640380859375,-0.7393822073936462,-9.698110580444336,1.2562319040298462
1772729281115750700,2.193750732421875,4.596612453460693,-11.430513381958008,3.2303106784820557
1772729281133097500,2.211097412109375,7.386643409729004,-14.498112678527832,7.393822193145752
1772729281150444300,2.2284443359375,3.565305709838867,-14.096117973327637,6.068198204040527
1772729281167790800,2.245790771484375,-1.210768222808838,-10.750951766967773,1.5337992906570435
1772729281185137700,2.2631376953125,-1.8065811395645142,-12.41396427154541,1.5170495510101318
1772729281202484500,2.280484375,-4.201796531677246,-11.248659133911133,3.328416347503662
1772729281219831000,2.2978310546875,-6.589833736419678,-7.630711555480957,1.0671988725662231
1772729281237177900,2.315177734375,-9.358329772949219,-6.154339790344238,1.0265209674835205
1772729281254524700,2.332524658203125,-10.74138069152832,-7.5326056480407715,0.6029912829399109
1772729281271871200,2.349871337890625,-10.688738822937012,-8.358129501342773,0.380458801984787
1772729281289218000,2.367218017578125,-6.953542709350586,-8.212167739868164,2.076970100402832
1772729281306564900,2.38456494140625,-3.87876558303833,-9.796216011047363,3.5294134616851807
1772729281323911400,2.401911376953125,-1.2993026971817017,-10.00439167022705,4.00319242477417
1772729281341258200,2.41925830078125,0.3756731450557709,-9.363115310668945,3.483949661254883
1772729281358605000,2.43660498046875,1.5314065217971802,-9.047262191772461,3.366701364517212
1772729281375951600,2.45395166015625,3.3332018852233887,-8.276773452758789,3.8021950721740723
1772729281393298400,2.47129833984375,4.450650215148926,-8.365307807922363,4.314259052276611
1772729281410645200,2.488645263671875,4.058227062225342,-8.02074146270752,3.1345977783203125
1772729281427991800,2.50599169921875,2.878565549850464,-7.927421569824219,2.201396942138672
1772729281445338600,2.523338623046875,1.4165509939193726,-7.767102241516113,0.4378865361213684
1772729281462685400,2.540685546875,-2.589034080505371,-6.417550563812256,0.794417142868042
1772729281480032000,2.558031982421875,-0.7920243144035339,-4.512863636016846,1.4213366508483887
1772729281497378800,2.57537890625,-3.761517286300659,-5.240281581878662,2.5387847423553467
1772729281514725600,2.5927255859375,-4.934000492095947,-7.573283672332764,1.7850457429885864
1772729281532072200,2.610072265625,-3.34995174407959,-9.008976936340332,1.5146567821502686
1772729281549419000,2.6274189453125,-1.2610175609588623,-10.408778190612793,3.3619158267974854
1772729281566765800,2.644765869140625,0.07178468257188797,-12.205788612365723,4.326223373413086
1772729281584112400,2.6621123046875,0.9930213689804077,-12.244073867797852,8.353343963623047
1772729281601459200,2.679459228515625,0.5694918036460876,-13.25862979888916,9.705288887023926
1772729281618805800,2.6968056640625,-0.5575276613235474,-11.858829498291016,7.762316703796387
1772729281636152600,2.714152587890625,-2.311466693878174,-11.693724632263184,5.92223596572876
1772729281653499400,2.73149951171875,-4.785645484924316,-13.806586265563965,3.94815731048584
1772729281670846200,2.74884619140625,-4.9052863121032715,-15.651453018188477,4.335794448852539
1772729281688192800,2.76619287109375,-3.122633457183838,-15.323636054992676,4.78803825378418
1772729281705539600,2.78353955078125,-2.076970100402832,-12.332608222961426,3.1250264644622803
1772729281722886400,2.800886474609375,-1.6869399547576904,-9.454042434692383,2.9144580364227295
1772729281740233000,2.81823291015625,-3.761517286300659,-8.669196128845215,1.5050854682922363
1772729281757579800,2.835579833984375,-6.281159400939941,-9.267401695251465,-0.5120640397071838
1772729281774926300,2.85292626953125,-6.802794933319092,-10.293923377990723,-1.9022940397262573
1772729281792273200,2.870273193359375,-6.63769006729126,-10.332208633422852,-1.8855443000793457
1772729281809620000,2.887619873046875,-8.922835350036621,-9.154939651489258,-0.7369893789291382
1772729281826966800,2.904966796875,-8.250452041625977,-11.085947036743164,-3.16331148147583
1772729281844313300,2.922313232421875,-6.302694797515869,-10.870593070983887,0.19142581522464752
1772729281861660200,2.93966015625,-5.706881999969482,-7.939385414123535,0.05503492057323456
1772729281879006700,2.9570068359375,-3.0412776470184326,-7.685746192932129,-0.9595218896865845
1772729281896353500,2.974353515625,7.740781307220459,-9.664610862731934,8.219346046447754
1772729281913700400,2.991700439453125,6.836294174194336,-8.437092781066895,6.128018856048584
1772729281931047000,3.009046875,12.617353439331055,0.4450650215148926,0.849452018737793
1772729281948393700,3.026393798828125,4.522434711456299,0.24167509377002716,0.3732803463935852
1772729281965740500,3.043740478515625,-0.5718846321105957,-3.759124279022217,-0.9619147181510925
1772729281983087000,3.061087158203125,-2.218146562576294,-4.675575256347656,0.4737788736820221
1772729282000434000,3.078433837890625,-2.9862427711486816,-6.419943332672119,1.3351950645446777
1772729282017780700,3.09578076171875,-0.6580262184143066,-5.441278457641602,1.0791629552841187
1772729282035127300,3.113127197265625,0.8350951075553894,-3.5341989994049072,1.0671988725662231
1772729282052474000,3.13047412109375,2.4837498664855957,-5.108676433563232,1.057627558708191
1772729282069820700,3.147820556640625,5.19242525100708,-6.943971157073975,1.0863415002822876
1772729282087167500,3.16516748046875,1.373480200767517,-26.91446876525879,6.128018856048584
1772729282104514300,3.182514404296875,3.864408493041992,-18.64008903503418,8.286344528198242
1772729282121860900,3.19986083984375,7.125825881958008,-8.291130065917969,1.5337992906570435
1772729282139207700,3.217207763671875,6.228517532348633,-4.517649173736572,-0.914058268070221
1772729282156554500,3.234554443359375,4.295116424560547,-6.321837425231934,-1.3399807214736938
1772729282173901000,3.251901123046875,5.06082010269165,-9.293723106384277,1.3232308626174927
1772729282191248000,3.269247802734375,4.098905086517334,-11.050054550170898,3.38105845451355
1772729282208594700,3.2865947265625,1.1126625537872314,-11.700902938842773,3.1824541091918945
1772729282225941200,3.303941162109375,-2.589034080505371,-16.57747459411621,4.07258415222168
1772729282243288000,3.3212880859375,-7.161718368530273,-20.91326904296875,5.7858452796936035
1772729282260634600,3.338634521484375,-6.510870456695557,-15.012569427490234,1.7635103464126587
1772729282277981400,3.3559814453125,-6.692724704742432,-10.604990005493164,2.4598217010498047
1772729282295328300,3.373328369140625,-5.015356063842773,-8.142775535583496,2.806781053543091
1772729282312674800,3.3906748046875,-4.249652862548828,-7.424928665161133,2.6321048736572266
1772729282330021600,3.408021728515625,-3.9936211109161377,-8.161917686462402,1.4931213855743408
1772729282347368400,3.425368408203125,-4.486542224884033,-8.374878883361816,0.9954141974449158
1772729282364715000,3.442715087890625,-3.438486099243164,-8.621339797973633,0.9068797826766968
1772729282382061800,3.460061767578125,-2.7038896083831787,-8.48016357421875,1.5672988891601562
1772729282399408400,3.477408447265625,-1.6534404754638672,-7.5086774826049805,1.7850457429885864
1772729282416755200,3.494755126953125,-0.26081767678260803,-6.702296257019043,2.062613010406494
1772729282434102000,3.51210205078125,0.8279166221618652,-6.632904529571533,2.3330020904541016
1772729282451448600,3.529448486328125,1.0600204467773438,-7.372286796569824,3.098705291748047
1772729282468795400,3.54679541015625,0.7106683254241943,-8.441878318786621,4.438685894012451
1772729282486142200,3.56414208984375,1.7084753513336182,-7.81974458694458,4.254438877105713
1772729282503488800,3.58148876953125,2.4717857837677,-6.4510498046875,3.326023578643799
1772729282520835600,3.598835693359375,2.258824586868286,-5.8959150314331055,2.840280532836914
1772729282538182100,3.61618212890625,0.9308080077171326,-6.151947021484375,2.7661030292510986
1772729282555529000,3.633529052734375,-0.2871387302875519,-7.109076023101807,3.617947816848755
1772729282572875800,3.650875732421875,-0.6891329288482666,-7.932207107543945,4.275974273681641
1772729282590222300,3.668222412109375,-1.062413215637207,-8.992227554321289,5.0464630126953125
1772729282607569200,3.685569091796875,-1.7778671979904175,-9.810572624206543,5.594419479370117
1772729282624915700,3.702915771484375,-2.2301106452941895,-11.203195571899414,5.905486106872559
1772729282642262500,3.720262451171875,-1.4476577043533325,-12.30389404296875,6.3122663497924805
1772729282659609300,3.737609375,-0.44027936458587646,-12.263216018676758,7.29093074798584
1772729282676956000,3.754955810546875,0.9643075466156006,-11.621939659118652,7.635497093200684
1772729282694302700,3.772302734375,1.1341979503631592,-12.294322967529297,7.970492362976074
1772729282711649500,3.7896494140625,-0.6843472719192505,-14.761322975158691,7.592426300048828
1772729282728996000,3.80699609375,-1.25144624710083,-15.39781379699707,6.161518096923828
1772729282746343000,3.824343017578125,-1.5146567821502686,-13.942977905273438,4.78803825378418
1772729282763689500,3.841689453125,-1.794616937637329,-9.561718940734863,2.885744094848633
1772729282781036300,3.859036376953125,-2.50289249420166,-8.214560508728027,1.1772687435150146
1772729282798383000,3.876383056640625,-8.446663856506348,-8.898907661437988,0.46899324655532837
1772729282815729700,3.893729736328125,-8.544769287109375,-9.391828536987305,-0.10049854964017868
1772729282833076500,3.911076416015625,-7.18086051940918,-10.715060234069824,-0.349352091550827
1772729282850423000,3.928423095703125,-7.288537979125977,-10.427921295166016,-0.6963114142417908
1772729282867769900,3.945769775390625,-5.32403039932251,-9.09990406036377,0.20578274130821228
1772729282885116700,3.96311669921875,-3.352344512939453,-8.551948547363281,1.8113667964935303
1772729282902463200,3.980463134765625,-1.852044701576233,-8.281558990478516,2.9527430534362793
1772729282919810000,3.99781005859375,-1.6941183805465698,-8.142775535583496,3.019742250442505
1772729282937156600,4.015156494140625,1.5361921787261963,-11.016555786132812,9.489934921264648
1772729282954503400,4.03250341796875,3.0723843574523926,-6.309873104095459,5.13021183013916
1772729282971850200,4.049850341796875,4.785645484924316,-4.168296813964844,3.0795626640319824
1772729282989196800,4.06719677734375,7.274180889129639,-4.240081787109375,4.094119548797607
1772729283006543600,4.084543701171875,3.218346357345581,-2.775674343109131,3.0628130435943604
1772729283023890200,4.10189013671875,-0.8662018179893494,-2.1056840419769287,1.820937991142273
1772729283041237000,4.119237060546875,-1.4787644147872925,-3.201596736907959,1.215553879737854
1772729283058583800,4.136583740234375,-1.306481122970581,-3.4408788681030273,0.4259224236011505
1772729283075930400,4.153930419921875,-0.7968099117279053,-4.709074974060059,1.0839486122131348
1772729283093277200,4.171277099609375,0.2679961323738098,-7.3675007820129395,1.8640087842941284
1772729283110623700,4.188623779296875,0.8805587291717529,-10.16710376739502,2.4717857837677
1772729283127970600,4.205970458984375,1.954936146736145,-14.770894050598145,4.67078971862793
1772729283145317400,4.2233173828125,6.64486837387085,-20.48016929626465,10.645668029785156
1772729283162664000,4.240663818359375,7.77188777923584,-14.055439949035645,7.061219692230225
1772729283180010800,4.2580107421875,5.601597785949707,-6.905686378479004,2.4119651317596436
1772729283197357600,4.275357666015625,5.146961688995361,-5.575276851654053,-2.390429735183716
1772729283214704000,4.2927041015625,7.51585578918457,-12.88774299621582,3.6681971549987793
1772729283232051000,4.310051025390625,5.223531723022461,-15.029318809509277,8.090133666992188
1772729283249397500,4.3273974609375,2.0889341831207275,-12.911670684814453,3.9433717727661133
1772729283266744300,4.344744384765625,-1.0911271572113037,-13.447663307189941,2.4909284114837646
1772729283284091000,4.3620908203125,-2.720639228820801,-13.658231735229492,3.696911096572876
1772729283301437700,4.379437744140625,-3.1920254230499268,-10.112068176269531,2.5148565769195557
1772729283318784300,4.3967841796875,-5.06082010269165,-8.803194046020508,2.194218397140503
1772729283336131000,4.414131103515625,-6.91765022277832,-9.111868858337402,3.3954153060913086
1772729283353478000,4.431477783203125,-7.283751964569092,-9.28893756866455,2.9551360607147217
1772729283370824400,4.448824462890625,-6.599404811859131,-9.590433120727539,2.6488547325134277
1772729283388171300,4.466171142578125,-4.838287353515625,-8.925228118896484,3.383451223373413
1772729283405517800,4.483517822265625,-2.806781053543091,-8.654839515686035,3.706482172012329
1772729283422864600,4.50086474609375,-0.9523434042930603,-7.546962738037109,3.005385160446167
1772729283440211500,4.51821142578125,0.040677983313798904,-7.015756130218506,2.7589244842529297
1772729283457558000,4.53555810546875,0.672383189201355,-6.553941249847412,2.59621262550354
1772729283474904800,4.55290478515625,1.3471591472625732,-6.618547439575195,2.5746772289276123
1772729283492251400,4.57025146484375,1.923829436302185,-6.726224422454834,2.407179594039917
1772729283509598200,4.58759814453125,2.0650060176849365,-7.0923261642456055,2.830709218978882
1772729283526944800,4.60494482421875,2.2779672145843506,-7.0061845779418945,2.9072794914245605
1772729283544291600,4.62229150390625,2.589034080505371,-5.802595138549805,2.6321048736572266
1772729283561638400,4.639638427734375,1.576870083808899,-5.434100151062012,2.493321180343628
1772729283578985000,4.65698486328125,0.1866401731967926,-5.726024627685547,2.8043880462646484
1772729283596331800,4.674331787109375,-0.5288137793540955,-6.345765590667725,3.4265220165252686
1772729283613678300,4.69167822265625,-0.9355936646461487,-8.140382766723633,3.9050865173339844
1772729283631025200,4.709025146484375,-1.1126625537872314,-9.506684303283691,5.020142078399658
1772729283648371700,4.726371826171875,-1.306481122970581,-10.461421012878418,6.6113691329956055
1772729283665718500,4.743718505859375,-1.435693621635437,-11.308480262756348,8.958727836608887
1772729283683065300,4.7610654296875,0.23688943684101105,-12.516855239868164,9.681360244750977
1772729283700412000,4.778411865234375,1.734796404838562,-11.715259552001953,9.741181373596191
1772729283717758700,4.7957587890625,2.4981069564819336,-11.528619766235352,7.922635555267334
1772729283735105300,4.813105224609375,2.7589244842529297,-13.476377487182617,7.109076023101807
1772729283752452000,4.8304521484375,1.7539390325546265,-14.299508094787598,5.367101192474365
1772729283769799000,4.847798828125,0.07417750358581543,-14.421542167663574,4.1347975730896
1772729283787145500,4.8651455078125,0.5479564070701599,-11.729616165161133,2.950350284576416
1772729283804492300,4.8824921875,-0.1579262912273407,-8.417949676513672,1.6031911373138428
1772729283821838800,4.8998388671875,-2.557927370071411,-10.39920711517334,0.9379864931106567
1772729283839185700,4.917185546875,-11.411371231079102,-12.196216583251953,-0.23688943684101105
1772729283856532200,4.9345322265625,-9.879964828491211,-12.803994178771973,-1.4213366508483887
1772729283873879000,4.951879150390625,-10.638489723205566,-12.54556941986084,-1.526620864868164
1772729283891225900,4.969225830078125,-7.408178806304932,-9.454042434692383,-1.2729816436767578
1772729283908572400,4.986572509765625,-3.672982692718506,-8.920442581176758,1.4380863904953003
1772729283925919200,5.003919189453125,-1.5936198234558105,-8.197810173034668,2.8354947566986084
1772729283943265800,5.021265869140625,-0.17946170270442963,-7.247859954833984,3.594019651412964
1772729283960612600,5.038612548828125,0.7154539823532104,-5.831308841705322,3.7160534858703613
1772729283977959200,5.055959228515625,3.2231321334838867,-10.346565246582031,10.588240623474121
1772729283995306000,5.073305908203125,6.3601226806640625,-5.015356063842773,5.891129493713379
1772729284012652800,5.09065283203125,6.850651264190674,-2.6703901290893555,3.359523057937622
1772729284029999400,5.107999267578125,5.350351333618164,-2.1296122074127197,3.201596736907959
1772729284047346200,5.12534619140625,0.6580262184143066,-2.00518536567688,2.304288148880005
1772729284064692700,5.142692626953125,-1.4021940231323242,-2.486142635345459,1.3160524368286133
1772729284082039600,5.16003955078125,-1.6031911373138428,-2.682354211807251,0.7561319470405579
1772729284099386000,5.17738623046875,-1.6917256116867065,-4.524827480316162,2.366501569747925
1772729284116733000,5.19473291015625,-0.23210379481315613,-7.544569969177246,3.0269205570220947
1772729284134079500,5.21207958984375,1.179661512374878,-10.346565246582031,2.7637102603912354
1772729284151426300,5.22942626953125,5.347958564758301,-15.728023529052734,4.981856822967529
1772729284168772900,5.24677294921875,8.525627136230469,-19.42254066467285,9.55214786529541
1772729284186119700,5.26411962890625,7.45364236831665,-12.746565818786621,5.575276851654053
1772729284203466500,5.281466552734375,3.9290146827697754,-6.6831536293029785,1.4572290182113647
1772729284220813000,5.29881298828125,2.3162522315979004,-7.0683979988098145,-0.6436693072319031
1772729284238160000,5.316159912109375,6.920042991638184,-13.567304611206055,5.862415313720703
1772729284255506400,5.33350634765625,3.242274761199951,-16.139589309692383,10.258030891418457
1772729284272853200,5.350853271484375,1.2681959867477417,-14.132010459899902,4.668396949768066
1772729284290199800,5.36819970703125,-2.392822742462158,-13.081561088562012,1.8472590446472168
1772729284307546600,5.385546630859375,-4.319045066833496,-10.336994171142578,1.576870083808899
1772729284324893200,5.40289306640625,-3.1752755641937256,-10.068997383117676,1.8855443000793457
1772729284342240000,5.420239990234375,-3.924229145050049,-9.664610862731934,2.799602508544922
1772729284359586800,5.4375869140625,-6.453442573547363,-9.559326171875,4.876572608947754
1772729284376933400,5.454933349609375,-6.723831653594971,-9.657432556152344,4.350151538848877
1772729284394280200,5.4722802734375,-6.580262184143066,-9.035298347473145,3.326023578643799
1772729284411626800,5.489626708984375,-4.981856822967529,-9.004191398620605,3.3379876613616943
1772729284428973600,5.5069736328125,-3.005385160446167,-8.841479301452637,2.8426733016967773
1772729284446320000,5.524320068359375,-1.3591232299804688,-8.403593063354492,2.4358935356140137
1772729284463667000,5.5416669921875,0.12681959569454193,-8.090133666992188,2.5387847423553467
1772729284481013500,5.559013427734375,1.5553346872329712,-7.432106971740723,2.6464617252349854
1772729284498360300,5.5763603515625,2.4670002460479736,-6.975078105926514,2.5148565769195557
1772729284515707100,5.59370703125,2.799602508544922,-7.0301127433776855,2.550748825073242
1772729284533053700,5.6110537109375,2.933600664138794,-6.795616149902344,2.4670002460479736
1772729284550400500,5.628400390625,2.7278177738189697,-5.855237007141113,1.7587246894836426
1772729284567747000,5.6457470703125,1.8400806188583374,-5.4173502922058105,1.4931213855743408
1772729284585094000,5.663093994140625,0.727418065071106,-5.599205017089844,1.6079767942428589
1772729284602440400,5.6804404296875,-0.18903298676013947,-6.03948450088501,2.0267207622528076
1772729284619787300,5.697787353515625,-1.0265209674835205,-7.755138397216797,2.4095723628997803
1772729284637133800,5.7151337890625,-1.4452649354934692,-8.975478172302246,3.5581271648406982
1772729284654480600,5.732480712890625,-1.1318050622940063,-9.822537422180176,5.491528034210205
1772729284671827200,5.7498271484375,-1.5864413976669312,-10.717453002929688,7.956135272979736
1772729284689174000,5.767174072265625,-0.4977070987224579,-11.550154685974121,9.346364974975586
1772729284706520600,5.7845205078125,0.638883650302887,-10.423135757446289,10.176674842834473
1772729284723867400,5.801867431640625,1.7491533756256104,-11.241480827331543,9.339186668395996
1772729284741214000,5.8192138671875,2.0673987865448,-13.909478187561035,9.080761909484863
1772729284758560800,5.836560791015625,1.7060825824737549,-14.979069709777832,6.989434719085693
1772729284775907600,5.853907470703125,0.727418065071106,-14.802000999450684,4.271188259124756
1772729284793254100,5.871254150390625,0.11964113265275955,-12.547962188720703,2.495713949203491
1772729284810601000,5.88860107421875,-0.6269195079803467,-10.813165664672852,0.9284151792526245
1772729284827947500,5.905947509765625,-3.3092737197875977,-12.021540641784668,0.09092725813388824
1772729284845294300,5.92329443359375,-11.21515941619873,-12.354143142700195,-0.32542386651039124
1772729284862641000,5.940640869140625,-10.839486122131348,-12.15793228149414,-2.0267207622528076
1772729284879987700,5.95798779296875,-8.446663856506348,-10.98305606842041,-2.3473589420318604
1772729284897334300,5.975334228515625,-5.826523303985596,-8.769695281982422,-1.1748759746551514
1772729284914681000,5.99268115234375,-3.0317063331604004,-7.7838521003723145,0.009571290574967861
1772729284932027600,6.010027587890625,-1.4859428405761719,-7.3986077308654785,1.0504491329193115
1772729284949374500,6.02737451171875,-0.8685946464538574,-7.0755767822265625,1.9573289155960083
1772729284966721000,6.044720947265625,-0.3206382393836975,-6.0777692794799805,2.825923442840576
1772729284984067800,6.06206787109375,5.015356063842773,-13.160524368286133,12.557533264160156
1772729285001414700,6.07941455078125,4.541577339172363,-4.874179840087891,6.486942291259766
1772729285018761200,6.09676123046875,6.465406894683838,-1.7228323221206665,5.927021503448486
1772729285036108000,6.11410791015625,6.865008354187012,-1.5314065217971802,3.869194269180298
1772729285053454600,6.13145458984375,1.1389836072921753,-2.383251428604126,2.0267207622528076
1772729285070801400,6.148801513671875,-1.6845471858978271,-3.1489546298980713,0.8063812255859375
1772729285088148000,6.16614794921875,-1.5720844268798828,-3.7016966342926025,0.7537391185760498
1772729285105494800,6.183494873046875,-0.3397808074951172,-4.383651256561279,0.7489534616470337
1772729285122841300,6.20084130859375,-0.4570291340351105,-6.508477687835693,2.4287149906158447
1772729285140188200,6.218188232421875,1.1030912399291992,-9.805787086486816,3.6131622791290283
1772729285157534700,6.23553466796875,3.656233072280884,-12.796815872192383,4.508078098297119
1772729285174881500,6.252881591796875,8.319844245910645,-17.00339698791504,8.044670104980469
1772729285192228000,6.27022802734375,9.616754531860352,-15.25903034210205,7.915457248687744
1772729285209575000,6.287574951171875,5.458028316497803,-9.841679573059082,3.297309637069702
1772729285226921500,6.30492138671875,1.5553346872329712,-6.58265495300293,-0.2871387302875519
1772729285244268300,6.322268310546875,4.302295207977295,-12.940384864807129,1.672582983970642
1772729285261614800,6.33961474609375,4.67078971862793,-17.068004608154297,9.006584167480469
1772729285278961700,6.356961669921875,2.885744094848633,-14.4861478805542,6.874579429626465
1772729285296308200,6.37430810546875,0.5623133182525635,-11.868400573730469,2.1774685382843018
1772729285313655000,6.391655029296875,-3.8883368968963623,-11.131410598754883,1.5098711252212524
1772729285331001600,6.409001708984375,-4.948357105255127,-11.406585693359375,2.9479575157165527
1772729285348348400,6.426348388671875,-4.644468784332275,-10.688738822937012,3.5270206928253174
1772729285365695000,6.443695068359375,-4.8813581466674805,-8.975478172302246,4.058227062225342
1772729285383041800,6.461041748046875,-6.123233318328857,-9.477970123291016,5.280959606170654
1772729285400388600,6.478388671875,-5.328815937042236,-9.978070259094238,3.9840497970581055
1772729285417735200,6.495735107421875,-3.9696927070617676,-9.868000984191895,2.562713146209717
1772729285435082000,6.51308203125,-3.177668571472168,-9.482755661010742,2.823530673980713
1772729285452428500,6.530428466796875,-1.5864413976669312,-8.760123252868652,2.7014968395233154
1772729285469775000,6.547775146484375,-0.2919243574142456,-7.9585280418396,2.5435705184936523
1772729285487122000,6.565121826171875,0.9475577473640442,-7.310073375701904,2.5531418323516846
1772729285504468500,6.582468505859375,2.2229323387145996,-6.8243303298950195,2.328216314315796
1772729285521815300,6.599815185546875,3.019742250442505,-6.778866767883301,2.0673987865448
1772729285539161900,6.617161865234375,2.6799614429473877,-7.130611419677734,2.3018953800201416
1772729285556508700,6.6345087890625,2.256431818008423,-6.640082836151123,2.337787628173828
1772729285573855500,6.65185546875,1.7611174583435059,-6.008377552032471,2.579462766647339
1772729285591202000,6.6692021484375,1.6558332443237305,-5.032105922698975,2.1655044555664062
1772729285608548900,6.686548828125,1.4931213855743408,-4.831109046936035,1.8831514120101929
1772729285625895400,6.7038955078125,0.641276478767395,-5.874379634857178,2.313859462738037
1772729285643242200,6.7212421875,0.30149564146995544,-7.09711217880249,3.2039895057678223
1772729285660588800,6.7385888671875,0.18903298676013947,-8.382058143615723,4.560719966888428
1772729285677935600,6.755935546875,-0.5910272002220154,-10.095318794250488,6.510870456695557
1772729285695282200,6.7732822265625,-1.6031911373138428,-11.554940223693848,8.082955360412598
1772729285712629000,6.79062890625,-0.3565305769443512,-11.753544807434082,8.635697364807129
1772729285729975600,6.8079755859375,1.8472590446472168,-10.540383338928223,8.37009334564209
1772729285747322400,6.825322265625,3.050848960876465,-11.44965648651123,7.424928665161133
1772729285764669000,6.8426689453125,2.9790642261505127,-14.313864707946777,7.910671710968018
1772729285782015700,6.860015625,2.3736801147460938,-16.218551635742188,8.097311973571777
1772729285799362300,6.8773623046875,1.7539390325546265,-15.361921310424805,6.089733600616455
1772729285816709000,6.894709228515625,0.4546363055706024,-12.811172485351562,4.357329845428467
1772729285834055700,6.9120556640625,-0.42352959513664246,-9.34875774383545,3.1345977783203125
1772729285851402500,6.929402587890625,-3.3020951747894287,-9.906285285949707,1.672582983970642
1772729285868749000,6.9467490234375,-12.059825897216797,-11.0835542678833,0.09571290761232376
1772729285886096000,6.964095947265625,-9.200403213500977,-12.954741477966309,-0.7322037220001221
1772729285903442400,6.9814423828125,-8.434700012207031,-12.557533264160156,-0.46420758962631226
1772729285920789200,6.998789306640625,-7.001399040222168,-9.779465675354004,-0.97148597240448
1772729285938135800,7.0161357421875,-3.9744784832000732,-8.688339233398438,0.8997012972831726
1772729285955482600,7.033482666015625,-1.710868239402771,-7.865208148956299,2.3330020904541016
1772729285972829200,7.0508291015625,-0.28235307335853577,-6.781259536743164,3.084348440170288
1772729285990176000,7.068176025390625,0.5312066078186035,-5.4556355476379395,3.627519130706787
1772729286007522600,7.0855224609375,1.648654818534851,-6.302694797515869,4.9124650955200195
1772729286024869400,7.102869384765625,5.3934221267700195,-7.917850017547607,8.374878883361816
1772729286042216000,7.1202158203125,8.561519622802734,-3.13220477104187,3.9218363761901855
1772729286059562500,7.1375625,7.130611419677734,-1.2490534782409668,2.108076810836792
1772729286076909300,7.154909423828125,2.5435705184936523,-1.5649060010910034,0.9355936646461487
1772729286094256000,7.172256103515625,-0.06939185410737991,-2.517249345779419,1.3184453248977661
1772729286111602700,7.189602783203125,-1.1078768968582153,-3.2542388439178467,1.5050854682922363
1772729286128949200,7.20694921875,-1.4811571836471558,-5.757131099700928,1.5649060010910034
1772729286146296000,7.224296142578125,-1.0815558433532715,-10.822736740112305,3.462414264678955
1772729286163643000,7.241642822265625,-1.7563318014144897,-12.440284729003906,2.988635540008545
1772729286180989400,7.258989501953125,0.6747759580612183,-13.904692649841309,3.9074792861938477
1772729286198336300,7.276336181640625,8.372486114501953,-16.120445251464844,7.252645492553711
1772729286215682800,7.293682861328125,10.954341888427734,-12.835101127624512,5.314459323883057
1772729286233029400,7.311029296875,7.494320392608643,-8.212167739868164,2.2301106452941895
1772729286250376200,7.328376220703125,1.5098711252212524,-11.095519065856934,2.9001009464263916
1772729286267722800,7.34572265625,0.5838487148284912,-15.108282089233398,7.774280548095703
1772729286285069600,7.363069580078125,1.3758729696273804,-16.417156219482422,8.609375953674316
1772729286302416100,7.380416015625,-0.849452018737793,-15.103496551513672,3.460021495819092
1772729286319763000,7.397762939453125,-4.395615100860596,-7.858029365539551,0.26081767678260803
1772729286337109500,7.415109619140625,-3.046063184738159,-6.151947021484375,1.1389836072921753
1772729286354456300,7.432456298828125,-1.7324036359786987,-6.733402729034424,2.201396942138672
1772729286371803000,7.449802978515625,-3.0101709365844727,-9.999606132507324,5.436492919921875
1772729286389149700,7.467149658203125,-5.1182475090026855,-11.643474578857422,7.654639720916748
1772729286406496300,7.484496337890625,-7.29810905456543,-10.947163581848145,7.018148899078369
1772729286423843000,7.501843017578125,-5.98444938659668,-8.707481384277344,5.816951751708984
1772729286441189600,7.519189697265625,-2.9527430534362793,-8.389236450195312,4.223331928253174
1772729286458536400,7.536536376953125,-1.1820544004440308,-8.434700012207031,4.199403762817383
1772729286475883000,7.553883056640625,-0.09092725813388824,-8.513663291931152,3.9146578311920166
1772729286493229800,7.571229736328125,1.2251251935958862,-8.02074146270752,3.266202926635742
1772729286510576400,7.588576416015625,1.9262222051620483,-7.202396392822266,2.770888566970825
1772729286527923200,7.605923095703125,1.892722725868225,-6.879364967346191,2.4406790733337402
1772729286545269800,7.623269775390625,1.9286150932312012,-6.455835342407227,2.1272194385528564
1772729286562616600,7.640616455078125,1.9381862878799438,-5.893522262573242,1.7276179790496826
1772729286579963100,7.657963134765625,2.2085752487182617,-5.67338228225708,1.8233308792114258
1772729286597310000,7.67531005859375,2.0817556381225586,-5.364708423614502,1.7180466651916504
1772729286614656500,7.692656494140625,1.1318050622940063,-5.221138954162598,1.7204394340515137
1772729286632003000,7.710003173828125,0.14835500717163086,-6.367300987243652,2.3712873458862305
1772729286649350000,7.727349853515625,-0.8973084688186646,-7.420143127441406,3.211168050765991
1772729286666696400,7.744696533203125,-1.0911271572113037,-8.025527000427246,4.048655986785889
1772729286684049200,7.762049072265625,-0.9595218896865845,-9.135796546936035,5.304887771606445
1772729286701389800,7.779389892578125,-1.057627558708191,-10.667202949523926,6.8243303298950195
1772729286718736600,7.796736572265625,-0.33499518036842346,-12.507284164428711,8.793622970581055
1772729286736083200,7.814083251953125,1.7635103464126587,-11.966506004333496,9.556933403015137
1772729286753430000,7.831429931640625,3.1178479194641113,-12.973884582519531,9.985248565673828
1772729286770776600,7.848776611328125,2.9288148880004883,-14.593825340270996,9.336793899536133
1772729286788123400,7.866123291015625,2.3856441974639893,-14.825928688049316,7.738388538360596
1772729286805470000,7.883469970703125,-0.17706887423992157,-16.003198623657227,5.804987907409668
1772729286822816800,7.900816650390625,-1.5050854682922363,-12.222537994384766,3.1680972576141357
1772729286840163300,7.918163330078125,-2.3952155113220215,-9.80100154876709,0.5694918036460876
1772729286857510100,7.93551025390625,-8.525627136230469,-10.839486122131348,-0.32542386651039124
1772729286874856700,7.952856689453125,-8.441878318786621,-11.062019348144531,-1.3591232299804688
1772729286892203500,7.97020361328125,-7.231110095977783,-12.023933410644531,-1.9094724655151367
1772729286909550000,7.987550048828125,-7.219145774841309,-10.683953285217285,-2.342573404312134
1772729286926897000,8.00489697265625,-5.4867424964904785,-8.7505521774292,-0.8733802437782288
1772729286944243500,8.022243408203124,-2.6943182945251465,-7.793423175811768,0.14835500717163086
1772729286961590000,8.039590087890625,-1.373480200767517,-7.922635555267334,1.8400806188583374
1772729286978936800,8.056936767578126,-0.4426721930503845,-7.2430739402771,2.6464617252349854
1772729286996283400,8.074283447265625,0.059820566326379776,-6.599404811859131,3.404986619949341
1772729287013630200,8.091630126953126,4.910071849822998,-10.363314628601074,10.581061363220215
1772729287030976800,8.108976806640625,6.723831653594971,-3.10109806060791,6.106483459472656
1772729287048323600,8.126323486328126,8.707481384277344,-1.4117653369903564,5.426921844482422
1772729287065670100,8.143670166015625,5.460421085357666,-1.100698471069336,3.014956474304199
1772729287083017000,8.161016845703125,1.0408778190612793,-2.4741785526275635,1.7850457429885864
1772729287100363500,8.178363525390624,-0.24646073579788208,-3.266202926635742,1.5792629718780518
1772729287117710300,8.19571044921875,-0.2967100143432617,-3.9864425659179688,1.3639088869094849
1772729287135057000,8.213056884765624,-1.5098711252212524,-7.10429048538208,2.785245656967163
1772729287152403700,8.23040380859375,-0.6245267391204834,-9.779465675354004,2.7900311946868896
1772729287169750300,8.247750244140626,-0.11246266216039658,-10.607382774353027,2.196611166000366
1772729287187096800,8.265096923828125,2.3784656524658203,-14.352149963378906,4.1659040451049805
1772729287204443600,8.282443603515626,7.190432071685791,-16.833507537841797,6.989434719085693
1772729287221790200,8.299790283203125,9.083154678344727,-12.500105857849121,5.883950710296631
1772729287239137000,8.317136962890626,4.778466701507568,-7.439285755157471,1.8616160154342651
1772729287256483600,8.334483642578125,5.158925533294678,-9.664610862731934,1.3184453248977661
1772729287273830400,8.351830322265625,5.352744102478027,-14.364114761352539,7.9250288009643555
1772729287291177000,8.369177001953124,4.357329845428467,-15.132210731506348,8.228917121887207
1772729287308523500,8.3865234375,-0.14117653667926788,-12.588640213012695,2.478964328765869
1772729287325870300,8.403870361328124,-2.9072794914245605,-13.208380699157715,2.9048867225646973
1772729287343217200,8.421217041015625,-4.230510234832764,-11.212766647338867,2.7828526496887207
1772729287360563700,8.438563720703126,-3.641875982284546,-9.056833267211914,1.368694543838501
1772729287377910300,8.45591015625,-5.477170944213867,-9.315258979797363,2.170290231704712
1772729287395257000,8.473257080078126,-7.312466144561768,-9.305686950683594,3.5150563716888428
1772729287412603600,8.490603759765625,-7.008577346801758,-9.836894035339355,3.4504501819610596
1772729287429950500,8.507950439453126,-5.690132141113281,-9.77707290649414,3.263810157775879
1772729287447297000,8.525297119140625,-4.247260093688965,-9.31047248840332,3.9146578311920166
1772729287464643800,8.542643798828125,-2.122433662414551,-7.6977105140686035,3.570091485977173
1772729287481990400,8.559990478515624,-0.17946170270442963,-6.7692952156066895,3.0388846397399902
1772729287499337200,8.577337158203125,1.5098711252212524,-6.704689025878906,2.9288148880004883
1772729287516683800,8.594683837890624,3.2757742404937744,-6.69990348815918,2.9718856811523438
1772729287534030600,8.612030517578125,4.108476638793945,-6.783652305603027,3.0245277881622314
1772729287551377200,8.629377197265624,3.981656789779663,-7.22871732711792,3.290131092071533
1772729287568723700,8.6467236328125,3.517449378967285,-6.790830612182617,3.0412776470184326
1772729287586070500,8.664070556640626,2.4430718421936035,-5.737988471984863,2.029113531112671
1772729287603417000,8.6814169921875,1.1078768968582153,-5.793023586273193,1.6342978477478027
1772729287620764000,8.698763916015626,0.23688943684101105,-6.52044153213501,1.9286150932312012
1772729287638110500,8.7161103515625,-0.7800601720809937,-7.35314416885376,2.667997360229492
1772729287655457300,8.733457275390625,-1.2323036193847656,-7.865208148956299,4.445864677429199
1772729287672803800,8.750803955078124,-0.8279166221618652,-8.025527000427246,6.0538411140441895
1772729287690150400,8.768150390625,-0.8015955686569214,-8.15234661102295,7.846065521240234
1772729287707497200,8.785497314453124,-1.6342978477478027,-9.262616157531738,10.169496536254883
1772729287724844000,8.802843994140625,-0.6795616149902344,-12.30389404296875,9.590433120727539
1772729287742190600,8.820190673828124,0.7704889178276062,-12.55274772644043,6.872186660766602
1772729287759537200,8.837537109375,1.8424733877182007,-12.05504035949707,5.084748268127441
1772729287776884000,8.854884033203126,1.454836130142212,-14.809179306030273,6.869793891906738
1772729287794230500,8.87223046875,1.3471591472625732,-15.55334758758545,6.3601226806640625
1772729287811577300,8.889577392578126,0.9643075466156006,-16.77129364013672,5.61116886138916
1772729287828924000,8.906923828125,1.0671988725662231,-14.378471374511719,4.158725738525391
1772729287846270500,8.9242705078125,-0.4498506486415863,-9.372686386108398,1.950150489807129
1772729287863617300,8.9416171875,-3.4480574131011963,-9.231510162353516,1.5385849475860596
1772729287880963800,8.9589638671875,-13.26820182800293,-8.090133666992188,0.6675975322723389
1772729287898310700,8.976310546875,-9.073583602905273,-8.078168869018555,-0.5718846321105957
1772729287915657200,8.9936572265625,-8.791230201721191,-7.865208148956299,0.14356936514377594
1772729287933004000,9.011004150390624,-6.3122663497924805,-9.34157943725586,0.35413774847984314
1772729287950350600,9.0283505859375,-2.864208698272705,-9.403793334960938,1.0911271572113037
1772729287967697400,9.045697509765626,-1.1748759746551514,-8.475378036499023,2.8977081775665283
1772729287985044000,9.0630439453125,-0.5240281820297241,-7.348358154296875,3.7160534858703613
1772729288002390500,9.080390625,0.16510476171970367,-11.406585693359375,8.300702095031738
1772729288019737300,9.0977373046875,4.797609329223633,-9.066405296325684,6.953542709350586
1772729288037084000,9.115083984375,10.037891387939453,-5.01296329498291,3.9984066486358643
1772729288054430700,9.1324306640625,9.45164966583252,-4.596612453460693,4.627718925476074
1772729288071777300,9.14977734375,1.0648061037063599,-3.933800458908081,3.6849467754364014
1772729288089124000,9.1671240234375,-3.601198196411133,-2.400001049041748,1.28255295753479
1772729288106470700,9.184470703125,-0.882951557636261,-2.926422119140625,1.3710874319076538
1772729288123817500,9.2018173828125,-0.363709032535553,-2.572284460067749,1.1748759746551514
1772729288141164000,9.2191640625,1.0193424224853516,-2.847458839416504,1.153340458869934
1772729288158510600,9.236510498046876,2.5770699977874756,-5.757131099700928,1.8400806188583374
1772729288175857400,9.253857421875,3.7974095344543457,-10.394421577453613,3.94815731048584
1772729288193204000,9.271203857421876,4.1970109939575195,-14.861821174621582,4.053441524505615
1772729288210550800,9.28855078125,4.534399032592773,-19.211973190307617,9.844072341918945
1772729288227897300,9.3058974609375,5.484349727630615,-16.26162338256836,7.688138961791992
1772729288245244000,9.323243896484374,4.015156269073486,-9.274580955505371,3.548556089401245
1772729288262590700,9.3405908203125,4.261617183685303,-4.151547431945801,-0.9978070259094238
1772729288279937300,9.357937255859374,7.267002582550049,-7.767102241516113,2.4646072387695312
1772729288297284000,9.3752841796875,5.505885124206543,-12.3278226852417,9.449256896972656
1772729288314630700,9.392630615234374,4.335794448852539,-15.605989456176758,9.509077072143555
1772729288331977200,9.409977294921875,-1.5122638940811157,-15.806986808776855,2.447857618331909
1772729288349324000,9.427323974609376,-4.534399032592773,-12.906885147094727,1.5122638940811157
1772729288366670600,9.444670654296875,-3.538984775543213,-9.176474571228027,1.1509476900100708
1772729288384017400,9.462017333984376,-3.586841106414795,-7.877171993255615,1.5960127115249634
1772729288401364000,9.479364013671875,-6.362515449523926,-8.95394229888916,4.524827480316162
1772729288418710800,9.496710693359375,-9.037691116333008,-8.86780071258545,5.402993679046631
1772729288436057300,9.514057373046874,-7.467999458312988,-9.044869422912598,3.620340585708618
1772729288453404200,9.531404052734375,-5.125426292419434,-9.032905578613281,3.170490026473999
1772729288470750700,9.548750732421874,-3.78544545173645,-9.257830619812012,3.4121651649475098
1772729288488097300,9.56609716796875,-1.5098711252212524,-9.272188186645508,3.6083765029907227
1772729288505444000,9.583444091796874,0.9451649188995361,-8.118846893310547,3.4576287269592285
1772729288522790700,9.600790771484375,3.0652058124542236,-8.02074146270752,3.610769271850586
1772729288540137500,9.618137451171876,4.156332969665527,-8.0350980758667,3.4241292476654053
1772729288557484000,9.635484130859375,4.3549370765686035,-6.790830612182617,3.517449378967285
1772729288574830800,9.652830810546876,4.094119548797607,-5.994020938873291,3.1130621433258057
1772729288592177400,9.670177490234375,2.7421748638153076,-5.752345561981201,2.56510591506958
1772729288609524000,9.68752392578125,1.9166508913040161,-4.989035129547119,1.4213366508483887
1772729288626870800,9.704870849609375,0.9475577473640442,-4.902893543243408,0.8877372145652771
1772729288644217300,9.72221728515625,-0.4905286431312561,-5.883950710296631,1.820937991142273
1772729288661564200,9.739564208984374,-1.7324036359786987,-7.154539585113525,2.4646072387695312
1772729288678910700,9.75691064453125,-2.5746772289276123,-8.310273170471191,3.314059257507324
1772729288696257300,9.77425732421875,-1.5170495510101318,-9.073583602905273,4.323830604553223
1772729288713604000,9.79160400390625,-0.7776673436164856,-9.56650447845459,5.800201892852783
1772729288730950700,9.80895068359375,-0.8422735929489136,-10.423135757446289,8.37009334564209
1772729288748297500,9.82629736328125,-1.2729816436767578,-11.861222267150879,11.157732009887695
1772729288765644000,9.84364404296875,0.4570291340351105,-10.475777626037598,11.641081809997559
1772729288782990800,9.860990966796875,3.2279176712036133,-10.293923377990723,9.626325607299805
1772729288800337400,9.87833740234375,2.65842604637146,-13.82812213897705,10.6624174118042
1772729288817684000,9.89568408203125,2.8354947566986084,-15.203994750976562,7.377072334289551
1772729288835030800,9.91303076171875,1.8640087842941284,-14.210973739624023,3.077169895172119
1772729288852377300,9.93037744140625,-0.1698904037475586,-14.758930206298828,2.699103832244873
1772729288869724200,9.94772412109375,-1.2490534782409668,-11.12901782989502,1.5361921787261963
1772729288887070700,9.96507080078125,-3.806980848312378,-8.48734188079834,0.605384111404419
1772729288904417300,9.982417236328125,-11.174481391906738,-6.941578388214111,-1.576870083808899
1772729288921764000,9.99976416015625,-9.614361763000488,-8.662017822265625,-1.1030912399291992
1772729288939110700,10.017110595703125,-9.056833267211914,-9.832108497619629,1.093519926071167
1772729288956457500,10.03445751953125,-5.91505765914917,-11.985648155212402,0.49292147159576416
1772729288973804000,10.051803955078125,-2.115255117416382,-11.83729362487793,1.0193424224853516
1772729288991150600,10.069150634765625,-0.5694918036460876,-9.446864128112793,2.289931297302246
1772729289008497400,10.086497314453124,-0.22013968229293823,-7.769495010375977,3.641875982284546
1772729289025844000,10.103843994140625,0.7537391185760498,-9.030512809753418,6.857829570770264
1772729289043190800,10.121190673828124,5.115854740142822,-9.042476654052734,9.949356079101562
1772729289060537300,10.138537353515625,8.563912391662598,-3.376272678375244,5.836094379425049
1772729289077884000,10.1558837890625,11.181660652160645,-2.0985054969787598,5.654240131378174
1772729289095230700,10.173230712890625,4.563112735748291,-1.4476577043533325,2.9623143672943115
1772729289112577300,10.190577392578126,-0.8614161610603333,-1.8903298377990723,1.373480200767517
1772729289129924000,10.207924072265625,-2.0578274726867676,-3.0412776470184326,1.1509476900100708
1772729289147270700,10.225270751953126,-1.8807586431503296,-3.665804386138916,0.8566305041313171
1772729289164617200,10.2426171875,-1.4117653369903564,-3.957728624343872,1.8161523342132568
1772729289181964000,10.259964111328125,-0.20817556977272034,-6.45822811126709,3.407379388809204
1772729289199310600,10.277310546875,1.0528420209884644,-8.118846893310547,4.146761417388916
1772729289216657400,10.294657470703125,4.1036906242370605,-10.461421012878418,3.4672000408172607
1772729289234004000,10.31200390625,7.020541667938232,-17.58963966369629,8.188239097595215
1772729289251350500,10.3293505859375,7.434499740600586,-17.113468170166016,8.410771369934082
1772729289268697300,10.346697265625,3.493520975112915,-10.892128944396973,3.1657042503356934
1772729289286044000,10.3640439453125,3.077169895172119,-6.446264266967773,-0.8614161610603333
1772729289303390700,10.381390625,7.590033531188965,-9.640682220458984,0.4905286431312561
1772729289320737300,10.3987373046875,9.135796546936035,-13.490734100341797,6.2189459800720215
1772729289338083800,10.416083740234376,5.766702651977539,-14.601003646850586,9.343972206115723
1772729289355430700,10.4334306640625,1.9621145725250244,-11.899506568908691,5.565705299377441
1772729289372777200,10.450777099609375,-1.9046868085861206,-12.136396408081055,2.912065267562866
1772729289390124000,10.4681240234375,-3.4097721576690674,-12.861421585083008,4.029513359069824
1772729289407470600,10.485470703125,-4.620540618896484,-9.903892517089844,3.160918712615967
1772729289424817400,10.5028173828125,-5.635097503662109,-8.846264839172363,2.943171739578247
1772729289442164000,10.5201640625,-6.211767673492432,-8.800801277160645,3.594019651412964
1772729289459510500,10.537510498046874,-6.324230194091797,-8.817551612854004,2.9168508052825928
1772729289476857300,10.554857421875,-5.697310924530029,-9.678967475891113,2.8115665912628174
1772729289494204000,10.572203857421876,-4.01754903793335,-9.556933403015137,3.5844483375549316
1772729289511550500,10.589550537109375,-2.251646041870117,-9.262616157531738,4.386044025421143
1772729289528897300,10.606897216796876,0.009571290574967861,-8.26241683959961,4.405186653137207
1772729289546243800,10.624243896484375,1.7276179790496826,-6.833901405334473,3.871587038040161
1772729289563590700,10.641590576171875,2.667997360229492,-6.5252275466918945,3.431307554244995
1772729289580937200,10.658937255859374,2.6536402702331543,-6.936792850494385,3.081955671310425
1772729289598284000,10.676283935546875,2.3976082801818848,-7.109076023101807,3.744767427444458
1772729289615630600,10.693630615234374,2.541177749633789,-6.424728870391846,3.6849467754364014
1772729289632977200,10.71097705078125,2.557927370071411,-5.520241737365723,2.754138946533203
1772729289650324000,10.728323974609374,2.172683000564575,-4.603790760040283,1.550549030303955
1772729289667670500,10.74567041015625,1.160519003868103,-4.8502516746521,1.1676974296569824
1772729289685017000,10.76301708984375,-0.3732803463935852,-5.9916276931762695,1.6414763927459717
1772729289702364000,10.780364013671875,-1.2897313833236694,-7.032505512237549,1.8041882514953613
1772729289719710500,10.79771044921875,-1.8640087842941284,-9.075976371765137,2.9288148880004883
1772729289737057300,10.815057373046875,-1.6534404754638672,-9.817750930786133,4.752145767211914
1772729289754403800,10.83240380859375,-1.0121639966964722,-10.138389587402344,7.176074981689453
1772729289771750400,10.84975048828125,-1.2658032178878784,-10.884950637817383,10.892128944396973
1772729289789097200,10.86709716796875,-0.01196411345154047,-11.523834228515625,12.488141059875488
1772729289806443800,10.88444384765625,2.400001049041748,-10.576275825500488,11.026126861572266
1772729289823790600,10.90179052734375,2.3090739250183105,-12.973884582519531,9.449256896972656
1772729289841137200,10.91913720703125,1.7467604875564575,-14.847464561462402,8.135597229003906
1772729289858483700,10.936483642578125,0.5527420043945312,-15.594025611877441,6.034698486328125
1772729289875830500,10.95383056640625,-1.0600204467773438,-14.993426322937012,3.6705899238586426
1772729289893177000,10.971177001953125,-1.0217353105545044,-10.076175689697266,1.277767300605774
1772729289910523600,10.988523681640626,-2.469393014907837,-9.765109062194824,0.882951557636261
1772729289927870500,11.005870361328125,-11.571690559387207,-10.088140487670898,-0.48574298620224
1772729289945217000,11.023217041015625,-8.559126853942871,-11.191231727600098,-0.519242525100708
1772729289962563600,11.0405634765625,-6.553941249847412,-11.011770248413086,-0.5168496966362
1772729289979910400,11.057910400390625,-7.025327205657959,-8.819944381713867,-0.4737788736820221
1772729289997257000,11.075257080078124,-4.632504463195801,-8.126026153564453,0.7106683254241943
1772729290014603800,11.092603759765625,-2.9623143672943115,-8.008777618408203,2.572284460067749
1772729290031950300,11.109950439453126,-2.038684844970703,-7.164111137390137,3.665804386138916
1772729290049297000,11.127296875,-0.4043870270252228,-11.492727279663086,9.748359680175781
1772729290066643700,11.144643798828126,4.675575256347656,-8.161917686462402,7.779066562652588
1772729290083990300,11.161990234375,10.894521713256836,-3.830909013748169,4.811966419219971
1772729290101337000,11.179337158203126,9.745966911315918,-2.730210542678833,3.9433717727661133
1772729290118683600,11.19668359375,2.6943182945251465,-1.3758729696273804,2.4670002460479736
1772729290136030200,11.2140302734375,-2.531606435775757,-0.8685946464538574,1.1365907192230225
1772729290153377000,11.231376953125,-1.8831514120101929,-2.447857618331909,1.0049854516983032
1772729290170723600,11.2487236328125,-1.3088740110397339,-2.7397818565368652,1.0815558433532715
1772729290188070100,11.266070068359374,0.23688943684101105,-4.06540584564209,1.4261223077774048
1772729290205417000,11.2834169921875,0.46899324655532837,-7.393822193145752,2.9216363430023193
1772729290222763500,11.300763427734376,1.4141582250595093,-11.320444107055664,4.651647090911865
1772729290240110300,11.3181103515625,3.814159393310547,-15.03888988494873,5.106283664703369
1772729290257457000,11.335456787109376,8.60459041595459,-19.420148849487305,9.765109062194824
1772729290274803500,11.352803466796875,8.516056060791016,-13.816158294677734,6.025127410888672
1772729290292150300,11.370150390625,3.452843189239502,-7.125825881958008,1.526620864868164
1772729290309496800,11.387496826171875,2.5124638080596924,-7.542177200317383,-1.2179467678070068
1772729290326843400,11.404843505859375,5.07517671585083,-12.098111152648926,5.477170944213867
1772729290344190200,11.422190185546874,4.1730828285217285,-15.079567909240723,10.724631309509277
1772729290361536800,11.439536865234375,1.6342978477478027,-13.787444114685059,4.986642360687256
1772729290378883600,11.456883544921874,-3.5341989994049072,-12.437891960144043,1.6845471858978271
1772729290396230100,11.474230224609375,-5.103890895843506,-11.229516983032227,3.014956474304199
1772729290413576700,11.49157666015625,-5.020142078399658,-9.525827407836914,3.3571300506591797
1772729290430923300,11.50892333984375,-6.403193473815918,-9.899106979370117,5.099104881286621
1772729290448270000,11.52627001953125,-8.193024635314941,-9.09272575378418,6.429514408111572
1772729290465616600,11.54361669921875,-8.350951194763184,-8.786444664001465,4.517649173736572
1772729290482963500,11.56096337890625,-6.5419769287109375,-8.886942863464355,2.280359983444214
1772729290500310000,11.57831005859375,-4.785645484924316,-8.915657043457031,2.6321048736572266
1772729290517656800,11.59565673828125,-3.1824541091918945,-9.32004451751709,3.28773832321167
1772729290535003400,11.61300341796875,-0.14117653667926788,-8.367700576782227,3.8739798069000244
1772729290552350000,11.630349853515625,3.625126361846924,-8.154739379882812,3.864408493041992
1772729290569696800,11.64769677734375,4.919643402099609,-8.508877754211426,4.122833251953125
1772729290587043300,11.665043212890625,4.996213912963867,-7.008577346801758,3.3954153060913086
1772729290604390000,11.682389892578126,4.682754039764404,-5.962913990020752,2.667997360229492
1772729290621736700,11.69973681640625,3.6873397827148438,-5.127819061279297,2.287538528442383
1772729290639083300,11.717083251953126,2.225325107574463,-4.6061835289001465,2.306680917739868
1772729290656429800,11.734429931640625,0.8350951075553894,-4.862215518951416,2.3569302558898926
1772729290673776600,11.751776611328125,-0.3038884699344635,-5.737988471984863,2.65842604637146
1772729290691123200,11.769123291015624,-1.423729419708252,-6.7932233810424805,2.888136863708496
1772729290708470000,11.786469970703125,-2.8689942359924316,-8.228917121887207,3.78544545173645
1772729290725816600,11.803816650390624,-2.9551360607147217,-8.7505521774292,5.168497085571289
1772729290743163100,11.8211630859375,-2.3401806354522705,-9.243474006652832,6.726224422454834
1772729290760510000,11.838510009765624,-2.7876384258270264,-9.985248565673828,9.951749801635742
1772729290777856500,11.8558564453125,-1.2705888748168945,-10.928021430969238,11.334800720214844
1772729290795203000,11.873203125,1.9956140518188477,-10.762916564941406,9.324830055236816
1772729290812550000,11.8905498046875,2.9838497638702393,-11.411371231079102,7.458428382873535
1772729290829896400,11.907896484375,2.273181438446045,-13.907085418701172,7.630711555480957
1772729290847243000,11.925242919921875,1.4859428405761719,-14.998211860656738,6.230910301208496
1772729290864589800,11.94258984375,-0.42352959513664246,-16.984254837036133,5.66620397567749
1772729290881936400,11.959936279296874,-0.576670229434967,-11.901900291442871,2.9838497638702393
1772729290899283200,11.977283203125,-1.00259268283844,-8.681160926818848,1.4524433612823486
1772729290916629800,11.994629638671874,-5.072783946990967,-10.444670677185059,1.3495519161224365
1772729290933976300,12.011976318359375,-10.77966594696045,-9.937392234802246,-0.48095735907554626
1772729290951323100,12.0293232421875,-7.850851058959961,-11.779866218566895,-0.2991028428077698
1772729290968669700,12.046669677734375,-8.126026153564453,-10.578668594360352,-0.19621145725250244
1772729290986016300,12.064016357421876,-6.0610198974609375,-9.080761909484863,-0.08135596662759781
1772729291003363000,12.081363037109375,-3.761517286300659,-8.190631866455078,2.038684844970703
1772729291020709600,12.098709716796876,-2.4406790733337402,-7.401000499725342,3.649054527282715
1772729291038056200,12.11605615234375,-1.5290136337280273,-7.458428382873535,3.9601213932037354
1772729291055403000,12.133403076171875,2.8354947566986084,-11.064412117004395,10.961520195007324
1772729291072749600,12.15074951171875,6.7621169090271,-5.108676433563232,5.3312087059021
1772729291090096000,12.16809619140625,12.004791259765625,-3.232703447341919,4.548755645751953
1772729291107443000,12.18544287109375,6.946363925933838,-2.1678972244262695,3.326023578643799
1772729291124789500,12.20278955078125,-1.3878371715545654,-0.8877372145652771,2.1511476039886475
1772729291142136300,12.22013623046875,-3.814159393310547,-1.9692929983139038,1.0336993932724
1772729291159483000,12.23748291015625,-1.978864312171936,-2.6943182945251465,0.7250252366065979
1772729291176829400,12.254829345703126,0.09092725813388824,-3.4265220165252686,0.5048855543136597
1772729291194176300,12.27217626953125,0.20817556977272034,-5.134997367858887,1.9022940397262573
1772729291211522800,12.289522705078125,0.4833501875400543,-9.032905578613281,4.6061835289001465
1772729291228869400,12.306869384765625,2.400001049041748,-13.615160942077637,5.92223596572876
1772729291246216200,12.32421630859375,7.427321434020996,-17.24028778076172,7.776673793792725
1772729291263562800,12.341562744140624,10.265209197998047,-16.591833114624023,9.181260108947754
1772729291280909300,12.358909423828125,5.546562671661377,-11.10748291015625,4.268795490264893
1772729291298256000,12.376255859375,1.8616160154342651,-6.714260101318359,-0.6197410821914673
1772729291315602700,12.393602783203125,2.383251428604126,-9.937392234802246,0.45942193269729614
1772729291332949200,12.41094921875,5.4556355476379395,-13.684553146362305,7.5565338134765625
1772729291350296000,12.428296142578125,5.2043890953063965,-14.000405311584473,10.430314064025879
1772729291367642600,12.445642578125,2.029113531112671,-12.595818519592285,5.800201892852783
1772729291384989200,12.4629892578125,-2.7517459392547607,-10.514062881469727,2.043470621109009
1772729291402336000,12.4803359375,-4.311866283416748,-9.970891952514648,3.4504501819610596
1772729291419682600,12.4976826171875,-3.460021495819092,-8.920442581176758,3.4576287269592285
1772729291437029000,12.515029052734375,-4.6061835289001465,-8.547162055969238,3.972085475921631
1772729291454376000,12.5323759765625,-5.927021503448486,-8.86062240600586,5.553741455078125
1772729291471722500,12.549722412109375,-6.262016773223877,-9.475577354431152,5.9676995277404785
1772729291489069000,12.567069091796874,-5.115854740142822,-9.695717811584473,4.383651256561279
1772729291506415900,12.584415771484375,-3.7471601963043213,-9.30329418182373,3.4887354373931885
1772729291523762400,12.601762451171876,-2.524427890777588,-8.800801277160645,3.603590965270996
1772729291541109000,12.61910888671875,-0.6245267391204834,-7.869993686676025,3.572484254837036
1772729291558455800,12.636455810546876,1.2969099283218384,-7.501499176025391,3.036491870880127
1772729291575802400,12.65380224609375,2.5220351219177246,-7.618747234344482,3.25663161277771
1772729291593149000,12.67114892578125,3.5030922889709473,-7.456035137176514,3.1345977783203125
1772729291610495700,12.688495849609374,3.5150563716888428,-6.831508636474609,2.744567632675171
1772729291627842300,12.70584228515625,2.5914268493652344,-6.333801746368408,2.7182464599609375
1772729291645188900,12.72318896484375,1.6390835046768188,-5.6685967445373535,2.785245656967163
1772729291662535700,12.74053564453125,0.7369893789291382,-4.984249591827393,2.7349963188171387
1772729291679882200,12.75788232421875,0.20099709928035736,-5.266602516174316,3.0795626640319824
1772729291697228800,12.775228759765625,-0.038285162299871445,-5.850451469421387,3.483949661254883
1772729291714575600,12.79257568359375,-0.0023928226437419653,-6.589833736419678,3.94097900390625
1772729291731922200,12.809922119140625,-0.02632104977965355,-7.594819068908691,4.898108005523682
1772729291749268700,12.827268798828126,-0.9930213689804077,-8.429914474487305,6.185446739196777
1772729291766615600,12.844615478515625,-2.414358139038086,-9.889535903930664,8.047062873840332
1772729291783962000,12.861962158203125,-3.82373046875,-10.554740905761719,10.028319358825684
1772729291801309000,12.879308837890624,-0.39481574296951294,-10.750951766967773,8.35573673248291
1772729291818655500,12.896655517578125,2.053041934967041,-10.344172477722168,6.398407936096191
1772729291836002000,12.914001953125,3.610769271850586,-12.729816436767578,6.8865437507629395
1772729291853348900,12.931348876953125,2.7349963188171387,-16.36212158203125,8.204988479614258
1772729291870695400,12.9486953125,1.2658032178878784,-17.86481475830078,7.231110095977783
1772729291888042000,12.9660419921875,1.0504491329193115,-14.59621810913086,5.623133182525635
1772729291905388500,12.983388427734376,-0.3038884699344635,-9.841679573059082,4.000799655914307
1772729291922735400,13.0007353515625,-1.7467604875564575,-8.58066177368164,2.957528829574585
1772729291940082000,13.01808203125,-5.757131099700928,-9.396614074707031,3.1561331748962402
1772729291957428500,13.035428466796875,-9.779465675354004,-8.616554260253906,2.0817556381225586
1772729291974775300,13.052775390625,-6.898507595062256,-10.564311981201172,1.8951154947280884
1772729291992121900,13.070121826171874,-6.97268533706665,-9.877572059631348,0.7106683254241943
1772729292009468400,13.087468505859375,-6.180660724639893,-9.059226989746094,0.4211367964744568
1772729292026815200,13.104815185546874,-3.689732551574707,-7.9728851318359375,1.6869399547576904
1772729292044161800,13.122161865234375,-2.5052852630615234,-7.310073375701904,3.352344512939453
1772729292061508400,13.13950830078125,-1.34476637840271,-6.936792850494385,3.586841106414795
1772729292078855200,13.156855224609375,0.8470591902732849,-12.284751892089844,11.34676456451416
1772729292096201700,13.17420166015625,5.9198431968688965,-6.675975322723389,5.888736724853516
1772729292113548300,13.19154833984375,13.24427318572998,-4.000799655914307,4.218546390533447
1772729292130895000,13.20889501953125,8.094919204711914,-2.4670002460479736,3.4025938510894775
1772729292148241700,13.22624169921875,-0.7561319470405579,-1.31365966796875,2.1511476039886475
1772729292165588200,13.243588134765625,-2.139183521270752,-2.4430718421936035,1.4021940231323242
1772729292182935000,13.26093505859375,-1.5792629718780518,-3.376272678375244,1.3280165195465088
1772729292200281600,13.278281494140625,-1.3663017749786377,-3.1250264644622803,0.914058268070221
1772729292217628200,13.295628173828124,-0.16271193325519562,-5.084748268127441,1.1509476900100708
1772729292234975000,13.31297509765625,-0.33738797903060913,-9.107083320617676,3.7232320308685303
1772729292252321500,13.330321533203126,0.3900300860404968,-12.344572067260742,5.13739013671875
1772729292269668000,13.347668212890625,4.878965377807617,-14.031512260437012,4.256831645965576
1772729292287015000,13.365014892578126,9.32004451751709,-17.740386962890625,9.257830619812012
1772729292304361500,13.382361572265625,7.331608772277832,-12.91645622253418,5.6207404136657715
1772729292321708000,13.3997080078125,4.340580463409424,-8.248059272766113,0.8733802437782288
1772729292339054800,13.417054931640624,5.309673309326172,-9.265008926391602,0.05503492057323456
1772729292356401400,13.4344013671875,5.948556900024414,-12.332608222961426,5.771488189697266
1772729292373748000,13.451748046875,5.0464630126953125,-13.942977905273438,10.581061363220215
1772729292391094800,13.4690947265625,3.2039895057678223,-12.44985580444336,7.300501823425293
1772729292408441300,13.48644140625,-1.3399807214736938,-10.980663299560547,2.620140790939331
1772729292425788000,13.503787841796875,-3.046063184738159,-10.693524360656738,3.4002010822296143
1772729292443134700,13.521134765625,-2.7661030292510986,-8.444271087646484,3.1992039680480957
1772729292460481300,13.538481201171875,-3.864408493041992,-7.858029365539551,3.9433717727661133
1772729292477827800,13.555827880859376,-5.553741455078125,-8.298309326171875,5.249852657318115
1772729292495174700,13.573174560546875,-7.441678524017334,-9.657432556152344,6.668796539306641
1772729292512521200,13.590521240234375,-5.97727108001709,-10.04985523223877,5.168497085571289
1772729292529867800,13.60786767578125,-5.146961688995361,-9.284152030944824,2.8498518466949463
1772729292547214600,13.625214599609375,-3.7112679481506348,-9.272188186645508,2.8666014671325684
1772729292564561200,13.64256103515625,-1.4476577043533325,-9.401400566101074,3.3164522647857666
1772729292581907700,13.65990771484375,-0.31345975399017334,-8.83669376373291,3.28773832321167
1772729292599254300,13.677254150390626,1.6151553392410278,-7.558926582336426,3.036491870880127
1772729292616601000,13.69460107421875,3.3092737197875977,-7.154539585113525,2.723032236099243
1772729292633947600,13.71194775390625,4.1491546630859375,-7.0683979988098145,2.6943182945251465
1772729292651294200,13.729294189453125,3.7160534858703613,-6.821937561035156,3.014956474304199
1772729292668641000,13.74664111328125,2.8498518466949463,-5.694917678833008,2.9527430534362793
1772729292685987600,13.763987548828124,1.8735800981521606,-4.735395908355713,2.68953275680542
1772729292703334100,13.781334228515625,0.8757730722427368,-4.737788677215576,2.7326035499572754
1772729292720681000,13.798680908203124,0.22971096634864807,-5.8337016105651855,3.1585259437561035
1772729292738027500,13.816027587890625,-0.24406790733337402,-7.250252723693848,3.170490026473999
1772729292755374000,13.8333740234375,0.12681959569454193,-8.300702095031738,3.735196113586426
1772729292772721000,13.850720947265625,0.038285162299871445,-8.975478172302246,5.170889854431152
1772729292790067500,13.8680673828125,-0.638883650302887,-9.540184020996094,6.876972198486328
1772729292807414000,13.8854140625,-1.4213366508483887,-10.389636039733887,9.748359680175781
1772729292824760800,13.9027607421875,-0.9499505758285522,-11.145768165588379,11.164910316467285
1772729292842107400,13.920107421875,1.9070796966552734,-9.954142570495605,9.556933403015137
1772729292859454000,13.937453857421875,2.794816732406616,-11.026126861572266,8.556734085083008
1772729292876800500,13.954800537109374,2.6703901290893555,-14.287544250488281,9.032905578613281
1772729292894147300,13.972147216796875,2.675175666809082,-14.024333953857422,5.623133182525635
1772729292911494000,13.989493896484374,1.545763373374939,-13.96690559387207,3.493520975112915
1772729292928840400,14.00684033203125,0.13878370821475983,-12.710674285888672,2.5531418323516846
1772729292946187300,14.024187255859376,-0.5120640397071838,-8.57348346710205,0.8446664214134216
1772729292963533800,14.041533935546875,-4.0319061279296875,-9.999606132507324,1.4883357286453247
1772729292980880400,14.05888037109375,-12.342179298400879,-10.358529090881348,0.7704889178276062
1772729292998227200,14.076227294921875,-8.752944946289062,-11.906685829162598,1.4644074440002441
1772729293015573800,14.09357373046875,-6.262016773223877,-11.23908805847168,1.730010747909546
1772729293032920300,14.11092041015625,-4.5583271980285645,-9.81535816192627,1.6175481081008911
1772729293050267100,14.12826708984375,-2.407179594039917,-8.662017822265625,2.715853691101074
1772729293067613700,14.14561376953125,-1.4069796800613403,-7.9250288009643555,4.350151538848877
1772729293084960300,14.162960205078125,-0.6436693072319031,-6.168696880340576,4.878965377807617
1772729293102306800,14.180306884765624,0.1579262912273407,-5.0225348472595215,5.032105922698975
1772729293119653600,14.197653564453125,4.8813581466674805,-10.1814603805542,12.287144660949707
1772729293137000200,14.215000244140626,6.664011001586914,-4.3070807456970215,6.034698486328125
1772729293154346800,14.2323466796875,8.305487632751465,-2.0195422172546387,3.955335855484009
1772729293171693600,14.249693603515626,4.445864677429199,-1.2610175609588623,1.8783657550811768
1772729293189040000,14.2670400390625,0.09092725813388824,-2.500499725341797,0.973878800868988
1772729293206386700,14.28438671875,-1.552941918373108,-3.3619158267974854,1.196411371231079
1772729293223733500,14.3017333984375,-2.2444677352905273,-4.398007869720459,1.5984054803848267
1772729293241080000,14.319080078125,-2.3569302558898926,-7.0683979988098145,3.280559778213501
1772729293258426600,14.336426513671874,-2.069791555404663,-9.09272575378418,3.460021495819092
1772729293275773400,14.3537734375,-0.5000999569892883,-10.320243835449219,2.644068956375122
1772729293293120000,14.3711201171875,3.3786656856536865,-12.990633964538574,2.423929452896118
1772729293310466600,14.388466552734375,9.487542152404785,-17.697317123413086,7.77188777923584
1772729293327813000,14.405813232421876,10.794022560119629,-12.519248008728027,5.814558982849121
1772729293345160000,14.423159912109375,5.92223596572876,-8.248059272766113,3.524627685546875
1772729293362506500,14.440506591796876,0.8542376756668091,-9.726823806762695,3.8907296657562256
1772729293379853000,14.45785302734375,4.280759811401367,-13.808979034423828,6.216553211212158
1772729293397199600,14.47519970703125,5.300102233886719,-14.048261642456055,8.757730484008789
1772729293414546400,14.49254638671875,3.4504501819610596,-11.559725761413574,3.7950167655944824
1772729293431893000,14.50989306640625,-1.5672988891601562,-10.801201820373535,-0.3517449200153351
1772729293449239600,14.527239501953124,-3.2685956954956055,-10.75813102722168,1.191625714302063
1772729293466586400,14.54458642578125,-3.5581271648406982,-8.322237014770508,2.4430718421936035
1772729293483933000,14.561932861328126,-5.627918720245361,-8.650053977966309,4.752145767211914
1772729293501279500,14.579279541015625,-7.642675399780273,-10.332208633422852,7.355536937713623
1772729293518626300,14.596626220703126,-7.152146816253662,-11.076375961303711,7.554141044616699
1772729293535972900,14.613972900390625,-4.66361141204834,-10.490134239196777,5.438885688781738
1772729293553319400,14.6313193359375,-2.713460922241211,-10.255638122558594,4.046263217926025
1772729293570666000,14.648666015625,-1.703689694404602,-10.310672760009766,3.7399818897247314
1772729293588012800,14.6660126953125,-0.7704889178276062,-9.090332984924316,3.074777126312256
1772729293605359400,14.683359375,0.7848458290100098,-8.085348129272461,2.715853691101074
1772729293622706000,14.700705810546875,2.4885356426239014,-7.767102241516113,2.792423963546753
1772729293640052700,14.718052734375,3.9912281036376953,-7.458428382873535,2.871387243270874
1772729293657399300,14.7353994140625,4.268795490264893,-7.307680130004883,2.9048867225646973
1772729293674745900,14.752745849609376,4.053441524505615,-6.678368091583252,3.0412776470184326
1772729293692092700,14.7700927734375,3.570091485977173,-5.359922885894775,2.2707886695861816
1772729293709439200,14.787439208984376,2.5124638080596924,-3.9936211109161377,1.3519448041915894
1772729293726785800,14.804785888671875,1.397408366203308,-3.672982692718506,1.5194423198699951
1772729293744132400,14.82213232421875,0.4091726839542389,-4.855037212371826,3.1130621433258057
1772729293761479200,14.839479248046874,-0.3326023519039154,-6.460621356964111,3.8979079723358154
1772729293778825700,14.85682568359375,-0.0526420995593071,-7.8628153800964355,4.3549370765686035
1772729293796172300,14.87417236328125,0.24406790733337402,-8.6907320022583,5.350351333618164
1772729293813518800,14.891518798828125,-0.6963114142417908,-8.989834785461426,6.5252275466918945
1772729293830865700,14.90886572265625,-2.1822543144226074,-9.643074989318848,8.571090698242188
1772729293848212200,14.926212158203125,-2.524427890777588,-10.753344535827637,9.633503913879395
1772729293865558800,14.943558837890626,0.6293123364448547,-9.923035621643066,8.994620323181152
1772729293882905600,14.960905517578125,2.531606435775757,-11.454442024230957,7.616354465484619
1772729293900252200,14.978252197265626,2.806781053543091,-15.50788402557373,6.790830612182617
1772729293917598700,14.9955986328125,3.081955671310425,-16.730615615844727,5.1565327644348145
1772729293934945500,15.012945556640625,1.9764715433120728,-16.252052307128906,4.242474555969238
1772729293952292000,15.0302919921875,0.44027936458587646,-12.083754539489746,2.620140790939331
1772729293969638700,15.047638671875,-0.27038896083831787,-9.159725189208984,1.373480200767517
1772729293986985200,15.064985107421874,-3.5772697925567627,-11.320444107055664,1.643869161605835
1772729294004332000,15.08233203125,-11.80618667602539,-11.270195007324219,1.2849457263946533
1772729294021678600,15.0996787109375,-7.843672752380371,-11.531012535095215,1.1030912399291992
1772729294039025200,15.117025146484375,-6.876972198486328,-10.394421577453613,0.6005984544754028
1772729294056371700,15.134371826171876,-5.185246467590332,-9.145368576049805,1.2658032178878784
1772729294073718500,15.151718505859375,-3.273381471633911,-8.080561637878418,2.9718856811523438
1772729294091065000,15.169065185546875,-1.8616160154342651,-7.3675007820129395,4.34536600112915
1772729294108411600,15.18641162109375,-1.0719845294952393,-6.192625045776367,5.010570526123047
1772729294125758200,15.20375830078125,2.50289249420166,-12.009576797485352,12.904492378234863
1772729294143105000,15.22110498046875,6.080162525177002,-6.190232276916504,6.936792850494385
1772729294160451600,15.23845166015625,9.822537422180176,-3.902693748474121,4.3310089111328125
1772729294177798400,15.25579833984375,6.795616149902344,-2.794816732406616,2.2396819591522217
1772729294195145000,15.27314501953125,0.5599204897880554,-2.1607189178466797,1.4093725681304932
1772729294212491500,15.290491455078126,-2.2444677352905273,-1.8161523342132568,1.301695466041565
1772729294229838000,15.307838134765625,-2.610569477081299,-2.414358139038086,1.074377417564392
1772729294247185000,15.325184814453126,-1.6534404754638672,-2.9383862018585205,1.1724830865859985
1772729294264531500,15.342531494140625,-0.2512463629245758,-6.149554252624512,3.105883836746216
1772729294281878000,15.3598779296875,0.2225325107574463,-9.030512809753418,3.1968109607696533
1772729294299224600,15.377224609375,0.3397808074951172,-11.7056884765625,3.053241729736328
1772729294316571400,15.3945712890625,4.383651256561279,-14.711073875427246,5.1876397132873535
1772729294333918000,15.41191796875,8.38684368133545,-16.381263732910156,8.872586250305176
1772729294351264500,15.429264404296875,7.317251682281494,-11.320444107055664,6.034698486328125
1772729294368611000,15.446611083984376,3.9194436073303223,-6.723831653594971,4.07258415222168
1772729294385958000,15.4639580078125,6.640082836151123,-7.336394309997559,2.706282377243042
1772729294403304400,15.481304443359376,6.927221775054932,-11.322836875915527,6.005984783172607
1772729294420651000,15.498651123046875,2.196611166000366,-15.31885051727295,8.539983749389648
1772729294437997600,15.51599755859375,-0.45942193269729614,-14.871393203735352,2.548356056213379
1772729294455344400,15.533344482421874,-4.235296249389648,-13.696516990661621,-0.363709032535553
1772729294472691000,15.55069091796875,-4.4243292808532715,-11.466405868530273,1.7682958841323853
1772729294490037500,15.56803759765625,-3.462414264678955,-9.265008926391602,2.2444677352905273
1772729294507384300,15.58538427734375,-3.9864425659179688,-10.17428207397461,3.6059837341308594
1772729294524731000,15.60273095703125,-5.831308841705322,-10.628918647766113,5.941378593444824
1772729294542077400,15.620077392578125,-6.577869415283203,-10.322636604309082,7.264609336853027
1772729294559424000,15.637424072265626,-5.520241737365723,-10.468599319458008,6.436692714691162
1772729294576770800,15.654770751953125,-4.474578380584717,-9.34875774383545,4.790431022644043
1772729294594117400,15.672117431640626,-3.4097721576690674,-8.394021987915039,3.565305709838867
1772729294611464000,15.6894638671875,-1.222732424736023,-7.22871732711792,2.610569477081299
1772729294628810800,15.706810791015625,0.45224347710609436,-7.551748275756836,2.926422119140625
1772729294646157300,15.7241572265625,2.227717876434326,-7.970492362976074,3.428914785385132
1772729294663504000,15.74150390625,4.156332969665527,-8.11406135559082,3.9314076900482178
1772729294680850400,15.758850341796874,5.613562107086182,-6.97986364364624,3.352344512939453
1772729294698197200,15.776197265625,5.4867424964904785,-5.4628143310546875,2.203789710998535
1772729294715543800,15.793543701171876,3.589233875274658,-3.81655216217041,1.2035897970199585
1772729294732890400,15.810890380859375,1.191625714302063,-3.761517286300659,1.3543375730514526
1772729294750237000,15.82823681640625,-0.17706887423992157,-4.902893543243408,2.610569477081299
1772729294767583700,15.845583740234375,-0.6604190468788147,-6.278766632080078,3.5461630821228027
1772729294784930300,15.862930419921875,-1.332802176475525,-8.530412673950195,4.027120590209961
1772729294802276900,15.88027685546875,-1.098305583000183,-9.42772102355957,5.120640277862549
1772729294819623400,15.89762353515625,-1.2203395366668701,-9.123832702636719,7.664210796356201
1772729294836970200,15.91497021484375,-3.0412776470184326,-8.72183895111084,9.753145217895508
1772729294854316800,15.93231689453125,-2.6608188152313232,-11.310873031616211,11.375478744506836
1772729294871663400,15.949663330078126,0.9978070259094238,-10.51645565032959,8.834300994873047
1772729294889010000,15.967010009765625,3.0891339778900146,-10.545169830322266,6.2500529289245605
1772729294906356700,15.984356689453126,3.7088751792907715,-14.624932289123535,7.6666035652160645
1772729294923703300,16.001703369140625,3.7567315101623535,-15.833307266235352,5.5345988273620605
1772729294941049900,16.0190498046875,2.3784656524658203,-16.350156784057617,3.7902309894561768
1772729294958396400,16.036396484375,0.8135597109794617,-14.541183471679688,3.589233875274658
1772729294975743200,16.0537431640625,-0.8733802437782288,-10.26760196685791,2.5124638080596924
1772729294993089800,16.07108984375,-4.398007869720459,-10.925628662109375,2.6057839393615723
1772729295010436400,16.088436279296875,-14.445469856262207,-9.53779125213623,0.11006984114646912
1772729295027783000,16.105782958984374,-9.590433120727539,-10.202995300292969,0.5527420043945312
1772729295045129700,16.123129638671877,-6.104090690612793,-11.277373313903809,0.16271193325519562
1772729295062476300,16.140476318359376,-5.120640277862549,-9.628718376159668,-0.23449662327766418
1772729295079822800,16.15782275390625,-3.201596736907959,-8.898907661437988,1.2969099283218384
1772729295097169400,16.17516943359375,-1.5385849475860596,-8.10688304901123,3.22552490234375
1772729295114516200,16.19251611328125,-1.0815558433532715,-6.965506553649902,4.565505504608154
1772729295131862800,16.20986279296875,-0.6221339106559753,-5.910272121429443,5.053641319274902
1772729295149209300,16.227209228515626,3.0939197540283203,-9.970891952514648,11.765508651733398
1772729295166556000,16.244555908203125,6.151947021484375,-5.699703693389893,8.312665939331055
1772729295183902700,16.26190283203125,7.700103282928467,-2.2636101245880127,5.036891460418701
1772729295201249300,16.279249267578123,6.422336101531982,-0.5407779216766357,2.2444677352905273
1772729295218595800,16.296595947265626,2.5914268493652344,-1.9070796966552734,0.8877372145652771
1772729295235942400,16.3139423828125,0.380458801984787,-3.342773199081421,1.0241280794143677
1772729295253289200,16.331289306640624,-1.526620864868164,-3.460021495819092,1.1054840087890625
1772729295270635800,16.3486357421875,-2.840280532836914,-6.754938125610352,3.6155550479888916
1772729295287982300,16.365982421875,-2.8977081775665283,-9.647860527038574,4.838287353515625
1772729295305329000,16.383328857421876,-1.9094724655151367,-10.738987922668457,4.749752998352051
1772729295322675700,16.40067578125,0.7345965504646301,-12.191431045532227,4.132404804229736
1772729295340022300,16.418022216796874,8.082955360412598,-16.11087417602539,7.3746795654296875
1772729295357368800,16.435368896484373,11.861222267150879,-11.68175983428955,3.541377544403076
1772729295374715600,16.452715576171876,10.317851066589355,-9.061619758605957,0.5024927258491516
1772729295392062200,16.470062255859375,2.5746772289276123,-9.336793899536133,1.3495519161224365
1772729295409408800,16.48740869140625,-1.9453648328781128,-15.388242721557617,7.860422611236572
1772729295426755300,16.50475537109375,-0.05503492057323456,-14.376078605651855,8.116454124450684
1772729295444102000,16.522101806640624,3.153740167617798,-10.913663864135742,5.467599868774414
1772729295461448700,16.53944873046875,0.4331009089946747,-11.48794174194336,2.8737800121307373
1772729295478795300,16.556795166015625,-3.397808074951172,-10.715060234069824,3.713660717010498
1772729295496141800,16.574141845703124,-4.658825874328613,-9.913464546203613,4.201796531677246
1772729295513488400,16.59148828125,-6.013163089752197,-9.57607650756836,5.00578498840332
1772729295530835200,16.608835205078126,-7.590033531188965,-9.997213363647461,6.436692714691162
1772729295548181800,16.626181640625,-6.623332977294922,-10.466206550598145,6.149554252624512
1772729295565528300,16.6435283203125,-5.343173027038574,-9.65503978729248,4.287938117980957
1772729295582875000,16.660875,-4.316651821136475,-9.32722282409668,3.462414264678955
1772729295600221700,16.6782216796875,-2.5770699977874756,-9.509077072143555,2.5746772289276123
1772729295617568300,16.695568359375,-1.00259268283844,-9.20279598236084,2.5842485427856445
1772729295634914800,16.712914794921875,1.8783657550811768,-9.011369705200195,2.431107759475708
1772729295652261400,16.730261474609375,4.914857864379883,-8.896514892578125,2.5674986839294434
1772729295669608200,16.747608154296874,6.063412666320801,-7.506284713745117,2.0578274726867676
1772729295686954800,16.764954833984376,5.826523303985596,-6.276373863220215,2.0099709033966064
1772729295704301300,16.78230126953125,3.6993038654327393,-5.058426856994629,2.201396942138672
1772729295721647900,16.79964794921875,2.3808584213256836,-3.9314076900482178,2.093719720840454
1772729295738994400,16.816994384765625,1.007378339767456,-4.110869407653809,2.6799614429473877
1772729295756341200,16.83434130859375,0,-5.402993679046631,3.572484254837036
1772729295773687800,16.851687744140627,-0.5359922647476196,-6.678368091583252,3.8333017826080322
1772729295791034400,16.869034423828126,-0.5551348328590393,-7.379465103149414,3.376272678375244
1772729295808381000,16.886380859375,-0.9427721500396729,-8.204988479614258,3.81655216217041
1772729295825727700,16.903727783203124,-2.179861545562744,-9.279366493225098,5.3455657958984375
1772729295843074300,16.92107421875,-3.476771354675293,-9.765109062194824,6.209374904632568
1772729295860420900,16.9384208984375,-5.115854740142822,-12.643674850463867,8.819944381713867
1772729295877767400,16.955767333984376,0.7704889178276062,-11.849257469177246,8.910871505737305
1772729295895114200,16.9731142578125,6.893722057342529,-9.315258979797363,7.501499176025391
1772729295912460800,16.990460693359374,7.9968132972717285,-11.7056884765625,6.087340831756592
1772729295929807400,17.007807373046877,4.086941242218018,-14.773286819458008,6.228517532348633
1772729295947154000,17.02515380859375,1.3351950645446777,-11.751152038574219,4.362115859985352
1772729295964500700,17.042500732421875,-0.3278166949748993,-11.523834228515625,4.00319242477417
1772729295981847300,17.059847412109374,-3.012563705444336,-12.189038276672363,4.804787635803223
1772729295999193900,17.07719384765625,-6.573083877563477,-9.394221305847168,4.168296813964844
1772729296016540400,17.09454052734375,-8.34855842590332,-9.154939651489258,2.7565317153930664
1772729296033887000,17.111886962890626,-4.0079779624938965,-11.904293060302734,2.557927370071411
1772729296051233800,17.12923388671875,-4.254438877105713,-10.805987358093262,2.0650060176849365
1772729296068580400,17.146580322265624,-5.539384365081787,-9.456435203552246,0.9451649188995361
1772729296085927000,17.163927001953127,-4.261617183685303,-9.059226989746094,1.3615161180496216
1772729296103273500,17.1812734375,-2.7086751461029053,-8.719446182250977,3.170490026473999
1772729296120620300,17.198620361328125,-1.4500504732131958,-7.534998416900635,4.400400638580322
1772729296137966800,17.215966796875,-0.7369893789291382,-5.9509501457214355,4.984249591827393
1772729296155313400,17.2333134765625,0.49292147159576416,-4.965106964111328,5.426921844482422
1772729296172660000,17.250659912109374,3.029313564300537,-6.5252275466918945,7.355536937713623
1772729296190006800,17.2680068359375,6.8554368019104,-7.458428382873535,8.50169849395752
1772729296207353300,17.285353271484375,8.930013656616211,-2.0003998279571533,3.656233072280884
1772729296224700000,17.302699951171874,7.054041385650635,-1.672582983970642,1.3710874319076538
1772729296242046500,17.32004638671875,2.6081767082214355,-2.4335005283355713,1.7754744291305542
1772729296259393000,17.33739306640625,-0.09092725813388824,-3.4719855785369873,3.208775281906128
1772729296276739800,17.35473974609375,-2.2468605041503906,-6.068198204040527,4.249652862548828
1772729296294086400,17.37208642578125,-4.835894584655762,-8.628518104553223,3.9385859966278076
1772729296311433000,17.389432861328125,-4.347758769989014,-9.456435203552246,2.8283164501190186
1772729296328779500,17.406779541015624,-0.2560320198535919,-10.549955368041992,1.4572290182113647
1772729296346126000,17.4241259765625,5.182853698730469,-16.706687927246094,5.245067119598389
1772729296363473000,17.441472900390625,8.329415321350098,-14.510076522827148,4.012763500213623
1772729296380819500,17.4588193359375,8.94676399230957,-10.023533821105957,5.376672267913818
1772729296398166000,17.476166015625,4.893322467803955,-7.338787078857422,5.6685967445373535
1772729296415512600,17.4935126953125,3.7423746585845947,-9.463613510131836,9.549755096435547
1772729296432859400,17.510859375,1.4644074440002441,-13.308879852294922,8.34855842590332
1772729296450206000,17.5282060546875,-4.326223373413086,-16.88854217529297,2.2085752487182617
1772729296467552500,17.545552490234375,-7.362715244293213,-17.563318252563477,0.14356936514377594
1772729296484899000,17.562899169921874,-4.158725738525391,-12.598211288452148,-0.4666004180908203
1772729296502245600,17.58024560546875,-2.4263222217559814,-7.860422611236572,1.5625132322311401
1772729296519592400,17.597592529296875,-1.6941183805465698,-8.894122123718262,6.943971157073975
1772729296536939000,17.61493896484375,-5.584847927093506,-10.631311416625977,8.329415321350098
1772729296554285600,17.63228564453125,-6.3840508460998535,-10.511670112609863,7.527820110321045
1772729296571632000,17.649632080078124,-3.972085475921631,-8.994620323181152,5.747560024261475
1772729296588978700,17.666978759765627,-1.1461620330810547,-7.616354465484619,4.120440483093262
1772729296606325500,17.684325439453126,0.9332008361816406,-7.420143127441406,3.28773832321167
1772729296623672000,17.701672119140625,2.8115665912628174,-7.814958572387695,2.699103832244873
1772729296641018600,17.7190185546875,3.6059837341308594,-6.941578388214111,1.9070796966552734
1772729296658365400,17.736365478515626,3.2303106784820557,-6.216553211212158,1.3208380937576294
1772729296675712000,17.7537119140625,2.1990039348602295,-5.618347644805908,1.454836130142212
1772729296693058600,17.77105859375,0.9786644577980042,-5.4173502922058105,2.2851455211639404
1772729296710405000,17.788405029296875,0.5958128571510315,-4.883750915527344,2.6608188152313232
1772729296727751700,17.805751708984374,0.2632105052471161,-4.285545349121094,2.6177480220794678
1772729296745098500,17.823098388671873,-0.5479564070701599,-4.362115859985352,2.400001049041748
1772729296762445000,17.840445068359376,-1.0504491329193115,-5.929414749145508,2.242074728012085
1772729296779791600,17.85779150390625,-1.124626636505127,-8.207381248474121,2.8283164501190186
1772729296797138200,17.87513818359375,-0.38285163044929504,-9.521040916442871,3.730410575866699
1772729296814484700,17.892484619140625,0.4546363055706024,-9.300901412963867,5.632704734802246
1772729296831831600,17.90983154296875,-1.057627558708191,-8.858229637145996,9.482755661010742
1772729296849178000,17.92717822265625,-2.6464617252349854,-10.152746200561523,12.753745079040527
1772729296866524700,17.944524658203125,0.9882357716560364,-9.578469276428223,12.067004203796387
1772729296883871200,17.961871337890624,3.208775281906128,-11.674581527709961,9.013762474060059
1772729296901217800,17.9792177734375,3.129812002182007,-14.701501846313477,8.997013092041016
1772729296918564400,17.996564453125,1.828116536140442,-13.684553146362305,5.7786664962768555
1772729296935911200,18.0139111328125,0.5838487148284912,-14.892928123474121,4.146761417388916
1772729296953257700,18.0312578125,-1.2323036193847656,-12.90927791595459,2.9623143672943115
1772729296970604300,18.048604248046875,-2.0673987865448,-9.664610862731934,0.9044869542121887
1772729296987950800,18.065950927734374,-3.713660717010498,-11.925827980041504,0.7010970115661621
1772729297005297700,18.083297607421876,-5.630311489105225,-13.706088066101074,-0.7585247755050659
1772729297022644200,18.100644287109375,-5.01296329498291,-13.715659141540527,-0.9571290612220764
1772729297039990800,18.11799072265625,-7.073183536529541,-11.334800720214844,-0.2727817893028259
1772729297057337300,18.13533740234375,-6.350551128387451,-9.882357597351074,1.069591760635376
1772729297074684000,18.152683837890624,-4.2209391593933105,-8.528019905090332,2.5076780319213867
1772729297092030700,18.17003076171875,-2.754138946533203,-7.037291526794434,3.7710886001586914
1772729297109377300,18.187377197265626,-1.6151553392410278,-6.235695838928223,4.338187217712402
1772729297126723800,18.204723876953125,1.4117653369903564,-10.951949119567871,12.937992095947266
1772729297144070400,18.2220703125,6.932007312774658,-5.314459323883057,6.91765022277832
1772729297161417000,18.2394169921875,11.428120613098145,-2.950350284576416,4.488935470581055
1772729297178763800,18.256763671875,8.676374435424805,-0.6652047038078308,2.4023938179016113
1772729297196110300,18.2741103515625,2.289931297302246,-0.5096712112426758,1.0839486122131348
1772729297213457000,18.291456787109375,-0.08374879509210587,-2.053041934967041,1.0336993932724
1772729297230803500,18.308803466796874,-0.5886343717575073,-2.9934210777282715,0.8446664214134216
1772729297248150000,18.32614990234375,-0.35413774847984314,-5.737988471984863,0.7417750358581543
1772729297265496800,18.343496826171876,-1.4835500717163086,-8.539983749389648,2.172683000564575
1772729297282843400,18.360843505859375,-0.9427721500396729,-8.714659690856934,1.5409778356552124
1772729297300190000,18.37818994140625,-1.7754744291305542,-9.994820594787598,1.7156537771224976
1772729297317536500,18.39553662109375,-0.20338992774486542,-17.10628890991211,6.6831536293029785
1772729297334883000,18.412883056640624,7.262216567993164,-15.39063549041748,6.57547664642334
1772729297352230000,18.43022998046875,14.624932289123535,-11.473584175109863,6.051448345184326
1772729297369576400,18.447576416015625,6.137589931488037,-5.036891460418701,2.091326951980591
1772729297386923000,18.464923095703124,3.19441819190979,-7.018148899078369,4.106083869934082
1772729297404269600,18.48226953125,3.2063822746276855,-12.5742826461792,9.961320877075195
1772729297421616000,18.4996162109375,3.562912940979004,-15.847664833068848,7.599604606628418
1772729297438963000,18.516962890625,0.02871387079358101,-13.856836318969727,1.1174482107162476
1772729297456309500,18.5343095703125,-2.400001049041748,-13.249058723449707,1.6175481081008911
1772729297473656000,18.551656005859375,-2.792423963546753,-12.002398490905762,2.6727828979492188
1772729297491002600,18.569002685546874,-2.6392834186553955,-9.712467193603516,2.620140790939331
1772729297508349200,18.58634912109375,-5.9198431968688965,-10.849058151245117,6.168696880340576
1772729297525696000,18.603696044921875,-7.010970115661621,-11.514262199401855,6.738188743591309
1772729297543042600,18.62104248046875,-9.497113227844238,-10.246066093444824,4.163511276245117
1772729297560389000,18.63838916015625,-6.142375946044922,-9.087940216064453,2.720639228820801
1772729297577735700,18.655735595703124,-3.397808074951172,-8.429914474487305,2.3880369663238525
1772729297595082200,18.673082275390627,-1.3088740110397339,-7.9250288009643555,2.1750757694244385
1772729297612429000,18.690428955078126,1.0097711086273193,-8.183453559875488,2.830709218978882
1772729297629775600,18.707775634765625,2.902493953704834,-7.867600917816162,3.3020951747894287
1772729297647122200,18.7251220703125,3.8500516414642334,-7.475177764892578,3.5270206928253174
1772729297664468700,18.74246875,3.869194269180298,-7.300501823425293,3.579662561416626
1772729297681815300,18.759815185546874,3.6155550479888916,-6.664011001586914,3.651447296142578
1772729297699161900,18.777161865234376,2.7038896083831787,-5.61116886138916,3.2518460750579834
1772729297716508700,18.7945087890625,1.8831514120101929,-4.797609329223633,2.0961127281188965
1772729297733855200,18.811855224609374,1.4333007335662842,-4.651647090911865,1.3471591472625732
1772729297751201800,18.829201904296873,0.8685946464538574,-5.020142078399658,2.258824586868286
1772729297768548400,18.84654833984375,-0.24646073579788208,-6.618547439575195,3.4672000408172607
1772729297785895000,18.86389501953125,-0.8662018179893494,-7.479963779449463,4.567898273468018
1772729297803241700,18.88124169921875,-1.1126625537872314,-7.88913631439209,5.958128452301025
1772729297820588300,18.89858837890625,-2.2468605041503906,-8.324629783630371,7.932207107543945
1772729297837934800,18.915934814453124,-2.0315065383911133,-11.944971084594727,9.131011009216309
1772729297855281400,18.933281494140626,0.9044869542121887,-11.700902938842773,8.360522270202637
1772729297872628000,18.9506279296875,2.4981069564819336,-10.016355514526367,6.759724140167236
1772729297889974800,18.967974853515624,2.65842604637146,-11.842079162597656,7.161718368530273
1772729297907321300,18.9853212890625,2.3018953800201416,-15.335599899291992,8.791230201721191
1772729297924668000,19.00266796875,3.2279176712036133,-15.211174011230469,5.496313571929932
1772729297942014500,19.020014404296877,2.3952155113220215,-13.091133117675781,3.2781670093536377
1772729297959361000,19.037361083984376,0.2919243574142456,-11.739188194274902,2.8426733016967773
1772729297976707600,19.05470751953125,-1.1078768968582153,-10.559526443481445,1.8041882514953613
1772729297994054100,19.07205419921875,-7.755138397216797,-12.351750373840332,1.0169496536254883
1772729298011401000,19.08940087890625,-11.126625061035156,-11.444870948791504,-0.14835500717163086
1772729298028747500,19.10674755859375,-7.75753116607666,-14.732608795166016,-0.48095735907554626
1772729298046094000,19.124093994140626,-7.427321434020996,-11.117053985595703,-1.275374412536621
1772729298063440600,19.141440673828125,-4.895715236663818,-9.41336441040039,-0.11246266216039658
1772729298080787500,19.158787353515624,-2.6775684356689453,-8.408378601074219,1.576870083808899
1772729298098134000,19.176134033203127,-1.3399807214736938,-7.642675399780273,3.06999135017395
1772729298115480600,19.19348046875,0.30149564146995544,-9.54496955871582,7.613961696624756
1772729298132827100,19.2108271484375,4.890929698944092,-8.188239097595215,9.456435203552246
1772729298150173700,19.228173583984375,8.054241180419922,-3.1920254230499268,6.333801746368408
1772729298167520300,19.245520263671875,10.212567329406738,-1.5146567821502686,6.065805435180664
1772729298184867000,19.2628671875,5.194818019866943,0.04546362906694412,3.7256247997283936
1772729298202213600,19.280213623046876,0.25363919138908386,-0.7010970115661621,1.6869399547576904
1772729298219560200,19.297560302734375,-0.9260223507881165,-2.0793628692626953,1.1724830865859985
1772729298236906800,19.31490673828125,-1.6031911373138428,-2.4335005283355713,0.7992027401924133
1772729298254253300,19.33225341796875,-1.5074782371520996,-3.806980848312378,1.526620864868164
1772729298271600000,19.34960009765625,-1.674975872039795,-7.841279983520508,3.2279176712036133
1772729298288946700,19.36694677734375,-0.9930213689804077,-11.028519630432129,4.35254430770874
1772729298306293200,19.384293212890626,2.9072794914245605,-12.576675415039062,4.503292083740234
1772729298323639800,19.401639892578125,8.891729354858398,-16.838293075561523,8.870193481445312
1772729298340986400,19.418986328125,11.600403785705566,-13.648660659790039,6.912864685058594
1772729298358333000,19.4363330078125,3.996013879776001,-8.925228118896484,2.517249345779419
1772729298375679700,19.4536796875,0.5264210104942322,-8.81515884399414,0.3445664644241333
1772729298393026300,19.4710263671875,4.838287353515625,-11.928220748901367,1.8305093050003052
1772729298410372900,19.488372802734375,5.647061347961426,-15.19442367553711,8.173882484436035
1772729298427719400,19.505719482421874,4.275974273681641,-15.31167221069336,8.059026718139648
1772729298445066000,19.52306591796875,1.2490534782409668,-13.856836318969727,3.814159393310547
1772729298462412500,19.54041259765625,-2.108076810836792,-10.607382774353027,3.074777126312256
1772729298479759400,19.55775927734375,-4.457828521728516,-8.274380683898926,2.7517459392547607
1772729298497106000,19.57510595703125,-4.280759811401367,-7.968099594116211,2.6392834186553955
1772729298514452500,19.592452392578124,-6.340980052947998,-9.817750930786133,4.589433670043945
1772729298531799000,19.609799072265623,-8.116454124450684,-10.619346618652344,5.905486106872559
1772729298549145600,19.6271455078125,-6.089733600616455,-10.191031455993652,3.9433717727661133
1772729298566492400,19.644492431640625,-4.503292083740234,-9.695717811584473,2.919243574142456
1772729298583839000,19.6618388671875,-3.5126636028289795,-9.57607650756836,3.122633457183838
1772729298601185500,19.679185546875,-1.7252250909805298,-8.551948547363281,2.957528829574585
1772729298618532000,19.696531982421874,0.04307080805301666,-7.800601959228516,3.3475589752197266
1772729298635878700,19.713878662109376,2.122433662414551,-7.496713161468506,3.050848960876465
1772729298653225200,19.73122509765625,4.182653903961182,-7.460821151733398,2.706282377243042
1772729298670571800,19.74857177734375,4.831109046936035,-7.343572616577148,2.6153552532196045
1772729298687918600,19.765918701171874,4.618147850036621,-6.989434719085693,2.825923442840576
1772729298705265200,19.78326513671875,3.6705899238586426,-6.235695838928223,3.0101709365844727
1772729298722611700,19.80061181640625,2.2301106452941895,-4.728217601776123,2.8043880462646484
1772729298739958300,19.817958251953126,0.9810572862625122,-3.704089403152466,2.0003998279571533
1772729298757304800,19.835304931640625,0.14117653667926788,-4.366901397705078,3.160918712615967
1772729298774651400,19.8526513671875,-0.5120640397071838,-6.087340831756592,4.161118507385254
1772729298791998000,19.869998046875,-1.1030912399291992,-7.927421569824219,5.309673309326172
1772729298809344800,19.8873447265625,-0.849452018737793,-8.72183895111084,6.932007312774658
1772729298826691300,19.90469140625,-1.1748759746551514,-8.592626571655273,8.061419486999512
1772729298844038000,19.922037841796875,-2.3641088008880615,-9.757930755615234,9.41336441040039
1772729298861384400,19.939384521484374,0.9571290612220764,-11.203195571899414,8.944371223449707
1772729298878731000,19.95673095703125,3.1585259437561035,-11.191231727600098,6.697510719299316
1772729298896077800,19.974077880859376,3.249453067779541,-14.629717826843262,6.585047721862793
1772729298913424400,19.99142431640625,3.4911282062530518,-16.687545776367188,6.5180487632751465
1772729298930771000,20.00877099609375,2.297109842300415,-15.79262924194336,5.034498691558838
1772729298948117500,20.026117431640625,0.12681959569454193,-13.39262866973877,4.242474555969238
1772729298965464000,20.043464111328124,-0.19621145725250244,-8.958727836608887,1.9142581224441528
1772729298982810600,20.060810546875,-2.5292134284973145,-11.078768730163574,1.6534404754638672
1772729299000157200,20.0781572265625,-12.813565254211426,-12.220145225524902,2.390429735183716
1772729299017504000,20.09550390625,-9.903892517089844,-13.016955375671387,1.947757601737976
1772729299034850600,20.1128505859375,-7.372286796569824,-13.320843696594238,0.9858429431915283
1772729299052197000,20.130197021484374,-5.300102233886719,-10.234102249145508,0.4378865361213684
1772729299069543700,20.147543701171877,-3.187239646911621,-8.530412673950195,2.100898265838623
1772729299086890200,20.16489013671875,-1.6630117893218994,-7.410571575164795,3.4193434715270996
1772729299104236800,20.18223681640625,-0.7393822073936462,-6.372086524963379,4.35254430770874
1772729299121583600,20.19958349609375,0.07896314561367035,-5.0464630126953125,4.613361835479736
1772729299138930200,20.21693017578125,4.613361835479736,-9.891928672790527,11.645867347717285
1772729299156276700,20.23427685546875,6.912864685058594,-3.9696927070617676,5.709274768829346
1772729299173623300,20.251623291015626,7.9250288009643555,-1.2849457263946533,3.5126636028289795
1772729299190969900,20.268969970703125,3.862015724182129,-0.02871387079358101,1.7228323221206665
1772729299208316400,20.28631640625,0.3924229145050049,-1.3232308626174927,1.3806586265563965
1772729299225663000,20.3036630859375,-1.1030912399291992,-2.6153552532196045,1.5050854682922363
1772729299243009800,20.321009765625,-2.8139593601226807,-3.177668571472168,2.3641088008880615
1772729299260356400,20.3383564453125,-2.6225335597991943,-6.317051887512207,4.596612453460693
1772729299277703000,20.355702880859376,-1.5984054803848267,-8.956335067749023,3.7543387413024902
1772729299295049500,20.373049560546875,2.4885356426239014,-12.483355522155762,2.335394859313965
1772729299312396000,20.39039599609375,10.822736740112305,-20.38684844970703,8.118846893310547
1772729299329742600,20.40774267578125,10.97587776184082,-15.89552116394043,6.829115867614746
1772729299347089200,20.425089111328123,3.8739798069000244,-8.944371223449707,2.7804598808288574
1772729299364436000,20.44243603515625,2.768495798110962,-5.826523303985596,-1.397408366203308
1772729299381782500,20.459782470703125,5.917450428009033,-9.992427825927734,4.12761926651001
1772729299399129000,20.477129150390624,3.5605201721191406,-13.820943832397461,9.140582084655762
1772729299416475600,20.4944755859375,2.328216314315796,-16.271194458007812,7.144968509674072
1772729299433822200,20.511822265625,-2.5363919734954834,-15.278172492980957,4.151547431945801
1772729299451168800,20.529168701171876,-4.122833251953125,-10.119247436523438,2.4358935356140137
1772729299468515600,20.546515625,-4.919643402099609,-9.896714210510254,3.744767427444458
1772729299485862100,20.563862060546874,-3.4025938510894775,-9.934999465942383,4.409972190856934
1772729299503208700,20.581208740234374,-5.424529075622559,-9.664610862731934,6.3840508460998535
1772729299520555300,20.59855517578125,-6.285944938659668,-10.243673324584961,7.2574310302734375
1772729299537901800,20.61590185546875,-4.694717884063721,-9.889535903930664,5.816951751708984
1772729299555248400,20.633248291015626,-3.0867412090301514,-9.267401695251465,4.730610370635986
1772729299572595000,20.650594970703125,-2.794816732406616,-7.668996810913086,4.225724697113037
1772729299589941500,20.66794140625,-1.397408366203308,-7.11146879196167,3.146561861038208
1772729299607288300,20.685288330078127,0.41156548261642456,-6.781259536743164,2.2468605041503906
1772729299624635000,20.702634765625,1.8999011516571045,-6.8410797119140625,2.266003131866455
1772729299641981400,20.7199814453125,2.9838497638702393,-6.183053493499756,2.313859462738037
1772729299659328000,20.737327880859375,3.493520975112915,-5.6685967445373535,2.1583259105682373
1772729299676674600,20.754674560546874,3.3236305713653564,-5.328815937042236,2.0673987865448
1772729299694021000,20.772021240234373,2.3545374870300293,-4.847858905792236,2.3808584213256836
1772729299711368000,20.789367919921876,1.3926228284835815,-4.613361835479736,2.366501569747925
1772729299728714500,20.806714599609375,0.3852444589138031,-4.859822750091553,2.4358935356140137
1772729299746061000,20.82406103515625,-0.6915257573127747,-5.864808082580566,2.4526431560516357
1772729299763407600,20.84140771484375,-2.1774685382843018,-8.324629783630371,3.314059257507324
1772729299780754200,20.858754150390624,-3.1274192333221436,-9.987641334533691,4.7952165603637695
1772729299798100700,20.876100830078126,-2.2636101245880127,-10.234102249145508,7.283751964569092
1772729299815447300,20.893447265625,-1.9764715433120728,-9.643074989318848,10.911271095275879
1772729299832793900,20.9107939453125,0.9379864931106567,-11.535798072814941,12.825529098510742
1772729299850140700,20.928140625,4.711467742919922,-10.365707397460938,11.203195571899414
1772729299867487200,20.9454873046875,4.584648132324219,-11.045269012451172,9.068798065185547
1772729299884833800,20.962833740234377,3.0005996227264404,-14.500505447387695,9.652647018432617
1772729299902180400,20.980180419921876,2.5387847423553467,-15.196816444396973,7.668996810913086
1772729299919527000,20.99752685546875,1.0408778190612793,-14.859428405761719,5.2354960441589355
1772729299936873500,21.01487353515625,-0.15553347766399384,-11.48076343536377,2.957528829574585
1772729299954220000,21.032219970703125,-1.124626636505127,-8.592626571655273,1.9669002294540405
1772729299971566800,21.04956689453125,-5.218746185302734,-10.72702407836914,1.1868400573730469
1772729299988913400,21.066913330078126,-11.375478744506836,-10.841879844665527,0.3158525824546814
1772729300006260000,21.084260009765625,-11.490334510803223,-11.868400573730469,0.36610186100006104
1772729300023606500,21.1016064453125,-10.695917129516602,-11.267802238464355,-0.849452018737793
1772729300040953000,21.118953125,-5.539384365081787,-9.363115310668945,0.12442677468061447
1772729300058299600,21.136299560546874,-2.6967110633850098,-8.240880966186523,1.8376877307891846
1772729300075646200,21.153646240234377,-0.9954141974449158,-7.219145774841309,3.1728827953338623
1772729300092993000,21.170992919921876,0.18903298676013947,-6.410371780395508,4.012763500213623
1772729300110339600,21.188339599609375,0.914058268070221,-7.4464640617370605,5.450850009918213
1772729300127686100,21.20568603515625,5.67338228225708,-8.781659126281738,10.15035343170166
1772729300145032700,21.22303271484375,10.930414199829102,-3.610769271850586,4.53200626373291
1772729300162379300,21.240379150390623,8.817551612854004,-1.9908283948898315,3.2159535884857178
1772729300179725800,21.257725830078126,3.2063822746276855,-1.31365966796875,1.6773686408996582
1772729300197072400,21.275072265625,0.42831525206565857,-2.7110681533813477,1.5912270545959473
1772729300214419000,21.2924189453125,-0.6245267391204834,-3.266202926635742,1.6319050788879395
1772729300231765500,21.309765625,-0.973878800868988,-4.232903480529785,1.4117653369903564
1772729300249112300,21.3271123046875,-1.3902299404144287,-8.02791976928711,3.4337005615234375
1772729300266459000,21.344458984375,-1.6869399547576904,-10.03310489654541,3.493520975112915
1772729300283805400,21.361805419921875,-0.2153540402650833,-11.423335075378418,2.1296122074127197
1772729300301152000,21.379152099609374,4.163511276245117,-15.838092803955078,5.395814895629883
1772729300318498600,21.39649853515625,8.470592498779297,-14.866606712341309,6.25723123550415
1772729300335845000,21.41384521484375,9.693324089050293,-10.420742988586426,5.20678186416626
1772729300353191700,21.431191650390623,4.1730828285217285,-6.8171515464782715,2.919243574142456
1772729300370538500,21.44853857421875,4.981856822967529,-8.14516830444336,3.5916268825531006
1772729300387885000,21.465885009765625,4.821537494659424,-12.741780281066895,9.607182502746582
1772729300405231600,21.483231689453124,1.057627558708191,-15.41934871673584,9.150154113769531
1772729300422578200,21.500578125,-0.9930213689804077,-14.143974304199219,2.2205393314361572
1772729300439924700,21.5179248046875,-2.4909284114837646,-13.007384300231934,2.3234307765960693
1772729300457271300,21.535271240234376,-3.94815731048584,-9.638289451599121,2.4717857837677
1772729300474617900,21.552617919921875,-4.060619831085205,-9.585647583007812,2.943171739578247
1772729300491964400,21.56996435546875,-5.472385406494141,-9.501898765563965,5.01296329498291
1772729300509311200,21.587311279296873,-7.101897716522217,-9.571290969848633,6.31944465637207
1772729300526657800,21.60465771484375,-6.465406894683838,-9.640682220458984,5.886343479156494
1772729300544004400,21.62200439453125,-4.060619831085205,-9.07119083404541,4.735395908355713
1772729300561351000,21.639350830078126,-2.8354947566986084,-8.293522834777832,4.101297855377197
1772729300578697500,21.656697509765625,-1.550549030303955,-7.525427341461182,3.5916268825531006
1772729300596044000,21.6740439453125,-0.20099709928035736,-6.8410797119140625,2.8833513259887695
1772729300613390600,21.691390625,1.698904037475586,-7.259823799133301,2.5124638080596924
1772729300630737400,21.7087373046875,2.943171739578247,-7.252645492553711,2.6177480220794678
1772729300648084000,21.726083984375,3.8045880794525146,-6.999006271362305,2.313859462738037
1772729300665430500,21.743430419921875,4.024727821350098,-6.999006271362305,2.139183521270752
1772729300682777000,21.760777099609374,3.7016966342926025,-6.128018856048584,1.8807586431503296
1772729300700123600,21.77812353515625,2.297109842300415,-5.3216376304626465,1.6558332443237305
1772729300717470200,21.79547021484375,0.7824530005455017,-5.161318302154541,2.0889341831207275
1772729300734816800,21.812816650390626,-0.038285162299871445,-5.883950710296631,2.8761727809906006
1772729300752163300,21.830163330078125,-0.5694918036460876,-7.319644451141357,3.713660717010498
1772729300769510000,21.847510009765625,-0.2727817893028259,-8.37966537475586,4.498506546020508
1772729300786856400,21.8648564453125,0.1339980661869049,-9.33440113067627,5.776273727416992
1772729300804203000,21.882203125,-0.24646073579788208,-8.824729919433594,7.456035137176514
1772729300821549800,21.8995498046875,-1.6223337650299072,-10.258030891418457,9.69093132019043
1772729300838896400,21.916896484375,0.9499505758285522,-10.75813102722168,9.590433120727539
1772729300856243000,21.934242919921875,2.778067111968994,-9.717252731323242,8.018348693847656
1772729300873589500,21.951589599609374,3.036491870880127,-12.42832088470459,7.769495010375977
1772729300890936000,21.96893603515625,2.4885356426239014,-14.785250663757324,7.795815944671631
1772729300908282600,21.98628271484375,1.4380863904953003,-14.512469291687012,6.970292568206787
1772729300925629200,22.003629150390626,0.0933200865983963,-12.339786529541016,6.333801746368408
1772729300942976000,22.02097607421875,-1.4117653369903564,-9.006584167480469,3.988835334777832
1772729300960322600,22.038322509765624,-3.043670415878296,-10.992627143859863,3.242274761199951
