time,seconds_elapsed,z,y,x
1772729278911609000,-0.010390869140625,-0.4061002731323242,0.6036796569824219,0.6173169612884521
1772729278921609200,-0.000390869140625,-0.29016685485839844,0.38045692443847656,0.19251060485839844
1772729278931609000,0.009609130859375,-0.23723888397216797,0.4681210517883301,-0.35320544242858887
1772729278941609200,0.019609130859375,-0.08196115493774414,0.7438182830810547,-0.7484087944030762
1772729278951609000,0.029609130859375,0.27530527114868164,1.0767130851745605,-0.6932377815246582
1772729278961609200,0.039609130859375,0.17104482650756836,1.5553030967712402,-0.35810256004333496
1772729278971609000,0.049609130859375,0.2311854362487793,2.1206140518188477,0.10169529914855957
1772729278981609200,0.059609130859375,0.4528374671936035,2.712890148162842,0.5988459587097168
1772729279000609000,0.078609130859375,1.4069061279296875,3.4780325889587402,1.9433090686798096
1772729279010609200,0.088609130859375,2.120990753173828,3.477125644683838,2.301807165145874
1772729279020609000,0.098609130859375,2.9600205421447754,3.3648147583007812,1.9377386569976807
1772729279030609200,0.108609130859375,3.289762496948242,3.2965269088745117,1.2510895729064941
1772729279040609000,0.118609130859375,2.9913430213928223,2.916956901550293,1.2783851623535156
1772729279050609200,0.128609130859375,2.760256767272949,1.9854722023010254,1.864830493927002
1772729279060609000,0.138609130859375,2.6896839141845703,0.9264039993286133,2.4082460403442383
1772729279070609200,0.148609130859375,2.3762807846069336,-0.4086489677429199,3.0897111892700195
1772729279080609000,0.158609130859375,2.101552963256836,-1.5496139526367188,3.4387617111206055
1772729279090609200,0.168609130859375,2.072720527648926,-2.1006603240966797,3.1923322677612305
1772729279100609000,0.178609130859375,2.1263489723205566,-2.5288333892822266,2.8281354904174805
1772729279110609200,0.188609130859375,1.6516633033752441,-2.774104118347168,2.4743261337280273
1772729279120609000,0.198609130859375,1.1667499542236328,-2.9319214820861816,1.600419521331787
1772729279130609200,0.208609130859375,0.6777224540710449,-3.1892619132995605,0.5212750434875488
1772729279140609000,0.218609130859375,0.15929174423217773,-3.509516954421997,-0.2369227409362793
1772729279150609200,0.228609130859375,-0.4283905029296875,-3.5889196395874023,-0.6800694465637207
1772729279160609000,0.238609130859375,-1.070305347442627,-3.199629783630371,-0.8162398338317871
1772729279170609200,0.248609130859375,-1.520862102508545,-2.3307666778564453,-0.7621510028839111
1772729279180609000,0.258609130859375,-1.7345142364501953,-1.4503583908081055,-0.3915219306945801
1772729279190609200,0.268609130859375,-1.5798957347869873,-0.7045607566833496,-0.12982702255249023
1772729279200609000,0.278609130859375,-1.6738245487213135,0.37914371490478516,-0.47440147399902344
1772729279210609200,0.288609130859375,-1.7973394393920898,1.0213942527770996,-0.6396846771240234
1772729279220609000,0.298609130859375,-1.9094157218933105,1.4292683601379395,-0.7838120460510254
1772729279230609200,0.308609130859375,-1.7923860549926758,1.2960901260375977,-0.7748446464538574
1772729279240609000,0.318609130859375,-0.994300127029419,0.5928244590759277,-0.48903846740722656
1772729279250609200,0.328609130859375,0.8128037452697754,-0.26944732666015625,0.21358871459960938
1772729279260609000,0.338609130859375,2.191904306411743,-0.5464763641357422,0.37018871307373047
1772729279270609200,0.348609130859375,1.6980621814727783,-0.39542388916015625,-0.5924396514892578
1772729279280609000,0.358609130859375,1.1166601181030273,0.1536421775817871,-1.4230422973632812
1772729279290609200,0.368609130859375,1.1421279907226562,0.5064020156860352,-1.8609819412231445
1772729279300609000,0.378609130859375,1.2066984176635742,0.5556368827819824,-2.0920820236206055
1772729279310609200,0.388609130859375,0.8351008892059326,0.35497188568115234,-2.198241710662842
1772729279320609000,0.398609130859375,-0.2742602825164795,0.7479448318481445,-2.327279567718506
1772729279330609200,0.408609130859375,-0.5786290168762207,0.8198513984680176,-2.598315715789795
1772729279340609000,0.418609130859375,-0.017688274383544922,0.329803466796875,-2.266568183898926
1772729279350609200,0.428609130859375,0.2432553768157959,-0.07198095321655273,-1.7028584480285645
1772729279360609000,0.438609130859375,0.16234469413757324,-0.4185600280761719,-1.4863648414611816
1772729279370609200,0.448609130859375,0.3870060443878174,-0.9990506172180176,-1.302067756652832
1772729279380609000,0.458609130859375,0.39597201347351074,-1.735696792602539,-0.963627815246582
1772729279390609200,0.468609130859375,-0.0677800178527832,-2.2100043296813965,-0.7719302177429199
1772729279400609000,0.478609130859375,0.0470280647277832,-2.838893413543701,-0.8886256217956543
1772729279410609200,0.488609130859375,0.36593174934387207,-3.4856033325195312,-1.0411262512207031
1772729279420609000,0.498609130859375,0.396465539932251,-3.8887243270874023,-1.3515682220458984
1772729279430609200,0.508609130859375,0.9696140289306641,-3.7283577919006348,-1.9675617218017578
1772729279440609000,0.518609130859375,1.8285207748413086,-3.5923094749450684,-3.2023329734802246
1772729279450609200,0.528609130859375,2.4706223011016846,-3.0964841842651367,-3.3193857669830322
1772729279460609000,0.538609130859375,3.027188301086426,-2.062872886657715,-3.8773980140686035
1772729279470609200,0.548609130859375,3.778521776199341,-1.5119190216064453,-3.881981134414673
1772729279480609000,0.558609130859375,3.8543736934661865,-1.606513500213623,-3.232076644897461
1772729279490609200,0.568609130859375,3.6235222816467285,-2.356009006500244,-2.0236949920654297
1772729279500609000,0.578609130859375,2.605168104171753,-3.574331521987915,-0.031896114349365234
1772729279510609200,0.588609130859375,1.9713258743286133,-4.998473167419434,1.5877866744995117
1772729279520609000,0.598609130859375,1.9160981178283691,-6.007331848144531,2.3757052421569824
1772729279530609200,0.608609130859375,1.764038324356079,-5.848363399505615,1.686483383178711
1772729279540609000,0.618609130859375,0.33789944648742676,-5.549108028411865,1.302518367767334
1772729279550609200,0.628609130859375,0.47457361221313477,-6.065093994140625,0.8887758255004883
1772729279560609000,0.638609130859375,1.3109462261199951,-6.627634525299072,1.2212815284729004
1772729279570609200,0.648609130859375,1.0466196537017822,-6.125882148742676,2.236689567565918
1772729279580609000,0.658609130859375,0.31612563133239746,-5.11139440536499,2.820211887359619
1772729279590609200,0.668609130859375,-0.6587193012237549,-3.325103521347046,2.8820762634277344
1772729279600609000,0.678609130859375,-0.8394718170166016,-2.323728561401367,3.3266773223876953
1772729279610609200,0.688609130859375,-0.6211867332458496,-2.8418073654174805,4.058835029602051
1772729279620609000,0.698609130859375,-0.6341533660888672,-3.0282816886901855,4.256771564483643
1772729279630609200,0.708609130859375,-1.3814449310302734,-2.4459967613220215,3.861764907836914
1772729279640609000,0.718609130859375,-1.353161334991455,-2.240180492401123,4.235052108764648
1772729279650609200,0.728609130859375,-2.409951686859131,-1.6953184604644775,4.816163063049316
1772729279660609000,0.738609130859375,-2.800265312194824,-1.5319697856903076,4.613185882568359
1772729279670609200,0.748609130859375,-2.5972676277160645,-1.6249204874038696,4.820073127746582
1772729279680609000,0.758609130859375,-2.634213924407959,-0.7109144926071167,4.761404991149902
1772729279690609200,0.768609130859375,-1.5744102001190186,0.44535550475120544,4.359837532043457
1772729279700609000,0.778609130859375,-0.46907591819763184,1.736316204071045,4.769004821777344
1772729279710609200,0.788609130859375,-0.11304187774658203,3.488358497619629,4.5068864822387695
1772729279720609000,0.798609130859375,0.5771622657775879,4.364108085632324,4.663735389709473
1772729279730609200,0.808609130859375,0.9237170219421387,5.380799293518066,5.071605682373047
1772729279740609000,0.818609130859375,1.863790512084961,6.859987258911133,5.4197235107421875
1772729279750609200,0.828609130859375,2.6006150245666504,9.0802001953125,5.441000938415527
1772729279760609000,0.838609130859375,4.090705871582031,11.410972595214844,4.90576171875
1772729279770609200,0.848609130859375,5.606528282165527,13.632471084594727,4.0770721435546875
1772729279780609000,0.858609130859375,7.917276382446289,13.83480453491211,4.675415992736816
1772729279790609200,0.868609130859375,10.207476615905762,11.813679695129395,5.191774368286133
1772729279800609000,0.878609130859375,8.892548561096191,11.44930362701416,6.228695869445801
1772729279810609200,0.888609130859375,9.351212501525879,9.876273155212402,6.503299713134766
1772729279820609000,0.898609130859375,9.31412410736084,8.21567440032959,5.515191078186035
1772729279830609200,0.908609130859375,9.569666862487793,6.738221168518066,1.5128469467163086
1772729279840609000,0.918609130859375,9.364358901977539,6.254972457885742,-0.5254430770874023
1772729279850609200,0.928609130859375,7.512609958648682,4.592357635498047,-2.6902737617492676
1772729279860609000,0.938609130859375,6.752127647399902,2.102095603942871,-3.466625213623047
1772729279870609200,0.948609130859375,6.347782611846924,0.6876027584075928,-4.422796726226807
1772729279880609000,0.958609130859375,6.624759674072266,-2.436049222946167,-5.496058464050293
1772729279890609200,0.968609130859375,5.894746780395508,-3.6308071613311768,-4.7193498611450195
1772729279900609000,0.978609130859375,4.9436354637146,-4.5204010009765625,-5.301214218139648
1772729279910609200,0.988609130859375,5.646334171295166,-4.031601428985596,-4.186549186706543
1772729279920609000,0.998609130859375,5.079466819763184,-2.5408220291137695,-4.308585166931152
1772729279930609200,1.008609130859375,5.359575271606445,-1.5003182888031006,-3.9620590209960938
1772729279940609000,1.018609130859375,5.582733631134033,1.5397000312805176,-3.6173577308654785
1772729279950609200,1.028609130859375,5.395029067993164,3.676027774810791,-3.3301467895507812
1772729279960609000,1.038609130859375,4.5323309898376465,3.3952600955963135,-1.6891160011291504
1772729279970609200,1.048609130859375,2.2083237171173096,1.6325719356536865,0.9939060211181641
1772729279980609000,1.058609130859375,-0.33860570192337036,-0.12973642349243164,3.2100419998168945
1772729279990609200,1.068609130859375,-2.6906626224517822,-2.1049582958221436,4.43043327331543
1772729280000609000,1.078609130859375,-4.905972003936768,-3.2509288787841797,4.937821388244629
1772729280010609200,1.088609130859375,-4.5585737228393555,-2.7243094444274902,4.127528190612793
1772729280020609000,1.098609130859375,-2.252957820892334,-0.828025221824646,2.847684860229492
1772729280030609200,1.108609130859375,-0.4689834713935852,0.8747475147247314,2.0723800659179688
1772729280040609000,1.118609130859375,0.5133576989173889,0.5708036422729492,2.192652702331543
1772729280050609200,1.128609130859375,1.7988203763961792,-0.00767362117767334,2.713754653930664
1772729280060609000,1.138609130859375,3.145517349243164,-0.8367364406585693,3.3016138076782227
1772729280070609200,1.148609130859375,6.270196914672852,-5.413275718688965,5.740263938903809
1772729280080609000,1.158609130859375,5.236213684082031,-0.7985118627548218,3.689084053039551
1772729280090609200,1.168609130859375,-0.23269951343536377,4.2909746170043945,3.1948776245117188
1772729280100609000,1.178609130859375,5.35939359664917,0.6223792433738708,2.9323501586914062
1772729280110609200,1.188609130859375,0.6659865379333496,0.753883957862854,2.975222587585449
1772729280120609000,1.198609130859375,0.020052194595336914,0.33216726779937744,2.401505470275879
1772729280130609200,1.208609130859375,0.8001997470855713,1.5063618421554565,2.103099822998047
1772729280140609000,1.218609130859375,-0.6957288980484009,3.1164698600769043,2.6435136795043945
1772729280150609200,1.228609130859375,-0.05929851531982422,2.129088878631592,1.1636552810668945
1772729280160609000,1.238609130859375,-1.765669345855713,1.3627557754516602,7.806450843811035
1772729280170609200,1.248609130859375,0.6488964557647705,1.4187183380126953,1.2893028259277344
1772729280180609000,1.258609130859375,1.3001062870025635,4.032041549682617,5.217194557189941
1772729280190609200,1.268609130859375,-2.6994752883911133,2.255892276763916,5.8933515548706055
1772729280200609000,1.278609130859375,-5.364813804626465,-2.2282795906066895,5.592710494995117
1772729280210609200,1.288609130859375,-7.095714569091797,-2.420548677444458,3.173686981201172
1772729280220609000,1.298609130859375,-8.564864158630371,-1.469401240348816,-0.46463680267333984
1772729280230609200,1.308609130859375,-8.361432075500488,0.7357202768325806,-3.0474863052368164
1772729280240609000,1.318609130859375,-6.9610795974731445,2.6588134765625,-4.255475997924805
1772729280250609200,1.328609130859375,-5.37026834487915,3.899077892303467,-3.901752471923828
1772729280260609000,1.338609130859375,-3.2271695137023926,4.570027828216553,-3.4285316467285156
1772729280270609200,1.348609130859375,-1.2625824213027954,4.097297668457031,-2.721688747406006
1772729280280609000,1.358609130859375,0.26756876707077026,3.5239357948303223,-2.179631233215332
1772729280290609200,1.368609130859375,0.7413732409477234,2.7862730026245117,-1.8214607238769531
1772729280300609000,1.378609130859375,0.3952801823616028,0.9444199800491333,-1.1795587539672852
1772729280310609200,1.388609130859375,0.260126531124115,-0.5280983448028564,-1.346343994140625
1772729280320609000,1.398609130859375,-1.7639362812042236,-2.2702994346618652,-2.0582995414733887
1772729280330609200,1.408609130859375,-1.444541335105896,-4.193785667419434,-3.6405229568481445
1772729280340609000,1.418609130859375,-1.8191087245941162,-4.022238254547119,-4.900074005126953
1772729280350609200,1.428609130859375,-1.1623725891113281,-3.3076171875,-5.354889392852783
1772729280360609000,1.438609130859375,0.12613746523857117,-2.0324618816375732,-5.868009090423584
1772729280370609200,1.448609130859375,2.9696204662323,-0.6764991283416748,-6.567839622497559
1772729280380609000,1.458609130859375,5.711589813232422,1.3880319595336914,-6.850881576538086
1772729280390609200,1.468609130859375,5.817174434661865,-0.5679223537445068,-4.647698402404785
1772729280400609000,1.478609130859375,8.403779029846191,2.5062754154205322,-6.821527004241943
1772729280410609200,1.488609130859375,-1.036484718322754,5.753476142883301,-6.335969924926758
1772729280420609000,1.498609130859375,3.8357081413269043,-1.443796157836914,-3.599895477294922
1772729280430609200,1.508609130859375,1.6754765510559082,-2.182359218597412,-0.32132434844970703
1772729280440609000,1.518609130859375,-2.2056376934051514,-4.189338207244873,3.0267839431762695
1772729280450609200,1.528609130859375,-7.879373550415039,-6.815600395202637,5.0764970779418945
1772729280460609000,1.538609130859375,-9.861381530761719,-8.041149139404297,5.900674819946289
1772729280470609200,1.548609130859375,-4.657284736633301,-5.065199851989746,5.71585750579834
1772729280480609000,1.558609130859375,-0.9931107759475708,-1.6188645362854004,3.8261361122131348
1772729280490609200,1.568609130859375,1.3970448970794678,1.2584476470947266,1.7827095985412598
1772729280500609000,1.578609130859375,2.8325657844543457,3.4961941242218018,0.49523496627807617
1772729280510609200,1.588609130859375,4.1899261474609375,3.910201072692871,-0.38321638107299805
1772729280520609000,1.598609130859375,4.551925182342529,2.9939920902252197,0.21536827087402344
1772729280530609200,1.608609130859375,4.284997940063477,1.4817094802856445,0.5885171890258789
1772729280540609000,1.618609130859375,3.633504629135132,-0.009571075439453125,-0.04592180252075195
1772729280550609200,1.628609130859375,3.549757957458496,-0.12635517120361328,0.21575546264648438
1772729280560609000,1.638609130859375,3.3651018142700195,0.03931760787963867,1.0736150741577148
1772729280570609200,1.648609130859375,3.5915346145629883,0.5215373039245605,1.9836463928222656
1772729280580609000,1.658609130859375,2.731236219406128,1.002150058746338,1.7257990837097168
1772729280590609200,1.668609130859375,1.5856249332427979,0.36416149139404297,2.141663074493408
1772729280600609000,1.678609130859375,-0.3356249928474426,-0.6162862777709961,3.2847657203674316
1772729280610609200,1.688609130859375,-1.4155353307724,-1.2022180557250977,4.300655841827393
1772729280620609000,1.698609130859375,-1.9935262203216553,-1.2797164916992188,4.589524269104004
1772729280630609200,1.708609130859375,-2.041543483734131,-1.3121051788330078,4.979170322418213
1772729280640609000,1.718609130859375,-1.9470046758651733,-1.9333505630493164,5.593011379241943
1772729280650609200,1.728609130859375,0.08893968164920807,-1.807159423828125,4.627712726593018
1772729280660609000,1.738609130859375,0.3122093081474304,-1.1905369758605957,3.0313615798950195
1772729280670609200,1.748609130859375,0.02647542953491211,-1.1877689361572266,2.4561100006103516
1772729280680609000,1.758609130859375,-0.6907318830490112,-2.044156551361084,2.166133403778076
1772729280690609200,1.768609130859375,-1.6445997953414917,-4.233949184417725,1.0801115036010742
1772729280700609000,1.778609130859375,-4.620851993560791,-4.6169843673706055,-0.4472799301147461
1772729280710609200,1.788609130859375,-8.003349304199219,-4.481262683868408,-2.2198147773742676
1772729280720609000,1.798609130859375,-9.458661079406738,-3.1674747467041016,-4.138059616088867
1772729280730609200,1.808609130859375,-8.465596199035645,-1.350438117980957,-4.907777786254883
1772729280740609000,1.818609130859375,-5.774147987365723,0.5740408897399902,-5.087357521057129
1772729280750609200,1.828609130859375,-3.1643781661987305,1.8617544174194336,-4.424000263214111
1772729280760609000,1.838609130859375,-0.9749970436096191,3.042146682739258,-4.1465044021606445
1772729280770609200,1.848609130859375,-0.5755124092102051,3.531552314758301,-4.0265398025512695
1772729280780609000,1.858609130859375,-0.28379154205322266,3.906998634338379,-3.3631231784820557
1772729280790609200,1.868609130859375,-1.0025862455368042,4.522391319274902,-2.7385661602020264
1772729280800609000,1.878609130859375,-1.4605183601379395,4.956446647644043,-2.263270378112793
1772729280810609200,1.888609130859375,-1.6228556632995605,4.992244720458984,-1.754516839981079
1772729280820609000,1.898609130859375,-0.853455126285553,4.926873207092285,-1.3119494915008545
1772729280830609200,1.908609130859375,0.18577861785888672,5.082619667053223,-1.2413108348846436
1772729280840609000,1.918609130859375,1.312328577041626,5.239996910095215,-1.064637303352356
1772729280850609200,1.928609130859375,1.9607510566711426,4.943106651306152,-0.614370584487915
1772729280860609000,1.938609130859375,3.4149515628814697,0.04738807678222656,1.0590095520019531
1772729280870609200,1.948609130859375,13.096131324768066,-11.178420066833496,8.101821899414062
1772729280880609000,1.958609130859375,11.082765579223633,-14.122598648071289,8.964927673339844
1772729280890609200,1.968609130859375,5.4875078201293945,-11.973505020141602,3.2078847885131836
1772729280900609000,1.978609130859375,2.3009965419769287,-5.271737098693848,0.6258862018585205
1772729280910609200,1.988609130859375,1.2889796495437622,-0.19796085357666016,0.3295400142669678
1772729280920609000,1.998609130859375,-1.7020231485366821,2.462522029876709,-1.4472553730010986
1772729280930609200,2.008609130859375,-3.162912130355835,4.279546737670898,-2.5902516841888428
1772729280940609000,2.018609130859375,-3.634434938430786,4.7870025634765625,-3.0121073722839355
1772729280950609200,2.028609130859375,-3.108947992324829,4.713858604431152,-2.8325648307800293
1772729280960609000,2.038609130859375,-2.4718880653381348,4.1698760986328125,-1.6977839469909668
1772729280970609200,2.048609130859375,-6.3587846755981445,4.643821716308594,-0.43270301818847656
1772729280980609000,2.058609130859375,-0.12745535373687744,3.6163887977600098,-0.497455358505249
1772729280990609200,2.068609130859375,3.4726362228393555,2.6758575439453125,-0.9748636484146118
1772729281000609000,2.078609130859375,3.7246885299682617,1.7387676239013672,-0.5673832893371582
1772729281010609200,2.088609130859375,1.3617632389068604,1.193150520324707,0.10489773750305176
1772729281020609000,2.098609130859375,1.4829756021499634,0.6069564819335938,0.3888976573944092
1772729281030609200,2.108609130859375,2.76863956451416,-0.7037343978881836,0.7306990623474121
1772729281040609000,2.118609130859375,4.362813949584961,-2.8512868881225586,2.298685073852539
1772729281050609200,2.128609130859375,5.324467182159424,-5.391644477844238,4.009501934051514
1772729281060609000,2.138609130859375,5.78338623046875,-6.855416297912598,3.8369815349578857
1772729281070609200,2.148609130859375,4.195381164550781,-6.0386505126953125,1.4397215843200684
1772729281080609000,2.158609130859375,2.104283571243286,-4.574246406555176,0.11044669151306152
1772729281090609200,2.168609130859375,-0.3309391736984253,-2.7147254943847656,0.21100497245788574
1772729281100609000,2.178609130859375,-1.8106255531311035,-0.8633861541748047,-1.0141363143920898
1772729281110609200,2.188609130859375,-0.4784025549888611,0.08875179290771484,-1.283461570739746
1772729281120609000,2.198609130859375,3.255486011505127,-2.0647401809692383,0.5505392551422119
1772729281130609200,2.208609130859375,5.979857444763184,-4.631406784057617,3.159217357635498
1772729281140609000,2.218609130859375,5.65834379196167,-5.358495712280273,4.783649444580078
1772729281150609200,2.228609130859375,3.591087818145752,-5.122844696044922,3.9787957668304443
1772729281160609000,2.238609130859375,0.9149798154830933,-3.7630462646484375,1.3124113082885742
1772729281170609200,2.248609130859375,-1.5530269145965576,-1.663839340209961,-1.3054519891738892
1772729281180609000,2.258609130859375,-2.485772132873535,-2.1020164489746094,-1.9134037494659424
1772729281190609200,2.268609130859375,-2.1892452239990234,-2.953354835510254,-1.3464117050170898
1772729281200609000,2.278609130859375,-3.464442253112793,-2.339977264404297,0.22719192504882812
1772729281210609200,2.288609130859375,-4.560181617736816,-1.2999200820922852,0.23917913436889648
1772729281220609000,2.298609130859375,-5.731271743774414,0.9560785293579102,-1.3072593212127686
1772729281230609200,2.308609130859375,-7.073945999145508,2.6702070236206055,-2.1401314735412598
1772729281240609000,2.318609130859375,-8.678285598754883,3.275393486022949,-1.8926427364349365
1772729281250609200,2.328609130859375,-9.386608123779297,2.708071708679199,-1.9596540927886963
1772729281260609000,2.338609130859375,-10.331345558166504,1.8406896591186523,-2.2766947746276855
1772729281270609200,2.348609130859375,-10.666997909545898,1.3827810287475586,-2.3986194133758545
1772729281280609000,2.358609130859375,-9.313746452331543,1.1272077560424805,-2.2639994621276855
1772729281290609200,2.368609130859375,-7.11189603805542,1.5337953567504883,-1.0340192317962646
1772729281300609000,2.378609130859375,-4.565602779388428,0.22670745849609375,-0.28620004653930664
1772729281310609200,2.388609130859375,-2.913379669189453,-0.36452674865722656,0.6794891357421875
1772729281320609000,2.398609130859375,-1.5058594942092896,-0.7275238037109375,1.155850887298584
1772729281330609200,2.408609130859375,0.03992819786071777,-0.6594753265380859,1.1342322826385498
1772729281340609000,2.418609130859375,1.1081575155258179,-0.405303955078125,0.6284317970275879
1772729281350609200,2.428609130859375,1.8037495613098145,-0.20099163055419922,0.33121514320373535
1772729281360609000,2.438609130859375,2.5803170204162598,0.059182167053222656,0.12654423713684082
1772729281370609200,2.448609130859375,3.7825779914855957,0.6843385696411133,0.9329795837402344
1772729281380609000,2.458609130859375,4.818386554718018,0.9531583786010742,0.7113895416259766
1772729281390609200,2.468609130859375,5.590545654296875,0.8889150619506836,0.9718625545501709
1772729281400609000,2.478609130859375,6.252708435058594,0.8035554885864258,0.9420764446258545
1772729281410609200,2.488609130859375,6.2969136238098145,1.0000362396240234,0.13912653923034668
1772729281420609000,2.498609130859375,5.664606094360352,1.0664782524108887,-0.3923659324645996
1772729281430609200,2.508609130859375,5.073561668395996,1.0123291015625,-0.9794225692749023
1772729281440609000,2.518609130859375,5.956787586212158,1.186467170715332,-1.4666252136230469
1772729281450609200,2.528609130859375,3.7827179431915283,1.2279977798461914,-2.6802523136138916
1772729281460609000,2.538609130859375,0.7408692836761475,1.6507835388183594,-2.6754958629608154
1772729281470609200,2.548609130859375,0.5553066730499268,2.940540313720703,-2.1205360889434814
1772729281480609000,2.558609130859375,1.6896119117736816,3.77291202545166,-2.200868844985962
1772729281490609200,2.568609130859375,1.5083999633789062,4.812972068786621,-0.14864349365234375
1772729281500609000,2.578609130859375,-0.5533907413482666,3.8764543533325195,-0.03492426872253418
1772729281510609200,2.588609130859375,-1.456688642501831,2.4292678833007812,-0.7102117538452148
1772729281520609000,2.598609130859375,-1.9169316291809082,1.2562942504882812,-0.8974905014038086
1772729281530609200,2.608609130859375,-1.212573528289795,0.5037984848022461,-1.2136340141296387
1772729281540609000,2.618609130859375,0.3268396854400635,-0.33395957946777344,-0.7968055009841919
1772729281550609200,2.628609130859375,1.7915533781051636,-0.8166522979736328,1.0741074085235596
1772729281560609000,2.638609130859375,2.0397839546203613,-2.4694948196411133,0.5529756546020508
1772729281570609200,2.648609130859375,3.104525089263916,-3.244553565979004,1.6375384330749512
1772729281580609000,2.658609130859375,4.096645355224609,-3.4802207946777344,3.9335010051727295
1772729281590609200,2.668609130859375,4.152145862579346,-3.462949752807617,5.985158920288086
1772729281600609000,2.678609130859375,3.880413293838501,-4.262800216674805,6.899199485778809
1772729281610609200,2.688609130859375,3.577249765396118,-4.110995292663574,6.788719177246094
1772729281620609000,2.698609130859375,2.820927619934082,-3.2833805084228516,5.483526229858398
1772729281630609200,2.708609130859375,1.9515914916992188,-2.415175437927246,4.113678932189941
1772729281640609000,2.718609130859375,0.7808082103729248,-2.7415084838867188,3.127736806869507
1772729281650609200,2.728609130859375,-0.8012828826904297,-3.9746227264404297,1.8304507732391357
1772729281660609000,2.738609130859375,-2.012092351913452,-5.05873966217041,0.9962606430053711
1772729281670609200,2.748609130859375,-2.213236093521118,-6.190224647521973,0.9349772930145264
1772729281680609000,2.758609130859375,-1.7700514793395996,-6.777029037475586,2.005049467086792
1772729281690609200,2.768609130859375,-0.6899173259735107,-6.432895660400391,1.9824495315551758
1772729281700609000,2.778609130859375,0.28093981742858887,-5.2677764892578125,1.2790701389312744
1772729281710609200,2.788609130859375,0.5588552951812744,-3.152644157409668,0.18009281158447266
1772729281720609000,2.798609130859375,0.43457961082458496,-1.5816535949707031,-0.4168241024017334
1772729281730609200,2.808609130859375,0.8673893213272095,0.12263774871826172,-0.04584026336669922
1772729281740609000,2.818609130859375,-0.8147270679473877,0.052947044372558594,-0.7371153831481934
1772729281750609200,2.828609130859375,-2.928093433380127,-0.1174631118774414,-2.5628602504730225
1772729281760609000,2.838609130859375,-4.2227373123168945,-0.1378488540649414,-3.2145822048187256
1772729281770609200,2.848609130859375,-4.459742546081543,-0.39646339416503906,-4.166745185852051
1772729281780609000,2.858609130859375,-5.04282808303833,-0.8516960144042969,-4.56586217880249
1772729281790609200,2.868609130859375,-4.993533611297607,-0.815739631652832,-4.540681838989258
1772729281800609000,2.878609130859375,-5.619018077850342,-0.7727508544921875,-4.245059013366699
1772729281810609200,2.888609130859375,-7.337820053100586,0.03329181671142578,-2.9312171936035156
1772729281820609000,2.898609130859375,-7.486907005310059,0.06471538543701172,-3.6952896118164062
1772729281830609200,2.908609130859375,-7.367606163024902,-1.2518634796142578,-4.887450218200684
1772729281840609000,2.918609130859375,-6.024104118347168,-1.9207000732421875,-4.218568801879883
1772729281850609200,2.928609130859375,-5.771482467651367,-0.9027700424194336,-1.0686886310577393
1772729281860609000,2.938609130859375,-5.798022747039795,0.9963483810424805,-0.6028814315795898
1772729281870609200,2.948609130859375,-5.339119911193848,1.9751601219177246,-1.7887582778930664
1772729281880609000,2.958609130859375,-3.9959466457366943,1.6548643112182617,-2.1768386363983154
1772729281890609200,2.968609130859375,1.164818525314331,3.351438522338867,-0.46608003973960876
1772729281900609000,2.978609130859375,7.834259986877441,0.589299201965332,6.67330265045166
1772729281910609200,2.988609130859375,8.722513198852539,-2.2537546157836914,9.993293762207031
1772729281920609000,2.998609130859375,7.206345081329346,2.506767749786377,3.924393653869629
1772729281930609200,3.008609130859375,10.247836112976074,7.866975784301758,0.6079065799713135
1772729281940609000,3.018609130859375,11.83367919921875,11.519481658935547,-0.5158186554908752
1772729281950609200,3.028609130859375,5.787539958953857,10.87734603881836,-0.39970922470092773
1772729281960609000,3.038609130859375,0.5305923819541931,7.188531875610352,-1.7971925735473633
1772729281970609200,3.048609130859375,-1.3646132946014404,5.9829254150390625,-2.0707952976226807
1772729281980609000,3.058609130859375,-2.5662918090820312,5.739665985107422,-1.1958258152008057
1772729281990609200,3.068609130859375,-3.381028175354004,4.693653106689453,-0.42149972915649414
1772729282000609000,3.078609130859375,-3.9548256397247314,3.736313819885254,0.0555347204208374
1772729282010609200,3.088609130859375,-3.5176515579223633,3.0922470092773438,0.3873441219329834
1772729282020609000,3.098609130859375,-1.705147624015808,4.047240734100342,0.17467617988586426
1772729282030609200,3.108609130859375,-0.7123458981513977,4.888551712036133,-0.2301715612411499
1772729282040609000,3.118609130859375,0.30605775117874146,6.0708208084106445,-0.08933877944946289
1772729282050609200,3.128609130859375,1.3190362453460693,5.241415023803711,-0.13362574577331543
1772729282060609000,3.138609130859375,2.564478874206543,4.560174942016602,-0.11317598819732666
1772729282070609200,3.148609130859375,4.434396266937256,4.246000289916992,-0.2172245979309082
1772729282080609000,3.158609130859375,4.174415111541748,-2.7090721130371094,0.6965404748916626
1772729282090609200,3.168609130859375,1.1831860542297363,-15.439072608947754,3.917933225631714
1772729282100609000,3.178609130859375,0.6139563322067261,-18.540231704711914,8.765892028808594
1772729282110609200,3.188609130859375,3.263965129852295,-8.07682991027832,6.027475357055664
1772729282120609000,3.198609130859375,5.081386566162109,-1.5093278884887695,1.6993765830993652
1772729282130609200,3.208609130859375,6.018507480621338,2.7242536544799805,-1.3117434978485107
1772729282140609000,3.218609130859375,5.399170875549316,5.129729747772217,-2.724623918533325
1772729282150609200,3.228609130859375,3.5199623107910156,4.160007476806641,-3.2324647903442383
1772729282160609000,3.238609130859375,2.936187982559204,3.2395105361938477,-3.3697550296783447
1772729282170609200,3.248609130859375,3.715053081512451,1.45782470703125,-2.133427143096924
1772729282180609000,3.258609130859375,3.6534457206726074,-0.08438873291015625,-0.5166778564453125
1772729282190609200,3.268609130859375,3.2313828468322754,-1.348616600036621,0.6546802520751953
1772729282200609000,3.278609130859375,1.8464325666427612,-1.5294151306152344,1.1778254508972168
1772729282210609200,3.288609130859375,0.13454842567443848,-1.960226058959961,0.8099541664123535
1772729282220609000,3.298609130859375,-1.4872528314590454,-4.219818115234375,0.39629411697387695
1772729282230609200,3.308609130859375,-3.4201414585113525,-7.157503128051758,1.1042566299438477
1772729282240609000,3.318609130859375,-5.411281108856201,-10.051535606384277,2.3847413063049316
1772729282250609200,3.328609130859375,-7.277405261993408,-11.060934066772461,2.011680841445923
1772729282260609000,3.338609130859375,-6.855585098266602,-7.555078506469727,-0.7557809352874756
1772729282270609200,3.348609130859375,-6.205567359924316,-3.8736934661865234,-2.0753297805786133
1772729282280609000,3.358609130859375,-6.496017932891846,-1.6399974822998047,-1.291430950164795
1772729282290609200,3.368609130859375,-5.60106897354126,-0.2828025817871094,-0.482621431350708
1772729282300609000,3.378609130859375,-4.689697265625,1.210850715637207,-0.5758223533630371
1772729282310609200,3.388609130859375,-4.580734729766846,1.9566965103149414,-0.5190038681030273
1772729282320609000,3.398609130859375,-3.61661958694458,1.7361564636230469,-0.9763004779815674
1772729282330609200,3.408609130859375,-3.3891706466674805,1.3651838302612305,-1.7123932838439941
1772729282340609000,3.418609130859375,-3.9213788509368896,1.0466384887695312,-2.065230369567871
1772729282350609200,3.428609130859375,-4.005584716796875,0.9305295944213867,-2.3684475421905518
1772729282360609000,3.438609130859375,-3.418980836868286,0.8033246994018555,-2.5548720359802246
1772729282370609200,3.448609130859375,-2.635680675506592,0.6147680282592773,-2.5009756088256836
1772729282380609000,3.458609130859375,-1.999424695968628,0.5947494506835938,-2.162902355194092
1772729282390609200,3.468609130859375,-1.5897623300552368,0.9112405776977539,-1.871051549911499
1772729282400609000,3.478609130859375,-0.811600923538208,1.484365463256836,-1.7991812229156494
1772729282410609200,3.488609130859375,0.06609904766082764,2.1225128173828125,-1.5303213596343994
1772729282420609000,3.498609130859375,0.9700860977172852,2.430304527282715,-1.401787281036377
1772729282430609200,3.508609130859375,1.781467080116272,2.527411937713623,-1.2788231372833252
1772729282440609000,3.518609130859375,2.398442268371582,2.4258432388305664,-1.0896620750427246
1772729282450609200,3.528609130859375,2.7217817306518555,1.9997310638427734,-0.7427124977111816
1772729282460609000,3.538609130859375,2.621157646179199,1.3923068046569824,-0.11387991905212402
1772729282470609200,3.548609130859375,2.4921159744262695,0.7175712585449219,0.6745750904083252
1772729282480609000,3.558609130859375,2.863271951675415,0.5073699951171875,0.9576239585876465
1772729282490609200,3.568609130859375,3.6440670490264893,1.0796079635620117,0.6649348735809326
1772729282500609000,3.578609130859375,4.279852390289307,1.8688068389892578,0.13715147972106934
1772729282510609200,3.588609130859375,4.655128002166748,2.5314512252807617,-0.4000725746154785
1772729282520609000,3.598609130859375,4.661827087402344,2.864926338195801,-0.6733226776123047
1772729282530609200,3.608609130859375,4.311737060546875,2.9196624755859375,-0.8359544277191162
1772729282540609000,3.618609130859375,3.5007472038269043,2.7355594635009766,-0.8256242275238037
1772729282550609200,3.628609130859375,2.705899477005005,2.2608842849731445,-0.49935412406921387
1772729282560609000,3.638609130859375,2.09633207321167,1.686833381652832,0.0985257625579834
1772729282570609200,3.648609130859375,1.7941269874572754,1.220144271850586,0.5965442657470703
1772729282580609000,3.658609130859375,1.638231635093689,0.7190322875976562,0.8366153240203857
1772729282590609200,3.668609130859375,1.4264461994171143,0.06276798248291016,1.3294517993927002
1772729282600609000,3.678609130859375,1.1293139457702637,-0.38852596282958984,1.7916929721832275
1772729282610609200,3.688609130859375,0.6992511749267578,-0.8648147583007812,2.0937819480895996
1772729282620609000,3.698609130859375,0.2518322467803955,-1.5576772689819336,2.3783018589019775
1772729282630609200,3.708609130859375,0.22119808197021484,-2.433119773864746,2.466266393661499
1772729282640609000,3.718609130859375,0.6332595348358154,-3.185605049133301,2.7153820991516113
1772729282650609200,3.728609130859375,1.2325115203857422,-3.5311708450317383,2.9860610961914062
1772729282660609000,3.738609130859375,1.7935616970062256,-3.5255002975463867,3.5958118438720703
1772729282670609200,3.748609130859375,2.5449066162109375,-3.2607994079589844,3.987748146057129
1772729282680609000,3.758609130859375,3.3585925102233887,-2.841278076171875,4.122475624084473
1772729282690609200,3.768609130859375,3.910191297531128,-2.6673221588134766,4.167482852935791
1772729282700609000,3.778609130859375,3.426750659942627,-3.6388559341430664,4.4452056884765625
1772729282710609200,3.788609130859375,2.3239474296569824,-5.053178787231445,4.23139762878418
1772729282720609000,3.798609130859375,1.2544379234313965,-6.228965759277344,3.853001594543457
1772729282730609200,3.808609130859375,0.9293675422668457,-6.445893287658691,3.037034511566162
1772729282740609000,3.818609130859375,0.5466595888137817,-6.04400634765625,1.8740150928497314
1772729282750609200,3.828609130859375,0.2651416063308716,-4.964905738830566,1.191671371459961
1772729282760609000,3.838609130859375,0.08641290664672852,-2.2850723266601562,0.02315974235534668
1772729282770609200,3.848609130859375,-0.31434547901153564,-0.18130779266357422,-1.0414011478424072
1772729282780609000,3.858609130859375,-0.7013455629348755,0.784672737121582,-2.2026853561401367
1772729282790609200,3.868609130859375,-2.024876117706299,0.7297096252441406,-2.761690855026245
1772729282800609000,3.878609130859375,-5.783426284790039,0.27075958251953125,-3.1696579456329346
1772729282810609200,3.888609130859375,-8.71200180053711,0.1813488006591797,-3.7140567302703857
1772729282820609000,3.898609130859375,-7.484070301055908,-0.2786245346069336,-3.8619141578674316
1772729282830609200,3.908609130859375,-6.72263765335083,-1.1797800064086914,-3.773425340652466
1772729282840609000,3.918609130859375,-6.220761299133301,-1.6743059158325195,-4.220311164855957
1772729282850609200,3.928609130859375,-6.369901657104492,-1.582810401916504,-4.448553562164307
1772729282860609000,3.938609130859375,-6.069133281707764,-0.8369693756103516,-4.336788654327393
1772729282870609200,3.948609130859375,-4.783547878265381,-0.040035247802734375,-3.6028616428375244
1772729282880609000,3.958609130859375,-3.4172582626342773,0.4438323974609375,-2.654548168182373
1772729282890609200,3.968609130859375,-2.378241777420044,0.6756973266601562,-1.686617136001587
1772729282900609000,3.978609130859375,-1.3974195718765259,0.8380403518676758,-0.906893253326416
1772729282910609200,3.988609130859375,-0.6974520683288574,0.9946517944335938,-0.6265804767608643
1772729282920609000,3.998609130859375,-0.6191503405570984,1.0788345336914062,-0.6411521434783936
1772729282930609200,4.008609130859375,-0.19268369674682617,0.5122537612915039,1.0831687450408936
1772729282940609000,4.018609130859375,1.7542786598205566,-1.5801019668579102,5.579463005065918
1772729282950609200,4.028609130859375,2.635493278503418,0.48933982849121094,4.15730094909668
1772729282960609000,4.038609130859375,2.807081937789917,3.193979263305664,1.3810031414031982
1772729282970609200,4.048609130859375,3.310969114303589,4.724653720855713,-0.26080918312072754
1772729282980609000,4.058609130859375,4.2580885887146,4.9777936935424805,0.11740636825561523
1772729282990609200,4.068609130859375,5.586910724639893,4.8391242027282715,0.7673006057739258
1772729283000609000,4.078609130859375,4.781096458435059,5.345728874206543,0.5445778369903564
1772729283010609200,4.088609130859375,1.7891994714736938,6.280106544494629,-0.1502828598022461
1772729283020609000,4.098609130859375,-0.9635155200958252,6.875249862670898,-0.8829622268676758
1772729283030609200,4.108609130859375,-2.7517166137695312,6.939535617828369,-1.4906796216964722
1772729283040609000,4.118609130859375,-3.257235527038574,6.291916370391846,-1.8009657859802246
1772729283050609200,4.128609130859375,-2.829716444015503,5.761531829833984,-2.347425937652588
1772729283060609000,4.138609130859375,-2.700113296508789,5.6892523765563965,-2.776376247406006
1772729283070609200,4.148609130859375,-2.5883090496063232,5.43179988861084,-2.6560819149017334
1772729283080609000,4.158609130859375,-1.9729946851730347,4.437718391418457,-2.1573660373687744
1772729283090609200,4.168609130859375,-1.1977746486663818,2.860809326171875,-1.5007045269012451
1772729283100609000,4.178609130859375,-0.49232107400894165,1.4141740798950195,-1.3249669075012207
1772729283110609200,4.188609130859375,0.09363758563995361,-0.1611614227294922,-0.9864516258239746
1772729283120609000,4.198609130859375,-0.05983346700668335,-2.044894218444824,-0.47504568099975586
1772729283130609200,4.208609130859375,0.6784265637397766,-4.778227806091309,0.8597943782806396
1772729283140609000,4.218609130859375,2.81733775138855,-9.289210319519043,4.8145952224731445
1772729283150609200,4.228609130859375,5.457343101501465,-11.185524940490723,7.438539981842041
1772729283160609000,4.238609130859375,6.454101085662842,-8.270660400390625,6.177148818969727
1772729283170609200,4.248609130859375,5.818657398223877,-3.370577812194824,2.8837461471557617
1772729283180609000,4.258609130859375,4.317721843719482,0.8018808364868164,0.3612203598022461
1772729283190609200,4.268609130859375,3.2843284606933594,3.8354382514953613,-2.974574327468872
1772729283200609000,4.278609130859375,3.228391647338867,3.8781752586364746,-5.4284491539001465
1772729283210609200,4.288609130859375,4.250059127807617,0.12017822265625,-3.4648091793060303
1772729283220609000,4.298609130859375,5.633301734924316,-3.987398147583008,0.9554712772369385
1772729283230609200,4.308609130859375,4.648214340209961,-5.681493759155273,4.360612869262695
1772729283240609000,4.318609130859375,2.6861510276794434,-5.512256622314453,4.20559024810791
1772729283250609200,4.328609130859375,0.9835934638977051,-4.111114501953125,1.5679237842559814
1772729283260609000,4.338609130859375,-0.7060714960098267,-3.5225419998168945,-0.6332688331604004
1772729283270609200,4.348609130859375,-2.3433351516723633,-4.150586128234863,-0.9514408111572266
1772729283280609000,4.358609130859375,-3.44594144821167,-4.9116621017456055,-0.16791248321533203
1772729283290609200,4.368609130859375,-3.8229527473449707,-4.143806457519531,0.21982932090759277
1772729283300609000,4.378609130859375,-3.8947744369506836,-2.037856101989746,-0.3222064971923828
1772729283310609200,4.388609130859375,-4.2200541496276855,-0.237518310546875,-1.3684298992156982
1772729283320609000,4.398609130859375,-5.253790855407715,0.4294471740722656,-1.4835078716278076
1772729283330609200,4.408609130859375,-6.2946553230285645,0.32285308837890625,-0.801008939743042
1772729283340609000,4.418609130859375,-7.21580696105957,0.16224193572998047,-0.16664624214172363
1772729283350609200,4.428609130859375,-7.636005878448486,-0.08321857452392578,-0.23874831199645996
1772729283360609000,4.438609130859375,-7.293577671051025,0.008350372314453125,-0.6935317516326904
1772729283370609200,4.448609130859375,-7.0539960861206055,-0.14693069458007812,-0.7980763912200928
1772729283380609000,4.458609130859375,-5.717139720916748,-0.11181449890136719,-0.8926560878753662
1772729283390609200,4.468609130859375,-4.739460468292236,0.2737092971801758,-0.2866353988647461
1772729283400609000,4.478609130859375,-3.487046480178833,0.35373687744140625,0.04428267478942871
1772729283410609200,4.488609130859375,-2.295229434967041,0.6013507843017578,0.10891866683959961
1772729283420609000,4.498609130859375,-1.1179516315460205,1.375823974609375,-0.3647170066833496
1772729283430609200,4.508609130859375,-0.1750900149345398,1.7018146514892578,-0.620753288269043
1772729283440609000,4.518609130859375,0.4573993384838104,1.9625358581542969,-0.7813820838928223
1772729283450609200,4.528609130859375,1.0064616203308105,2.3887505531311035,-1.0096864700317383
1772729283460609000,4.538609130859375,1.4223986864089966,2.577784538269043,-1.0237209796905518
1772729283470609200,4.548609130859375,1.8943636417388916,2.5658512115478516,-1.1687641143798828
1772729283480609000,4.558609130859375,2.3892903327941895,2.488497734069824,-1.102747917175293
1772729283490609200,4.568609130859375,2.860724449157715,2.4187088012695312,-1.2557804584503174
1772729283500609000,4.578609130859375,3.1527233123779297,2.3141565322875977,-1.244560956954956
1772729283510609200,4.588609130859375,3.305288791656494,2.1115283966064453,-1.0462462902069092
1772729283520609000,4.598609130859375,3.413356304168701,1.8039369583129883,-0.7032499313354492
1772729283530609200,4.608609130859375,3.6489877700805664,1.940093994140625,-0.8101887702941895
1772729283540609000,4.618609130859375,3.9567346572875977,2.6173858642578125,-0.9561257362365723
1772729283550609200,4.628609130859375,4.064559459686279,3.204050064086914,-1.1417200565338135
1772729283560609000,4.638609130859375,3.6268603801727295,3.4734673500061035,-1.2331569194793701
1772729283570609200,4.648609130859375,2.793203115463257,3.462592124938965,-1.2352559566497803
1772729283580609000,4.658609130859375,2.005490779876709,3.2768659591674805,-1.0239195823669434
1772729283590609200,4.668609130859375,1.472717523574829,3.0659050941467285,-0.5563669204711914
1772729283600609000,4.678609130859375,1.0915896892547607,2.61887264251709,-0.2272047996520996
1772729283610609200,4.688609130859375,0.8113104104995728,1.7301616668701172,-0.03197622299194336
1772729283620609000,4.698609130859375,0.6215738654136658,0.6208667755126953,0.45203423500061035
1772729283630609200,4.708609130859375,0.5167958736419678,-0.1768941879272461,1.0959320068359375
1772729283640609000,4.718609130859375,0.42114269733428955,-0.8287191390991211,1.8924531936645508
1772729283650609200,4.728609130859375,0.35134637355804443,-1.3792181015014648,2.833989143371582
1772729283660609000,4.738609130859375,0.19298076629638672,-1.6921024322509766,4.097454071044922
1772729283670609200,4.748609130859375,0.33077478408813477,-2.3555192947387695,5.393435478210449
1772729283680609000,4.758609130859375,1.2240650653839111,-3.449704170227051,5.843766212463379
1772729283690609200,4.768609130859375,2.437654733657837,-3.5032958984375,6.139270782470703
1772729283700609000,4.778609130859375,3.395002841949463,-3.0101137161254883,6.260679244995117
1772729283710609200,4.788609130859375,3.9341657161712646,-2.698789596557617,5.5375189781188965
1772729283720609000,4.798609130859375,4.370109558105469,-2.5862178802490234,4.39893102645874
1772729283730609200,4.808609130859375,4.8248724937438965,-3.3884191513061523,3.527477264404297
1772729283740609000,4.818609130859375,4.6500749588012695,-4.600455284118652,3.3285274505615234
1772729283750609200,4.828609130859375,4.005279541015625,-5.3074750900268555,2.398498058319092
1772729283760609000,4.838609130859375,3.1854512691497803,-5.230258941650391,1.1336555480957031
1772729283770609200,4.848609130859375,2.0197863578796387,-5.305057525634766,0.3867473602294922
1772729283780609000,4.858609130859375,1.2931677103042603,-4.9895734786987305,0.21999120712280273
1772729283790609200,4.868609130859375,1.594557762145996,-3.009357452392578,-0.6751739978790283
1772729283800609000,4.878609130859375,1.3405240774154663,-0.3186149597167969,-1.6515698432922363
1772729283810609200,4.888609130859375,0.4991835057735443,0.6375627517700195,-2.3048925399780273
1772729283820609000,4.898609130859375,-0.7034173607826233,-0.3608694076538086,-2.7105579376220703
1772729283830609200,4.908609130859375,-3.3916966915130615,-1.8537330627441406,-2.971709728240967
1772729283840609000,4.918609130859375,-8.989893913269043,-2.9621782302856445,-3.756840705871582
1772729283850609200,4.928609130859375,-10.517001152038574,-2.8931751251220703,-4.859246253967285
1772729283860609000,4.938609130859375,-9.500654220581055,-3.558330535888672,-5.250188827514648
1772729283870609200,4.948609130859375,-9.916929244995117,-3.9074764251708984,-5.399855613708496
1772729283880609000,4.958609130859375,-10.231244087219238,-3.048396110534668,-5.363089561462402
1772729283890609200,4.968609130859375,-8.72556209564209,-0.9667081832885742,-5.4295973777771
1772729283900609000,4.978609130859375,-5.748480796813965,-0.004725456237792969,-4.272942543029785
1772729283910609200,4.988609130859375,-3.688340663909912,0.25716114044189453,-2.597606658935547
1772729283920609000,4.998609130859375,-2.3629024028778076,0.5929660797119141,-1.4068880081176758
1772729283930609200,5.008609130859375,-1.2439066171646118,1.0623340606689453,-0.7070205211639404
1772729283940609000,5.018609130859375,-0.3141734004020691,1.600839614868164,-0.21866488456726074
1772729283950609200,5.028609130859375,0.28961580991744995,2.209209442138672,0.1574547290802002
1772729283960609000,5.038609130859375,0.8034358024597168,3.2172327041625977,0.34366440773010254
1772729283970609200,5.048609130859375,1.4898014068603516,2.4540491104125977,1.5361335277557373
1772729283980609000,5.058609130859375,2.8491647243499756,-0.9246654510498047,6.936512470245361
1772729283990609200,5.068609130859375,4.033532619476318,1.5954313278198242,4.953893661499023
1772729284000609000,5.078609130859375,5.455252647399902,4.264321327209473,2.3102498054504395
1772729284010609200,5.088609130859375,5.854599475860596,5.8164801597595215,0.49312663078308105
1772729284020609000,5.098609130859375,5.090915203094482,6.64589262008667,-0.015894651412963867
1772729284030609200,5.108609130859375,4.368721008300781,6.916152477264404,0.07429623603820801
1772729284040609000,5.118609130859375,2.012761354446411,7.0864481925964355,-0.4590644836425781
1772729284050609200,5.128609130859375,-0.6750731468200684,7.102417945861816,-0.9428951740264893
1772729284060609000,5.138609130859375,-2.4280314445495605,6.852413177490234,-1.5055806636810303
1772729284070609200,5.148609130859375,-3.0007543563842773,6.576700687408447,-2.0632519721984863
1772729284080609000,5.158609130859375,-2.973750591278076,6.512193202972412,-2.535034656524658
1772729284090609200,5.168609130859375,-2.9557912349700928,6.214608669281006,-2.370426654815674
1772729284100609000,5.178609130859375,-2.87526798248291,5.173858165740967,-1.4145601987838745
1772729284110609200,5.188609130859375,-2.066359519958496,3.456327438354492,-0.5751750469207764
1772729284120609000,5.198609130859375,-1.1284372806549072,1.7297706604003906,-0.3051011562347412
1772729284130609200,5.208609130859375,-0.41675782203674316,0.1765279769897461,-0.345562219619751
1772729284140609000,5.218609130859375,0.7816608548164368,-1.6055927276611328,-0.532374382019043
1772729284150609200,5.228609130859375,2.9808290004730225,-4.371791839599609,0.03056478500366211
1772729284160609000,5.238609130859375,5.268932819366455,-8.655278205871582,3.751492500305176
1772729284170609200,5.248609130859375,6.942508220672607,-10.812257766723633,6.3724212646484375
1772729284180609000,5.258609130859375,7.248049259185791,-7.784731864929199,4.884788513183594
1772729284190609200,5.268609130859375,5.842748641967773,-3.765191078186035,2.4352240562438965
1772729284200609000,5.278609130859375,3.7871029376983643,0.10866355895996094,0.005163908004760742
1772729284210609200,5.288609130859375,1.5939714908599854,2.8771042823791504,-2.239377021789551
1772729284220609000,5.298609130859375,-0.23485469818115234,3.2119131088256836,-3.6293094158172607
1772729284230609200,5.308609130859375,2.5234763622283936,0.19421958923339844,-2.97349214553833
1772729284240609000,5.318609130859375,4.9583740234375,-3.7260169982910156,1.5102005004882812
1772729284250609200,5.328609130859375,3.8323001861572266,-6.177020072937012,5.61860466003418
1772729284260609000,5.338609130859375,1.5012949705123901,-6.982259750366211,6.847270488739014
1772729284270609200,5.348609130859375,0.3301461935043335,-6.232348442077637,4.349463939666748
1772729284280609000,5.358609130859375,-0.8009166121482849,-4.54547119140625,0.2634882926940918
1772729284290609200,5.368609130859375,-3.010167121887207,-4.0476531982421875,-1.5035877227783203
1772729284300609000,5.378609130859375,-4.570727825164795,-2.9978713989257812,-1.7267179489135742
1772729284310609200,5.388609130859375,-5.41599178314209,-1.3002290725708008,-1.9049134254455566
1772729284320609000,5.398609130859375,-5.0564866065979,-0.9899330139160156,-1.6175906658172607
1772729284330609200,5.408609130859375,-4.103366374969482,-0.791041374206543,-1.5680636167526245
1772729284340609000,5.418609130859375,-4.037694931030273,-0.5125789642333984,-1.218508243560791
1772729284350609200,5.428609130859375,-5.165103435516357,-0.29384326934814453,-0.16620874404907227
1772729284360609000,5.438609130859375,-6.597436428070068,-0.22157001495361328,1.1246929168701172
1772729284370609200,5.448609130859375,-7.1718549728393555,-0.4515237808227539,1.4915969371795654
1772729284380609000,5.458609130859375,-7.0012688636779785,-0.4060373306274414,0.9372496604919434
1772729284390609200,5.468609130859375,-6.954588890075684,-0.13104534149169922,0.2479233741760254
1772729284400609000,5.478609130859375,-6.342496871948242,0.28802967071533203,-0.1605544090270996
1772729284410609200,5.488609130859375,-5.319729328155518,0.3851795196533203,-0.02228093147277832
1772729284420609000,5.498609130859375,-3.9754319190979004,0.245880126953125,-0.3488445281982422
1772729284430609200,5.508609130859375,-2.6897659301757812,0.34291648864746094,-0.6533863544464111
1772729284440609000,5.518609130859375,-1.7491768598556519,0.6539907455444336,-0.8369438648223877
1772729284450609200,5.528609130859375,-0.6922258734703064,0.8322992324829102,-1.0755610466003418
1772729284460609000,5.538609130859375,0.3090905547142029,1.0087041854858398,-1.1447954177856445
1772729284470609200,5.548609130859375,1.1485356092453003,1.1855754852294922,-0.9874670505523682
1772729284480609000,5.558609130859375,2.0731844902038574,1.527087688446045,-0.9213335514068604
1772729284490609200,5.568609130859375,2.892125129699707,1.9439668655395508,-0.9401535987854004
1772729284500609000,5.578609130859375,3.487010955810547,2.151052474975586,-1.0633511543273926
1772729284510609200,5.588609130859375,3.8645646572113037,2.1607837677001953,-0.986638069152832
1772729284520609000,5.598609130859375,4.106089115142822,2.067302703857422,-1.063284158706665
1772729284530609200,5.608609130859375,4.295255184173584,2.0920066833496094,-1.1247074604034424
1772729284540609000,5.618609130859375,4.384968280792236,2.374802589416504,-1.273937702178955
1772729284550609200,5.628609130859375,4.406365394592285,2.9321670532226562,-1.7327324151992798
1772729284560609000,5.638609130859375,4.127921104431152,3.3348159790039062,-1.9422298669815063
1772729284570609200,5.648609130859375,3.626155376434326,3.5369739532470703,-2.070246696472168
1772729284580609000,5.658609130859375,3.0252022743225098,3.5560531616210938,-2.1276769638061523
1772729284590609200,5.668609130859375,2.4091176986694336,3.37371826171875,-1.8975188732147217
1772729284600609000,5.678609130859375,1.8647969961166382,3.175477981567383,-1.510744571685791
1772729284610609200,5.688609130859375,1.3095505237579346,2.7775754928588867,-1.4623700380325317
1772729284620609000,5.698609130859375,0.7939492464065552,1.7877511978149414,-1.208801507949829
1772729284630609200,5.708609130859375,0.4602395296096802,0.6681432723999023,-0.5948441028594971
1772729284640609000,5.718609130859375,0.22291862964630127,0.13068771362304688,0.14368891716003418
1772729284650609200,5.728609130859375,0.3198338747024536,-0.34122276306152344,1.1046626567840576
1772729284660609000,5.738609130859375,0.511360764503479,-0.8005132675170898,2.3690571784973145
1772729284670609200,5.748609130859375,0.35198676586151123,-1.2559032440185547,3.7377490997314453
1772729284680609000,5.758609130859375,0.15058624744415283,-2.0352392196655273,4.989334583282471
1772729284690609200,5.768609130859375,0.8418304920196533,-2.532215118408203,5.671154975891113
1772729284700609000,5.778609130859375,2.0167346000671387,-2.422122001647949,6.231943130493164
1772729284710609200,5.788609130859375,2.484337329864502,-1.5271940231323242,6.604857921600342
1772729284720609000,5.798609130859375,3.122462272644043,-1.4191617965698242,6.237643241882324
1772729284730609200,5.808609130859375,3.746532917022705,-2.5504865646362305,5.738791465759277
1772729284740609000,5.818609130859375,3.9063222408294678,-4.118204116821289,5.796967506408691
1772729284750609200,5.828609130859375,3.9881086349487305,-5.564846992492676,4.905372619628906
1772729284760609000,5.838609130859375,3.6459646224975586,-6.024385452270508,3.768592119216919
1772729284770609200,5.848609130859375,3.091036796569824,-5.797368049621582,1.9948959350585938
1772729284780609000,5.858609130859375,2.348778247833252,-5.746133804321289,0.5686955451965332
1772729284790609200,5.868609130859375,1.789282202720642,-4.953128814697266,-0.4509143829345703
1772729284800609000,5.878609130859375,1.2211700677871704,-3.0425472259521484,-1.3989951610565186
1772729284810609200,5.888609130859375,0.6393245458602905,-1.8939685821533203,-2.2484521865844727
1772729284820609000,5.898609130859375,0.013866066932678223,-1.812087059020996,-3.2244818210601807
1772729284830609200,5.908609130859375,-1.9079489707946777,-2.651590347290039,-3.580561637878418
1772729284840609000,5.918609130859375,-5.411689758300781,-3.166050910949707,-3.6341843605041504
1772729284850609200,5.928609130859375,-10.567705154418945,-3.1211891174316406,-4.074880123138428
1772729284860609000,5.938609130859375,-10.784616470336914,-2.8048534393310547,-5.332776069641113
1772729284870609200,5.948609130859375,-9.759662628173828,-3.010335922241211,-5.796053886413574
1772729284880609000,5.958609130859375,-8.351210594177246,-2.4482879638671875,-6.002771854400635
1772729284890609200,5.968609130859375,-7.540567398071289,-0.7793054580688477,-5.639674186706543
1772729284900609000,5.978609130859375,-5.738316059112549,0.34823036193847656,-4.866603374481201
1772729284910609200,5.988609130859375,-3.9277567863464355,1.1060256958007812,-4.083188056945801
1772729284920609000,5.998609130859375,-2.450958013534546,1.5481443405151367,-3.382524013519287
1772729284930609200,6.008609130859375,-1.4324071407318115,1.7979536056518555,-2.6870577335357666
1772729284940609000,6.018609130859375,-0.8003929853439331,2.006678581237793,-2.1516988277435303
1772729284950609200,6.028609130859375,-0.42801111936569214,2.1641454696655273,-1.5767345428466797
1772729284960609000,6.038609130859375,-0.1677533984184265,2.5667009353637695,-1.044022560119629
1772729284970609200,6.048609130859375,0.20114052295684814,3.168832778930664,-0.5436797142028809
1772729284980609000,6.058609130859375,2.0882248878479004,0.25871753692626953,3.672929525375366
1772729284990609200,6.068609130859375,5.218011856079102,-3.1819229125976562,8.506842613220215
1772729285000609000,6.078609130859375,4.803464889526367,1.6862735748291016,4.626542091369629
1772729285010609200,6.088609130859375,3.045865535736084,5.755606174468994,2.3563625812530518
1772729285020609000,6.098609130859375,4.05015754699707,7.270416259765625,2.357473373413086
1772729285030609200,6.108609130859375,5.858177661895752,7.436343193054199,1.6624400615692139
1772729285040609000,6.118609130859375,4.929598808288574,7.464301109313965,0.3887181282043457
1772729285050609200,6.128609130859375,1.646014928817749,7.164132118225098,-0.8494040966033936
1772729285060609000,6.138609130859375,-1.4039942026138306,6.3844709396362305,-1.6867860555648804
1772729285070609200,6.148609130859375,-3.1323795318603516,5.853443622589111,-2.421159505844116
1772729285080609000,6.158609130859375,-3.6785740852355957,5.739767551422119,-2.75839900970459
1772729285090609200,6.168609130859375,-3.3471317291259766,5.34940767288208,-2.6926727294921875
1772729285100609000,6.178609130859375,-3.1728856563568115,5.3152570724487305,-2.7139697074890137
1772729285110609200,6.188609130859375,-1.844586968421936,4.6326680183410645,-2.612260103225708
1772729285120609000,6.198609130859375,-1.7516155242919922,3.726363182067871,-1.6769092082977295
1772729285130609200,6.208609130859375,-1.4902390241622925,2.0131635665893555,-0.8302834033966064
1772729285140609000,6.218609130859375,-0.4369790554046631,0.12255287170410156,-0.213348388671875
1772729285150609200,6.228609130859375,0.9587111473083496,-1.7216768264770508,0.5762684345245361
1772729285160609000,6.238609130859375,2.4717276096343994,-3.3810548782348633,1.0176794528961182
1772729285170609200,6.248609130859375,4.547187328338623,-5.357267379760742,1.9309804439544678
1772729285180609000,6.258609130859375,7.381056785583496,-7.988883018493652,4.708011627197266
1772729285190609200,6.268609130859375,8.87004280090332,-7.818184852600098,5.1914215087890625
1772729285200609000,6.278609130859375,7.384110450744629,-5.089302062988281,3.6247482299804688
1772729285210609200,6.288609130859375,4.846027374267578,-1.9037065505981445,0.7721900939941406
1772729285230609200,6.308609130859375,0.06720948219299316,2.3676185607910156,-3.517875909805298
1772729285240609000,6.318609130859375,0.7515416145324707,-0.18255329132080078,-3.999596118927002
1772729285250609200,6.328609130859375,2.867971181869507,-4.316144943237305,-0.9829916954040527
1772729285260609000,6.338609130859375,3.491912603378296,-6.943404197692871,3.7146074771881104
1772729285270609200,6.348609130859375,2.5294673442840576,-8.188837051391602,6.185496807098389
1772729285280609000,6.358609130859375,1.4782330989837646,-6.458151817321777,4.6678009033203125
1772729285290609200,6.368609130859375,0.6763168573379517,-3.690793991088867,0.8765769004821777
1772729285300609000,6.378609130859375,-0.9552189111709595,-2.7679195404052734,-1.251899003982544
1772729285310609200,6.388609130859375,-4.037529468536377,-2.2891368865966797,-2.1988747119903564
1772729285320609000,6.398609130859375,-5.568482875823975,-1.8789567947387695,-1.7588518857955933
1772729285330609200,6.408609130859375,-6.207943439483643,-1.9899358749389648,-0.8838138580322266
1772729285340609000,6.418609130859375,-5.881000518798828,-2.1557607650756836,-0.4619016647338867
1772729285350609200,6.428609130859375,-5.655034065246582,-1.6939210891723633,-0.05722999572753906
1772729285360609000,6.438609130859375,-5.582530975341797,-0.6313648223876953,0.05356955528259277
1772729285370609200,6.448609130859375,-5.787687301635742,0.24155902862548828,0.534029483795166
1772729285380609000,6.458609130859375,-6.626023292541504,0.2354297637939453,1.3604042530059814
1772729285390609200,6.468609130859375,-6.8191680908203125,-0.4359130859375,1.732050895690918
1772729285400609000,6.478609130859375,-6.312282562255859,-0.8099260330200195,1.0225818157196045
1772729285410609200,6.488609130859375,-5.318398952484131,-0.7077112197875977,-0.23429465293884277
1772729285420609000,6.498609130859375,-4.441515922546387,-0.7127408981323242,-0.9428327083587646
1772729285430609200,6.508609130859375,-3.855703353881836,-0.3176259994506836,-1.0808703899383545
1772729285440609000,6.518609130859375,-3.167750835418701,-0.23295116424560547,-0.7986235618591309
1772729285450609200,6.528609130859375,-2.183945417404175,0.09766769409179688,-0.7452371120452881
1772729285460609000,6.538609130859375,-1.2122912406921387,0.6609859466552734,-0.9474589824676514
1772729285470609200,6.548609130859375,-0.37368738651275635,1.1411056518554688,-1.2460029125213623
1772729285480609000,6.558609130859375,0.2831805944442749,1.439976692199707,-0.9827394485473633
1772729285490609200,6.568609130859375,1.151249647140503,1.8458423614501953,-1.1588070392608643
1772729285500609000,6.578609130859375,1.9628403186798096,2.109269142150879,-1.2436230182647705
1772729285510609200,6.588609130859375,2.790199041366577,2.359147071838379,-1.4102346897125244
1772729285520609000,6.598609130859375,3.4587085247039795,2.445323944091797,-1.5960803031921387
1772729285530609200,6.608609130859375,3.7135117053985596,2.2461462020874023,-1.6497344970703125
1772729285540609000,6.618609130859375,3.5811383724212646,2.0098958015441895,-1.5343296527862549
1772729285550609200,6.628609130859375,3.360222816467285,2.092031478881836,-1.4047191143035889
1772729285560609000,6.638609130859375,3.199197292327881,2.3989858627319336,-1.4303991794586182
1772729285570609200,6.648609130859375,2.9500603675842285,2.7268447875976562,-1.3407325744628906
1772729285580609000,6.658609130859375,2.801976442337036,3.1171016693115234,-1.218357801437378
1772729285590609200,6.668609130859375,2.7991037368774414,3.664872169494629,-1.4261817932128906
1772729285600609000,6.678609130859375,2.834235191345215,4.189648628234863,-1.7706782817840576
1772729285610609200,6.688609130859375,2.7762298583984375,4.247057914733887,-1.8789937496185303
1772729285620609000,6.698609130859375,2.405792713165283,3.8353490829467773,-1.7219746112823486
1772729285630609200,6.708609130859375,1.8959929943084717,3.1301956176757812,-1.3660993576049805
1772729285640609000,6.718609130859375,1.6049466133117676,2.351386070251465,-0.8293983936309814
1772729285650609200,6.728609130859375,1.523589849472046,1.758101463317871,-0.25742673873901367
1772729285660609000,6.738609130859375,1.4894795417785645,1.0278339385986328,0.48262691497802734
1772729285670609200,6.748609130859375,1.217809796333313,0.14816570281982422,1.5185415744781494
1772729285680609000,6.758609130859375,0.7501041889190674,-0.8923883438110352,2.643339157104492
1772729285690609200,6.768609130859375,0.11997580528259277,-1.648092269897461,3.6578872203826904
1772729285700609000,6.778609130859375,-0.3156236410140991,-2.591653823852539,4.429468154907227
1772729285710609200,6.788609130859375,0.10258233547210693,-3.102078437805176,4.768378257751465
1772729285720609000,6.798609130859375,1.442175269126892,-2.4667015075683594,4.977205276489258
1772729285730609200,6.808609130859375,2.7386832237243652,-1.7154655456542969,4.905141353607178
1772729285740609000,6.818609130859375,4.043225288391113,-1.6111431121826172,4.168734550476074
1772729285750609200,6.828609130859375,4.634721755981445,-2.3193864822387695,3.672102689743042
1772729285760609000,6.838609130859375,4.742957592010498,-3.880709648132324,3.632450819015503
1772729285770609200,6.848609130859375,4.596738815307617,-5.501331329345703,4.158261775970459
1772729285780609000,6.858609130859375,4.191816806793213,-6.748579025268555,4.469415664672852
1772729285790609200,6.868609130859375,3.745981216430664,-7.3297529220581055,4.05992317199707
1772729285800609000,6.878609130859375,3.2765052318573,-6.719918251037598,2.7999374866485596
1772729285810609200,6.888609130859375,2.3950772285461426,-5.8104705810546875,1.5364713668823242
1772729285820609000,6.898609130859375,1.4814648628234863,-3.9735851287841797,0.5150501728057861
1772729285830609200,6.908609130859375,0.6968082189559937,-1.4172859191894531,-0.32761669158935547
1772729285840609000,6.918609130859375,-0.00799262523651123,-0.20627593994140625,-1.0561542510986328
1772729285850609200,6.928609130859375,-1.468745231628418,-0.3740396499633789,-2.0156049728393555
1772729285860609000,6.938609130859375,-5.03012752532959,-1.4743270874023438,-2.7656478881835938
1772729285870609200,6.948609130859375,-11.720292091369629,-2.164365768432617,-3.6723532676696777
1772729285880609000,6.958609130859375,-9.833062171936035,-2.4936532974243164,-4.474635124206543
1772729285890609200,6.968609130859375,-9.226713180541992,-3.8246536254882812,-4.835555553436279
1772729285900609000,6.978609130859375,-9.04791259765625,-3.521892547607422,-4.773566246032715
1772729285910609200,6.988609130859375,-8.4429292678833,-3.239396095275879,-4.622212886810303
1772729285920609000,6.998609130859375,-7.972047805786133,-1.5686969757080078,-5.003688335418701
1772729285930609200,7.008609130859375,-5.892022132873535,-0.14964675903320312,-4.612783908843994
1772729285940609000,7.018609130859375,-4.20926570892334,0.3566455841064453,-3.346442222595215
1772729285950609200,7.028609130859375,-2.8698596954345703,0.8189287185668945,-2.2613589763641357
1772729285960609000,7.038609130859375,-1.562793493270874,1.3019895553588867,-1.5179364681243896
1772729285970609200,7.048609130859375,-0.6164257526397705,1.8859891891479492,-1.0092675685882568
1772729285980609000,7.058609130859375,0.019817665219306946,2.6045799255371094,-0.6795740127563477
1772729285990609200,7.068609130859375,0.5082521438598633,3.3371171951293945,-0.3561253547668457
1772729286000609000,7.078609130859375,1.0445547103881836,4.005197525024414,-0.020783662796020508
1772729286010609200,7.088609130859375,1.6518900394439697,3.2747879028320312,0.7493329048156738
1772729286020609000,7.098609130859375,3.202927589416504,-0.6684455871582031,6.12629508972168
1772729286030609200,7.108609130859375,5.031368732452393,1.5120759010314941,4.313928604125977
1772729286040609000,7.118609130859375,6.440643787384033,4.621923446655273,1.553922414779663
1772729286050609200,7.128609130859375,7.4869561195373535,6.415738105773926,-0.2242434024810791
1772729286060609000,7.138609130859375,6.500560760498047,7.480133056640625,-1.2005507946014404
1772729286070609200,7.148609130859375,3.688516855239868,7.945897102355957,-2.2990007400512695
1772729286080609000,7.158609130859375,1.167807936668396,7.486575603485107,-2.767247200012207
1772729286090609200,7.168609130859375,-0.8167739510536194,6.88397741317749,-2.5712852478027344
1772729286100609000,7.178609130859375,-1.7240391969680786,6.3488264083862305,-2.3681139945983887
1772729286110609200,7.188609130859375,-2.259730339050293,5.981019973754883,-2.284318447113037
1772729286120609000,7.198609130859375,-2.4977128505706787,5.245198726654053,-2.1370151042938232
1772729286130609200,7.208609130859375,-2.4999260902404785,3.801290988922119,-2.177314519882202
1772729286140609000,7.218609130859375,-2.2285075187683105,1.3211088180541992,-1.4610669612884521
1772729286150609200,7.228609130859375,-1.778217077255249,-1.6694259643554688,-0.3581681251525879
1772729286160609000,7.238609130859375,-2.085507392883301,-3.045548439025879,-0.2838923931121826
1772729286170609200,7.248609130859375,-2.103731870651245,-3.548945426940918,-0.9343132972717285
1772729286180609000,7.258609130859375,-1.1445629596710205,-4.2481889724731445,-0.8415219783782959
1772729286190609200,7.268609130859375,2.049072027206421,-5.936456680297852,1.819523572921753
1772729286200609000,7.278609130859375,6.549143314361572,-7.236352920532227,3.5201218128204346
1772729286210609200,7.288609130859375,9.25394058227539,-6.020380020141602,2.8473358154296875
1772729286220609000,7.298609130859375,9.673896789550781,-3.8153038024902344,1.5450966358184814
1772729286230609200,7.308609130859375,8.416138648986816,-1.108266830444336,-0.11385107040405273
1772729286240609000,7.318609130859375,4.573803901672363,1.0505399703979492,-1.8585803508758545
1772729286250609200,7.328609130859375,0.6377373933792114,-0.5302410125732422,-1.8187716007232666
1772729286260609000,7.338609130859375,-0.20918917655944824,-3.5856103897094727,0.894512414932251
1772729286270609200,7.348609130859375,-0.6712589263916016,-5.716263771057129,3.6272132396698
1772729286280609000,7.358609130859375,-1.2090656757354736,-6.814308166503906,4.6834611892700195
1772729286290609200,7.368609130859375,0.0037488937377929688,-7.424356460571289,4.681179046630859
1772729286300609000,7.378609130859375,-0.06933355331420898,-7.360637664794922,2.023965835571289
1772729286310609200,7.388609130859375,-3.4793381690979004,-5.060528755187988,-0.9359548091888428
1772729286320609000,7.398609130859375,-5.555780410766602,-0.6585712432861328,-2.743830680847168
1772729286330609200,7.408609130859375,-5.3252387046813965,2.577436923980713,-3.656893491744995
1772729286340609000,7.418609130859375,-4.214660167694092,3.0062294006347656,-2.729053497314453
1772729286350609200,7.428609130859375,-2.9624578952789307,2.6875810623168945,-1.9737071990966797
1772729286360609000,7.438609130859375,-2.593383312225342,2.2604446411132812,-1.3459866046905518
1772729286370609200,7.448609130859375,-3.248893976211548,0.4692211151123047,0.3492395877838135
1772729286380609000,7.458609130859375,-3.8569631576538086,-1.3655357360839844,2.4344279766082764
1772729286390609200,7.468609130859375,-4.972410202026367,-2.2208518981933594,3.660034656524658
1772729286400609000,7.478609130859375,-6.79844856262207,-2.577326774597168,3.8546366691589355
1772729286410609200,7.488609130859375,-7.3632707595825195,-1.926534652709961,3.1635184288024902
1772729286420609000,7.498609130859375,-7.246209621429443,0.1481170654296875,2.6120858192443848
1772729286430609200,7.508609130859375,-5.2994513511657715,0.4267740249633789,1.616011619567871
1772729286440609000,7.518609130859375,-3.3512930870056152,0.6401596069335938,0.5791370868682861
1772729286450609200,7.528609130859375,-1.9071102142333984,0.7802352905273438,0.26630210876464844
1772729286460609000,7.538609130859375,-0.8689740896224976,0.7248516082763672,0.3081634044647217
1772729286470609200,7.548609130859375,-0.1695263385772705,0.6320705413818359,0.316434383392334
1772729286480609000,7.558609130859375,0.5118618011474609,0.6149845123291016,0.05016922950744629
1772729286490609200,7.568609130859375,1.2841072082519531,0.9023752212524414,-0.4686012268066406
1772729286500609000,7.578609130859375,2.072733163833618,1.190591812133789,-0.6756641864776611
1772729286510609200,7.588609130859375,2.5696957111358643,1.6524991989135742,-0.9810373783111572
1772729286520609000,7.598609130859375,2.712214231491089,2.0395822525024414,-1.2073023319244385
1772729286530609200,7.608609130859375,2.7409286499023438,2.1876087188720703,-1.4102749824523926
1772729286540609000,7.618609130859375,2.760965585708618,2.363098621368408,-1.4504032135009766
1772729286550609200,7.628609130859375,2.887829065322876,2.62111759185791,-1.7314224243164062
1772729286560609000,7.638609130859375,2.934391498565674,2.991863250732422,-1.9973366260528564
1772729286570609200,7.648609130859375,3.0739903450012207,3.1637988090515137,-2.1112875938415527
1772729286580609000,7.658609130859375,3.296710968017578,3.287168502807617,-2.038604259490967
1772729286590609200,7.668609130859375,3.4216480255126953,3.381291389465332,-1.9830217361450195
1772729286600609000,7.678609130859375,3.309375762939453,3.566807270050049,-2.0905728340148926
1772729286610609200,7.688609130859375,2.8788387775421143,3.8487401008605957,-2.218654155731201
1772729286620609000,7.698609130859375,2.2628841400146484,3.698436737060547,-2.0268735885620117
1772729286630609200,7.708609130859375,1.6730968952178955,3.085373878479004,-1.5944087505340576
1772729286640609000,7.718609130859375,1.1384621858596802,2.3044180870056152,-1.2448210716247559
1772729286650609200,7.728609130859375,0.4693982005119324,1.7285680770874023,-0.7309813499450684
1772729286660609000,7.738609130859375,0.2656254768371582,1.406855583190918,-0.3248748779296875
1772729286670609200,7.748609130859375,0.17484724521636963,1.0226545333862305,0.34005308151245117
1772729286680609000,7.758609130859375,0.23919105529785156,0.3154411315917969,1.0546183586120605
1772729286690609200,7.768609130859375,0.33496570587158203,-0.2473134994506836,1.8441715240478516
1772729286700609000,7.778609130859375,0.2739293575286865,-1.0926742553710938,2.6696255207061768
1772729286710609200,7.788609130859375,0.2926294803619385,-2.0936098098754883,3.8258278369903564
1772729286720609000,7.798609130859375,0.7124791741371155,-3.274479866027832,4.953021049499512
1772729286730609200,7.808609130859375,1.854172706604004,-3.457921028137207,5.380864143371582
1772729286740609000,7.818609130859375,3.075178384780884,-2.9810609817504883,5.81946325302124
1772729286750609200,7.828609130859375,4.055886268615723,-3.061478614807129,5.730306625366211
1772729286760609000,7.838609130859375,4.673276424407959,-4.3041534423828125,6.129225730895996
1772729286770609200,7.848609130859375,4.652235507965088,-5.414105415344238,5.753702163696289
1772729286780609000,7.858609130859375,4.235312461853027,-5.542311668395996,4.994317054748535
1772729286790609200,7.868609130859375,3.8675079345703125,-5.699175834655762,4.133576393127441
1772729286800609000,7.878609130859375,2.5289816856384277,-6.633249282836914,3.00131893157959
1772729286810609200,7.888609130859375,0.9005955457687378,-6.871594429016113,1.7839431762695312
1772729286820609000,7.898609130859375,-0.001828312873840332,-4.603167533874512,-0.04404044151306152
1772729286830609200,7.908609130859375,-0.809718668460846,-2.412311553955078,-1.2245087623596191
1772729286840609000,7.918609130859375,-1.4168448448181152,-0.8266029357910156,-2.906157970428467
1772729286850609200,7.928609130859375,-2.9337239265441895,-0.9910907745361328,-3.794456720352173
1772729286860609000,7.938609130859375,-7.152567386627197,-1.671330451965332,-4.244345188140869
1772729286870609200,7.948609130859375,-9.847637176513672,-1.3528156280517578,-4.856584072113037
1772729286880609000,7.958609130859375,-8.317221641540527,-1.9976615905761719,-5.276702404022217
1772729286890609200,7.968609130859375,-7.692562103271484,-2.794157028198242,-5.4920454025268555
1772729286900609000,7.978609130859375,-7.101365089416504,-2.932912826538086,-5.993854522705078
1772729286910609200,7.988609130859375,-7.2123703956604,-2.1476430892944336,-6.308478355407715
1772729286920609000,7.998609130859375,-6.841310501098633,-0.6606607437133789,-5.712371826171875
1772729286930609200,8.008609130859375,-5.607177257537842,0.3510589599609375,-4.744234085083008
1772729286940609000,8.018609130859375,-3.688814640045166,1.2304601669311523,-4.298859119415283
1772729286950609200,8.028609130859374,-2.4316890239715576,1.4346051216125488,-3.3335790634155273
1772729286960609000,8.038609130859374,-1.592336654663086,1.3363933563232422,-2.2574522495269775
1772729286970609200,8.048609130859376,-0.9760388731956482,1.4125547409057617,-1.420980453491211
1772729286980609000,8.058609130859375,-0.39269453287124634,1.8267936706542969,-0.971235990524292
1772729286990609200,8.068609130859375,-0.05835379660129547,2.528388500213623,-0.6266617774963379
1772729287000609000,8.078609130859375,0.20922458171844482,2.6646947860717773,-0.12947344779968262
1772729287010609200,8.088609130859375,2.7048988342285156,-2.626540184020996,7.908042907714844
1772729287020609000,8.098609130859375,4.511192321777344,-0.004433631896972656,6.167912483215332
1772729287030609200,8.108609130859374,4.872434616088867,4.642738342285156,3.1440389156341553
1772729287040609000,8.118609130859374,5.990817070007324,6.757547855377197,2.377924680709839
1772729287050609200,8.128609130859376,6.826103210449219,7.537722110748291,2.012354612350464
1772729287060609000,8.138609130859376,5.995055198669434,7.891854286193848,1.033905267715454
1772729287070609200,8.148609130859375,3.4578795433044434,7.895392894744873,-0.4780704975128174
1772729287080609000,8.158609130859375,0.6711317300796509,7.253113746643066,-1.3184921741485596
1772729287090609200,8.168609130859375,-1.18302583694458,6.29509162902832,-1.7093377113342285
1772729287100609000,8.178609130859375,-1.7745108604431152,5.72390079498291,-1.841691493988037
1772729287110609200,8.188609130859374,-2.080902576446533,5.706956386566162,-2.0522570610046387
1772729287120609000,8.198609130859374,-1.8429232835769653,5.194653511047363,-2.143805503845215
1772729287130609200,8.208609130859376,-2.3574726581573486,3.796995162963867,-1.6541759967803955
1772729287140609000,8.218609130859376,-2.753434658050537,1.7891788482666016,-0.678727388381958
1772729287150609200,8.228609130859375,-1.9624788761138916,-0.1401386260986328,-0.5578608512878418
1772729287160609000,8.238609130859375,-1.6041274070739746,-0.8413228988647461,-0.8317263126373291
1772729287170609200,8.248609130859375,-1.2626044750213623,-1.3392629623413086,-1.275571584701538
1772729287180609000,8.258609130859375,-0.09774601459503174,-2.0019025802612305,-1.457979440689087
1772729287190609200,8.268609130859375,1.2345800399780273,-4.681413650512695,0.18275928497314453
1772729287200609000,8.278609130859374,3.018270254135132,-8.61373519897461,3.5598092079162598
1772729287210609200,8.288609130859374,6.139688014984131,-7.474085807800293,3.3797614574432373
1772729287220609000,8.298609130859376,7.645547866821289,-5.155418395996094,2.8387887477874756
1772729287230609200,8.308609130859375,6.614928722381592,-2.174921989440918,1.7868671417236328
1772729287240609000,8.318609130859375,4.048676013946533,0.8141136169433594,-0.6177074909210205
1772729287250609200,8.328609130859375,1.6231566667556763,1.568098545074463,-2.7178778648376465
1772729287260609000,8.338609130859375,3.103555202484131,-0.4420633316040039,-2.2465744018554688
1772729287270609200,8.348609130859375,4.135786533355713,-3.4404373168945312,1.317901849746704
1772729287280609000,8.358609130859374,3.452871561050415,-5.619894981384277,4.700446128845215
1772729287290609200,8.368609130859374,3.1288530826568604,-6.318362236022949,5.163626670837402
1772729287300609000,8.378609130859376,1.6197389364242554,-5.52567195892334,3.1657936573028564
1772729287310609200,8.388609130859376,-1.0742063522338867,-3.802950859069824,-0.6688120365142822
1772729287320609000,8.398609130859375,-2.8605430126190186,-3.715500831604004,-1.4523003101348877
1772729287330609200,8.408609130859375,-4.248988151550293,-4.113343238830566,-0.9375820159912109
1772729287340609000,8.418609130859375,-5.283186912536621,-3.450625419616699,-0.8054749965667725
1772729287350609200,8.428609130859375,-5.17470645904541,-1.6802501678466797,-1.2962391376495361
1772729287360609000,8.438609130859374,-4.550695419311523,-0.3058891296386719,-2.2421016693115234
1772729287370609200,8.448609130859374,-4.904862403869629,0.10301876068115234,-2.517796516418457
1772729287380609000,8.458609130859376,-6.047585487365723,-0.1422595977783203,-1.9013288021087646
1772729287390609200,8.468609130859376,-6.99404764175415,-0.2719993591308594,-0.7300517559051514
1772729287400609000,8.478609130859375,-7.883332252502441,-0.17359542846679688,-0.3602745532989502
1772729287410609200,8.488609130859375,-7.83900785446167,-0.4240102767944336,-0.3655860424041748
1772729287420609000,8.498609130859375,-7.076627254486084,-0.8265810012817383,-0.5746452808380127
1772729287430609200,8.508609130859375,-6.084680080413818,-0.6617412567138672,-0.8107991218566895
1772729287440609000,8.518609130859375,-5.149962902069092,-0.5644636154174805,-0.39765167236328125
1772729287450609200,8.528609130859374,-4.1261677742004395,-0.26082420349121094,-0.03724503517150879
1772729287460609000,8.538609130859374,-2.7005083560943604,0.7367124557495117,-0.27424144744873047
1772729287470609200,8.548609130859376,-1.5652804374694824,1.486548900604248,-0.3549492359161377
1772729287480609000,8.558609130859375,-0.36235225200653076,2.025224208831787,-0.6240947246551514
1772729287490609200,8.568609130859375,0.7368319034576416,2.399656295776367,-0.9331338405609131
1772729287500609000,8.578609130859375,1.7618696689605713,2.3385677337646484,-0.9396305084228516
1772729287510609200,8.588609130859375,2.9879324436187744,2.3651199340820312,-1.10868239402771
1772729287520609000,8.598609130859375,4.05256986618042,2.3253173828125,-1.0271012783050537
1772729287530609200,8.608609130859374,4.7594733238220215,2.395862579345703,-0.914769172668457
1772729287540609000,8.618609130859374,5.244128704071045,2.151538848876953,-0.9812140464782715
1772729287550609200,8.628609130859376,5.33862829208374,1.8589630126953125,-0.7879328727722168
1772729287560609000,8.638609130859376,5.280939102172852,1.6356992721557617,-0.7976953983306885
1772729287570609200,8.648609130859375,5.094656467437744,1.9207439422607422,-0.944678544998169
1772729287580609000,8.658609130859375,4.767401218414307,2.4906301498413086,-1.4052753448486328
1772729287590609200,8.668609130859375,4.087355613708496,3.0683674812316895,-1.9996492862701416
1772729287600609000,8.678609130859375,3.3083600997924805,3.3021130561828613,-2.3390414714813232
1772729287610609200,8.688609130859374,2.6218416690826416,2.92120361328125,-2.3353474140167236
1772729287620609000,8.698609130859374,2.0926835536956787,2.4960126876831055,-2.1234993934631348
1772729287630609200,8.708609130859376,1.5869100093841553,2.1128883361816406,-1.893714189529419
1772729287640609000,8.718609130859376,0.9710537195205688,1.613142967224121,-1.4108531475067139
1772729287650609200,8.728609130859375,0.43111491203308105,1.199833869934082,-0.4477956295013428
1772729287660609000,8.738609130859375,0.36798739433288574,1.0177507400512695,0.6388931274414062
1772729287670609200,8.748609130859375,0.5451253652572632,1.0093145370483398,1.5510730743408203
1772729287680609000,8.758609130859375,0.8177914619445801,0.8370981216430664,2.521167755126953
1772729287690609200,8.768609130859375,0.8291786909103394,0.8049430847167969,3.5226128101348877
1772729287700609000,8.778609130859374,0.5834208726882935,0.47139644622802734,4.702630043029785
1772729287710609200,8.788609130859374,0.043410658836364746,-0.237213134765625,6.008753776550293
1772729287720609000,8.798609130859376,0.14663851261138916,-1.742903709411621,6.116135120391846
1772729287730609200,8.808609130859375,1.0581419467926025,-3.5818357467651367,5.4924635887146
1772729287740609000,8.818609130859375,2.0921683311462402,-4.183284759521484,3.995182514190674
1772729287750609200,8.828609130859375,2.6317667961120605,-3.420635223388672,2.2893128395080566
1772729287760609000,8.838609130859375,3.337764263153076,-3.1102333068847656,1.240847110748291
1772729287770609200,8.848609130859375,3.999429702758789,-3.9277286529541016,1.0364160537719727
1772729287780609000,8.858609130859374,3.481416702270508,-5.752155303955078,2.569631576538086
1772729287790609200,8.868609130859374,2.8260838985443115,-6.817447662353516,3.3614282608032227
1772729287800609000,8.878609130859376,3.1827216148376465,-6.770393371582031,2.241654872894287
1772729287810609200,8.888609130859376,2.861795663833618,-7.474056243896484,1.840623378753662
1772729287820609000,8.898609130859375,2.4942305088043213,-7.819106101989746,1.3175349235534668
1772729287830609200,8.908609130859375,2.4412593841552734,-6.268097877502441,0.3972206115722656
1772729287840609000,8.918609130859375,1.6069552898406982,-3.059065818786621,-0.7806057929992676
1772729287850609200,8.928609130859375,0.5333636999130249,-0.47199535369873047,-2.0835278034210205
1772729287860609000,8.938609130859374,-1.06599760055542,0.1466655731201172,-2.4176368713378906
1772729287870609200,8.948609130859374,-3.655519485473633,-0.2795257568359375,-2.616217613220215
1772729287880609000,8.958609130859376,-10.908149719238281,0.08362674713134766,-2.9879021644592285
1772729287890609200,8.968609130859376,-12.032856941223145,1.7742185592651367,-4.215673446655273
1772729287900609000,8.978609130859375,-9.591431617736816,1.5364389419555664,-4.837124824523926
1772729287910609200,8.988609130859375,-6.876931667327881,0.10859966278076172,-4.369610786437988
1772729287920609000,8.998609130859375,-8.627911567687988,1.1139202117919922,-4.0121355056762695
1772729287930609200,9.008609130859375,-8.324570655822754,0.45636749267578125,-3.6938538551330566
1772729287940609000,9.018609130859375,-5.642065048217773,-0.44812965393066406,-3.6446609497070312
1772729287950609200,9.028609130859374,-3.439049482345581,-0.5722541809082031,-3.2263660430908203
1772729287960609000,9.038609130859374,-1.8229318857192993,0.11757659912109375,-2.4392964839935303
1772729287970609200,9.048609130859376,-0.8575099110603333,0.5786600112915039,-1.259897232055664
1772729287980609000,9.058609130859375,-0.4373670816421509,1.0746870040893555,-0.3630824089050293
1772729287990609200,9.068609130859375,0.09218549728393555,1.8212151527404785,-0.11435246467590332
1772729288000609000,9.078609130859375,0.24373623728752136,1.3191418647766113,0.3744957447052002
1772729288010609200,9.088609130859375,1.4249322414398193,-3.665827751159668,6.3123273849487305
1772729288020609000,9.098609130859375,3.5489797592163086,-1.6304130554199219,4.577089309692383
1772729288030609200,9.108609130859374,5.246031761169434,2.0665788650512695,1.5007414817810059
1772729288040609000,9.118609130859374,8.037732124328613,3.9169015884399414,0.3252124786376953
1772729288050609200,9.128609130859376,9.307682991027832,4.456487655639648,0.5768718719482422
1772729288060609000,9.138609130859376,6.978636741638184,4.434257507324219,0.9380819797515869
1772729288070609200,9.148609130859375,2.2666096687316895,4.6686320304870605,0.5124156475067139
1772729288080609000,9.158609130859375,-3.325531482696533,5.342778205871582,-0.5082035064697266
1772729288090609200,9.168609130859375,-5.841958045959473,6.264848709106445,-1.9414108991622925
1772729288100609000,9.178609130859375,-4.574810981750488,6.58641242980957,-2.3883163928985596
1772729288110609200,9.188609130859374,-2.876431941986084,6.098334312438965,-2.1870527267456055
1772729288120609000,9.198609130859374,-2.2481276988983154,5.976260185241699,-2.3958513736724854
1772729288130609200,9.208609130859376,-1.9658912420272827,6.4561991691589355,-2.38472056388855
1772729288140609000,9.218609130859376,-1.0978018045425415,6.430973529815674,-2.420959711074829
1772729288150609200,9.228609130859375,-0.05990457534790039,5.6662917137146,-2.3239588737487793
1772729288160609000,9.238609130859375,0.9938855171203613,3.8881263732910156,-1.8578746318817139
1772729288170609200,9.248609130859375,2.0046935081481934,1.3398642539978027,-1.0545270442962646
1772729288180609000,9.258609130859375,2.760500907897949,-1.3355321884155273,0.29911327362060547
1772729288190609200,9.268609130859375,2.9656362533569336,-3.840059280395508,0.5102615356445312
1772729288200609000,9.278609130859374,3.2860631942749023,-6.620701789855957,1.0593268871307373
1772729288210609200,9.288609130859374,3.161667823791504,-9.800630569458008,5.150252342224121
1772729288220609000,9.298609130859376,3.6866884231567383,-9.664090156555176,6.333071708679199
1772729288230609200,9.308609130859375,3.995681047439575,-7.805722236633301,4.704318046569824
1772729288240609000,9.318609130859375,2.2378172874450684,-4.027788162231445,1.7627918720245361
1772729288250609200,9.328609130859375,2.0799922943115234,-0.1177988052368164,-0.16141295433044434
1772729288260609000,9.338609130859375,1.7510930299758911,3.25775146484375,-2.607337474822998
1772729288270609200,9.348609130859375,3.045346736907959,4.70164155960083,-4.623350143432617
1772729288280609000,9.358609130859374,4.974823951721191,2.455007553100586,-2.6535768508911133
1772729288290609200,9.368609130859374,5.125082969665527,-0.3737344741821289,1.4261980056762695
1772729288300609000,9.378609130859376,3.8664567470550537,-2.9567480087280273,5.287363052368164
1772729288310609200,9.388609130859376,3.2506425380706787,-5.174581527709961,7.033228874206543
1772729288320609000,9.398609130859375,2.3575174808502197,-6.79047966003418,5.248715400695801
1772729288330609200,9.408609130859375,-0.3529019355773926,-7.358233451843262,0.8097450733184814
1772729288340609000,9.418609130859375,-4.243653297424316,-6.596776008605957,-2.0079808235168457
1772729288350609200,9.428609130859375,-5.606830596923828,-4.8551225662231445,-2.3804330825805664
1772729288360609000,9.438609130859374,-5.5294599533081055,-2.063563346862793,-2.3495683670043945
1772729288370609200,9.448609130859374,-4.6005024909973145,-0.17247486114501953,-2.615895986557007
1772729288380609000,9.458609130859376,-3.749185085296631,0.8954296112060547,-2.6551246643066406
1772729288390609200,9.468609130859376,-4.606125354766846,1.206040382385254,-1.9171239137649536
1772729288400609000,9.478609130859375,-5.990922451019287,0.4996528625488281,-0.18004941940307617
1772729288410609200,9.488609130859375,-7.723333358764648,0.14114665985107422,1.2769696712493896
1772729288420609000,9.498609130859375,-9.035348892211914,0.20442581176757812,1.6222014427185059
1772729288430609200,9.508609130859375,-9.150289535522461,0.4654808044433594,0.9935867786407471
1772729288440609000,9.518609130859375,-7.475738048553467,0.13405990600585938,-0.18595051765441895
1772729288450609200,9.528609130859374,-5.636131286621094,0.08162879943847656,-0.6768360137939453
1772729288460609000,9.538609130859374,-4.541240215301514,0.0867319107055664,-0.6905977725982666
1772729288470609200,9.548609130859376,-3.6575753688812256,-0.019708633422851562,-0.5357568264007568
1772729288480609000,9.558609130859375,-2.752359390258789,-0.2933664321899414,-0.3293635845184326
1772729288490609200,9.568609130859375,-1.2654383182525635,-0.2555389404296875,-0.2680397033691406
1772729288500609000,9.578609130859375,0.19284436106681824,0.34012508392333984,-0.2672107219696045
1772729288510609200,9.588609130859375,1.643263578414917,0.9643468856811523,-0.4902353286743164
1772729288520609000,9.598609130859375,3.094630002975464,1.1429452896118164,-0.35666370391845703
1772729288530609200,9.608609130859374,4.112674236297607,0.9512157440185547,-0.49926042556762695
1772729288540609000,9.618609130859374,4.90111780166626,0.8207540512084961,-0.6895613670349121
1772729288550609200,9.628609130859376,5.345965385437012,1.3410024642944336,-0.5752229690551758
1772729288560609000,9.638609130859376,5.572258472442627,2.0181617736816406,-0.6136016845703125
1772729288570609200,9.648609130859375,5.64262580871582,2.5557384490966797,-0.9174346923828125
1772729288580609000,9.658609130859375,5.531466484069824,2.834914207458496,-1.1269216537475586
1772729288590609200,9.668609130859375,4.867329120635986,2.8887195587158203,-1.404153823852539
1772729288600609000,9.678609130859375,4.1998677253723145,3.147494316101074,-1.870466947555542
1772729288610609200,9.688609130859374,3.749305248260498,3.6049623489379883,-2.577897071838379
1772729288620609000,9.698609130859374,3.373811721801758,3.866692543029785,-3.079040288925171
1772729288630609200,9.708609130859376,2.7476108074188232,3.8321151733398438,-3.3151631355285645
1772729288640609000,9.718609130859376,1.925840139389038,3.375058650970459,-2.989471673965454
1772729288650609200,9.728609130859375,1.0571694374084473,2.7453298568725586,-2.269484519958496
1772729288660609000,9.738609130859375,0.2946537733078003,2.055729866027832,-1.8672966957092285
1772729288670609200,9.748609130859375,-0.456764817237854,1.2638092041015625,-1.4227089881896973
1772729288680609000,9.758609130859375,-1.0015883445739746,0.6341571807861328,-0.9134712219238281
1772729288690609200,9.768609130859375,-0.728515625,0.1593761444091797,-0.39905452728271484
1772729288700609000,9.778609130859374,-0.06622099876403809,-0.24349308013916016,0.25937986373901367
1772729288710609200,9.788609130859374,0.31964290142059326,-0.569305419921875,1.1704678535461426
1772729288720609000,9.798609130859376,0.7298762202262878,-0.820704460144043,2.047609329223633
1772729288730609200,9.808609130859375,0.7727386355400085,-1.2934083938598633,3.470872402191162
1772729288740609000,9.818609130859375,0.4446272850036621,-2.0499515533447266,5.12717866897583
1772729288750609200,9.828609130859375,0.20329999923706055,-2.917588233947754,6.677671909332275
1772729288760609000,9.838609130859375,0.562137246131897,-2.805500030517578,7.4825592041015625
1772729288770609200,9.848609130859375,1.9670895338058472,-1.718465805053711,7.402713775634766
1772729288780609000,9.858609130859374,3.930891990661621,-1.3700275421142578,6.536986351013184
1772729288790609200,9.868609130859374,4.697365760803223,-1.9969444274902344,5.356534481048584
1772729288800609000,9.878609130859376,4.460886478424072,-4.099021911621094,5.749233245849609
1772729288810609200,9.888609130859376,4.074248790740967,-5.931500434875488,6.430054187774658
1772729288820609000,9.898609130859375,4.301187515258789,-6.4504241943359375,3.7363343238830566
1772729288830609200,9.908609130859375,4.36501407623291,-5.718944549560547,0.4324193000793457
1772729288840609000,9.918609130859375,3.0943527221679688,-5.434874534606934,-1.3759961128234863
1772729288850609200,9.928609130859375,1.5015087127685547,-5.928544998168945,-1.7211418151855469
1772729288860609000,9.938609130859374,0.6434868574142456,-5.449234962463379,-1.8426039218902588
1772729288870609200,9.948609130859374,-0.2533944845199585,-3.372805595397949,-2.5375547409057617
1772729288880609000,9.958609130859376,-1.2868870496749878,-0.7593355178833008,-3.262967109680176
1772729288890609200,9.968609130859376,-3.2120935916900635,0.3618488311767578,-3.7494277954101562
1772729288900609000,9.978609130859375,-9.395925521850586,0.7521734237670898,-4.760425090789795
1772729288910609200,9.988609130859375,-10.936461448669434,1.8841428756713867,-6.091190814971924
1772729288920609000,9.998609130859375,-9.342569351196289,0.8867897987365723,-6.210701942443848
1772729288930609200,10.008609130859375,-10.52269172668457,0.2389078140258789,-4.917407035827637
1772729288940609000,10.018609130859375,-10.03000545501709,-0.47914600372314453,-3.555757999420166
1772729288950609200,10.028609130859374,-9.87557601928711,-1.7584848403930664,-3.5541608333587646
1772729288960609000,10.038609130859374,-6.6725664138793945,-2.990001678466797,-3.849053382873535
1772729288970609200,10.048609130859376,-3.8332369327545166,-3.3244361877441406,-3.5787136554718018
1772729288980609000,10.058609130859375,-2.1422438621520996,-2.608048439025879,-3.073275089263916
1772729288990609200,10.068609130859375,-1.060887336730957,-1.2345619201660156,-2.2891836166381836
1772729289000609000,10.078609130859375,-0.4812730550765991,0.1754283905029297,-1.367323637008667
1772729289010609200,10.088609130859375,-0.2097935825586319,1.0792083740234375,-0.5499095916748047
1772729289020609000,10.098609130859375,0.07852724939584732,1.8180418014526367,-0.17909979820251465
1772729289030609200,10.108609130859374,0.8821375370025635,-0.023084640502929688,2.915194034576416
1772729289040609000,10.118609130859374,3.492311716079712,-3.6696300506591797,8.973642349243164
1772729289050609200,10.128609130859376,4.6208577156066895,1.3054475784301758,4.9288225173950195
1772729289060609000,10.138609130859376,5.769277572631836,4.818782329559326,2.2468857765197754
1772729289070609200,10.148609130859375,8.289512634277344,6.072918891906738,1.8273735046386719
1772729289080609000,10.158609130859375,9.223746299743652,6.629884719848633,1.786226749420166
1772729289090609200,10.168609130859375,6.575380325317383,7.181305408477783,0.44086766242980957
1772729289100609000,10.178609130859375,2.1515610218048096,7.330257415771484,-1.0382933616638184
1772729289110609200,10.188609130859374,-1.506868600845337,7.188222885131836,-2.045466899871826
1772729289120609000,10.198609130859374,-3.410972833633423,6.644563674926758,-2.5764265060424805
1772729289130609200,10.208609130859376,-3.9842429161071777,5.990762710571289,-2.651162624359131
1772729289140609000,10.218609130859376,-4.250712871551514,5.565417289733887,-2.764418125152588
1772729289150609200,10.228609130859375,-3.8792500495910645,5.219792366027832,-2.9179129600524902
1772729289160609000,10.238609130859375,-3.410978317260742,5.327898025512695,-2.729227066040039
1772729289170609200,10.248609130859375,-2.986001968383789,4.740509033203125,-1.7799909114837646
1772729289180609000,10.258609130859375,-2.1848931312561035,3.1524815559387207,-0.6171448230743408
1772729289190609200,10.268609130859375,-1.3173431158065796,2.0417542457580566,-0.13749909400939941
1772729289200609000,10.278609130859374,-0.47725749015808105,1.105717658996582,0.2967243194580078
1772729289210609200,10.288609130859374,0.9463611841201782,0.13637161254882812,0.2748754024505615
1772729289220609000,10.298609130859376,2.797518014907837,-1.3676300048828125,-0.2650604248046875
1772729289230609200,10.308609130859375,4.873135089874268,-4.250645637512207,0.20009636878967285
1772729289240609000,10.318609130859375,5.8102335929870605,-9.02709674835205,4.867752552032471
1772729289250609200,10.328609130859375,6.367982387542725,-9.251553535461426,5.610235214233398
1772729289260609000,10.338609130859375,4.962742328643799,-6.989757537841797,3.2979516983032227
1772729289270609200,10.348609130859375,2.2818644046783447,-3.117934226989746,0.1824944019317627
1772729289280609000,10.358609130859374,0.7866730690002441,0.1677837371826172,-1.8840248584747314
1772729289290609200,10.368609130859374,1.0617989301681519,2.3812685012817383,-4.417756080627441
1772729289300609000,10.378609130859376,2.7372515201568604,1.5038890838623047,-4.4885969161987305
1772729289310609200,10.388609130859376,6.110030651092529,-1.2350053787231445,-2.4744863510131836
1772729289320609000,10.398609130859375,7.324830532073975,-3.4248666763305664,0.7380630970001221
1772729289330609200,10.408609130859375,6.376001358032227,-5.3286333084106445,4.18656063079834
1772729289340609000,10.418609130859375,4.330766201019287,-5.783134460449219,5.550088405609131
1772729289350609200,10.428609130859375,2.200153350830078,-4.531214714050293,5.061388969421387
1772729289360609000,10.438609130859374,0.02216494083404541,-2.9311771392822266,1.6688268184661865
1772729289370609200,10.448609130859374,-2.604320764541626,-2.6009302139282227,-0.7811214923858643
1772729289380609000,10.458609130859376,-3.766557216644287,-3.4584455490112305,-0.6945943832397461
1772729289390609200,10.468609130859376,-4.401416778564453,-4.130153656005859,0.025875091552734375
1772729289400609000,10.478609130859375,-5.038723945617676,-2.9894914627075195,-0.021343708038330078
1772729289410609200,10.488609130859375,-5.562878131866455,-1.1420936584472656,-0.681107759475708
1772729289420609000,10.498609130859375,-6.273349285125732,0.07572364807128906,-1.1641850471496582
1772729289430609200,10.508609130859375,-6.396300315856934,0.19847679138183594,-1.0169084072113037
1772729289440609000,10.518609130859375,-6.522974491119385,0.12291717529296875,-0.6190185546875
1772729289450609200,10.528609130859374,-6.77174711227417,0.3190803527832031,-0.4948244094848633
1772729289460609000,10.538609130859374,-6.548007011413574,0.2475576400756836,-1.0330018997192383
1772729289470609200,10.548609130859376,-6.711592197418213,-0.0024442672729492188,-1.283182144165039
1772729289480609000,10.558609130859375,-5.888690948486328,-0.5487995147705078,-1.2420835494995117
1772729289490609200,10.568609130859375,-4.846155166625977,-0.682612419128418,-0.7635655403137207
1772729289500609000,10.578609130859375,-3.710386276245117,-0.47498321533203125,-0.37769651412963867
1772729289510609200,10.588609130859375,-2.652503490447998,-0.37648773193359375,0.13184165954589844
1772729289520609000,10.598609130859375,-1.3462839126586914,0.03016185760498047,0.37385082244873047
1772729289530609200,10.608609130859374,0.03642907738685608,0.5923547744750977,0.36033105850219727
1772729289540609000,10.618609130859374,1.2134392261505127,1.4448728561401367,0.07822036743164062
1772729289550609200,10.628609130859376,2.1762523651123047,2.185959815979004,-0.16437721252441406
1772729289560609000,10.638609130859376,2.9322421550750732,2.4231090545654297,-0.3302950859069824
1772729289570609200,10.648609130859375,3.393707275390625,2.451925277709961,-0.7187864780426025
1772729289580609000,10.658609130859375,3.524336338043213,2.151644706726074,-0.9634695053100586
1772729289590609200,10.668609130859375,3.5488076210021973,1.9290966987609863,-1.0024774074554443
1772729289600609000,10.678609130859375,3.4818129539489746,1.785172939300537,-0.5102567672729492
1772729289610609200,10.688609130859374,3.5813395977020264,2.0253686904907227,-0.39861226081848145
1772729289620609000,10.698609130859374,3.8093998432159424,2.4242544174194336,-0.535395622253418
1772729289630609200,10.708609130859376,3.980858564376831,2.860541343688965,-0.9338421821594238
1772729289640609000,10.718609130859376,3.995934009552002,3.4356493949890137,-1.7386233806610107
1772729289650609200,10.728609130859375,3.8860034942626953,3.998854637145996,-2.4698214530944824
1772729289660609000,10.738609130859375,3.555100917816162,4.149287223815918,-2.8846592903137207
1772729289670609200,10.748609130859375,2.9901633262634277,3.936861038208008,-3.0497615337371826
1772729289680609000,10.758609130859375,2.1200544834136963,3.3079047203063965,-2.9404654502868652
1772729289690609200,10.768609130859375,1.297884225845337,2.6861114501953125,-2.49383807182312
1772729289700609000,10.778609130859374,0.7454959750175476,2.1996407508850098,-2.256150007247925
1772729289710609200,10.788609130859374,0.25527024269104004,1.3369007110595703,-2.182267189025879
1772729289720609000,10.798609130859376,-0.11678421497344971,0.1210622787475586,-1.4586503505706787
1772729289730609200,10.808609130859375,-0.13323962688446045,-0.6778707504272461,-0.46430206298828125
1772729289740609000,10.818609130859375,0.02109372615814209,-0.9820737838745117,0.6438701152801514
1772729289750609200,10.828609130859375,0.3623756170272827,-1.1060714721679688,1.8947656154632568
1772729289760609000,10.838609130859375,0.7249983549118042,-1.3317842483520508,3.5069315433502197
1772729289770609200,10.848609130859375,0.6896069049835205,-1.6197738647460938,5.565737247467041
1772729289780609000,10.858609130859374,0.5178345441818237,-2.5354108810424805,7.607276439666748
1772729289790609200,10.868609130859374,1.3596618175506592,-3.008303642272949,8.372695922851562
1772729289800609000,10.878609130859376,2.9297802448272705,-2.2653980255126953,8.20933723449707
1772729289810609200,10.888609130859376,4.287233829498291,-1.906209945678711,6.9751715660095215
1772729289820609000,10.898609130859375,4.472013473510742,-2.6521825790405273,5.256056785583496
1772729289830609200,10.908609130859375,4.320487022399902,-4.528270721435547,5.267911911010742
1772729289840609000,10.918609130859375,4.064151763916016,-5.715770721435547,4.654982089996338
1772729289850609200,10.928609130859375,3.3928704261779785,-6.435646057128906,3.472282886505127
1772729289860609000,10.938609130859374,2.6172122955322266,-6.801947593688965,2.2470245361328125
1772729289870609200,10.948609130859374,1.2826638221740723,-7.414689064025879,1.010807991027832
1772729289880609000,10.958609130859376,0.4780532121658325,-6.155117034912109,-0.6118197441101074
1772729289890609200,10.968609130859376,0.21543121337890625,-2.962672233581543,-2.081637144088745
1772729289900609000,10.978609130859375,0.14842915534973145,-0.9127130508422852,-3.2166881561279297
1772729289910609200,10.988609130859375,-0.6607628464698792,-0.5911617279052734,-3.5071024894714355
1772729289920609000,10.998609130859375,-3.2165374755859375,-1.2042999267578125,-3.39582896232605
1772729289930609200,11.008609130859375,-9.438895225524902,-1.2666616439819336,-4.512078762054443
1772729289940609000,11.018609130859375,-9.921656608581543,-1.471343994140625,-4.962094306945801
1772729289950609200,11.028609130859374,-8.009110450744629,-2.258321762084961,-4.873202800750732
1772729289960609000,11.038609130859374,-6.685405254364014,-2.2971620559692383,-4.800946235656738
1772729289970609200,11.048609130859376,-6.398768424987793,-1.7683095932006836,-4.907134532928467
1772729289980609000,11.058609130859375,-6.937643051147461,-0.3668079376220703,-4.831364154815674
1772729289990609200,11.068609130859375,-6.0721869468688965,0.5610170364379883,-4.582289695739746
1772729290000609000,11.078609130859375,-4.577179431915283,0.8686227798461914,-3.673007011413574
1772729290010609200,11.088609130859375,-3.275392532348633,0.936366081237793,-2.5318288803100586
1772729290020609000,11.098609130859375,-2.482147693634033,1.0671801567077637,-1.4707536697387695
1772729290030609200,11.108609130859374,-1.9251527786254883,1.5450305938720703,-0.7492084503173828
1772729290040609000,11.118609130859374,-1.264704942703247,1.8932619094848633,-0.5480551719665527
1772729290050609200,11.128609130859376,-0.6813195943832397,-0.38012027740478516,2.4069294929504395
1772729290060609000,11.138609130859376,1.8578705787658691,-3.3525047302246094,7.531208515167236
1772729290070609200,11.148609130859375,3.8871335983276367,0.4505290985107422,4.070214748382568
1772729290080609000,11.158609130859375,5.964463710784912,3.7079339027404785,1.5497875213623047
1772729290090609200,11.168609130859375,9.688435554504395,5.29052734375,0.7795186042785645
1772729290100609000,11.178609130859375,9.285357475280762,5.897085666656494,0.4123525619506836
1772729290110609200,11.188609130859374,6.3396759033203125,6.437747001647949,-0.4073762893676758
1772729290120609000,11.198609130859374,2.024050712585449,7.194823265075684,-1.257416009902954
1772729290130609200,11.208609130859376,-2.0748836994171143,7.989226341247559,-2.1084187030792236
1772729290140609000,11.218609130859376,-4.473397254943848,7.961762428283691,-2.7413015365600586
1772729290150609200,11.228609130859375,-4.374510765075684,6.951736927032471,-2.9605612754821777
1772729290160609000,11.238609130859375,-3.6494317054748535,6.302562713623047,-2.744809150695801
1772729290170609200,11.248609130859375,-3.225505828857422,6.14292049407959,-2.72167706489563
1772729290180609000,11.258609130859375,-2.472531795501709,5.972596168518066,-2.6985487937927246
1772729290190609200,11.268609130859375,-1.336776614189148,5.106937408447266,-2.458573341369629
1772729290200609000,11.278609130859374,-0.7723535299301147,3.6328182220458984,-1.9607138633728027
1772729290210609200,11.288609130859374,-0.5530173778533936,1.4580721855163574,-0.8616960048675537
1772729290220609000,11.298609130859376,-0.07861071825027466,-0.9087419509887695,0.2989678382873535
1772729290230609200,11.308609130859375,0.986113965511322,-2.9583797454833984,0.8245673179626465
1772729290240609000,11.318609130859375,2.1463189125061035,-5.006016731262207,0.843273401260376
1772729290250609200,11.328609130859375,4.321230888366699,-8.061544418334961,3.2069144248962402
1772729290260609000,11.338609130859375,6.953417778015137,-10.412958145141602,5.809792518615723
1772729290270609200,11.348609130859375,7.7745256423950195,-8.823080062866211,5.187293529510498
1772729290280609000,11.358609130859374,6.762594699859619,-4.459987640380859,1.904693365097046
1772729290290609200,11.368609130859374,3.9072844982147217,-0.4139528274536133,-0.8655753135681152
1772729290300609000,11.378609130859376,0.9038048982620239,2.540131092071533,-3.151395320892334
1772729290310609200,11.388609130859376,0.20878517627716064,2.5050148963928223,-5.019765853881836
1772729290320609000,11.398609130859375,2.1490116119384766,-0.38582420349121094,-3.5387628078460693
1772729290330609200,11.408609130859375,3.340390682220459,-2.864847183227539,1.07472825050354
1772729290340609000,11.418609130859375,2.7496414184570312,-4.954140663146973,5.345148086547852
1772729290350609200,11.428609130859375,2.584286689758301,-6.120786666870117,6.5961809158325195
1772729290360609000,11.438609130859374,1.601359486579895,-5.347867012023926,3.879704475402832
1772729290370609200,11.448609130859374,-1.523246169090271,-4.420978546142578,-0.7825331687927246
1772729290380609000,11.458609130859376,-4.395140171051025,-3.528087615966797,-2.406465530395508
1772729290390609200,11.468609130859376,-5.739436149597168,-3.0764875411987305,-1.9464094638824463
1772729290400609000,11.478609130859375,-6.125713348388672,-2.2661924362182617,-1.1039271354675293
1772729290410609200,11.488609130859375,-5.7613701820373535,-1.278243064880371,-0.7605209350585938
1772729290420609000,11.498609130859375,-5.870820999145508,-0.41892433166503906,-0.5999853610992432
1772729290430609200,11.508609130859375,-6.466451644897461,-0.6122922897338867,0.2928299903869629
1772729290440609000,11.518609130859375,-7.557310104370117,-0.8192977905273438,1.7718358039855957
1772729290450609200,11.528609130859374,-8.398128509521484,-0.15010356903076172,2.3824639320373535
1772729290460609000,11.538609130859374,-8.705463409423828,0.17604732513427734,1.7776780128479004
1772729290470609200,11.548609130859376,-8.36225700378418,0.26339054107666016,0.40328454971313477
1772729290480609000,11.558609130859375,-6.964426040649414,0.03528594970703125,-1.0993709564208984
1772729290490609200,11.568609130859375,-5.808528423309326,0.1367168426513672,-1.880871295928955
1772729290500609000,11.578609130859375,-4.520534992218018,-0.025224685668945312,-1.6873111724853516
1772729290510609200,11.588609130859375,-3.6193294525146484,0.019089698791503906,-1.247446060180664
1772729290520609000,11.598609130859375,-2.5499958992004395,-0.26600074768066406,-0.8935947418212891
1772729290530609200,11.608609130859374,-1.091325283050537,0.0945901870727539,-0.38659191131591797
1772729290540609000,11.618609130859374,0.9594743847846985,0.6644210815429688,-0.19920945167541504
1772729290550609200,11.628609130859376,3.303593635559082,0.9034719467163086,-0.12199926376342773
1772729290560609000,11.638609130859376,5.093729496002197,0.6519069671630859,-0.18023228645324707
1772729290570609200,11.648609130859375,6.079672813415527,0.3343801498413086,-0.08563566207885742
1772729290580609000,11.658609130859375,6.313862323760986,0.8017110824584961,-0.19121551513671875
1772729290590609200,11.668609130859375,6.497467041015625,1.7043790817260742,-0.7518372535705566
1772729290600609000,11.678609130859375,6.480353355407715,2.4377870559692383,-1.559309959411621
1772729290610609200,11.688609130859374,6.4055962562561035,2.8416099548339844,-1.612093448638916
1772729290620609000,11.698609130859374,6.016802787780762,3.2739944458007812,-1.8024811744689941
1772729290630609200,11.708609130859376,5.299476146697998,3.7143068313598633,-2.025599241256714
1772729290640609000,11.718609130859376,4.46562385559082,4.004548072814941,-1.964449167251587
1772729290650609200,11.728609130859375,3.6932735443115234,4.038771629333496,-1.9518494606018066
1772729290660609000,11.738609130859375,2.8277060985565186,3.8270483016967773,-1.87054443359375
1772729290670609200,11.748609130859375,2.0605509281158447,3.3924570083618164,-1.750138282775879
1772729290680609000,11.758609130859375,1.4094252586364746,2.834684371948242,-1.4603943824768066
1772729290690609200,11.768609130859375,0.7311879396438599,2.2505788803100586,-1.2223153114318848
1772729290700609000,11.778609130859374,-0.08487677574157715,1.575643539428711,-1.1307611465454102
1772729290710609200,11.788609130859374,-0.9729017019271851,0.7100248336791992,-0.461259126663208
1772729290720609000,11.798609130859376,-1.4217591285705566,0.28911590576171875,0.25231122970581055
1772729290730609200,11.808609130859375,-1.290055274963379,0.03898048400878906,1.1460156440734863
1772729290740609000,11.818609130859375,-0.9538381099700928,-0.2849607467651367,2.06003999710083
1772729290750609200,11.828609130859375,-0.685439944267273,-0.4516000747680664,2.9985299110412598
1772729290760609000,11.838609130859375,-0.9311575889587402,-0.7867965698242188,4.8159284591674805
1772729290770609200,11.848609130859375,-1.1187981367111206,-1.8516426086425781,6.608142375946045
1772729290780609000,11.858609130859374,0.04734158515930176,-2.2881460189819336,7.126560688018799
1772729290790609200,11.868609130859374,2.0568673610687256,-2.2443017959594727,6.950509071350098
1772729290800609000,11.878609130859376,3.863487720489502,-2.039008140563965,4.979151725769043
1772729290810609200,11.888609130859376,4.682718276977539,-2.0064210891723633,3.5550637245178223
1772729290820609000,11.898609130859375,5.022145748138428,-3.17116641998291,3.077521800994873
1772729290830609200,11.908609130859375,4.671465873718262,-4.629482269287109,3.3131966590881348
1772729290840609000,11.918609130859375,3.9106216430664062,-5.676845550537109,3.0131101608276367
1772729290850609200,11.928609130859375,3.4382715225219727,-6.207235336303711,2.0939736366271973
1772729290860609000,11.938609130859374,2.479261636734009,-7.0283355712890625,1.3248605728149414
1772729290870609200,11.948609130859374,1.062201738357544,-8.051715850830078,1.23075532913208
1772729290880609000,11.958609130859376,0.6068577766418457,-5.545281410217285,-0.30775022506713867
1772729290890609200,11.968609130859376,0.6071914434432983,-1.8781261444091797,-1.8419742584228516
1772729290900609000,11.978609130859375,0.17558318376541138,0.05433845520019531,-2.7871148586273193
1772729290910609200,11.988609130859375,-1.0131477117538452,-0.3513040542602539,-3.0827794075012207
1772729290920609000,11.998609130859375,-4.082276821136475,-1.4691534042358398,-3.108647584915161
1772729290930609200,12.008609130859375,-10.597551345825195,-1.2269096374511719,-4.194541931152344
1772729290940609000,12.018609130859375,-9.933075904846191,-1.216364860534668,-5.059251308441162
1772729290950609200,12.028609130859374,-8.197196006774902,-2.347283363342285,-4.932910919189453
1772729290960609000,12.038609130859374,-7.371247291564941,-2.8744354248046875,-4.848390102386475
1772729290970609200,12.048609130859376,-7.895592212677002,-1.982346534729004,-4.725215435028076
1772729290980609000,12.058609130859375,-7.408537864685059,-1.0924692153930664,-4.7600579261779785
1772729290990609200,12.068609130859375,-5.898779392242432,-0.20578575134277344,-4.510033130645752
1772729291000609000,12.078609130859375,-4.218095302581787,0.3503913879394531,-3.371755599975586
1772729291010609200,12.088609130859375,-3.2791213989257812,0.8741073608398438,-2.0013585090637207
1772729291020609000,12.098609130859375,-2.4559326171875,1.347071647644043,-0.9741601943969727
1772729291030609200,12.108609130859374,-1.6058831214904785,1.774850845336914,-0.34472107887268066
1772729291040609000,12.118609130859374,-1.093916893005371,1.7238645553588867,-0.2789902687072754
1772729291050609200,12.128609130859376,0.13410893082618713,-2.243100166320801,5.856740474700928
1772729291060609000,12.138609130859376,2.6589109897613525,-1.9468250274658203,6.564864158630371
1772729291070609200,12.148609130859375,4.044929027557373,2.060303211212158,2.752502918243408
1772729291080609000,12.158609130859375,6.420474529266357,4.265872955322266,0.8288884162902832
1772729291090609200,12.168609130859375,9.692439079284668,5.314770221710205,0.5774617195129395
1772729291100609000,12.178609130859375,9.01862621307373,5.904967308044434,0.18070411682128906
1772729291110609200,12.188609130859374,5.525417327880859,6.488798141479492,-0.6128101348876953
1772729291120609000,12.198609130859374,0.3881387710571289,7.207959175109863,-1.2787196636199951
1772729291130609200,12.208609130859376,-3.7877683639526367,7.846707344055176,-2.0252697467803955
1772729291140609000,12.218609130859376,-5.841020584106445,7.545602798461914,-2.7552270889282227
1772729291150609200,12.228609130859375,-5.304275989532471,6.392889976501465,-3.1073317527770996
1772729291160609000,12.238609130859375,-4.161190986633301,6.0898966789245605,-3.2995500564575195
1772729291170609200,12.248609130859375,-3.079709053039551,6.0306806564331055,-3.307265043258667
1772729291180609000,12.258609130859375,-1.6304302215576172,5.4555158615112305,-3.4284958839416504
1772729291190609200,12.268609130859375,-1.2274014949798584,4.886073112487793,-3.0132813453674316
1772729291200609000,12.278609130859374,-1.0925120115280151,3.403449058532715,-1.811697006225586
1772729291210609200,12.288609130859374,-0.824999213218689,1.3690071105957031,-0.33538246154785156
1772729291220609000,12.298609130859376,-0.10409235954284668,-1.4013166427612305,1.2418031692504883
1772729291230609200,12.308609130859375,1.0332814455032349,-4.066518783569336,2.001039505004883
1772729291240609000,12.318609130859375,3.198573112487793,-6.08571720123291,1.621830940246582
1772729291250609200,12.328609130859375,6.170888423919678,-8.231276512145996,3.626939296722412
1772729291260609000,12.338609130859375,8.486139297485352,-9.018257141113281,5.64338493347168
1772729291270609200,12.348609130859375,8.457311630249023,-7.12338924407959,4.726638317108154
1772729291280609000,12.358609130859374,5.676332473754883,-3.970510482788086,1.9782519340515137
1772729291290609200,12.368609130859374,2.413961410522461,-0.7504816055297852,-1.452150583267212
1772729291300609000,12.378609130859376,0.32184576988220215,1.7222156524658203,-4.101993083953857
1772729291310609200,12.388609130859376,-0.5782532691955566,1.4518980979919434,-5.362046241760254
1772729291320609000,12.398609130859375,0.7074087858200073,-1.096735954284668,-3.474485397338867
1772729291330609200,12.408609130859375,2.841449737548828,-3.278902053833008,0.48605942726135254
1772729291340609000,12.418609130859375,3.6637141704559326,-5.052387237548828,4.407181739807129
1772729291350609200,12.428609130859375,3.4516351222991943,-5.119353294372559,6.273694038391113
1772729291360609000,12.438609130859374,3.0056238174438477,-5.047818183898926,5.666590690612793
1772729291370609200,12.448609130859374,0.915928840637207,-4.038944244384766,2.4826860427856445
1772729291380609000,12.458609130859376,-2.07846999168396,-2.288969039916992,-1.3898887634277344
1772729291390609200,12.468609130859376,-4.313350200653076,-1.5680856704711914,-2.1133365631103516
1772729291400609000,12.478609130859375,-5.3738908767700195,-1.116896629333496,-1.410222053527832
1772729291410609200,12.488609130859375,-5.390727519989014,-0.9214200973510742,-0.6036722660064697
1772729291420609000,12.498609130859375,-4.646307945251465,-0.3954582214355469,-0.5649847984313965
1772729291430609200,12.508609130859375,-4.554014682769775,0.4688568115234375,-0.884922981262207
1772729291440609000,12.518609130859375,-5.274831295013428,0.4680366516113281,-0.3553733825683594
1772729291450609200,12.528609130859374,-6.086729049682617,0.35979747772216797,0.6608586311340332
1772729291460609000,12.538609130859374,-6.560649394989014,0.05417060852050781,1.410351276397705
