time,seconds_elapsed,z,y,x
1772729278917279700,-0.00472021484375,-0.42821621894836426,-1.091309905052185,-0.003512472379952669
1772729278934626600,0.01262646484375,-0.39400777220726013,-1.1462877988815308,0.006872228812426329
1772729278951973400,0.029973388671875,-0.050090912729501724,-1.2928953170776367,-0.12812888622283936
1772729278969320000,0.04731982421875,0.3536907136440277,-1.3002257347106934,-0.30711227655410767
1772729278986666800,0.064666748046875,0.4880809485912323,-1.193324327468872,-0.39446592330932617
1772729279003013600,0.081013671875,0.3292561173439026,-0.868955135345459,-0.20204351842403412
1772729279020360200,0.098360107421875,0.205861434340477,-0.7363975048065186,0.06673697382211685
1772729279037707000,0.11570703125,0.15515965223312378,-1.148120403289795,0.4247037470340729
1772729279055053800,0.1330537109375,-0.04459312930703163,-1.5457932949066162,0.6843212842941284
1772729279072400600,0.150400634765625,-0.3139844834804535,-2.072969675064087,0.6598866581916809
1772729279089747500,0.16774755859375,-0.6218603253364563,-2.2091925144195557,0.5719221234321594
1772729279107094300,0.18509423828125,-0.850934624671936,-2.0607523918151855,0.5334376692771912
1772729279124440800,0.20244091796875,-0.9169080257415771,-1.8200715780258179,0.4790706932544708
1772729279141787600,0.21978759765625,-0.7599157691001892,-1.5500693321228027,0.5206094980239868
1772729279159134500,0.237134521484375,-0.5748237371444702,-1.3991857767105103,0.5871937870979309
1772729279176481300,0.254481201171875,-0.46608981490135193,-1.6465860605239868,0.4864010810852051
1772729279193828000,0.271828125,-0.3121519088745117,-2.0247113704681396,0.32818710803985596
1772729279211175000,0.2891748046875,-0.0818558782339096,-1.6697988510131836,0.2805396616458893
1772729279228521500,0.306521484375,0.10873392969369888,-0.6948586702346802,0.0844520553946495
1772729279245868300,0.323868408203125,0.15027274191379547,0.04917461425065994,-0.33460119366645813
1772729279263215000,0.341215087890625,-0.10018182545900345,-0.1182023361325264,-0.6320923566818237
1772729279280562000,0.35856201171875,-0.35185810923576355,-0.10170898586511612,-0.6638572812080383
1772729279297908500,0.375908447265625,-0.33597561717033386,-0.04917461425065994,-0.48243045806884766
1772729279315255300,0.39325537109375,-0.3494146466255188,-0.3075704276561737,-0.4030180275440216
1772729279332602000,0.41060205078125,-0.08674279600381851,-0.5519163012504578,-0.44700029492378235
1772729279349949000,0.427948974609375,-0.07452550530433655,-1.0027345418930054,-0.37430739402770996
1772729279367295700,0.445295654296875,-0.047036588191986084,-1.7290527820587158,-0.46288278698921204
1772729279384642300,0.462642333984375,-0.04764745384454727,-2.5268421173095703,-0.6852375864982605
1772729279401989000,0.479989013671875,-0.17715078592300415,-3.16825008392334,-1.0010546445846558
1772729279419336000,0.4973359375,-0.6725621223449707,-3.4779586791992188,-1.338252067565918
1772729279436682800,0.514682861328125,-0.9926552772521973,-3.2953100204467773,-1.6455169916152954
1772729279454029600,0.532029541015625,-0.7672461867332458,-3.107774496078491,-1.8251112699508667
1772729279471376100,0.549376220703125,-0.23029601573944092,-2.702160358428955,-1.680947184562683
1772729279488723000,0.566722900390625,0.0720820426940918,-2.5353941917419434,-1.475085735321045
1772729279506069800,0.58406982421875,-0.1899789422750473,-2.930623769760132,-1.7921245098114014
1772729279523416600,0.60141650390625,-0.6798924803733826,-3.0448555946350098,-2.6161811351776123
1772729279540763400,0.618763427734375,-0.9205732345581055,-2.5671591758728027,-3.6344926357269287
1772729279558110000,0.63610986328125,-0.8087849617004395,-2.4492623805999756,-4.750542640686035
1772729279575456800,0.653456787109375,0.039706211537122726,-2.6447391510009766,-5.837271213531494
1772729279592803600,0.670803466796875,1.3683371543884277,-2.721097230911255,-6.705309867858887
1772729279610150400,0.688150390625,2.766606569290161,-2.817003011703491,-6.913003921508789
1772729279627497000,0.7054970703125,4.07446813583374,-2.8347179889678955,-6.490285396575928
1772729279644843800,0.72284375,4.690830707550049,-2.93123459815979,-5.794510364532471
1772729279662190600,0.740190673828125,4.466643333435059,-2.868926525115967,-5.221519470214844
1772729279679537400,0.757537353515625,3.967566728591919,-2.9886560440063477,-4.9612908363342285
1772729279696884200,0.77488427734375,3.7739226818084717,-3.248884439468384,-4.856832981109619
1772729279714230800,0.792230712890625,3.8741044998168945,-3.819432020187378,-4.753596782684326
1772729279731577600,0.80957763671875,3.8179049491882324,-3.7797257900238037,-4.153116703033447
1772729279748924400,0.82692431640625,2.9181010723114014,-3.229336738586426,-3.269806385040283
1772729279766271200,0.844271240234375,1.6450588703155518,-2.4211626052856445,-2.1946845054626465
1772729279783617800,0.86161767578125,0.767857015132904,-1.7724241018295288,-0.47693267464637756
1772729279800964600,0.878964599609375,0.09896009415388107,-2.2702789306640625,1.0764964818954468
1772729279818311400,0.8963115234375,-0.6316341757774353,-2.939175844192505,1.8895574808120728
1772729279835658200,0.913658203125,-0.6065887212753296,-2.894582748413086,2.4631595611572266
1772729279853005000,0.931005126953125,-0.6029235124588013,-2.383288860321045,2.263406753540039
1772729279870351600,0.9483515625,-1.0409135818481445,-1.2794562578201294,1.4729477167129517
1772729279887698400,0.965698486328125,-1.2247838973999023,-0.28069236874580383,1.1210895776748657
1772729279905045200,0.983045166015625,-0.9932661056518555,0.32039856910705566,0.3269653618335724
1772729279922392000,1.00039208984375,-0.7556397318840027,0.693026065826416,-0.2393062710762024
1772729279939738600,1.017738525390625,-0.2706131041049957,1.2880083322525024,-0.02977965772151947
1772729279957085400,1.03508544921875,0.3744601011276245,1.3765838146209717,0.6311760544776917
1772729279974432300,1.052432373046875,0.48563748598098755,1.2629629373550415,0.8407026529312134
1772729279991779000,1.069779052734375,0.16004657745361328,0.9923498630523682,0.06734783947467804
1772729280009125600,1.087125732421875,-0.370184063911438,1.0344995260238647,-0.9106466770172119
1772729280026472400,1.104472412109375,-0.4404335021972656,0.8097012639045715,-1.0499238967895508
1772729280043819300,1.1218193359375,-0.47464191913604736,0.7406735420227051,-0.5490147471427917
1772729280061166000,1.139166015625,-0.8197805285453796,0.7425061464309692,0.18524473905563354
1772729280078513000,1.156512939453125,-1.2510510683059692,-0.40286532044410706,0.5963567495346069
1772729280095859500,1.173859375,-0.6982184648513794,0.32589635252952576,0.6641627550125122
1772729280113206300,1.191206298828125,-0.12034036219120026,0.1792888194322586,0.3220784664154053
1772729280130553000,1.208552978515625,0.5803215503692627,0.5305360555648804,0.38438665866851807
1772729280147900000,1.22589990234375,1.1270455121994019,0.3136790692806244,0.26282456517219543
1772729280165246500,1.24324658203125,0.8735366463661194,0.6814196705818176,0.08323032408952713
1772729280182593300,1.26059326171875,1.0097594261169434,0.06383536756038666,0.2328922003507614
1772729280199940000,1.277940185546875,0.28038692474365234,-0.1536324918270111,-0.45799586176872253
1772729280217286700,1.29528662109375,-0.3530798554420471,-0.2409861534833908,-1.1024582386016846
1772729280234633500,1.312633544921875,0.028099779039621353,0.07238747924566269,-1.6504039764404297
1772729280251980300,1.329980224609375,0.6151408553123474,0.3020726442337036,-1.7347033023834229
1772729280269327000,1.3473271484375,1.0060943365097046,0.20311254262924194,-1.0920735597610474
1772729280286674000,1.364673828125,1.278540015220642,-0.5879573225975037,-0.48914995789527893
1772729280304020500,1.3820205078125,1.2076796293258667,-1.2971713542938232,0.02153298258781433
1772729280321367300,1.3993671875,0.8356630206108093,-1.331379771232605,0.9628756046295166
1772729280338714000,1.416714111328125,0.4062250852584839,-0.7266236543655396,2.0746495723724365
1772729280356060700,1.434060791015625,0.4990765154361725,-0.5574141144752502,2.287841320037842
1772729280373407500,1.451407470703125,1.6377284526824951,-0.989295482635498,2.411846876144409
1772729280390754300,1.46875439453125,2.6035056114196777,-1.5891647338867188,3.4380996227264404
1772729280408101000,1.48610107421875,3.791637659072876,-1.0790926218032837,4.24993896484375
1772729280425447700,1.50344775390625,4.222908020019531,-1.2733476161956787,4.075842380523682
1772729280442794500,1.52079443359375,3.3212718963623047,-1.313053846359253,3.151604175567627
1772729280460141300,1.538141357421875,2.249814987182617,0.3643808364868164,0.8394809365272522
1772729280477488000,1.555488037109375,1.3878847360610962,0.9434806704521179,-0.20998476445674896
1772729280494834700,1.572834716796875,1.3365721702575684,0.7486147880554199,-0.3455967605113983
1772729280512181500,1.590181396484375,1.7886121273040771,0.26480987668037415,-0.36880961060523987
1772729280529528300,1.6075283203125,1.9144501686096191,-0.35582873225212097,-0.5954404473304749
1772729280546875000,1.624875,1.7971642017364502,-0.6753110289573669,-1.0719150304794312
1772729280564221700,1.6422216796875,1.6297872066497803,-0.6050615906715393,-1.3474149703979492
1772729280581568500,1.659568603515625,1.7122539281845093,-0.21288637816905975,-1.2997674942016602
1772729280598915300,1.676915283203125,1.6756020784378052,0.6032289862632751,-1.3785691261291504
1772729280616262000,1.694261962890625,1.349400281906128,1.6184862852096558,-1.74508798122406
1772729280633608700,1.711608642578125,0.9712749719619751,1.758985161781311,-2.0321943759918213
1772729280650955500,1.72895556640625,0.8784235715866089,0.9856303334236145,-0.9173662066459656
1772729280668302000,1.746302001953125,1.1184934377670288,0.23304490745067596,0.5065596103668213
1772729280685649000,1.76364892578125,0.8301652073860168,-0.4059196412563324,1.4063634872436523
1772729280702995700,1.78099560546875,0.046425722539424896,-1.8652756214141846,1.1406372785568237
1772729280720342300,1.79834228515625,0.0360410213470459,-1.6685771942138672,0.2787070572376251
1772729280737689000,1.815689208984375,0.7153226733207703,-0.8634573817253113,-0.21914774179458618
1772729280755036000,1.833035888671875,1.8936808109283447,-0.6924152374267578,-0.33460119366645813
1772729280772382700,1.8503828125,3.338986873626709,-0.971580445766449,-0.3205513060092926
1772729280789729300,1.867729248046875,4.192975997924805,-0.23243404924869537,-0.4329504072666168
1772729280807076000,1.885076171875,4.305375099182129,2.181703567504883,-1.0810779333114624
1772729280824423000,1.9024228515625,3.7097818851470947,4.70640754699707,-1.8513784408569336
1772729280841769700,1.919769775390625,2.8374669551849365,5.387521743774414,-2.3767220973968506
1772729280859116300,1.9371162109375,1.841146469116211,5.079646110534668,-2.517831802368164
1772729280876463000,1.954463134765625,0.2364046722650528,2.182925224304199,0.22067490220069885
1772729280893809700,1.9718095703125,-0.7134900689125061,2.079078197479248,1.8614577054977417
1772729280911156500,1.989156494140625,-0.5864301919937134,-0.3393353819847107,1.7331761121749878
1772729280928503300,2.00650341796875,-0.02626718580722809,-1.8603886365890503,1.0435097217559814
1772729280945850000,2.02385009765625,0.34086254239082336,-1.230587124824524,0.33001968264579773
1772729280963196700,2.04119677734375,0.36651885509490967,0.08521563559770584,-0.37491825222969055
1772729280980543500,2.05854345703125,0.9712749719619751,1.6355904340744019,-2.048687696456909
1772729280997890300,2.075890380859375,0.4935787320137024,-1.1194096803665161,-1.0450369119644165
1772729281015236900,2.09323681640625,0.1747073233127594,-1.2629629373550415,-0.1727220118045807
1772729281032583700,2.110583740234375,-0.0922405794262886,-0.3191768527030945,0.7863357067108154
1772729281049930500,2.127930419921875,-0.6444623470306396,0.20250166952610016,1.9689699411392212
1772729281067277300,2.14527734375,-0.5919279456138611,0.7565560340881348,3.079522132873535
1772729281084624000,2.162623779296875,0.14538581669330597,-0.49510589241981506,2.4833180904388428
1772729281101970700,2.179970703125,0.235793799161911,0.46944957971572876,0.9640973210334778
1772729281119317500,2.1973173828125,0.0360410213470459,2.115730047225952,0.12843431532382965
1772729281136664000,2.2146640625,-0.5699368119239807,0.7284562587738037,-0.09575305134057999
1772729281154011000,2.232010986328125,-0.9236275553703308,-1.8921536207199097,-0.6498073935508728
1772729281171357400,2.249357421875,-0.22418737411499023,-3.683209180831909,-1.3962842226028442
1772729281188704300,2.266704345703125,0.8454368710517883,-4.11264705657959,-1.7597486972808838
1772729281206051000,2.284051025390625,0.5656607747077942,-3.6667158603668213,-1.402392864227295
1772729281223398000,2.30139794921875,-0.047036588191986084,-2.234848737716675,-0.6980656981468201
1772729281240744400,2.318744384765625,-0.11178825795650482,-0.5232056975364685,0.17547090351581573
1772729281258091300,2.33609130859375,-0.07024945318698883,-0.05955931544303894,0.02764163166284561
1772729281275438000,2.35343798828125,0.13194678723812103,0.1328630894422531,-0.8532254099845886
1772729281292784600,2.37078466796875,0.39217519760131836,0.9563088417053223,-1.476918339729309
1772729281310131500,2.38813134765625,0.2461785078048706,1.1548398733139038,-1.3645192384719849
1772729281327478300,2.405478271484375,-0.11423171311616898,0.9776890873908997,-0.8507819175720215
1772729281344824800,2.422824951171875,-0.4477638900279999,0.2874118685722351,-0.606436014175415
1772729281362171600,2.440171630859375,-0.6065887212753296,-0.0461202897131443,-0.7041743993759155
1772729281379518500,2.4575185546875,-0.9138537049293518,-0.4456258714199066,-0.9179770350456238
1772729281396865000,2.474864990234375,-0.9553925395011902,-1.1505638360977173,-1.0835213661193848
1772729281414211800,2.4922119140625,-0.5882627964019775,-2.014326572418213,-0.9650136232376099
1772729281431558700,2.50955859375,-0.4043924808502197,-2.6386303901672363,-0.6998983025550842
1772729281448905200,2.5269052734375,-0.4050033390522003,-4.8768391609191895,-0.38102689385414124
1772729281466252000,2.544251953125,-0.28588470816612244,-3.2140650749206543,-0.3993528485298157
1772729281483598800,2.561598876953125,-0.18325942754745483,-2.8463244438171387,-0.007177661173045635
1772729281500945400,2.5789453125,-0.09101885557174683,-2.663064956665039,0.5090031027793884
1772729281518292200,2.596292236328125,0.07024945318698883,-1.7266093492507935,0.14798198640346527
1772729281535639000,2.61363916015625,0.3274235129356384,-0.27397283911705017,-0.4860956370830536
1772729281552985600,2.630985595703125,0.33231043815612793,0.41325002908706665,-0.6998983025550842
1772729281570332400,2.64833251953125,0.3915643095970154,1.2275327444076538,-0.6443096399307251
1772729281587679200,2.66567919921875,0.056199558079242706,0.9721912741661072,-0.3095557391643524
1772729281605025800,2.68302587890625,-0.29993459582328796,0.3130682110786438,0.15836669504642487
1772729281622372600,2.70037255859375,-0.3952295184135437,-0.2000582218170166,0.3214675784111023
1772729281639719400,2.717719482421875,-0.4526508152484894,-0.5494728684425354,0.5340485572814941
1772729281657066000,2.73506591796875,-0.32681265473365784,-0.3289506733417511,0.7576250433921814
1772729281674412800,2.752412841796875,-0.08796452730894089,0.29962918162345886,0.662330150604248
1772729281691759400,2.76975927734375,-0.01588248461484909,0.4682278633117676,0.5975784659385681
1772729281709106200,2.787106201171875,-0.04520399495959282,-0.22449280321598053,0.7954986691474915
1772729281726453000,2.804452880859375,0.12156209349632263,-0.878118097782135,1.1186461448669434
1772729281743799800,2.8217998046875,0.24373504519462585,-0.7370083332061768,1.3739875555038452
1772729281761146400,2.839146484375,0.40378162264823914,1.2592977285385132,1.3892592191696167
1772729281778493200,2.8564931640625,1.2315033674240112,2.1444408893585205,1.3196206092834473
1772729281795840000,2.873840087890625,1.8026620149612427,2.3478586673736572,1.485164999961853
1772729281813186600,2.8911865234375,1.8936808109283447,3.0301947593688965,1.2053889036178589
1772729281830533400,2.908533447265625,1.9651520252227783,3.7675085067749023,0.5151117444038391
1772729281847880000,2.9258798828125,2.405585527420044,3.101055145263672,0.24572035670280457
1772729281865226800,2.943226806640625,1.7825034856796265,2.888474225997925,-0.08720094710588455
1772729281882573600,2.960573486328125,1.4129302501678467,3.196960926055908,-0.40973755717277527
1772729281899920400,2.97792041015625,0.8222240209579468,2.338695764541626,0.8694133162498474
1772729281917267000,2.995266845703125,-1.1227694749832153,4.7797112464904785,2.6726861000061035
1772729281934613800,3.01261376953125,-0.472198486328125,2.4553709030151367,2.3403756618499756
1772729281951960300,3.029960205078125,0.3433060050010681,-0.6264418363571167,0.9335541129112244
1772729281969307100,3.04730712890625,0.27916520833969116,-0.0925460159778595,1.1174243688583374
1772729281986654000,3.064654052734375,0.10018182545900345,0.41263917088508606,0.5285507440567017
1772729282004000500,3.08200048828125,-0.006108647678047419,0.7608320713043213,-0.1672242283821106
1772729282021347300,3.099347412109375,-0.09407317638397217,0.7614429593086243,-0.9106466770172119
1772729282038694000,3.11669384765625,-0.4111120104789734,0.45906487107276917,-1.0761910676956177
1772729282056040700,3.134040771484375,-0.7550288438796997,0.3454440236091614,-0.9717331528663635
1772729282073387500,3.151387451171875,-1.0708459615707397,0.528092622756958,-0.1879936307668686
1772729282090734300,3.168734375,-0.6890554428100586,1.4816524982452393,1.096655011177063
1772729282108081000,3.186080810546875,-1.1423171758651733,1.9007058143615723,1.0978766679763794
1772729282125427700,3.203427734375,-1.1679733991622925,1.7681480646133423,1.182176113128662
1772729282142774300,3.220774169921875,-0.45387253165245056,0.7547234296798706,0.6110175251960754
1772729282160121000,3.23812109375,-0.24556763470172882,0.1805105358362198,0.19990549981594086
1772729282177468000,3.255468017578125,-0.5192350745201111,-0.96180659532547,0.5810851454734802
1772729282194814500,3.272814453125,-0.9645555019378662,-2.3454153537750244,0.9152281284332275
1772729282212161300,3.290161376953125,-1.2070688009262085,-4.79498291015625,0.3061959743499756
1772729282229508000,3.307508056640625,-1.1661409139633179,-7.4644622802734375,-0.9564615488052368
1772729282246854700,3.324854736328125,-1.3988803625106812,-7.278148651123047,-1.7011057138442993
1772729282264201500,3.342201416015625,-0.6829468011856079,-3.842034101486206,-0.6589703559875488
1772729282281548000,3.359548095703125,-0.039706211537122726,-0.9123265743255615,0.0539088174700737
1772729282298894800,3.376894775390625,-0.04153880476951599,0.3222311735153198,-0.018784092739224434
1772729282316241700,3.39424169921875,-0.021380268037319183,0.5604684352874756,-0.17883066833019257
1772729282333588200,3.411588134765625,-0.09834922850131989,0.04367683082818985,-0.301003634929657
1772729282350935000,3.42893505859375,-0.13927717506885529,-0.3338375985622406,-0.6290380358695984
1772729282368281600,3.446281494140625,-0.14233149588108063,-0.6343830823898315,-0.8910989761352539
1772729282385628400,3.46362841796875,-0.10079269111156464,-0.6252201199531555,-1.0291544198989868
1772729282402975200,3.480975341796875,-0.13439024984836578,-0.3069595396518707,-1.1372774839401245
1772729282420322000,3.498322021484375,-0.1795942485332489,-0.08521563559770584,-1.1580469608306885
1772729282437668600,3.515668701171875,-0.19242240488529205,-0.15790854394435883,-1.059086799621582
1772729282455015400,3.533015380859375,-0.23945899307727814,-0.2525925934314728,-0.9277508854866028
1772729282472362000,3.550362060546875,-0.4159989058971405,-0.3338375985622406,-0.9619593024253845
1772729282489708800,3.567708740234375,-0.4825831651687622,-0.6093376278877258,-0.9735657572746277
1772729282507055400,3.585055419921875,-0.32070401310920715,-1.00762140750885,-0.7988584041595459
1772729282524402200,3.602402099609375,-0.17592905461788177,-1.2617411613464355,-0.4970912039279938
1772729282541749000,3.6197490234375,-0.04825831577181816,-1.0986403226852417,-0.14828743040561676
1772729282559095600,3.637095458984375,0.06536252796649933,-0.6478220820426941,0.1101083755493164
1772729282576442400,3.6544423828125,0.10751219838857651,-0.4358520209789276,0.18341214954853058
1772729282593789200,3.6717890625,0.10384701192378998,-0.4889972507953644,0.18402300775051117
1772729282611135700,3.6891357421875,-0.04825831577181816,-0.6178897023200989,0.11927134543657303
1772729282628482600,3.706482666015625,-0.10873392969369888,-0.6453786492347717,-0.04321868345141411
1772729282645829000,3.7238291015625,-0.06536252796649933,-0.4682278633117676,-0.15256348252296448
1772729282663176000,3.741176025390625,-0.0873536616563797,-0.07788526266813278,-0.15500694513320923
1772729282680522800,3.758522705078125,-0.13133592903614044,0.025961752980947495,-0.03405570983886719
1772729282697869300,3.775869384765625,-0.05742128938436508,-0.1444695144891739,0.3715584874153137
1772729282715216100,3.793216064453125,0.0256563201546669,0.035124726593494415,1.0551161766052246
1772729282732562700,3.810562744140625,-0.04153880476951599,0.40408703684806824,1.4491239786148071
1772729282749909500,3.827909423828125,-0.164322629570961,0.5690205693244934,1.4588978290557861
1772729282767256300,3.84525634765625,-0.24006985127925873,0.43401941657066345,1.3684898614883423
1772729282784603000,3.862602783203125,-0.21135921776294708,-0.0461202897131443,1.2933534383773804
1772729282801949700,3.87994970703125,-0.2889390289783478,-0.10903936624526978,0.9176716208457947
1772729282819296500,3.897296630859375,-0.2516762912273407,0.5293143391609192,0.6788234710693359
1772729282836643000,3.91464306640625,-0.16310089826583862,0.26969680190086365,1.022740364074707
1772729282853990000,3.931989990234375,0.20280711352825165,-0.23487751185894012,0.7686206102371216
1772729282871336400,3.94933642578125,0.5320632457733154,-0.09804379940032959,0.025809036567807198
1772729282888683300,3.966683349609375,0.5626064538955688,0.39736753702163696,-0.43661558628082275
1772729282906029800,3.98402978515625,0.5516108870506287,0.7473930716514587,-0.5618428587913513
1772729282923376600,4.001376708984375,0.6499601006507874,1.6533055305480957,-0.4488328993320465
1772729282940723500,4.018723388671875,0.12767073512077332,5.69478702545166,1.0007492303848267
1772729282958070000,4.036070068359375,-0.16615521907806396,8.513317108154297,2.419177293777466
1772729282975416800,4.053416748046875,-0.012217295356094837,7.2133965492248535,2.0276129245758057
1772729282992763600,4.070763671875,-0.02871064469218254,3.32279896736145,1.1223113536834717
1772729283010110200,4.088110107421875,0.11239911615848541,0.3295615613460541,0.4442514181137085
1772729283027457000,4.10545703125,0.2577849328517914,-0.41263917088508606,-0.08292489498853683
1772729283044803600,4.122803466796875,0.19669845700263977,-0.8042035102844238,-0.44089165329933167
1772729283062150400,4.140150390625,0.15027274191379547,-1.4621047973632812,-0.6015490889549255
1772729283079497000,4.1574970703125,0.14599667489528656,-1.8377866744995117,-0.8147408962249756
1772729283096843800,4.17484375,0.09101885557174683,-2.0332634449005127,-0.9277508854866028
1772729283114190600,4.192190673828125,0.15699224174022675,-0.6331613659858704,-0.4543306827545166
1772729283131537200,4.209537109375,0.2571740746498108,2.4352123737335205,0.3672824501991272
1772729283148884000,4.226884033203125,-0.379347026348114,3.478569507598877,0.809548556804657
1772729283166230500,4.24423046875,-0.675616443157196,3.283703565597534,1.0245729684829712
1772729283183577300,4.261577392578125,-0.4477638900279999,2.17620587348938,0.4130973219871521
1772729283200924200,4.278924072265625,0.17165300250053406,0.7431169748306274,-0.3779725730419159
1772729283218270700,4.296270751953125,0.03543015569448471,-0.16646064817905426,-0.11285726726055145
1772729283235617500,4.313617431640625,-0.37140578031539917,-1.4474440813064575,0.1773035079240799
1772729283252964000,4.330964111328125,-0.04276053607463837,-2.961777925491333,-0.024281874299049377
1772729283270311000,4.348310791015625,0.4410443603992462,-4.319730281829834,-0.1721111536026001
1772729283287657700,4.36565771484375,0.2370155304670334,-4.309345722198486,-0.2338084876537323
1772729283305004300,4.38300439453125,0.0616973415017128,-3.605018377304077,-0.20937390625476837
1772729283322351000,4.40035107421875,0.1740964651107788,-2.757749080657959,-0.32299473881721497
1772729283339697700,4.41769775390625,-0.09285144507884979,-1.8011348247528076,-0.5258018374443054
1772729283357044500,4.43504443359375,-0.24312418699264526,-1.1633919477462769,-0.8520036339759827
1772729283374391300,4.452391357421875,-0.10506874322891235,-0.9330959320068359,-1.068860650062561
1772729283391737900,4.46973779296875,0.0513126403093338,-0.5354229807853699,-0.939357340335846
1772729283409084700,4.487084716796875,-0.029932374134659767,0.06200277432799339,-0.6088794469833374
1772729283426431200,4.50443115234375,-0.1496618688106537,0.2257145345211029,-0.49342602491378784
1772729283443778000,4.521778076171875,-0.18387030065059662,-0.05894844979047775,-0.6937896609306335
1772729283461124900,4.539124755859375,-0.17653992772102356,-0.2965748608112335,-0.9503529071807861
1772729283478471400,4.556471435546875,-0.2205221801996231,-0.46517354249954224,-1.0291544198989868
1772729283495818200,4.573818359375,-0.2419024556875229,-0.5598575472831726,-0.874605655670166
1772729283513164800,4.591164794921875,-0.26511532068252563,-0.572685718536377,-0.6858484148979187
1772729283530511600,4.60851171875,-0.31154105067253113,-0.6142245531082153,-0.5563451051712036
1772729283547858200,4.625858154296875,-0.22907429933547974,-0.7889318466186523,-0.3681987524032593
1772729283565205000,4.643205078125,-0.04214967042207718,-0.8836159110069275,-0.12935061752796173
1772729283582551800,4.6605517578125,0.17837251722812653,-0.6062833070755005,0.04169152304530144
1772729283599898400,4.6778984375,0.31093016266822815,-0.2977965772151947,0.1253799945116043
1772729283617245200,4.6952451171875,0.38789913058280945,-0.1945604383945465,0.13759729266166687
1772729283634591700,4.712591796875,0.2932150959968567,-0.23243404924869537,0.036804601550102234
1772729283651938600,4.7299384765625,0.0922405794262886,-0.39370235800743103,-0.25091269612312317
1772729283669285400,4.747285400390625,-0.22174391150474548,-0.3582721948623657,-0.6168206930160522
1772729283686632000,4.7646318359375,-0.34147340059280396,-0.19761475920677185,-0.6809614896774292
1772729283703978800,4.781978759765625,-0.24495677649974823,-0.12553271651268005,-0.46227192878723145
1772729283721325300,4.7993251953125,-0.21319180727005005,-0.16279546916484833,-0.2240346521139145
1772729283738672000,4.816672119140625,-0.01954767294228077,-0.30634868144989014,0.3459021747112274
1772729283756018700,4.834018798828125,0.05192350596189499,-0.012522728182375431,1.2658644914627075
1772729283773365500,4.851365478515625,0.001832594396546483,0.4615083336830139,1.7539454698562622
1772729283790712000,4.868712158203125,-0.24312418699264526,0.5464185476303101,1.8596251010894775
1772729283808059000,4.886058837890625,-0.39400777220726013,0.13164135813713074,1.9146028757095337
1772729283825405700,4.90340576171875,-0.3274235129356384,-0.4920515716075897,1.818697214126587
1772729283842752300,4.920752197265625,-0.20952661335468292,-0.40286532044410706,0.9341649413108826
1772729283860099000,4.93809912109375,0.10934479534626007,-0.25320345163345337,0.5346593856811523
1772729283877445600,4.955445556640625,0.24740023910999298,-0.5079340934753418,0.4540252387523651
1772729283894792400,4.97279248046875,0.5473348498344421,-0.07544180005788803,0.12782345712184906
1772729283912139000,4.990138916015625,0.6414080262184143,0.5989528894424438,-0.06582067906856537
1772729283929485800,5.00748583984375,0.38728827238082886,1.183550477027893,-0.228921577334404
1772729283946832600,5.02483251953125,0.205861434340477,1.4840959310531616,-0.40607234835624695
1772729283964179200,5.04217919921875,0.25045454502105713,1.5665627717971802,-0.586888313293457
1772729283981526000,5.059526123046875,-0.12522727251052856,5.7968010902404785,1.106428861618042
1772729283998872600,5.07687255859375,-0.28038692474365234,7.755844593048096,2.086866855621338
1772729284016219400,5.094219482421875,-0.19364413619041443,5.2824530601501465,1.5138756036758423
1772729284033566000,5.11156591796875,-0.010384701192378998,1.3716968297958374,0.448527455329895
1772729284050912800,5.128912841796875,0.20708316564559937,-0.41263917088508606,-0.15012001991271973
1772729284068259600,5.146259521484375,0.25534147024154663,-1.0314451456069946,-0.558788537979126
1772729284085606100,5.163606201171875,0.3072649836540222,-1.6160427331924438,-0.7866411209106445
1772729284102953000,5.180952880859375,0.22785256803035736,-1.6893465518951416,-0.9845613241195679
1772729284120299500,5.198299560546875,0.0256563201546669,-1.7431026697158813,-1.0554215908050537
1772729284137646300,5.215646240234375,0.14049890637397766,-0.08643736690282822,-0.5844448804855347
1772729284154993000,5.232992919921875,0.3555232882499695,2.56471586227417,0.5981893539428711
1772729284172339700,5.250339599609375,-0.2632827162742615,3.0436336994171143,1.3000729084014893
1772729284189686500,5.2676865234375,-0.38728827238082886,2.4352123737335205,1.2841905355453491
1772729284207033000,5.285033203125,-0.29077163338661194,1.4676026105880737,0.2328922003507614
1772729284224380000,5.3023798828125,-0.0409279391169548,0.9685261249542236,-0.966235339641571
1772729284241726500,5.3197265625,-0.2657261788845062,0.5384773015975952,-0.35353797674179077
1772729284259073300,5.3370732421875,-0.6273581385612488,-0.6667588949203491,-0.08597921580076218
1772729284276419800,5.354419921875,-0.04153880476951599,-2.7290384769439697,-0.05177079141139984
1772729284293766700,5.3717666015625,0.46425724029541016,-3.791332244873047,0.21090106666088104
1772729284311113200,5.38911328125,0.3298669755458832,-3.036914348602295,0.02458730712532997
1772729284328460000,5.4064599609375,0.33047783374786377,-2.4126105308532715,-0.22525638341903687
1772729284345806600,5.423806640625,0.30970844626426697,-2.218355417251587,-0.32849252223968506
1772729284363153400,5.4411533203125,-0.039706211537122726,-1.5580105781555176,-0.6779071688652039
1772729284380500000,5.4585,-0.20708316564559937,-1.3808598518371582,-1.2118029594421387
1772729284397846800,5.4758466796875,-0.13500112295150757,-1.4621047973632812,-1.521511435508728
1772729284415193600,5.493193603515625,0.0054977829568088055,-1.0149518251419067,-1.3364194631576538
1772729284432540200,5.5105400390625,0.01282816007733345,-0.3277289569377899,-0.9051488637924194
1772729284449887000,5.527886962890625,-0.02871064469218254,0.32589635252952576,-0.7212786078453064
1772729284467233500,5.545233642578125,-0.10690133273601532,0.3802633285522461,-0.8910989761352539
1772729284484580400,5.562580322265625,-0.16615521907806396,0.11636973917484283,-1.0511455535888672
1772729284501927000,5.579927001953125,-0.2101374864578247,-0.19700388610363007,-1.0279327630996704
1772729284519273700,5.597273681640625,-0.28466299176216125,-0.48472121357917786,-0.9088140726089478
1772729284536620300,5.614620361328125,-0.2883281707763672,-0.7742711305618286,-0.7377719283103943
1772729284553967000,5.631967041015625,-0.16126830875873566,-1.0290017127990723,-0.5190823674201965
1772729284571314000,5.64931396484375,0.001832594396546483,-1.053436279296875,-0.23258677124977112
1772729284588660500,5.666660400390625,0.18631376326084137,-0.888502836227417,0.06368265300989151
1772729284606007300,5.68400732421875,0.3347539007663727,-0.693636953830719,0.26160284876823425
1772729284623353900,5.701353759765625,0.45387253165245056,-0.4419606626033783,0.3355174660682678
1772729284640700700,5.71870068359375,0.3634645342826843,-0.1493564397096634,0.2787070572376251
1772729284658047200,5.736047119140625,0.07757982611656189,-0.08460476994514465,0.08628465235233307
1772729284675394000,5.75339404296875,-0.4453204274177551,-0.2733619809150696,-0.23564109206199646
1772729284692740600,5.77074072265625,-0.5925388336181641,-0.2764163017272949,-0.5325213670730591
1772729284710087400,5.78808740234375,-0.33536475896835327,-0.20616686344146729,-0.6278162598609924
1772729284727434000,5.80543408203125,-0.21441353857517242,-0.16584978997707367,-0.4805978536605835
1772729284744780800,5.82278076171875,-0.20463970303535461,-0.2813032269477844,0.1565341055393219
1772729284762127400,5.84012744140625,-0.24923282861709595,-0.23487751185894012,0.9341649413108826
1772729284779474200,5.85747412109375,-0.20952661335468292,0.06200277432799339,1.3031272888183594
1772729284796820700,5.87482080078125,-0.0818558782339096,0.25870123505592346,1.5108213424682617
1772729284814167600,5.89216748046875,0.013439024798572063,0.1182023361325264,1.7014111280441284
1772729284831514000,5.90951416015625,0.1545487940311432,-0.3197877109050751,1.8150320053100586
1772729284848861000,5.92686083984375,0.04581485688686371,0.25442516803741455,1.1186461448669434
1772729284866207500,5.94420751953125,-0.003665188793092966,0.878728985786438,0.5236638188362122
1772729284883554300,5.96155419921875,-0.02932151034474373,0.36132651567459106,0.5291616320610046
1772729284900901000,5.978901123046875,0.4355465769767761,-0.011911863461136818,0.20051635801792145
1772729284918247700,5.99624755859375,0.5583304166793823,0.12736530601978302,-0.10980294644832611
1772729284935594500,6.013594482421875,0.4526508152484894,0.3845393657684326,-0.31322091817855835
1772729284952941000,6.030941162109375,0.2663370370864868,0.7064651250839233,-0.47693267464637756
1772729284970287900,6.048287841796875,0.11484257876873016,1.038164734840393,-0.558788537979126
1772729284987634400,6.065634521484375,-0.7788525819778442,5.437002182006836,1.7863212823867798
1772729285004981200,6.082981201171875,-0.972496747970581,7.644667148590088,3.303098678588867
1772729285022327800,6.100327880859375,-0.5894845128059387,5.6483612060546875,2.0746495723724365
1772729285039674600,6.117674560546875,-0.25350889563560486,1.755930781364441,0.8242093324661255
1772729285057021200,6.135021240234375,0.1484401375055313,-0.36621344089508057,0.016646064817905426
1772729285074368000,6.152367919921875,0.3744601011276245,-0.8402445316314697,-0.4298960864543915
1772729285091714600,6.169714599609375,0.5064069032669067,-1.2318087816238403,-0.6217076182365417
1772729285109061400,6.187061279296875,0.4679224193096161,-1.6526947021484375,-0.7115047574043274
1772729285126408000,6.204407958984375,0.1692095398902893,-1.9569053649902344,-0.8849903345108032
1772729285143754800,6.221754638671875,-0.012217295356094837,-1.7174463272094727,-1.0841323137283325
1772729285161101600,6.2391015625,0.006719512399286032,0.48960810899734497,-0.29733842611312866
1772729285178448100,6.2564482421875,-0.0818558782339096,2.1169519424438477,0.6739365458488464
1772729285195794700,6.273794677734375,-0.29504770040512085,1.3197733163833618,0.9983057379722595
1772729285213141500,6.2911416015625,-0.29993459582328796,1.2812888622283936,0.8174898028373718
1772729285230488300,6.30848828125,-0.14294235408306122,1.1047489643096924,-0.30711227655410767
1772729285247835000,6.3258349609375,0.08002328872680664,0.9495893120765686,-0.5642863512039185
1772729285265181700,6.343181640625,-0.17287473380565643,0.3692677617073059,0.03802633285522461
1772729285282528300,6.3605283203125,-0.15088360011577606,-0.7651081085205078,0.26099199056625366
1772729285299875000,6.377875,0.3237583339214325,-2.64046311378479,0.5707004070281982
1772729285317221600,6.3952216796875,0.48991355299949646,-3.3209664821624756,0.26282456517219543
1772729285334568400,6.412568359375,0.32070401310920715,-2.712545156478882,-0.21548254787921906
1772729285351915000,6.4299150390625,0.24923282861709595,-1.9733986854553223,-0.31871870160102844
1772729285369261800,6.44726171875,0.12950333952903748,-1.349705696105957,-0.2796233594417572
1772729285386608400,6.4646083984375,-0.12461641430854797,-0.5757400393486023,-0.49892380833625793
1772729285403955200,6.481955078125,-0.23029601573944092,-0.8158099055290222,-0.8385646343231201
1772729285421301800,6.4993017578125,-0.08552107214927673,-1.5329651832580566,-1.0077741146087646
1772729285438648600,6.516648681640625,-0.01282816007733345,-1.0296125411987305,-0.9149227142333984
1772729285455995100,6.5339951171875,-0.08063415437936783,-0.1493564397096634,-0.7102830410003662
1772729285473342000,6.551342041015625,-0.1496618688106537,0.2965748608112335,-0.7017309069633484
1772729285490688500,6.5686884765625,-0.20769402384757996,0.1798996776342392,-0.9118683934211731
1772729285508035300,6.586035400390625,-0.22907429933547974,-0.10659590363502502,-1.0383174419403076
1772729285525382000,6.6033818359375,-0.2156352698802948,-0.5103775262832642,-0.9424116611480713
1772729285542728700,6.620728759765625,-0.18875721096992493,-0.7638863921165466,-0.7328850030899048
1772729285560075300,6.6380751953125,-0.16615521907806396,-0.8414662480354309,-0.5716167092323303
1772729285577422000,6.655422119140625,-0.14782927930355072,-0.7919861674308777,-0.48181959986686707
1772729285594768600,6.6727685546875,-0.0665842592716217,-0.7742711305618286,-0.39507678151130676
1772729285612115500,6.690115478515625,0.09896009415388107,-0.8127555847167969,-0.1715002804994583
1772729285629462000,6.7074619140625,0.20769402384757996,-0.6643154621124268,0.1302669197320938
1772729285646808800,6.724808837890625,0.20952661335468292,-0.40347617864608765,0.2548833191394806
1772729285664155400,6.7421552734375,0.10018182545900345,-0.37171122431755066,0.2133445292711258
1772729285681502200,6.759502197265625,-0.14477495849132538,-0.5720748901367188,0.09300415962934494
1772729285698848800,6.776848876953125,-0.3017672002315521,-0.6398808360099792,-0.19410228729248047
1772729285716195600,6.794195556640625,-0.2528980076313019,-0.4364628791809082,-0.5923861265182495
1772729285733542100,6.811542236328125,-0.21319180727005005,-0.42852163314819336,-0.7334958910942078
1772729285750889000,6.828888916015625,-0.1380554437637329,-0.5555815100669861,-0.5294670462608337
1772729285768235500,6.846235595703125,-0.03909534588456154,-0.4419606626033783,-0.04627300798892975
1772729285785582300,6.863582275390625,-0.018325943499803543,0.024740023538470268,0.7325795888900757
1772729285802929000,6.880928955078125,-0.20402882993221283,0.5604684352874756,1.391702651977539
1772729285820275700,6.898275634765625,-0.3335321843624115,0.785877525806427,1.8877248764038086
1772729285837622300,6.915622314453125,-0.4978547990322113,0.6612611413002014,2.14612078666687
1772729285854969000,6.932968994140625,-0.4673115611076355,0.14691297709941864,2.0667083263397217
1772729285872316000,6.95031591796875,-0.2761108875274658,0.5213730931282043,0.9512691497802734
1772729285889662500,6.967662353515625,-0.09834922850131989,-0.012522728182375431,0.7002037763595581
1772729285907009000,6.985009033203125,0.10384701192378998,-0.6753110289573669,0.5749764442443848
1772729285924355800,7.00235595703125,0.37629270553588867,-0.547029435634613,0.06551524996757507
1772729285941702400,7.019702392578125,0.4825831651687622,0.24770566821098328,-0.38591381907463074
1772729285959049200,7.03704931640625,0.3298669755458832,1.0314451456069946,-0.6345357894897461
1772729285976395800,7.054395751953125,0.19669845700263977,1.3686425685882568,-0.7072287201881409
1772729285993742600,7.07174267578125,0.1905898153781891,1.471267819404602,-0.7756455540657043
1772729286011089200,7.089089111328125,0.31581708788871765,2.0668609142303467,-0.5600103139877319
1772729286028436000,7.10643603515625,-0.31581708788871765,6.51639986038208,1.47661292552948
1772729286045782500,7.123782470703125,-0.37201663851737976,6.163320064544678,1.8987205028533936
1772729286063129300,7.14112939453125,-0.2260199636220932,2.6221370697021484,1.1565197706222534
1772729286080476000,7.158475830078125,0.15577052533626556,-0.6417134404182434,0.1510363221168518
1772729286097822700,7.17582275390625,0.2718348205089569,-1.5195261240005493,-0.19960007071495056
1772729286115169300,7.193169189453125,0.258395791053772,-1.8781037330627441,-0.5160280466079712
1772729286132516000,7.21051611328125,0.25045454502105713,-2.2415683269500732,-0.9888373613357544
1772729286149862700,7.227862548828125,-0.10934479534626007,-2.805396556854248,-1.2368484735488892
1772729286167209500,7.24520947265625,-0.27977606654167175,-1.441946268081665,-0.9039271473884583
1772729286184556000,7.26255615234375,0.13500112295150757,1.5763366222381592,-0.10369429737329483
1772729286201902800,7.27990283203125,-0.0720820426940918,2.746753454208374,0.9708168506622314
1772729286219249400,7.29724951171875,-0.12217295914888382,2.4743077754974365,1.8388557434082031
1772729286236596200,7.31459619140625,-0.13194678723812103,1.3350449800491333,1.2695297002792358
1772729286253942800,7.33194287109375,0.013439024798572063,-0.15118902921676636,-0.5264127254486084
1772729286271289600,7.34928955078125,-0.0873536616563797,-0.30512696504592896,-0.6834049820899963
1772729286288636200,7.36663623046875,-0.13683371245861053,-0.4920515716075897,0.3770562708377838
1772729286305983000,7.38398291015625,0.44409868121147156,-2.405890941619873,1.1998910903930664
1772729286323329500,7.40132958984375,0.9260709881782532,-3.2140650749206543,0.38988444209098816
1772729286340676400,7.41867626953125,0.6945532560348511,-3.129154920578003,-0.4402807950973511
1772729286358023000,7.43602294921875,0.09162971377372742,-2.3826780319213867,-0.3724747896194458
1772729286375369700,7.45336962890625,-0.23273947834968567,-2.142608165740967,-0.34193155169487
1772729286392716300,7.47071630859375,-0.4257727563381195,-2.0717480182647705,-0.5416843295097351
1772729286410063000,7.48806298828125,-0.4111120104789734,-1.4132356643676758,-1.0761910676956177
1772729286427409700,7.50540966796875,0.16554436087608337,-0.5451968312263489,-1.3883429765701294
1772729286444756500,7.522756591796875,0.21380266547203064,-0.1945604383945465,-1.0975712537765503
1772729286462103000,7.54010302734375,0.14782927930355072,0.2208276242017746,-0.7451022863388062
1772729286479449900,7.557449951171875,0.06841685622930527,0.4975493550300598,-0.6265945434570312
1772729286496796400,7.57479638671875,0.023823726922273636,0.4407389461994171,-0.6290380358695984
1772729286514143200,7.592143310546875,-0.000610864779446274,0.13530655205249786,-0.6406444311141968
1772729286531489800,7.60948974609375,0.017104214057326317,-0.06750056147575378,-0.671187698841095
1772729286548836400,7.62683642578125,-0.02871064469218254,-0.16707152128219604,-0.689513623714447
1772729286566183200,7.64418310546875,-0.07330377399921417,-0.31123560667037964,-0.6284271478652954
1772729286583529700,7.66152978515625,-0.1331685185432434,-0.5690205693244934,-0.3712530732154846
1772729286600876500,7.67887646484375,-0.06047561392188072,-0.8237511515617371,0.055741410702466965
1772729286618223000,7.69622314453125,0.09407317638397217,-0.8194751143455505,0.3196350038051605
1772729286635570000,7.71356982421875,0.22846342623233795,-0.7412844300270081,0.2854265570640564
1772729286652916500,7.73091650390625,0.2571740746498108,-0.6166679859161377,0.036193739622831345
1772729286670263300,7.74826318359375,0.2718348205089569,-0.3607156574726105,-0.15256348252296448
1772729286687609900,7.76560986328125,0.23029601573944092,-0.08582650125026703,-0.13729186356067657
1772729286704956700,7.782956787109375,0.10995566099882126,0.21410810947418213,-0.15317434072494507
1772729286722303200,7.80030322265625,-0.1484401375055313,0.4248564541339874,-0.34865108132362366
1772729286739650000,7.817650146484375,-0.2461785078048706,0.3552178740501404,-0.5068650245666504
1772729286756996600,7.83499658203125,-0.2577849328517914,-0.07971785217523575,-0.5367974042892456
1772729286774343400,7.852343505859375,-0.3555232882499695,-0.49999281764030457,0.007483093533664942
1772729286791690000,7.86968994140625,-0.3023780584335327,-0.4425715208053589,0.9231693744659424
1772729286809036500,7.88703662109375,-0.3659079968929291,-0.04673115536570549,1.706908941268921
1772729286826383400,7.90438330078125,-0.3176496922969818,0.32162031531333923,2.0636539459228516
1772729286843730000,7.92172998046875,-0.0409279391169548,0.43401941657066345,1.9622503519058228
1772729286861076700,7.93907666015625,0.19181154668331146,0.5018253922462463,1.1950042247772217
1772729286878423600,7.956423583984375,0.2364046722650528,0.8549052476882935,0.32452189922332764
1772729286895770000,7.97377001953125,-0.04276053607463837,0.3643808364868164,0.4130973219871521
1772729286913116700,7.99111669921875,0.1185077652335167,-0.05589412897825241,0.44791659712791443
1772729286930463500,8.00846337890625,0.5186241865158081,-0.0821613147854805,-0.14034618437290192
1772729286947810000,8.02581005859375,0.6530144214630127,0.3032943606376648,-0.43172869086265564
1772729286965156900,8.043156982421875,0.45998117327690125,0.7510582208633423,-0.5031998753547668
1772729286982503400,8.06050341796875,0.19425499439239502,1.0259474515914917,-0.5166388750076294
1772729286999850200,8.077850341796875,0.15027274191379547,1.5146392583847046,-0.4488328993320465
1772729287017196800,8.09519677734375,-0.7171552777290344,6.635518550872803,1.9610286951065063
1772729287034543600,8.112543701171875,-0.43493571877479553,7.377719402313232,2.3562581539154053
1772729287051890200,8.12989013671875,-0.3347539007663727,4.087601661682129,1.1546871662139893
1772729287069237000,8.147237060546875,-0.047036588191986084,0.6117810606956482,0.16752967238426208
1772729287086583600,8.16458349609375,0.26022839546203613,-0.6502655744552612,-0.28328853845596313
1772729287103930000,8.18193017578125,0.31031930446624756,-1.2825106382369995,-0.44761115312576294
1772729287121277000,8.19927685546875,0.3225366175174713,-1.9898920059204102,-0.5172497630119324
1772729287138623500,8.21662353515625,0.19242240488529205,-2.4633121490478516,-0.8892664313316345
1772729287155970300,8.23397021484375,-0.10140355676412582,-2.3869540691375732,-1.0401500463485718
1772729287173316900,8.25131689453125,-0.17104214429855347,-0.5103775262832642,-0.5929969549179077
1772729287190663700,8.26866357421875,0.056199558079242706,2.2415683269500732,0.42042768001556396
1772729287208010200,8.28601025390625,-0.2052505612373352,3.163363218307495,1.0123556852340698
1772729287225357000,8.303357177734375,-0.3029889166355133,2.682612657546997,1.0807725191116333
1772729287242703600,8.32070361328125,-0.29016077518463135,1.7131702899932861,-0.05543597787618637
1772729287260050400,8.338050537109375,-0.11972949653863907,1.2318087816238403,-0.6821832656860352
1772729287277397000,8.35539697265625,-0.44898560643196106,0.13652828335762024,-0.13362666964530945
1772729287294743600,8.37274365234375,-0.6017017960548401,-1.5879429578781128,0.16752967238426208
1772729287312090400,8.39009033203125,0.13927717506885529,-3.3680028915405273,0.22983787953853607
1772729287329437000,8.40743701171875,0.2816086709499359,-4.017352104187012,0.19013166427612305
1772729287346783700,8.42478369140625,0.1337793916463852,-3.1749696731567383,-0.004123337101191282
1772729287364130300,8.44213037109375,0.2864955961704254,-2.3570218086242676,-0.043829549103975296
1772729287381477000,8.45947705078125,0.18692462146282196,-1.8347324132919312,-0.18310672044754028
1772729287398823700,8.47682373046875,-0.08063415437936783,-1.1878265142440796,-0.5917752385139465
1772729287416170500,8.49417041015625,-0.1233946830034256,-1.1511746644973755,-1.1391100883483887
1772729287433517000,8.51151708984375,0.024434590712189674,-1.2000439167022705,-1.3248130083084106
1772729287450863900,8.52886376953125,-0.004886918235570192,-0.42302384972572327,-1.187368392944336
1772729287468210400,8.54621044921875,-0.012217295356094837,0.4608974754810333,-0.9253074526786804
1772729287485557200,8.56355712890625,-0.06963858753442764,0.8072578310966492,-0.966846227645874
1772729287502903800,8.58090380859375,-0.19181154668331146,0.44868019223213196,-1.2020292282104492
1772729287520250400,8.59825048828125,-0.29138249158859253,-0.22999058663845062,-1.3119847774505615
1772729287537597200,8.61559716796875,-0.3964512348175049,-0.9911280870437622,-1.198364019393921
1772729287554943700,8.63294384765625,-0.471587598323822,-1.6526947021484375,-0.8770490884780884
1772729287572290600,8.65029052734375,-0.4453204274177551,-1.8952080011367798,-0.4243983030319214
1772729287589637000,8.66763720703125,-0.21319180727005005,-1.672242283821106,0.012980876490473747
1772729287606983700,8.684983642578125,0.0360410213470459,-1.1291835308074951,0.26771149039268494
1772729287624330500,8.70233056640625,0.1954767256975174,-0.6899717450141907,0.3984365463256836
1772729287641677000,8.719677001953125,0.3335321843624115,-0.3943132162094116,0.3257436454296112
1772729287659024000,8.73702392578125,0.3744601011276245,-0.0412333719432354,0.06612611562013626
1772729287676370400,8.754370361328125,0.164322629570961,0.2837466895580292,-0.08231402933597565
1772729287693717200,8.77171728515625,-0.13988803327083588,0.3130682110786438,-0.10613775253295898
1772729287711063800,8.789063720703124,-0.4618137776851654,0.07422006875276566,-0.15012001991271973
1772729287728410600,8.80641064453125,-0.2406807243824005,-0.3295615613460541,-0.22036947309970856
1772729287745757200,8.823757080078124,-0.32559093832969666,-0.7809906005859375,-0.2545779049396515
1772729287763104000,8.84110400390625,-0.18631376326084137,-0.9978476166725159,-0.35537058115005493
1772729287780450600,8.858450439453126,-0.0256563201546669,-0.9245438575744629,-0.040775224566459656
1772729287797797000,8.875797119140625,-0.040317077189683914,-0.20799945294857025,0.48884454369544983
1772729287815144000,8.89314404296875,-0.09407317638397217,0.48044514656066895,1.1369720697402954
1772729287832490500,8.910490478515625,-0.09040798991918564,0.6356047987937927,1.7673845291137695
1772729287849837300,8.92783740234375,-0.020769402384757996,0.42302384972572327,2.207207202911377
1772729287867183900,8.945183837890625,-0.020158538594841957,0.17806708812713623,2.204152822494507
1772729287884530700,8.96253076171875,-0.18631376326084137,1.2440260648727417,1.1644610166549683
1772729287901877200,8.979877197265624,-0.11362084746360779,1.302058219909668,0.6073523163795471
1772729287919224000,8.99722412109375,-0.2211330533027649,-0.6123919486999512,0.975703775882721
1772729287936570600,9.014570556640624,0.44898560643196106,-0.44929105043411255,-0.004123337101191282
1772729287953917200,9.031917236328125,0.5760455131530762,-0.22449280321598053,-0.7640390992164612
1772729287971264000,9.049263916015626,0.46975502371788025,-0.09315688163042068,-0.9564615488052368
1772729287988610600,9.066610595703125,0.41783151030540466,0.1853974610567093,-0.9375247359275818
1772729288005957400,9.083957275390626,0.37262752652168274,2.989266872406006,0.030085090547800064
1772729288023304000,9.101303955078125,-0.056199558079242706,9.009949684143066,2.5944955348968506
1772729288040650800,9.118650634765626,-0.10873392969369888,7.801048755645752,2.6616904735565186
1772729288057997300,9.135997314453125,-0.2516762912273407,2.4602580070495605,1.3642138242721558
1772729288075344000,9.15334375,-0.11545344442129135,-0.032070402055978775,0.2530507445335388
1772729288092690700,9.170690673828124,0.2516762912273407,0.4584540128707886,-0.596662163734436
1772729288110037200,9.188037353515625,0.26389357447624207,-0.07605266571044922,-0.6046034097671509
1772729288127384000,9.205384033203124,0.14294235408306122,-0.9477567076683044,-0.3993528485298157
1772729288144730600,9.222730712890625,0.1698204129934311,-1.5482367277145386,-0.6540834903717041
1772729288162077400,9.240077392578126,0.12156209349632263,-2.3313653469085693,-0.9650136232376099
1772729288179424000,9.257424072265625,0.06475166976451874,-2.0754129886627197,-0.6840158104896545
1772729288196770600,9.2747705078125,0.10384701192378998,0.2208276242017746,0.3459021747112274
1772729288214117400,9.292117431640625,-0.17653992772102356,1.7180571556091309,0.9341649413108826
1772729288231464000,9.3094638671875,-0.39828383922576904,2.22690749168396,1.1388046741485596
1772729288248810800,9.326810791015625,-0.379347026348114,2.274554967880249,0.5871937870979309
1772729288266157300,9.3441572265625,-0.08674279600381851,1.6300926208496094,-0.5319104790687561
1772729288283504000,9.361504150390624,-0.046425722539424896,0.7907644510269165,-0.7218894362449646
1772729288300850700,9.3788505859375,-0.472198486328125,-0.29535311460494995,-0.291229784488678
1772729288318197200,9.396197265625,-0.5186241865158081,-2.388786792755127,0.12782345712184906
1772729288335544000,9.4135439453125,0.5155698657035828,-4.777878761291504,0.233503058552742
1772729288352890600,9.430890625,0.7935133576393127,-4.055225849151611,-0.011453714221715927
1772729288370237400,9.448237548828125,0.4886918365955353,-2.5274529457092285,-0.31383177638053894
1772729288387584000,9.465583984375,0.27855435013771057,-1.6978986263275146,-0.34498587250709534
1772729288404930800,9.482930908203125,-0.030543239787220955,-1.4767656326293945,-0.5978838801383972
1772729288422277400,9.50027734375,-0.23762640357017517,-1.0112866163253784,-1.1629338264465332
1772729288439624000,9.5176240234375,-0.12461641430854797,-0.7425061464309692,-1.5422807931900024
1772729288456970800,9.534970703125,-0.020769402384757996,-0.61117023229599,-1.3431389331817627
1772729288474317300,9.5523173828125,-0.028099779039621353,0.19089524447917938,-0.9992220401763916
1772729288491664100,9.5696640625,-0.2156352698802948,0.9764673709869385,-0.7683151960372925
1772729288509010700,9.5870107421875,-0.3555232882499695,0.9373720288276672,-0.7835868000984192
1772729288526357500,9.604357421875,-0.4202749729156494,0.04367683082818985,-0.976620078086853
1772729288543704000,9.6217041015625,-0.5589412450790405,-0.9495893120765686,-1.106734275817871
1772729288561050600,9.639050537109375,-0.6957749724388123,-1.6673554182052612,-1.0529781579971313
1772729288578397400,9.6563974609375,-0.6267472505569458,-1.9917246103286743,-0.7457131743431091
1772729288595744000,9.673743896484375,-0.5057960152626038,-1.8206825256347656,-0.27779075503349304
1772729288613090800,9.6910908203125,-0.3536907136440277,-1.4010183811187744,0.17119485139846802
1772729288630437400,9.708437255859375,-0.12461641430854797,-1.0308343172073364,0.5328267812728882
1772729288647784000,9.725783935546875,0.07819069176912308,-0.7082977294921875,0.7044798135757446
1772729288665130800,9.743130859375,0.2467893660068512,-0.39309149980545044,0.6543889045715332
1772729288682477300,9.760477294921875,0.31031930446624756,-0.023518294095993042,0.43142324686050415
1772729288699824000,9.77782421875,0.2565632164478302,0.09071341902017593,0.23655737936496735
1772729288717170700,9.795170654296875,0.09040798991918564,0.07360920310020447,0.10216713696718216
1772729288734517500,9.812517578125,-0.1637117564678192,0.15790854394435883,-0.037720900028944016
1772729288751864000,9.829864013671875,-0.42394015192985535,0.4981602132320404,-0.3119991719722748
1772729288769210600,9.847210693359376,-0.1692095398902893,0.5739074349403381,-0.5606211423873901
1772729288786557400,9.864557373046875,-0.1954767256975174,-0.2660316228866577,-0.425009161233902
1772729288803904000,9.881904052734376,-0.24006985127925873,-0.8090903759002686,-0.03588830679655075
1772729288821250800,9.899250732421875,-0.32192572951316833,-0.7021890878677368,0.7490729093551636
1772729288838597400,9.916597412109375,-0.1795942485332489,-0.6075050234794617,1.6079487800598145
1772729288855944000,9.93394384765625,0.021991131827235222,0.0015271619195118546,2.0911428928375244
1772729288873290800,9.951290771484375,-0.08613193035125732,0.33567020297050476,2.3709189891815186
1772729288890637300,9.96863720703125,-0.3243691921234131,0.5842921733856201,2.290895700454712
1772729288907984100,9.985984130859375,-0.37323838472366333,1.8280128240585327,1.2127193212509155
1772729288925330700,10.00333056640625,-0.3445277214050293,1.0833686590194702,1.4167481660842896
1772729288942677500,10.020677490234375,-0.08002328872680664,0.032070402055978775,1.0984876155853271
1772729288960024000,10.038024169921876,0.7220421433448792,0.48044514656066895,-0.2747364342212677
1772729288977370600,10.05537060546875,0.8521563410758972,0.2409861534833908,-1.041982650756836
1772729288994717400,10.072717529296876,0.5522217750549316,0.014966187067329884,-1.1421644687652588
1772729289012064000,10.09006396484375,0.2968802750110626,0.016798781231045723,-1.114675521850586
1772729289029410600,10.10741064453125,0.1637117564678192,1.3045017719268799,-0.6436987519264221
1772729289046757400,10.12475732421875,-0.5314523577690125,7.448579788208008,2.1925463676452637
1772729289064104000,10.14210400390625,-0.31581708788871765,7.325795650482178,2.2841761112213135
1772729289081450800,10.15945068359375,-0.3439168632030487,2.980714797973633,1.111926555633545
1772729289098797300,10.17679736328125,-0.002443459117785096,0.27397283911705017,0.3935496211051941
1772729289116144000,10.19414404296875,0.3341430425643921,-0.15668681263923645,-0.17027856409549713
1772729289133490700,10.21149072265625,0.4062250852584839,-0.33567020297050476,-0.6388118267059326
1772729289150837200,10.228837158203126,0.4825831651687622,-0.7058542370796204,-0.9149227142333984
1772729289168184000,10.24618408203125,0.4111120104789734,-1.1071923971176147,-1.0096067190170288
1772729289185530600,10.263530517578126,0.049480047076940536,-1.823125958442688,-1.206916093826294
1772729289202877400,10.28087744140625,-0.11484257876873016,-1.4498875141143799,-1.0462586879730225
1772729289220224000,10.29822412109375,0.08124501258134842,1.3405427932739258,0.06551524996757507
1772729289237570600,10.315570556640624,0.033597562462091446,2.598313331604004,0.60490882396698
1772729289254917400,10.33291748046875,-0.40744680166244507,2.3955061435699463,0.6635518670082092
1772729289272264000,10.350263916015624,-0.33597561717033386,2.1835360527038574,0.4027126133441925
1772729289289610800,10.36761083984375,-0.011606430634856224,1.6410882472991943,-0.3174969553947449
1772729289306957300,10.384957275390626,0.12217295914888382,0.9935715794563293,-0.6302597522735596
1772729289324304000,10.402303955078125,-0.16615521907806396,0.2874118685722351,-0.09392046183347702
1772729289341650700,10.419650634765626,-0.5125155448913574,-1.0833686590194702,0.09056070446968079
1772729289358997200,10.436997314453125,0.13011419773101807,-2.6135849952697754,0.16752967238426208
1772729289376344000,10.454343994140626,0.5888736248016357,-3.7766714096069336,0.0795651376247406
1772729289393690600,10.471690673828125,0.20769402384757996,-3.9910850524902344,-0.0694858655333519
1772729289411037200,10.489037109375,0.031154103577136993,-3.286147117614746,-0.23014330863952637
1772729289428384000,10.506384033203124,0.10995566099882126,-2.240346670150757,-0.41645705699920654
1772729289445730600,10.52373046875,-0.08552107214927673,-1.4046835899353027,-0.5905535221099854
1772729289463077000,10.5410771484375,-0.08674279600381851,-1.0137300491333008,-0.8996511101722717
1772729289480424000,10.558423828125,0.06414080411195755,-0.879339873790741,-1.167820692062378
1772729289497770500,10.5757705078125,0.05864302068948746,-0.33200499415397644,-1.059086799621582
1772729289515117300,10.593117431640625,0.07147117704153061,0.48044514656066895,-0.9155336022377014
1772729289532463900,10.6104638671875,-0.06475166976451874,0.8274163603782654,-0.873994767665863
1772729289549810700,10.627810791015625,-0.17592905461788177,0.3857611119747162,-0.9448550939559937
1772729289567157200,10.6451572265625,-0.25473061203956604,-0.40836310386657715,-1.0389282703399658
1772729289584503800,10.66250390625,-0.33108872175216675,-0.9483675956726074,-0.9845613241195679
1772729289601850600,10.6798505859375,-0.5021308660507202,-1.239139199256897,-0.8397863507270813
1772729289619197200,10.697197265625,-0.5607738494873047,-1.4450006484985352,-0.6931788325309753
1772729289636543700,10.714543701171875,-0.5064069032669067,-1.5683953762054443,-0.4909825623035431
1772729289653890600,10.731890625,-0.3225366175174713,-1.592829942703247,-0.23564109206199646
1772729289671237000,10.749237060546875,-0.08796452730894089,-1.461493968963623,0.06001746281981468
1772729289688584000,10.766583984375,0.12095122784376144,-1.0662645101547241,0.3043633699417114
1772729289705930500,10.783930419921875,0.3231474757194519,-0.6582068204879761,0.35017824172973633
1772729289723277000,10.801277099609376,0.4276053309440613,-0.2562577724456787,0.20479241013526917
1772729289740624000,10.818623779296875,0.37323838472366333,0.012522728182375431,-0.04016435891389847
1772729289757970400,10.835970458984375,0.13011419773101807,0.1383608728647232,-0.2655734717845917
1772729289775317200,10.853317138671875,-0.3659079968929291,0.1805105358362198,-0.5606211423873901
1772729289792663800,10.870663818359375,-0.3903425931930542,0.168904110789299,-0.7933606505393982
1772729289810010400,10.88801025390625,-0.35613417625427246,-0.2666424810886383,-0.5862774848937988
1772729289827357200,10.905357177734375,-0.27488914132118225,-0.6881392002105713,-0.09636391699314117
1772729289844703700,10.922703857421874,-0.1288924664258957,-0.6612611413002014,0.6562215089797974
1772729289862050300,10.94005029296875,-0.16004657745361328,-0.16523891687393188,1.2664754390716553
1772729289879397000,10.957397216796876,-0.1795942485332489,0.5042688846588135,1.6012293100357056
1772729289896743700,10.97474365234375,-0.04764745384454727,0.7486147880554199,1.7875430583953857
1772729289914090500,10.992090576171876,-0.012217295356094837,0.3552178740501404,1.8858922719955444
1772729289931437000,11.00943701171875,-0.19425499439239502,0.7718276381492615,1.1992802619934082
1772729289948783600,11.02678369140625,-0.19120067358016968,1.2434152364730835,0.8205441236495972
1772729289966130400,11.04413037109375,-0.034208428114652634,0.4584540128707886,1.0795507431030273
1772729289983477000,11.06147705078125,0.29504770040512085,-0.0870482325553894,0.5090031027793884
1772729290000823800,11.07882373046875,0.5082395076751709,-0.13469567894935608,-0.3113883137702942
1772729290018170400,11.09617041015625,0.4734202027320862,0.15729768574237823,-0.7518218159675598
1772729290035517000,11.113516845703124,0.4477638900279999,0.5946768522262573,-0.986393928527832
1772729290052863700,11.13086376953125,0.28466299176216125,3.845088243484497,-0.060322895646095276
1772729290070210300,11.148210205078126,-0.2712239623069763,9.366084098815918,2.329991102218628
1772729290087556900,11.165556884765625,-0.3023780584335327,7.687427997589111,2.2285873889923096
1772729290104903700,11.182903564453126,-0.33536475896835327,2.542113780975342,1.2035562992095947
1772729290122250200,11.200250244140625,-0.009773836471140385,-0.24342961609363556,0.33490660786628723
1772729290139596800,11.2175966796875,0.3591884970664978,-0.4016436040401459,-0.4225656986236572
1772729290156943600,11.234943603515624,0.43493571877479553,-0.6869174242019653,-0.7713695168495178
1772729290174290200,11.252290283203125,0.40866854786872864,-1.2678498029708862,-0.7933606505393982
1772729290191637000,11.269636962890624,0.33108872175216675,-1.9868377447128296,-0.8715513348579407
1772729290208983600,11.286983642578125,0.11117739230394363,-2.7308709621429443,-1.0994038581848145
1772729290226330000,11.304330078125,-0.05558869615197182,-1.6252057552337646,-0.8141300082206726
1772729290243677000,11.321677001953125,0.10567960888147354,1.3631447553634644,0.2652680277824402
1772729290261023500,11.3390234375,-0.1948658674955368,2.462090492248535,1.086881160736084
1772729290278370300,11.356370361328125,-0.2565632164478302,1.8267911672592163,1.2512037754058838
1772729290295716900,11.373716796875,-0.18692462146282196,1.1163554191589355,0.3813323378562927
1772729290313063400,11.3910634765625,0.02260199747979641,0.6728675365447998,-0.7622065544128418
1772729290330410200,11.40841015625,-0.14294235408306122,0.38698282837867737,-0.5080868005752563
1772729290347756800,11.4257568359375,-0.7067705392837524,-0.5042688846588135,0.13515383005142212
1772729290365103600,11.443103515625,-0.050090912729501724,-2.612974166870117,0.5352702736854553
1772729290382450200,11.4604501953125,0.49480047821998596,-4.079049587249756,0.2952004075050354
1772729290399796700,11.477796630859375,0.33658650517463684,-3.6227335929870605,-0.08170316368341446
1772729290417143600,11.4951435546875,0.41416633129119873,-2.3619086742401123,-0.21914774179458618
1772729290434490000,11.512489990234375,0.235793799161911,-1.5427390336990356,-0.3657552897930145
1772729290451836700,11.529836669921876,-0.15638138353824615,-1.0332777500152588,-0.8330668210983276
1772729290469183500,11.54718359375,-0.15027274191379547,-0.7999274134635925,-1.4396555423736572
1772729290486530000,11.564530029296876,0.008552107028663158,-1.127350926399231,-1.6803362369537354
1772729290503876600,11.581876708984375,0.06475166976451874,-0.8231402635574341,-1.5447243452072144
1772729290521223400,11.599223388671875,0.036651886999607086,0.42363473773002625,-1.2502875328063965
1772729290538570000,11.616570068359374,-0.08613193035125732,1.2348631620407104,-1.1549925804138184
1772729290555916500,11.63391650390625,-0.23762640357017517,0.43829548358917236,-1.1140646934509277
1772729290573263400,11.651263427734374,-0.5308414697647095,-0.9233221411705017,-1.0877974033355713
1772729290590610000,11.66860986328125,-0.6701186895370483,-1.8029674291610718,-1.0206023454666138
1772729290607956700,11.685956787109374,-0.5583304166793823,-2.0381503105163574,-0.7273872494697571
1772729290625303300,11.70330322265625,-0.39828383922576904,-1.8555017709732056,-0.24785839021205902
1772729290642649900,11.72064990234375,-0.21685700118541718,-1.3564252853393555,0.2799287736415863
1772729290659996700,11.73799658203125,-0.04825831577181816,-0.8420770764350891,0.6745474338531494
1772729290677343200,11.75534326171875,0.10995566099882126,-0.5506945848464966,0.8614720702171326
1772729290694689800,11.772689697265625,0.26450446248054504,-0.5653553605079651,0.8211549520492554
1772729290712036600,11.79003662109375,0.33108872175216675,-0.45417797565460205,0.5175551772117615
1772729290729383200,11.807383056640624,0.27366742491722107,-0.011300998739898205,0.2390008419752121
1772729290746729700,11.824729736328125,0.026878049597144127,0.31123560667037964,0.05696314200758934
1772729290764076500,11.84207666015625,-0.3640754222869873,0.42913252115249634,-0.3052796721458435
1772729290781423000,11.859423095703125,-0.31031930446624756,0.5433642268180847,-0.7371610999107361
1772729290798770000,11.87677001953125,-0.3225366175174713,-0.06872228533029556,-0.7835868000984192
1772729290816116500,11.894116455078125,-0.2205221801996231,-0.8378010392189026,-0.494647741317749
1772729290833463000,11.911463134765626,-0.04214967042207718,-0.898276686668396,0.17852523922920227
1772729290850809900,11.928809814453125,-0.006108647678047419,-0.1750127524137497,0.9127846956253052
1772729290868156400,11.946156494140626,-0.1692095398902893,0.5842921733856201,1.4845541715621948
1772729290885503000,11.9635029296875,-0.3042106628417969,0.9178243279457092,1.8034255504608154
1772729290902849800,11.980849853515625,-0.23823726177215576,0.6221657991409302,1.9433135986328125
1772729290920196400,11.9981962890625,-0.35613417625427246,0.05833758786320686,1.780212640762329
1772729290937543000,12.01554296875,-0.2864955961704254,0.9190460443496704,0.901789128780365
1772729290954889700,12.0328896484375,-0.21807873249053955,0.7400626540184021,0.9225585460662842
1772729290972236300,12.050236328125,0.07330377399921417,-0.03817904740571976,0.8388700485229492
1772729290989582800,12.067582763671876,0.4404335021972656,-0.23732095956802368,0.026419902220368385
1772729291006929700,12.0849296875,0.46486809849739075,0.13225223124027252,-0.5911644101142883
1772729291024276200,12.102276123046876,0.4221075773239136,0.572685718536377,-0.9320269227027893
1772729291041623000,12.119623046875,0.48930269479751587,1.3338232040405273,-0.9112575054168701
1772729291058969600,12.136969482421875,-0.1899789422750473,7.771727085113525,1.5645774602890015
1772729291076316200,12.154316162109374,-0.22968515753746033,9.160223007202148,2.4100141525268555
1772729291093663000,12.1716630859375,-0.3555232882499695,4.724123001098633,1.5187625885009766
1772729291111009500,12.189009521484374,-0.23457208275794983,0.4016436040401459,0.7105884552001953
1772729291128356000,12.206356201171875,0.12278381735086441,-0.5018253922462463,-0.11163553595542908
1772729291145703000,12.223702880859374,0.370184063911438,-0.10109812021255493,-0.8226821422576904
1772729291163049500,12.241049560546875,0.41844236850738525,-0.42363473773002625,-0.9082031846046448
1772729291180396000,12.25839599609375,0.38789913058280945,-1.2525782585144043,-0.8122974634170532
1772729291197742800,12.275742919921875,0.1802051067352295,-2.0100505352020264,-0.9558506608009338
1772729291215089400,12.29308935546875,-0.08918625861406326,-1.802356481552124,-1.1782054901123047
1772729291232436000,12.31043603515625,-0.10873392969369888,0.24831652641296387,-0.6174315810203552
1772729291249782800,12.32778271484375,-0.02871064469218254,2.106567144393921,0.41554075479507446
1772729291267129300,12.34512939453125,-0.38850998878479004,1.7553199529647827,0.9659299254417419
1772729291284476200,12.36247607421875,-0.34208428859710693,1.1884374618530273,0.8736893534660339
1772729291301822700,12.37982275390625,-0.13072505593299866,0.9324851036071777,0.016035201027989388
1772729291319169300,12.397169189453125,0.04276053607463837,0.8432988524436951,-0.7744238376617432
1772729291336516000,12.41451611328125,-0.2461785078048706,0.8158099055290222,-0.3254382014274597
1772729291353862700,12.431862548828125,-0.39339691400527954,-0.1542433500289917,0.14798198640346527
1772729291371209200,12.449209228515626,-0.025045456364750862,-2.0998477935791016,0.4137081801891327
1772729291388556000,12.46655615234375,0.45998117327690125,-3.1340417861938477,0.20051635801792145
1772729291405902600,12.483902587890626,0.3133736252784729,-3.035081624984741,-0.13179408013820648
1772729291423249200,12.501249267578125,0.2938259541988373,-2.4572036266326904,-0.14034618437290192
1772729291440596000,12.518595947265625,0.28405213356018066,-1.8292346000671387,-0.18310672044754028
1772729291457942500,12.535942626953124,-0.046425722539424896,-1.302058219909668,-0.48243045806884766
1772729291475289000,12.5532890625,-0.20158538222312927,-1.1499528884887695,-0.9943351149559021
1772729291492636000,12.570635986328124,-0.17653992772102356,-1.2971713542938232,-1.206916093826294
1772729291509982500,12.587982421875,-0.10751219838857651,-1.0577123165130615,-1.1177297830581665
1772729291527329000,12.6053291015625,-0.1130099818110466,-0.2415970265865326,-0.9350812435150146
1772729291544675800,12.62267578125,-0.19914191961288452,0.39186975359916687,-0.7292198538780212
1772729291562022400,12.6400224609375,-0.24740023910999298,0.25992295145988464,-0.7151699662208557
1772729291579369000,12.657368896484375,-0.37201663851737976,-0.2660316228866577,-0.8355103135108948
1772729291596715800,12.6747158203125,-0.42088583111763,-0.9184352159500122,-0.893542468547821
1772729291614062300,12.692062255859375,-0.3530798554420471,-1.4114030599594116,-0.7206677198410034
1772729291631409000,12.709408935546875,-0.2467893660068512,-1.4950915575027466,-0.38102689385414124
1772729291648755700,12.726755615234374,-0.1490510106086731,-1.173776626586914,-0.04260781779885292
1772729291666102300,12.744102294921875,-0.014049889519810677,-0.7357866168022156,0.18035782873630524
1772729291683448800,12.76144873046875,0.0873536616563797,-0.3906480371952057,0.3208567202091217
1772729291700795600,12.778795654296875,0.1649334877729416,-0.24892739951610565,0.3605629503726959
1772729291718142200,12.79614208984375,0.17776164412498474,-0.30634868144989014,0.2591593861579895
1772729291735488800,12.81348876953125,0.07513637095689774,-0.4413498044013977,0.1773035079240799
1772729291752835600,12.830835693359376,-0.031154103577136993,-0.4883863925933838,0.15470150113105774
1772729291770182100,12.84818212890625,-0.2510654330253601,-0.29901832342147827,0.017867794260382652
1772729291787529000,12.865529052734376,-0.3897317349910736,0.06994401663541794,-0.4696022868156433
1772729291804875500,12.88287548828125,-0.2926042377948761,-0.17256930470466614,-0.8318451046943665
1772729291822222000,12.90022216796875,-0.21746785938739777,-1.0161736011505127,-0.8397863507270813
1772729291839568600,12.917568603515624,0.04825831577181816,-1.6398664712905884,-0.6754637360572815
1772729291856915500,12.93491552734375,0.06719512492418289,-1.3191624879837036,-0.17883066833019257
1772729291874262000,12.952261962890624,-0.01954767294228077,-0.05283980444073677,0.624456524848938
1772729291891608600,12.969608642578125,-0.0769689604640007,0.8316923975944519,1.3684898614883423
1772729291908955400,12.986955322265626,-0.09468404203653336,1.1493420600891113,1.909716010093689
1772729291926302000,13.004302001953125,-0.1747073233127594,1.239139199256897,2.087477684020996
1772729291943648800,13.021648681640626,-0.4007273018360138,1.1114684343338013,1.8241949081420898
1772729291960995300,13.038995361328125,-0.2315177470445633,1.5952733755111694,0.7533490061759949
1772729291978342000,13.056341796875,-0.08857539296150208,0.6863065958023071,0.9042325615882874
1772729291995688400,13.0736884765625,0.05497783049941063,-0.07971785217523575,1.0850485563278198
1772729292013035300,13.09103515625,0.45326167345046997,-0.06322450190782547,0.3990474045276642
1772729292030381800,13.1083818359375,0.4581485986709595,0.0412333719432354,-0.44638943672180176
1772729292047728400,13.125728271484375,0.4972439408302307,0.3075704276561737,-0.9540180563926697
1772729292065075200,13.1430751953125,0.5803215503692627,0.6313287615776062,-1.11650812625885
1772729292082421800,13.160421875,0.28954991698265076,5.699062824249268,0.502894401550293
1772729292099768300,13.177768310546876,-0.014049889519810677,9.353256225585938,2.0496039390563965
1772729292117115100,13.195115234375,-0.2419024556875229,5.861553192138672,1.5847359895706177
1772729292134461700,13.212461669921876,-0.34208428859710693,1.2544108629226685,0.7936660647392273
1772729292151808500,13.22980859375,0.0665842592716217,-0.032681263983249664,-0.05971203371882439
1772729292169155000,13.247155029296875,0.3646862804889679,-0.0821613147854805,-0.5074759125709534
1772729292186501600,13.264501708984374,0.32070401310920715,-0.7260127663612366,-0.5337430834770203
1772729292203848200,13.28184814453125,0.3445277214050293,-1.1572833061218262,-0.6467530727386475
1772729292221195000,13.299195068359374,0.3121519088745117,-1.665522813796997,-1.0083850622177124
1772729292238541600,13.31654150390625,-0.07147117704153061,-1.9098687171936035,-1.1837031841278076
1772729292255888100,13.33388818359375,-0.27427828311920166,-0.4572322964668274,-0.9027054309844971
1772729292273235000,13.35123486328125,-0.05925388261675835,1.6435316801071167,-0.003512472379952669
1772729292290581500,13.36858154296875,-0.2828303873538971,1.6514729261398315,0.6519454121589661
1772729292307928000,13.385927978515625,-0.2932150959968567,1.4773764610290527,0.9030108451843262
1772729292325275000,13.40327490234375,-0.09834922850131989,1.5726714134216309,0.3006981909275055
1772729292342621400,13.420621337890625,0.0977383628487587,0.5317577719688416,-0.4017963111400604
1772729292359968000,13.437968017578125,0.002443459117785096,-0.03329212963581085,-0.15378521382808685
1772729292377314800,13.455314697265624,-0.2315177470445633,-0.27091851830482483,0.30314165353775024
1772729292394661400,13.472661376953125,-0.015271619893610477,-1.7052290439605713,0.5688678026199341
1772729292412008000,13.490008056640624,0.4159989058971405,-2.9440627098083496,0.3984365463256836
1772729292429354800,13.507354736328125,0.2205221801996231,-3.090670347213745,0.09605848789215088
1772729292446701300,13.524701416015626,0.21868959069252014,-2.5610506534576416,0.21212279796600342
1772729292464047900,13.5420478515625,0.2968802750110626,-1.821904182434082,0.28664830327033997
1772729292481394700,13.559394775390626,0.22174391150474548,-1.2354739904403687,0.11194097250699997
1772729292498741200,13.5767412109375,-0.06230820715427399,-0.6496546864509583,-0.38408124446868896
1772729292516087800,13.594087890625,-0.2003636509180069,-1.156672477722168,-0.8446732759475708
1772729292533434400,13.611434326171874,-0.0977383628487587,-1.9733986854553223,-1.0651954412460327
1772729292550781200,13.62878125,0.021991131827235222,-1.5427390336990356,-0.9790635108947754
1772729292568127700,13.646127685546874,-0.053756099194288254,-0.7021890878677368,-0.7072287201881409
1772729292585474300,13.663474365234375,-0.28038692474365234,0.01802051067352295,-0.7133373618125916
1772729292602821000,13.680821044921874,-0.3090975880622864,0.11209368705749512,-0.9790635108947754
1772729292620167700,13.698167724609375,-0.32192572951316833,-0.2617555558681488,-1.1916444301605225
1772729292637514200,13.71551416015625,-0.32681265473365784,-0.8805615901947021,-1.1403318643569946
1772729292654861000,13.732861083984375,-0.2889390289783478,-1.3655881881713867,-0.864831805229187
1772729292672207600,13.75020751953125,-0.21258094906806946,-1.4382811784744263,-0.5294670462608337
1772729292689554200,13.76755419921875,-0.09101885557174683,-1.2147046327590942,-0.19837833940982819
1772729292706901000,13.78490087890625,0.09407317638397217,-0.8206968307495117,0.13209950923919678
1772729292724247600,13.80224755859375,0.21197007596492767,-0.4266890585422516,0.4540252387523651
1772729292741594000,13.819593994140625,0.3280344009399414,-0.1597411334514618,0.5090031027793884
1772729292758941000,13.83694091796875,0.3451386094093323,-0.22449280321598053,0.3410152494907379
1772729292776287500,13.85428759765625,0.23396120965480804,-0.40714138746261597,0.17547090351581573
1772729292793634000,13.871634033203126,0.050090912729501724,-0.2868010103702545,0.06673697382211685
1772729292810980600,13.888980712890625,-0.1948658674955368,0.14813470840454102,-0.11346813291311264
1772729292828327400,13.906327392578126,-0.16126830875873566,0.619722306728363,-0.383470356464386
1772729292845674000,13.923674072265625,-0.22479823231697083,0.2257145345211029,-0.33765551447868347
1772729292863020500,13.9410205078125,-0.15149445831775665,-0.4633409380912781,-0.17088942229747772
1772729292880367400,13.958367431640625,-0.12095122784376144,-0.7687733173370361,0.29275694489479065
1772729292897714000,13.9757138671875,-0.21319180727005005,-0.600785493850708,0.8700241446495056
1772729292915060500,13.993060546875,-0.0769689604640007,-0.3399462401866913,1.3025164604187012
1772729292932407300,14.0104072265625,-0.185092031955719,0.03329212963581085,1.6268856525421143
1772729292949753900,14.02775390625,-0.1795942485332489,0.19883649051189423,1.844353437423706
1772729292967100400,14.045100341796875,-0.31093016266822815,0.3637699782848358,1.7808235883712769
1772729292984447200,14.062447265625,-0.2987128794193268,1.6691880226135254,0.8706350326538086
1772729293001793800,14.079793701171875,-0.0873536616563797,1.9190317392349243,0.5462658405303955
1772729293019140400,14.097140380859376,0.16187916696071625,0.9758564829826355,0.687986433506012
1772729293036487000,14.11448681640625,0.45326167345046997,0.5519163012504578,0.3575085997581482
1772729293053833700,14.131833740234375,0.4428769648075104,0.25809037685394287,-0.187382772564888
1772729293071180300,14.14918017578125,0.287106454372406,0.16218459606170654,-0.6327031850814819
1772729293088526800,14.16652685546875,0.205861434340477,0.16829325258731842,-0.8990402221679688
1772729293105873700,14.183873779296874,0.3042106628417969,0.26480987668037415,-1.0389282703399658
1772729293123220200,14.20122021484375,-0.08857539296150208,4.542695999145508,0.975092887878418
1772729293140566800,14.21856689453125,-0.18692462146282196,6.356964111328125,2.081979990005493
1772729293157913600,14.23591357421875,-0.15760311484336853,3.6428921222686768,1.1302525997161865
1772729293175260200,14.25326025390625,-0.001832594396546483,0.6924152374267578,0.1363755613565445
1772729293192606700,14.270606689453125,0.22296564280986786,-0.3686569035053253,-0.37003132700920105
1772729293209953500,14.28795361328125,0.35063639283180237,-1.2415826320648193,-0.5997164845466614
1772729293227300000,14.305300048828125,0.3176496922969818,-1.8719950914382935,-0.7108938694000244
1772729293244646700,14.322646728515625,-0.004886918235570192,-2.0833542346954346,-0.9167553186416626
1772729293261993200,14.3399931640625,-0.1692095398902893,-1.9428554773330688,-1.114675521850586
1772729293279340000,14.357340087890625,-0.03848448023200035,-0.7889318466186523,-1.0083850622177124
1772729293296686600,14.3746865234375,0.25350889563560486,1.5952733755111694,-0.1824958473443985
1772729293314033200,14.392033203125,-0.018325943499803543,2.799287796020508,0.8871283531188965
1772729293331380000,14.4093798828125,-0.0720820426940918,2.3869540691375732,1.3923135995864868
1772729293348726500,14.4267265625,-0.07024945318698883,1.5036436319351196,0.6323977708816528
1772729293366073000,14.444072998046876,-0.011606430634856224,1.1517854928970337,-0.7921388745307922
1772729293383420000,14.461419921875,-0.047036588191986084,0.85918128490448,-0.32299473881721497
1772729293400766500,14.478766357421875,-0.09040798991918564,0.04367683082818985,0.3721693754196167
1772729293418113000,14.496113037109374,0.17898337543010712,-1.3350449800491333,0.6421716213226318
1772729293435459600,14.51345947265625,0.5693259835243225,-2.6398520469665527,0.4198168218135834
1772729293452806400,14.530806396484374,0.29504770040512085,-2.8536548614501953,0.049632761627435684
1772729293470153000,14.548153076171875,0.29077163338661194,-2.3380849361419678,0.02519817277789116
1772729293487499500,14.56549951171875,0.3738492429256439,-1.4511092901229858,0.009926552884280682
1772729293504846000,14.58284619140625,0.2101374864578247,-0.5708531141281128,-0.27229297161102295
1772729293522193000,14.60019287109375,-0.025045456364750862,0.04673115536570549,-0.6039925217628479
1772729293539539500,14.61753955078125,-0.04520399495959282,-0.1340848207473755,-0.6663007736206055
1772729293556886000,14.634885986328126,-0.047036588191986084,-0.7351757884025574,-0.6027708053588867
1772729293574232800,14.65223291015625,-0.04214967042207718,-0.8463531732559204,-0.6296488642692566
1772729293591579400,14.669579345703125,-0.16065743565559387,-0.5018253922462463,-0.9063706398010254
1772729293608926000,14.686926025390624,-0.24740023910999298,-0.291687935590744,-1.2399027347564697
1772729293626272800,14.704272705078125,-0.2626718580722809,-0.44929105043411255,-1.3901755809783936
1772729293643619300,14.721619384765624,-0.2889390289783478,-0.868955135345459,-1.308930516242981
1772729293660966000,14.7389658203125,-0.3084867000579834,-1.3814706802368164,-1.0535889863967896
1772729293678312400,14.7563125,-0.3090975880622864,-1.6771292686462402,-0.7243329286575317
1772729293695659300,14.7736591796875,-0.268169641494751,-1.6337578296661377,-0.3358229100704193
1772729293713005800,14.791005859375,-0.06536252796649933,-1.296560525894165,0.0019853105768561363
1772729293730352400,14.808352294921875,0.13194678723812103,-0.7541125416755676,0.34406960010528564
1772729293747699200,14.82569921875,0.2706131041049957,-0.11209368705749512,0.6873756051063538
1772729293765045800,14.843045654296875,0.3329212963581085,0.3808741867542267,0.7728966474533081
1772729293782392300,14.860392333984375,0.2938259541988373,0.40897396206855774,0.6061305999755859
1772729293799739100,14.8777392578125,0.14294235408306122,-0.17806708812713623,0.3452913165092468
1772729293817085700,14.895085693359375,-0.006108647678047419,-0.5769617557525635,0.05146535858511925
1772729293834432300,14.912432373046874,-0.15638138353824615,-0.2861901521682739,-0.2680169343948364
1772729293851778800,14.92977880859375,-0.23457208275794983,0.3643808364868164,-0.6113229393959045
1772729293869125600,14.947125732421876,-0.3017672002315521,0.1750127524137497,-0.6204859018325806
1772729293886472200,14.96447216796875,-0.21258094906806946,-0.6368265151977539,-0.47204574942588806
1772729293903818800,14.98181884765625,-0.07941242307424545,-1.2134828567504883,-0.14462223649024963
1772729293921165300,14.999165283203125,-0.11117739230394363,-1.1615593433380127,0.35934120416641235
1772729293938512100,15.01651220703125,-0.13011419773101807,-0.46944957971572876,0.8755219578742981
1772729293955858700,15.033858642578124,-0.185092031955719,0.24892739951610565,1.3477203845977783
1772729293973205200,15.051205322265625,-0.07086031138896942,0.5219839811325073,1.7020219564437866
1772729293990551800,15.0685517578125,-0.13255766034126282,0.5030471682548523,1.788153886795044
1772729294007898600,15.085898681640625,-0.3744601011276245,1.2647955417633057,1.021518588066101
1772729294025245200,15.1032451171875,-0.025045456364750862,1.0693187713623047,0.6207913160324097
1772729294042592000,15.120592041015625,0.11056652665138245,0.1078176349401474,0.5780308246612549
1772729294059938600,15.1379384765625,0.42455101013183594,-0.24953825771808624,0.1156061589717865
1772729294077285000,15.15528515625,0.41294458508491516,-0.0021380267571657896,-0.4091266989707947
1772729294094631700,15.172631591796875,0.2510654330253601,0.4211912751197815,-0.7243329286575317
1772729294111978500,15.189978515625,0.21258094906806946,0.8310815095901489,-0.9405790567398071
1772729294129325000,15.207324951171875,-0.10567960888147354,5.064985275268555,0.652556300163269
1772729294146671600,15.224671630859374,-0.24006985127925873,7.988584041595459,2.123518705368042
1772729294164018200,15.24201806640625,-0.2571740746498108,5.068039417266846,1.4546217918395996
1772729294181365000,15.259364990234374,0.009773836471140385,0.8310815095901489,0.6104066371917725
1772729294198711600,15.276711669921875,0.3445277214050293,-0.6924152374267578,0.06795870512723923
1772729294216058000,15.29405810546875,0.3640754222869873,-0.8909462690353394,-0.3718639314174652
1772729294233404700,15.31140478515625,0.20830489695072174,-1.083979606628418,-0.6882919073104858
1772729294250751500,15.32875146484375,0.20158538222312927,-1.2611303329467773,-1.0206023454666138
1772729294268098000,15.34609814453125,-0.0256563201546669,-1.9049818515777588,-1.3498584032058716
1772729294285444600,15.363444580078125,-0.13255766034126282,-2.0662500858306885,-1.3309216499328613
1772729294302791400,15.38079150390625,-0.021380268037319183,0.18906265497207642,-0.771980345249176
1772729294320138000,15.398137939453125,-0.017715077847242355,3.0943355560302734,0.346513032913208
1772729294337484500,15.415484619140624,-0.48563748598098755,2.9019131660461426,0.9463822841644287
1772729294354831000,15.4328310546875,-0.5387827157974243,2.098015069961548,0.838259220123291
1772729294372178000,15.450177978515624,-0.573602020740509,1.979507327079773,-0.013897174037992954
1772729294389524500,15.4675244140625,-0.35185810923576355,1.4462224245071411,-0.5923861265182495
1772729294406871000,15.48487109375,-0.26511532068252563,0.2257145345211029,0.26221370697021484
1772729294424217600,15.502217529296875,-0.3029889166355133,-1.0772600173950195,0.10399972647428513
1772729294441564400,15.519564453125,0.12217295914888382,-2.9135196208953857,0.15775582194328308
1772729294458911000,15.536910888671875,0.49113526940345764,-3.981922149658203,0.10644318908452988
1772729294476257500,15.554257568359375,0.30054548382759094,-2.8927502632141113,0.13454297184944153
1772729294493604000,15.57160400390625,0.5143481492996216,-1.7901391983032227,0.061850059777498245
1772729294510951000,15.588950927734375,0.5888736248016357,-1.0876446962356567,-0.025503603741526604
1772729294528297500,15.60629736328125,0.2101374864578247,-1.0980294942855835,-0.3168860971927643
1772729294545644000,15.62364404296875,-0.1288924664258957,-1.1444551944732666,-0.855057954788208
1772729294562990800,15.640990966796876,-0.23518294095993042,-1.535408616065979,-1.2863285541534424
1772729294580337400,15.65833740234375,-0.05070177838206291,-1.564730167388916,-1.3804017305374146
1772729294597684000,15.67568408203125,-0.02626718580722809,-0.8585704565048218,-1.2625048160552979
1772729294615030500,15.693030517578125,-0.09162971377372742,0.025961752980947495,-1.1024582386016846
1772729294632377300,15.71037744140625,-0.23945899307727814,0.23732095956802368,-1.1268928050994873
1772729294649724000,15.727723876953124,-0.3811796307563782,-0.16096286475658417,-1.3645192384719849
1772729294667070500,15.745070556640625,-0.5766563415527344,-0.9111047983169556,-1.559385061264038
1772729294684417000,15.7624169921875,-0.6023126840591431,-1.7443243265151978,-1.4311034679412842
1772729294701763800,15.779763916015625,-0.4838049113750458,-2.1694862842559814,-0.8862120509147644
1772729294719110400,15.7971103515625,-0.2364046722650528,-1.8719950914382935,-0.16416990756988525
1772729294736457000,15.81445703125,0.06475166976451874,-1.0314451456069946,0.4692968726158142
1772729294753803500,15.831803466796876,0.27427828311920166,-0.16218459606170654,0.8352048993110657
1772729294771150300,15.849150390625,0.4013381600379944,0.23365578055381775,0.9879210591316223
1772729294788497000,15.866496826171876,0.4886918365955353,0.37659814953804016,0.8626937866210938
1772729294805843500,15.883843505859375,0.3335321843624115,0.528092622756958,0.560315728187561
1772729294823190300,15.901190185546875,-0.08002328872680664,0.547029435634613,0.22739441692829132
1772729294840536800,15.918536865234374,-0.41783151030540466,0.6191114783287048,-0.16539163887500763
1772729294857883400,15.93588330078125,-0.2101374864578247,0.8176425099372864,-0.5105302333831787
1772729294875230000,15.95322998046875,-0.40805765986442566,0.3698786199092865,-0.48243045806884766
1772729294892576800,15.97057666015625,-0.23029601573944092,-0.457843154668808,-0.4066832363605499
1772729294909923300,15.98792333984375,-0.1539379209280014,-0.9379828572273254,-0.04932733252644539
1772729294927270000,16.005269775390627,-0.11178825795650482,-0.7608320713043213,0.6159043908119202
1772729294944616400,16.022616455078126,-0.09468404203653336,-0.1585194170475006,1.3458877801895142
1772729294961963300,16.03996337890625,-0.2559523284435272,0.47067132592201233,1.9793546199798584
1772729294979309800,16.057309814453124,-0.2761108875274658,0.7999274134635925,2.330601930618286
1772729294996656400,16.074656494140626,-0.4263836145401001,1.109025001525879,2.28539776802063
1772729295014003000,16.0920029296875,-0.33231043815612793,2.235459566116333,1.2793035507202148
1772729295031349800,16.109349853515624,0.05497783049941063,2.258061647415161,0.6855430006980896
1772729295048696300,16.1266962890625,0.10873392969369888,0.4932733178138733,0.9280562996864319
1772729295066043000,16.14404296875,0.5375609993934631,-0.43890634179115295,0.522442102432251
1772729295083389400,16.161389404296877,0.5797106623649597,-0.5409207344055176,-0.25091269612312317
1772729295100736300,16.178736328125,0.46547895669937134,-0.2776380479335785,-0.7793107628822327
1772729295118082800,16.196082763671875,0.40744680166244507,0.08338304609060287,-1.068860650062561
1772729295135429400,16.213429443359374,0.4172206521034241,0.5439751148223877,-1.1586577892303467
1772729295152776000,16.23077587890625,0.1698204129934311,3.473071813583374,0.06734783947467804
1772729295170122800,16.248122802734375,-0.23518294095993042,6.791289329528809,2.0068435668945312
1772729295187469300,16.26546923828125,-0.22663083672523499,5.245190620422363,1.5975641012191772
1772729295204816000,16.28281591796875,-0.047036588191986084,1.702785611152649,0.32818710803985596
1772729295222162400,16.300162353515624,0.20158538222312927,-0.3808741867542267,-0.3468184769153595
1772729295239509200,16.31750927734375,0.21319180727005005,-1.7846415042877197,-0.5245801210403442
1772729295256855800,16.334855712890626,0.2620609998703003,-2.417497396469116,-0.7872520089149475
1772729295274202400,16.352202392578125,0.008552107028663158,-2.3851215839385986,-1.1769837141036987
1772729295291549000,16.369548828125,-0.2987128794193268,-2.045480728149414,-1.410944938659668
1772729295308895700,16.386895751953126,-0.26878049969673157,-0.9245438575744629,-1.3162609338760376
1772729295326242300,16.4042421875,-0.012217295356094837,0.8475748896598816,-0.7890845537185669
1772729295343588900,16.4215888671875,-0.1380554437637329,3.1835217475891113,0.6757691502571106
1772729295360935400,16.438935302734375,-0.08552107214927673,2.9495606422424316,1.606727123260498
1772729295378282200,16.4562822265625,-0.12461641430854797,1.1352921724319458,1.2023346424102783
1772729295395628800,16.47362890625,0.012217295356094837,-0.5568032264709473,-0.3761399984359741
1772729295412975400,16.490975341796876,-0.24006985127925873,0.364991694688797,-1.205694317817688
1772729295430322000,16.508322021484375,-0.46608981490135193,1.1597267389297485,-0.7389936447143555
1772729295447668700,16.525668701171874,0.015271619893610477,0.6624828577041626,0.37522369623184204
1772729295465015300,16.543015380859377,0.22907429933547974,-1.469435214996338,0.6317868828773499
1772729295482361900,16.56036181640625,0.12950333952903748,-2.475529432296753,0.40698865056037903
1772729295499708400,16.57770849609375,0.1588248461484909,-2.5292856693267822,0.32879796624183655
1772729295517055200,16.59505517578125,0.1496618688106537,-2.32159161567688,0.1302669197320938
1772729295534401800,16.61240185546875,-0.13255766034126282,-1.5189152956008911,-0.503810703754425
1772729295551748400,16.629748291015623,-0.23762640357017517,-1.2061525583267212,-1.00594162940979
1772729295569095000,16.647094970703126,-0.07269290834665298,-1.5457932949066162,-1.1323906183242798
1772729295586441700,16.664441650390625,0.08979712426662445,-1.2617411613464355,-0.9424116611480713
1772729295603788300,16.681788330078124,0.10323614627122879,-0.42791077494621277,-0.569173276424408
1772729295621134800,16.699134765625,-0.006108647678047419,0.5842921733856201,-0.6198750138282776
1772729295638481400,16.7164814453125,-0.1081230640411377,0.990517258644104,-1.0199915170669556
1772729295655828200,16.733828125,-0.23762640357017517,0.15729768574237823,-1.2441788911819458
1772729295673174800,16.7511748046875,-0.29993459582328796,-1.0790926218032837,-1.1287254095077515
1772729295690521300,16.768521240234374,-0.2926042377948761,-1.851225733757019,-0.6565269231796265
1772729295707868000,16.785867919921873,-0.2889390289783478,-1.7070616483688354,-0.06826414167881012
1772729295725214500,16.80321435546875,-0.19425499439239502,-1.0931425094604492,0.5083922147750854
1772729295742561300,16.820561279296875,-0.021380268037319183,-0.5977311730384827,0.901789128780365
1772729295759907800,16.837907958984374,0.07147117704153061,-0.24892739951610565,1.0160208940505981
1772729295777254400,16.85525439453125,0.1081230640411377,-0.17867794632911682,0.9659299254417419
1772729295794601200,16.872601318359376,0.07269290834665298,-0.40897396206855774,0.8272636532783508
1772729295811947800,16.88994775390625,0.12278381735086441,-0.7651081085205078,0.6042979955673218
1772729295829294300,16.90729443359375,0.1594357043504715,-0.8732311725616455,0.1925751268863678
1772729295846641000,16.924640869140624,0.2620609998703003,0.026572618633508682,-0.23686282336711884
1772729295863987500,16.941987548828124,0.39889469742774963,1.574504017829895,-0.689513623714447
1772729295881334300,16.959334228515626,0.07086031138896942,1.6490294933319092,-0.817184329032898
1772729295898680800,16.976680908203125,0.000610864779446274,-0.21227550506591797,-0.772591233253479
1772729295916027400,16.99402734375,0.11545344442129135,-2.3729043006896973,-0.5361865758895874
1772729295933374000,17.0113740234375,0.008552107028663158,-2.302043914794922,0.06673697382211685
1772729295950720500,17.028720458984374,-0.18631376326084137,-0.5989528894424438,1.086881160736084
1772729295968067300,17.0460673828125,-0.1441640853881836,0.8524618148803711,1.9213224649429321
1772729295985414000,17.063413818359376,-0.29626941680908203,1.8188499212265015,2.3226606845855713
1772729296002760400,17.080760498046875,-0.43493571877479553,2.948338747024536,2.0520474910736084
1772729296020107300,17.098107177734374,-0.2834412455558777,3.859138250350952,1.30923593044281
1772729296037453800,17.115453857421876,0.06902772188186646,2.4486515522003174,1.159574031829834
1772729296054800400,17.13280029296875,0.25534147024154663,0.03940077871084213,1.0459532737731934
1772729296072147000,17.15014697265625,0.3402516841888428,-0.9868520498275757,0.44730573892593384
1772729296089493500,17.167493408203125,0.26939135789871216,-0.9410371780395508,-0.2380845546722412
1772729296106840300,17.18484033203125,0.2406807243824005,-0.6692023873329163,-0.7298306822776794
1772729296124187000,17.202186767578127,0.1698204129934311,-0.5952877402305603,-1.0474803447723389
1772729296141533400,17.219533447265626,0.18203771114349365,-0.5971203446388245,-1.3229804039001465
1772729296158880000,17.2368798828125,0.27855435013771057,-0.6435460448265076,-1.4958550930023193
1772729296176226600,17.2542265625,0.2156352698802948,0.0027488914784044027,-1.1238384246826172
1772729296193573400,17.271573486328126,-0.13011419773101807,3.7320783138275146,1.0483967065811157
1772729296210920000,17.288919921875,0.07452550530433655,3.5054476261138916,1.1308634281158447
1772729296228266500,17.3062666015625,0.15210533142089844,1.036332130432129,0.304974228143692
1772729296245613000,17.323613037109375,-0.0977383628487587,-0.3692677617073059,-0.20021092891693115
1772729296262959600,17.340959716796874,-0.16249002516269684,-1.423620343208313,-0.42134398221969604
1772729296280306400,17.358306396484377,-0.22296564280986786,-2.0857977867126465,-0.6504182815551758
1772729296297653000,17.375653076171876,-0.2559523284435272,-1.997833251953125,-1.065806269645691
1772729296314999600,17.39299951171875,-0.10751219838857651,-0.766940712928772,-1.4201078414916992
1772729296332346400,17.410346435546874,0.2260199636220932,0.9556979537010193,-0.8874338269233704
1772729296349693000,17.42769287109375,0.2052505612373352,3.2647669315338135,0.6470585465431213
1772729296367039500,17.44503955078125,0.1893680840730667,3.7882778644561768,1.2145519256591797
1772729296384386000,17.462385986328126,-0.16737695038318634,3.087615966796875,0.6415607333183289
1772729296401732600,17.479732666015625,-0.15515965223312378,1.8811581134796143,-0.07009673118591309
1772729296419079400,17.497079345703124,-0.35063639283180237,0.5989528894424438,0.5120574235916138
1772729296436426000,17.514426025390627,-0.5064069032669067,-1.3503166437149048,0.7032580971717834
1772729296453772500,17.5317724609375,0.026878049597144127,-4.842019557952881,0.3605629503726959
1772729296471119000,17.549119140625,0.29016077518463135,-4.491994380950928,-0.23197589814662933
1772729296488465700,17.566465576171876,0.49602219462394714,-0.44868019223213196,0.5395463109016418
1772729296505812500,17.5838125,0.5693259835243225,0.9269872903823853,0.3715584874153137
1772729296523159000,17.601158935546874,0.20891575515270233,-0.7968730926513672,-0.23747368156909943
1772729296540505600,17.618505615234376,-0.10567960888147354,-1.968511700630188,-0.8232930302619934
1772729296557852200,17.63585205078125,-0.03481929376721382,-1.536630392074585,-1.126281976699829
1772729296575199000,17.653198974609374,0.10018182545900345,-0.600785493850708,-0.8978185057640076
1772729296592545500,17.670545654296873,0.09834922850131989,0.19089524447917938,-0.6217076182365417
1772729296609892000,17.68789208984375,0.000610864779446274,0.29535311460494995,-0.6125446557998657
1772729296627238700,17.70523876953125,-0.16859868168830872,-0.1383608728647232,-0.6724094152450562
1772729296644585200,17.722585205078126,-0.23762640357017517,-0.8164207935333252,-0.7334958910942078
1772729296661932000,17.73993212890625,-0.1649334877729416,-1.2165372371673584,-0.6534726023674011
1772729296679278600,17.757278564453124,-0.09040798991918564,-1.0259474515914917,-0.37064221501350403
1772729296696625200,17.774625244140626,-0.04520399495959282,-0.4725039005279541,-0.13484840095043182
1772729296713971700,17.7919716796875,-0.02932151034474373,-0.1444695144891739,-0.013897174037992954
1772729296731318300,17.809318359375,0.001221729558892548,-0.1798996776342392,0.14859285950660706
1772729296748665000,17.8266650390625,0.13744457066059113,-0.3075704276561737,0.2493855506181717
1772729296766011600,17.84401171875,0.32620179653167725,-0.3436114490032196,0.31780239939689636
1772729296783358200,17.861358154296877,0.39339691400527954,-0.30024003982543945,0.23777911067008972
1772729296800704800,17.878704833984376,0.35246896743774414,-0.2415970265865326,-0.04932733252644539
1772729296818051600,17.896051513671875,0.28038692474365234,-0.2831358313560486,-0.3474293351173401
1772729296835398100,17.913398193359374,-0.12156209349632263,-0.42302384972572327,-0.6272054314613342
1772729296852744700,17.93074462890625,-0.5070177912712097,0.06505709886550903,-0.9973894953727722
1772729296870091300,17.94809130859375,-0.3384190797805786,0.14996729791164398,-1.0352630615234375
1772729296887437800,17.965437744140626,-0.3970620930194855,-0.5329795479774475,-0.6522508859634399
1772729296904784600,17.98278466796875,-0.360410213470459,-0.989906370639801,0.1724165827035904
1772729296922131200,18.000131103515624,-0.47586366534233093,-0.694247841835022,0.9085086584091187
1772729296939477800,18.017477783203127,-0.37812530994415283,-0.23915356397628784,1.6091705560684204
1772729296956824300,18.03482421875,-0.4783071279525757,0.42913252115249634,2.149174928665161
1772729296974171000,18.0521708984375,-0.4422661066055298,0.8170316219329834,2.142455577850342
1772729296991517700,18.069517578125,-0.3500255048274994,0.7449495792388916,1.9121594429016113
1772729297008864300,18.0868642578125,-0.10018182545900345,0.37293294072151184,1.568853497505188
1772729297026210800,18.1042109375,0.008552107028663158,-0.47922343015670776,1.2487603425979614
1772729297043557400,18.121557373046876,-0.056199558079242706,-0.7486147880554199,0.6268999576568604
1772729297060904000,18.138904052734375,0.19364413619041443,0.07849612087011337,-0.22220206260681152
1772729297078250800,18.156250732421874,0.11728604137897491,0.7449495792388916,-0.6424770355224609
1772729297095597300,18.173597412109373,0.018325943499803543,1.2599085569381714,-0.8801034092903137
1772729297112943900,18.19094384765625,0.10445787757635117,1.610545039176941,-1.0890191793441772
1772729297130290400,18.20829052734375,-0.30482152104377747,5.934246063232422,0.17363831400871277
1772729297147637200,18.22563720703125,-0.5253437161445618,8.789427757263184,1.5603013038635254
1772729297164983800,18.24298388671875,-0.4263836145401001,5.382635116577148,1.0807725191116333
1772729297182330400,18.260330322265624,-0.19364413619041443,0.7608320713043213,0.47845983505249023
1772729297199677000,18.277677001953126,0.15821397304534912,-1.0290017127990723,0.03252854943275452
1772729297217023500,18.2950234375,0.19242240488529205,-1.4260637760162354,-0.37919431924819946
1772729297234370000,18.3123701171875,0.21441353857517242,-1.8390084505081177,-0.7163916826248169
1772729297251716900,18.329716796875,0.2724456787109375,-2.428493022918701,-0.9595158696174622
1772729297269063400,18.3470634765625,0.009773836471140385,-2.8316636085510254,-1.0529781579971313
1772729297286410000,18.364409912109377,-0.0873536616563797,-2.2959353923797607,-0.9271399974822998
1772729297303756500,18.381756591796876,0.23457208275794983,-0.35155269503593445,-0.6449204683303833
1772729297321103000,18.39910302734375,0.19181154668331146,3.8432557582855225,0.480903297662735
1772729297338450000,18.416449951171874,0.007330377586185932,6.2934346199035645,1.807701587677002
1772729297355796500,18.43379638671875,-0.29016077518463135,4.066832065582275,1.3910918235778809
1772729297373143000,18.45114306640625,-0.2669478952884674,1.4541635513305664,-0.40118545293807983
1772729297390489600,18.468489501953126,-0.18570289015769958,1.934914231300354,-0.7677043080329895
1772729297407836400,18.48583642578125,-0.2565632164478302,0.5030471682548523,-0.14340050518512726
1772729297425183000,18.503182861328124,-0.32192572951316833,-2.2006404399871826,-0.11652245372533798
1772729297442529500,18.520529541015627,0.2620609998703003,-5.111411094665527,0.35811948776245117
1772729297459876000,18.5378759765625,0.41294458508491516,-5.779086112976074,0.08750637620687485
1772729297477222700,18.55522265625,0.16249002516269684,-3.805382251739502,0.12171480804681778
1772729297494569200,18.5725693359375,0.35124725103378296,-2.120617151260376,0.23167046904563904
1772729297511916000,18.589916015625,0.09285144507884979,-1.2788454294204712,0.03436114266514778
1772729297529262600,18.6072626953125,-0.2162461280822754,-1.2861758470535278,-0.3150535225868225
1772729297546609200,18.624609130859376,-0.15088360011577606,-1.369253396987915,-1.1213949918746948
1772729297563955700,18.641955810546875,0.09162971377372742,-1.0320560932159424,-1.3406955003738403
1772729297581302300,18.65930224609375,0.13255766034126282,-0.22204934060573578,-0.9540180563926697
1772729297598648800,18.67664892578125,0.14294235408306122,0.7602212429046631,-0.9020945429801941
1772729297615995600,18.69399560546875,0.12583814561367035,1.1511746644973755,-1.114675521850586
1772729297633342200,18.71134228515625,0.04825831577181816,0.6710349321365356,-1.2441788911819458
1772729297650688800,18.728688720703126,-0.028099779039621353,-0.17867794632911682,-1.1629338264465332
1772729297668035300,18.746035400390625,-0.1337793916463852,-0.9043853282928467,-0.9546289443969727
1772729297685382100,18.763382080078124,-0.24006985127925873,-1.4920371770858765,-0.6962331533432007
1772729297702728700,18.780728759765626,-0.20158538222312927,-1.5940515995025635,-0.4292852282524109
1772729297720075300,18.7980751953125,-0.0769689604640007,-1.3558143377304077,-0.14278964698314667
1772729297737421800,18.815421875,0.017715077847242355,-1.112079381942749,0.11316270381212234
1772729297754768400,18.832768310546875,0.07941242307424545,-0.9550870656967163,0.458301305770874
1772729297772115000,18.850114990234374,0.17165300250053406,-0.766940712928772,0.6311760544776917
1772729297789461800,18.867461669921877,0.0922405794262886,-0.5250383019447327,0.531605064868927
1772729297806808300,18.884808349609376,-0.06352993845939636,-0.4456258714199066,0.31841325759887695
1772729297824155000,18.90215478515625,-0.24801109731197357,-0.39736753702163696,-0.08536835014820099
1772729297841501400,18.91950146484375,-0.13561198115348816,-0.30451610684394836,-0.5899426341056824
1772729297858848000,18.936847900390624,-0.34086254239082336,-0.4780016839504242,-0.5905535221099854
1772729297876194800,18.95419482421875,-0.27855435013771057,-0.7919861674308777,-0.49220430850982666
1772729297893541400,18.971541259765626,-0.09162971377372742,-0.868955135345459,-0.25641047954559326
1772729297910888000,18.988887939453125,-0.05558869615197182,-0.4309650957584381,0.3202458620071411
1772729297928234500,19.006234375,-0.09896009415388107,-0.008857538923621178,1.089935541152954
1772729297945581000,19.0235810546875,-0.185092031955719,-0.0668896958231926,1.669646143913269
1772729297962927900,19.040927978515626,-0.36651885509490967,0.018631376326084137,2.1607813835144043
1772729297980274400,19.0582744140625,-0.3958403766155243,0.0821613147854805,2.4020731449127197
1772729297997621000,19.07562109375,-0.3952295184135437,0.11759147047996521,1.9317071437835693
1772729298014967600,19.092967529296875,-0.05436696484684944,1.1163554191589355,0.8999565243721008
1772729298032314000,19.110314208984374,0.07757982611656189,0.17073670029640198,0.9799798130989075
1772729298049660700,19.12766064453125,0.40927940607070923,-1.082757830619812,0.6959276795387268
1772729298067007200,19.14500732421875,0.6707295179367065,-0.8897245526313782,0.02153298258781433
1772729298084354000,19.16235400390625,0.6426297426223755,-0.09010255336761475,-0.4738783538341522
1772729298101700600,19.17970068359375,0.5626064538955688,0.4676169753074646,-0.8587231636047363
1772729298119047200,19.197047119140624,0.3274235129356384,2.2702789306640625,-0.4744892120361328
1772729298136393700,19.214393798828127,-0.4734202027320862,8.147409439086914,2.271958827972412
1772729298153740500,19.231740478515626,-0.389120876789093,7.7857770919799805,2.419788122177124
1772729298171087000,19.249087158203125,-0.5235111117362976,3.4248132705688477,1.2762492895126343
1772729298188433700,19.26643359375,-0.17592905461788177,0.39858928322792053,0.44791659712791443
1772729298205780200,19.2837802734375,0.26511532068252563,-0.5494728684425354,-0.19410228729248047
1772729298223126800,19.301126708984373,0.40255987644195557,-0.9966259002685547,-0.6406444311141968
1772729298240473300,19.318473388671876,0.3445277214050293,-1.7809762954711914,-0.8300125002861023
1772729298257820200,19.335820068359375,0.35735589265823364,-2.1926991939544678,-1.0206023454666138
1772729298275166700,19.353166748046874,0.14538581669330597,-2.7516403198242188,-1.3993384838104248
1772729298292513300,19.37051318359375,-0.17592905461788177,-2.2397356033325195,-1.4298816919326782
1772729298309859800,19.38785986328125,-0.26878049969673157,0.5946768522262573,-0.3052796721458435
1772729298327206400,19.405206298828126,-0.38301220536231995,3.5585927963256836,1.1418589353561401
1772729298344553000,19.422552978515625,-0.4563159942626953,1.6887357234954834,1.1534653902053833
1772729298361899500,19.4398994140625,-0.3848448097705841,0.9275981783866882,0.6745474338531494
1772729298379246300,19.457246337890624,-0.16737695038318634,0.7425061464309692,-0.514195442199707
1772729298396593000,19.474593017578126,0.05070177838206291,0.4633409380912781,-0.7567087411880493
1772729298413939500,19.491939453125,-0.17776164412498474,0.3656025826931,-0.25579962134361267
1772729298431286000,19.5092861328125,-0.3249800503253937,-0.4834994673728943,0.06979130208492279
1772729298448632600,19.526632568359375,0.2003636509180069,-2.4321582317352295,0.38927358388900757
1772729298465979400,19.5439794921875,0.3915643095970154,-3.543321132659912,0.46807512640953064
1772729298483326000,19.561325927734377,0.2718348205089569,-3.0491316318511963,0.4387536346912384
1772729298500672500,19.578672607421876,0.33231043815612793,-2.4468188285827637,0.42959064245224
1772729298518019000,19.59601904296875,0.12767073512077332,-1.933692455291748,0.2341139316558838
1772729298535365600,19.61336572265625,-0.20280711352825165,-1.350927472114563,-0.42623090744018555
1772729298552712200,19.630712158203124,-0.2370155304670334,-1.5787800550460815,-1.07863450050354
1772729298570059000,19.64805908203125,-0.0873536616563797,-2.0631957054138184,-1.2655590772628784
1772729298587405600,19.665405517578126,0.021991131827235222,-1.334434151649475,-1.0768018960952759
1772729298604752100,19.682752197265625,-0.056199558079242706,-0.11087195575237274,-0.7829759120941162
1772729298622098700,19.7000986328125,-0.06047561392188072,0.6337721943855286,-0.7139481902122498
1772729298639445200,19.7174453125,-0.10201441496610641,0.6704241037368774,-0.8862120509147644
1772729298656791800,19.734791748046874,-0.17104214429855347,-0.0308486707508564,-0.9558506608009338
1772729298674138600,19.752138671875,-0.21380266547203064,-0.8280271887779236,-0.9344704151153564
1772729298691485200,19.769485107421875,-0.25534147024154663,-1.5610649585723877,-0.8086322546005249
1772729298708831700,19.786831787109374,-0.18325942754745483,-1.7931935787200928,-0.494647741317749
1772729298726178300,19.80417822265625,-0.08307760953903198,-1.4578287601470947,-0.021227551624178886
1772729298743524900,19.82152490234375,0.10079269111156464,-0.9239329695701599,0.3831649422645569
1772729298760871700,19.83887158203125,0.23335035145282745,-0.4260781705379486,0.7093667387962341
1772729298778218200,19.85621826171875,0.2577849328517914,-0.1340848207473755,0.828485369682312
1772729298795564800,19.873564697265625,0.19914191961288452,0.04062250629067421,0.5737547278404236
1772729298812911400,19.890911376953124,0.08063415437936783,-0.10903936624526978,0.06795870512723923
1772729298830258000,19.9082578125,-0.07757982611656189,-0.2556469142436981,-0.342542439699173
1772729298847604500,19.9256044921875,-0.2461785078048706,0.005803215317428112,-0.7145590782165527
1772729298864951000,19.942950927734376,-0.3035998046398163,-0.14813470840454102,-0.5746710300445557
1772729298882297900,19.9602978515625,-0.2370155304670334,-0.8170316219329834,-0.2808450758457184
1772729298899644400,19.97764453125,-0.11728604137897491,-1.275791049003601,-0.15439607203006744
1772729298916991000,19.994990966796873,-0.09468404203653336,-1.047938585281372,0.356286883354187
1772729298934337500,20.012337646484376,-0.17043127119541168,-0.3173442482948303,1.2316560745239258
1772729298951684000,20.02968408203125,-0.4105011224746704,0.5152644515037537,1.9017747640609741
1772729298969030700,20.04703076171875,-0.3445277214050293,0.712573766708374,2.1864378452301025
1772729298986377200,20.064377197265625,-0.3347539007663727,0.3124573230743408,2.1980443000793457
1772729299003724000,20.08172412109375,-0.3909534513950348,0.61117023229599,1.2414299249649048
1772729299021070600,20.099070556640626,-0.10445787757635117,1.0485494136810303,0.6366738080978394
1772729299038417200,20.116417236328125,0.33658650517463684,0.3032943606376648,0.6177369952201843
1772729299055763700,20.133763671875,0.574212908744812,-0.23915356397628784,0.3477347791194916
1772729299073110300,20.1511103515625,0.5748237371444702,0.2507599890232086,-0.12324196845293045
1772729299090456800,20.168456787109374,0.5345066785812378,0.7828232049942017,-0.5710058808326721
1772729299107803600,20.1858037109375,0.4874700903892517,1.0705405473709106,-0.9161444306373596
1772729299125150200,20.203150146484376,0.5564978122711182,1.2977821826934814,-1.0639737844467163
1772729299142496800,20.220496826171875,0.06963858753442764,5.691732406616211,0.9561560750007629
1772729299159843300,20.23784326171875,-0.050090912729501724,7.030137538909912,1.9604177474975586
1772729299177190000,20.25518994140625,-0.043371398001909256,3.956265687942505,1.2231040000915527
1772729299194536400,20.272536376953123,0.14599667489528656,0.8579595685005188,0.1565341055393219
1772729299211883300,20.28988330078125,0.2974911332130432,-0.6423243284225464,-0.5019781589508057
1772729299229229800,20.307229736328125,0.31581708788871765,-1.8396192789077759,-0.718224287033081
1772729299246576400,20.324576416015624,0.29626941680908203,-2.246455192565918,-0.9338595271110535
1772729299263923000,20.3419228515625,-0.13988803327083588,-2.025933027267456,-1.188590168952942
1772729299281269500,20.35926953125,-0.2767217457294464,-1.436448574066162,-1.141553521156311
1772729299298616000,20.376615966796876,0.06963858753442764,1.685070514678955,-0.02306014485657215
1772729299315963000,20.393962890625,0.03481929376721382,4.124253749847412,1.5352559089660645
1772729299333309400,20.411309326171875,-0.2461785078048706,2.486525058746338,1.3788745403289795
1772729299350656000,20.428656005859374,-0.2669478952884674,2.22996187210083,0.18524473905563354
1772729299368002600,20.44600244140625,-0.11239911615848541,1.7663154602050781,-0.8617774844169617
1772729299385349000,20.46334912109375,-0.2522871494293213,0.47922343015670776,-0.2503018379211426
1772729299402695700,20.48069580078125,-0.7098248600959778,-0.7388409376144409,0.10766492038965225
1772729299420042200,20.498042236328125,-0.059864748269319534,-2.470642566680908,0.46257734298706055
1772729299437388800,20.515388916015624,0.5687150955200195,-3.4724607467651367,0.634230375289917
1772729299454735600,20.532735595703127,0.5717694163322449,-2.9935429096221924,0.2341139316558838
1772729299472082200,20.550082275390626,0.4569268524646759,-2.4773621559143066,-0.31810784339904785
1772729299489428700,20.5674287109375,0.389120876789093,-2.4376559257507324,-0.3523162603378296
1772729299506775300,20.584775390625,0.01649334840476513,-2.162155866622925,-0.3468184769153595
1772729299524121900,20.602121826171874,-0.3445277214050293,-1.581834316253662,-0.8165735006332397
1772729299541468400,20.619468505859373,-0.33658650517463684,-1.7290527820587158,-1.0908517837524414
1772729299558815200,20.636815185546876,-0.2779434621334076,-1.7253875732421875,-0.8495602011680603
1772729299576161800,20.654161865234375,-0.20402882993221283,-0.8940005898475647,-0.5306887626647949
1772729299593508400,20.67150830078125,-0.20402882993221283,-0.15668681263923645,-0.47326749563217163
1772729299610855000,20.68885498046875,-0.21135921776294708,-0.04062250629067421,-0.6394227147102356
1772729299628201500,20.706201416015624,-0.3084867000579834,-0.25381430983543396,-0.7964149713516235
1772729299645548000,20.723548095703126,-0.3836230933666229,-0.609948456287384,-0.8703296184539795
1772729299662894600,20.74089453125,-0.3744601011276245,-1.083979606628418,-0.7279980778694153
1772729299680241200,20.7582412109375,-0.32131487131118774,-1.2580760717391968,-0.4842630624771118
1772729299697588000,20.775587890625,-0.20158538222312927,-1.1450660228729248,-0.23136503994464874
1772729299714934500,20.7929345703125,-0.0030543238390237093,-0.8463531732559204,0.0850629210472107
1772729299732281000,20.810281005859373,0.23029601573944092,-0.6484329700469971,0.407599538564682
1772729299749627600,20.827627685546876,0.4862483739852905,-0.6068941354751587,0.5694786906242371
1772729299766974200,20.84497412109375,0.6255255341529846,-0.5048797130584717,0.49250972270965576
1772729299784320800,20.86232080078125,0.5815432667732239,-0.05406153202056885,0.1669187992811203
1772729299801667300,20.879667236328125,0.3451386094093323,0.46456265449523926,-0.26129740476608276
1772729299819014000,20.897013916015624,-0.023212861269712448,0.9776890873908997,-0.7976366877555847
1772729299836360700,20.914360595703126,-0.0977383628487587,1.0986403226852417,-1.1641556024551392
1772729299853707300,20.931707275390625,-0.3194822669029236,0.12186752259731293,-0.9466876983642578
1772729299871053800,20.9490537109375,-0.24740023910999298,-0.7626646757125854,-0.578336238861084
1772729299888400400,20.966400390625,-0.16737695038318634,-0.5561923980712891,0.20418155193328857
1772729299905747000,20.983746826171874,-0.1490510106086731,0.30146175622940063,1.2053889036178589
1772729299923093800,21.00109375,-0.1795942485332489,0.7736602425575256,1.90299654006958
1772729299940440300,21.0184404296875,-0.28038692474365234,1.0595449209213257,2.2499678134918213
1772729299957787000,21.035786865234375,-0.4221075773239136,0.962417483329773,2.326936721801758
1772729299975133400,21.053133544921874,-0.4416552484035492,0.5934551358222961,1.8437426090240479
1772729299992480000,21.07047998046875,-0.16004657745361328,1.0980294942855835,0.6458367705345154
1772729300009826600,21.08782666015625,0.006719512399286032,0.8933897614479065,0.2603811025619507
1772729300027173000,21.105173095703126,0.2828303873538971,0.3087921440601349,-0.01206457894295454
1772729300044519700,21.122519775390625,0.6621774435043335,0.34177884459495544,-0.2637408673763275
1772729300061866500,21.139866455078124,0.5974257588386536,0.7547234296798706,-0.5917752385139465
1772729300079213000,21.157213134765627,0.4557051360607147,1.191491723060608,-0.9283617734909058
1772729300096559600,21.1745595703125,0.40255987644195557,1.416290044784546,-1.2331832647323608
1772729300113906200,21.19190625,0.46425724029541016,2.1493277549743652,-1.2124139070510864
1772729300131252700,21.209252685546875,-0.22663083672523499,7.97514533996582,1.2108867168426514
1772729300148599300,21.226599365234375,-0.3023780584335327,7.366724014282227,1.6537636518478394
1772729300165945900,21.24394580078125,-0.31642794609069824,3.053407669067383,0.819322407245636
1772729300183292700,21.261292724609376,-0.01282816007733345,-0.005803215317428112,-0.06887500733137131
1772729300200639200,21.27863916015625,0.21135921776294708,-1.0687079429626465,-0.40485063195228577
1772729300217985800,21.29598583984375,0.25961753726005554,-1.9281946420669556,-0.5502364635467529
1772729300235332400,21.313332275390625,0.3176496922969818,-2.517679214477539,-0.7322741746902466
1772729300252679000,21.330678955078124,0.1233946830034256,-2.8206682205200195,-1.0053306818008423
1772729300270025500,21.348025390625,-0.21441353857517242,-1.9575161933898926,-1.0841323137283325
1772729300287372000,21.3653720703125,0.02932151034474373,0.44868019223213196,-0.5636754631996155
1772729300304718600,21.382718505859376,0.22174391150474548,3.3508987426757812,0.7099775671958923
1772729300322065200,21.400065185546875,-0.036651886999607086,3.961763620376587,1.3318378925323486
1772729300339412000,21.417411865234374,-0.2938259541988373,3.182910919189453,0.9799798130989075
1772729300356758500,21.434758544921873,-0.3995055556297302,1.7186681032180786,-0.5612320303916931
