time,seconds_elapsed,z,y,x
1772729278917279700,-0.00472021484375,-0.4263836145401001,-1.1001675128936768,0.011606430634856224
1772729278934626600,0.01262646484375,-0.39217519760131836,-1.155145287513733,0.021991131827235222
1772729278951973400,0.029973388671875,-0.04825831577181816,-1.3017528057098389,-0.1130099818110466
1772729278969320000,0.04731982421875,0.3555232882499695,-1.3090832233428955,-0.2919933497905731
1772729278986666800,0.064666748046875,0.48991355299949646,-1.2021819353103638,-0.379347026348114
1772729279003013600,0.081013671875,0.33108872175216675,-0.8778126835823059,-0.18692462146282196
1772729279020360200,0.098360107421875,0.20769402384757996,-0.7452550530433655,0.0818558782339096
1772729279037707000,0.11570703125,0.15699224174022675,-1.156977891921997,0.43982264399528503
1772729279055053800,0.1330537109375,-0.04276053607463837,-1.554650902748108,0.6994401812553406
1772729279072400600,0.150400634765625,-0.3121519088745117,-2.081827163696289,0.6750055551528931
1772729279089747500,0.16774755859375,-0.6200277805328369,-2.218050003051758,0.5870410799980164
1772729279107094300,0.18509423828125,-0.8491020202636719,-2.0696098804473877,0.5485565662384033
1772729279124440800,0.20244091796875,-0.915075421333313,-1.8289291858673096,0.49418962001800537
1772729279141787600,0.21978759765625,-0.758083164691925,-1.5589269399642944,0.535728394985199
1772729279159134500,0.237134521484375,-0.5729911923408508,-1.4080432653427124,0.6023126840591431
1772729279176481300,0.254481201171875,-0.46425724029541016,-1.655443549156189,0.5015199780464172
1772729279193828000,0.271828125,-0.31031930446624756,-2.033568859100342,0.3433060050010681
1772729279211175000,0.2891748046875,-0.08002328872680664,-1.6786564588546753,0.29565855860710144
1772729279228521500,0.306521484375,0.11056652665138245,-0.7037162184715271,0.09957095980644226
1772729279245868300,0.323868408203125,0.15210533142089844,0.040317077189683914,-0.3194822669029236
1772729279263215000,0.341215087890625,-0.09834922850131989,-0.12705987691879272,-0.6169734001159668
1772729279280562000,0.35856201171875,-0.3500255048274994,-0.11056652665138245,-0.6487383842468262
1772729279297908500,0.375908447265625,-0.3341430425643921,-0.05803215503692627,-0.4673115611076355
1772729279315255300,0.39325537109375,-0.347582072019577,-0.31642794609069824,-0.38789913058280945
1772729279332602000,0.41060205078125,-0.08491020649671555,-0.5607738494873047,-0.4318813979625702
1772729279349949000,0.427948974609375,-0.07269290834665298,-1.0115920305252075,-0.3591884970664978
1772729279367295700,0.445295654296875,-0.04520399495959282,-1.737910270690918,-0.4477638900279999
1772729279384642300,0.462642333984375,-0.04581485688686371,-2.5356996059417725,-0.6701186895370483
1772729279401989000,0.479989013671875,-0.17531819641590118,-3.177107810974121,-0.9859357476234436
1772729279419336000,0.4973359375,-0.6707295179367065,-3.486816167831421,-1.323133111000061
1772729279436682800,0.514682861328125,-0.9908226728439331,-3.3041675090789795,-1.630398154258728
1772729279454029600,0.532029541015625,-0.7654135823249817,-3.1166322231292725,-1.8099923133850098
1772729279471376100,0.549376220703125,-0.22846342623233795,-2.7110178470611572,-1.6658282279968262
1772729279488723000,0.566722900390625,0.07391463965177536,-2.5442519187927246,-1.459966778755188
1772729279506069800,0.58406982421875,-0.18814635276794434,-2.939481258392334,-1.777005672454834
1772729279523416600,0.60141650390625,-0.6780598759651184,-3.053713083267212,-2.601062297821045
1772729279540763400,0.618763427734375,-0.9187406301498413,-2.576016664505005,-3.6193737983703613
1772729279558110000,0.63610986328125,-0.8069523572921753,-2.4581198692321777,-4.735423564910889
1772729279575456800,0.653456787109375,0.04153880476951599,-2.6535966396331787,-5.822152137756348
1772729279592803600,0.670803466796875,1.370169758796692,-2.729954719543457,-6.690191268920898
1772729279610150400,0.688150390625,2.768439292907715,-2.8258605003356934,-6.897885322570801
1772729279627497000,0.7054970703125,4.076300621032715,-2.8435754776000977,-6.4751667976379395
1772729279644843800,0.72284375,4.692663192749023,-2.940092086791992,-5.779391765594482
1772729279662190600,0.740190673828125,4.468475818634033,-2.877784013748169,-5.206400394439697
1772729279679537400,0.757537353515625,3.9693994522094727,-2.99751353263855,-4.94617223739624
1772729279696884200,0.77488427734375,3.7757551670074463,-3.257741928100586,-4.841714382171631
1772729279714230800,0.792230712890625,3.875936985015869,-3.82828950881958,-4.738478183746338
1772729279731577600,0.80957763671875,3.819737434387207,-3.788583278656006,-4.137998104095459
1772729279748924400,0.82692431640625,2.919933557510376,-3.238194227218628,-3.254687547683716
1772729279766271200,0.844271240234375,1.646891474723816,-2.4300200939178467,-2.1795654296875
1772729279783617800,0.86161767578125,0.7696896195411682,-1.7812817096710205,-0.4618137776851654
1772729279800964600,0.878964599609375,0.10079269111156464,-2.2791364192962646,1.0916153192520142
1772729279818311400,0.8963115234375,-0.6298015713691711,-2.948033332824707,1.9046764373779297
1772729279835658200,0.913658203125,-0.6047561168670654,-2.903440237045288,2.478278398513794
1772729279853005000,0.931005126953125,-0.6010909676551819,-2.392146587371826,2.2785255908966064
1772729279870351600,0.9483515625,-1.0390809774398804,-1.288313865661621,1.488066554069519
1772729279887698400,0.965698486328125,-1.2229512929916382,-0.28954991698265076,1.1362085342407227
1772729279905045200,0.983045166015625,-0.9914335608482361,0.31154105067253113,0.34208428859710693
1772729279922392000,1.00039208984375,-0.7538071274757385,0.6841685771942139,-0.22418737411499023
1772729279939738600,1.017738525390625,-0.26878049969673157,1.2791508436203003,-0.014660755172371864
1772729279957085400,1.03508544921875,0.37629270553588867,1.36772620677948,0.6462949514389038
1772729279974432300,1.052432373046875,0.4874700903892517,1.2541054487228394,0.8558215498924255
1772729279991779000,1.069779052734375,0.16187916696071625,0.9834923148155212,0.0824667438864708
1772729280009125600,1.087125732421875,-0.36835145950317383,1.025641918182373,-0.8955277800559998
1772729280026472400,1.104472412109375,-0.43860089778900146,0.8008437156677246,-1.0348049402236938
1772729280043819300,1.1218193359375,-0.4728093445301056,0.7318159937858582,-0.5338957905769348
1772729280061166000,1.139166015625,-0.8179479241371155,0.7336485981941223,0.2003636509180069
1772729280078513000,1.156512939453125,-1.249218463897705,-0.411722868680954,0.6114756464958191
1772729280095859500,1.173859375,-0.6963858604431152,0.3170388340950012,0.6792816519737244
1772729280113206300,1.191206298828125,-0.1185077652335167,0.17043127119541168,0.33719736337661743
1772729280130553000,1.208552978515625,0.5821541547775269,0.5216785073280334,0.3995055556297302
1772729280147900000,1.22589990234375,1.128878116607666,0.30482152104377747,0.2779434621334076
1772729280165246500,1.24324658203125,0.8753692507743835,0.6725621223449707,0.09834922850131989
1772729280182593300,1.26059326171875,1.0115920305252075,0.05497783049941063,0.24801109731197357
1772729280199940000,1.277940185546875,0.2822195291519165,-0.16249002516269684,-0.4428769648075104
1772729280217286700,1.29528662109375,-0.35124725103378296,-0.24984370172023773,-1.0873392820358276
1772729280234633500,1.312633544921875,0.029932374134659767,0.06352993845939636,-1.6352850198745728
1772729280251980300,1.329980224609375,0.6169734001159668,0.2932150959968567,-1.719584345817566
1772729280269327000,1.3473271484375,1.0079269409179688,0.19425499439239502,-1.0769546031951904
1772729280286674000,1.364673828125,1.2803726196289062,-0.5968148708343506,-0.4740310609340668
1772729280304020500,1.3820205078125,1.2095122337341309,-1.3060288429260254,0.036651886999607086
1772729280321367300,1.3993671875,0.8374956250190735,-1.3402373790740967,0.9779945015907288
1772729280338714000,1.416714111328125,0.40805765986442566,-0.7354812026023865,2.089768409729004
1772729280356060700,1.434060791015625,0.5009090900421143,-0.5662716627120972,2.302960157394409
1772729280373407500,1.451407470703125,1.6395610570907593,-0.998153030872345,2.4269657135009766
1772729280390754300,1.46875439453125,2.6053383350372314,-1.598022222518921,3.453218698501587
1772729280408101000,1.48610107421875,3.7934703826904297,-1.0879502296447754,4.2650580406188965
1772729280425447700,1.50344775390625,4.224740982055664,-1.2822052240371704,4.090961456298828
1772729280442794500,1.52079443359375,3.3231043815612793,-1.321911334991455,3.1667230129241943
1772729280460141300,1.538141357421875,2.251647472381592,0.3555232882499695,0.8545998334884644
1772729280477488000,1.555488037109375,1.3897173404693604,0.934623122215271,-0.1948658674955368
1772729280494834700,1.572834716796875,1.3384047746658325,0.739757239818573,-0.33047783374786377
1772729280512181500,1.590181396484375,1.7904446125030518,0.2559523284435272,-0.3536907136440277
1772729280529528300,1.6075283203125,1.9162827730178833,-0.3646862804889679,-0.5803215503692627
1772729280546875000,1.624875,1.7989968061447144,-0.6841685771942139,-1.0567960739135742
1772729280564221700,1.6422216796875,1.6316198110580444,-0.6139190793037415,-1.3322961330413818
1772729280581568500,1.659568603515625,1.7140865325927734,-0.22174391150474548,-1.2846486568450928
1772729280598915300,1.676915283203125,1.6774346828460693,0.5943714380264282,-1.3634501695632935
1772729280616262000,1.694261962890625,1.351232886314392,1.609628677368164,-1.7299690246582031
1772729280633608700,1.711608642578125,0.9731075763702393,1.7501275539398193,-2.017075538635254
1772729280650955500,1.72895556640625,0.880256175994873,0.9767727851867676,-0.9022472500801086
1772729280668302000,1.746302001953125,1.120326042175293,0.22418737411499023,0.5216785073280334
1772729280685649000,1.76364892578125,0.831997811794281,-0.4147771894931793,1.4214823246002197
1772729280702995700,1.78099560546875,0.04825831577181816,-1.8741331100463867,1.1557561159133911
1772729280720342300,1.79834228515625,0.03787361457943916,-1.6774346828460693,0.2938259541988373
1772729280737689000,1.815689208984375,0.7171552777290344,-0.8723149299621582,-0.20402882993221283
1772729280755036000,1.833035888671875,1.8955134153366089,-0.7012727856636047,-0.3194822669029236
1772729280772382700,1.8503828125,3.3408195972442627,-0.9804379940032959,-0.30543237924575806
1772729280789729300,1.867729248046875,4.194808483123779,-0.2412915825843811,-0.41783151030540466
1772729280807076000,1.885076171875,4.3072075843811035,2.1728460788726807,-1.065959095954895
1772729280824423000,1.9024228515625,3.7116143703460693,4.697550296783447,-1.8362594842910767
1772729280841769700,1.919769775390625,2.839299440383911,5.378664493560791,-2.361603260040283
1772729280859116300,1.9371162109375,1.842979073524475,5.070788383483887,-2.5027129650115967
1772729280876463000,1.954463134765625,0.23823726177215576,2.174067735671997,0.235793799161911
1772729280893809700,1.9718095703125,-0.7116574645042419,2.070220708847046,1.8765766620635986
1772729280911156500,1.989156494140625,-0.5845975875854492,-0.3481929302215576,1.7482949495315552
1772729280928503300,2.00650341796875,-0.024434590712189674,-1.869246244430542,1.0586286783218384
1772729280945850000,2.02385009765625,0.3426951467990875,-1.239444613456726,0.3451386094093323
1772729280963196700,2.04119677734375,0.36835145950317383,0.07635809481143951,-0.3597993552684784
1772729280980543500,2.05854345703125,0.9731075763702393,1.6267329454421997,-2.033568859100342
1772729280997890300,2.075890380859375,0.49541133642196655,-1.1282672882080078,-1.0299180746078491
1772729281015236900,2.09323681640625,0.17653992772102356,-1.2718204259872437,-0.15760311484336853
1772729281032583700,2.110583740234375,-0.09040798991918564,-0.3280344009399414,0.8014546036720276
1772729281049930500,2.127930419921875,-0.6426297426223755,0.19364413619041443,1.9840887784957886
1772729281067277300,2.14527734375,-0.5900954008102417,0.7476984858512878,3.0946409702301025
1772729281084624000,2.162623779296875,0.14721840620040894,-0.5039634704589844,2.49843692779541
1772729281101970700,2.179970703125,0.23762640357017517,0.46059203147888184,0.9792162179946899
1772729281119317500,2.1973173828125,0.03787361457943916,2.10687255859375,0.143553227186203
1772729281136664000,2.2146640625,-0.5681042671203613,0.7195987105369568,-0.08063415437936783
1772729281154011000,2.232010986328125,-0.9217949509620667,-1.9010112285614014,-0.6346884965896606
1772729281171357400,2.249357421875,-0.22235478460788727,-3.6920666694641113,-1.3811652660369873
1772729281188704300,2.266704345703125,0.8472694754600525,-4.121504783630371,-1.7446298599243164
1772729281206051000,2.284051025390625,0.5674933791160583,-3.6755733489990234,-1.387273907661438
1772729281223398000,2.30139794921875,-0.04520399495959282,-2.243706226348877,-0.6829468011856079
1772729281240744400,2.318744384765625,-0.10995566099882126,-0.5320632457733154,0.1905898153781891
1772729281258091300,2.33609130859375,-0.06841685622930527,-0.06841685622930527,0.04276053607463837
1772729281275438000,2.35343798828125,0.1337793916463852,0.12400554865598679,-0.8381064534187317
1772729281292784600,2.37078466796875,0.39400777220726013,0.9474512934684753,-1.4617993831634521
1772729281310131500,2.38813134765625,0.24801109731197357,1.1459823846817017,-1.349400281906128
1772729281327478300,2.405478271484375,-0.11239911615848541,0.9688315391540527,-0.8356630206108093
1772729281344824800,2.422824951171875,-0.4459312856197357,0.27855435013771057,-0.5913171172142029
1772729281362171600,2.440171630859375,-0.6047561168670654,-0.05497783049941063,-0.6890554428100586
1772729281379518500,2.4575185546875,-0.9120211005210876,-0.45448338985443115,-0.9028581380844116
1772729281396865000,2.474864990234375,-0.953559935092926,-1.1594213247299194,-1.0684025287628174
1772729281414211800,2.4922119140625,-0.5864301919937134,-2.023184061050415,-0.9498947262763977
1772729281431558700,2.50955859375,-0.40255987644195557,-2.6474878787994385,-0.6847794055938721
1772729281448905200,2.5269052734375,-0.40317076444625854,-4.8856964111328125,-0.3659079968929291
1772729281466252000,2.544251953125,-0.28405213356018066,-3.2229225635528564,-0.3842339515686035
1772729281483598800,2.561598876953125,-0.18142683804035187,-2.855181932449341,0.007941242307424545
1772729281500945400,2.5789453125,-0.08918625861406326,-2.671922445297241,0.5241219997406006
1772729281518292200,2.596292236328125,0.0720820426940918,-1.7354668378829956,0.16310089826583862
1772729281535639000,2.61363916015625,0.3292561173439026,-0.2828303873538971,-0.47097674012184143
1772729281552985600,2.630985595703125,0.3341430425643921,0.4043924808502197,-0.6847794055938721
1772729281570332400,2.64833251953125,0.39339691400527954,1.2186752557754517,-0.6291907429695129
1772729281587679200,2.66567919921875,0.05803215503692627,0.963333785533905,-0.29443681240081787
1772729281605025800,2.68302587890625,-0.2981020212173462,0.3042106628417969,0.17348559200763702
1772729281622372600,2.70037255859375,-0.39339691400527954,-0.20891575515270233,0.33658650517463684
1772729281639719400,2.717719482421875,-0.4508182108402252,-0.5583304166793823,0.5491674542427063
1772729281657066000,2.73506591796875,-0.3249800503253937,-0.337808221578598,0.7727439403533936
1772729281674412800,2.752412841796875,-0.08613193035125732,0.29077163338661194,0.6774490475654602
1772729281691759400,2.76975927734375,-0.014049889519810677,0.45937031507492065,0.6126973628997803
1772729281709106200,2.787106201171875,-0.043371398001909256,-0.23335035145282745,0.8106175661087036
1772729281726453000,2.804452880859375,0.1233946830034256,-0.8869756460189819,1.1337649822235107
1772729281743799800,2.8217998046875,0.24556763470172882,-0.7458658814430237,1.3891065120697021
1772729281761146400,2.839146484375,0.4056142270565033,1.250440239906311,1.4043781757354736
1772729281778493200,2.8564931640625,1.2333359718322754,2.1355831623077393,1.3347395658493042
1772729281795840000,2.873840087890625,1.8044945001602173,2.339001178741455,1.50028395652771
1772729281813186600,2.8911865234375,1.8955134153366089,3.0213372707366943,1.2205078601837158
1772729281830533400,2.908533447265625,1.9669846296310425,3.7586510181427,0.5302306413650513
1772729281847880000,2.9258798828125,2.4074180126190186,3.0921974182128906,0.2608392536640167
1772729281865226800,2.943226806640625,1.784335970878601,2.8796164989471436,-0.0720820426940918
1772729281882573600,2.960573486328125,1.4147628545761108,3.188103199005127,-0.3946186602115631
1772729281899920400,2.97792041015625,0.8240565657615662,2.329838275909424,0.8845322132110596
1772729281917267000,2.995266845703125,-1.1209368705749512,4.7708539962768555,2.687804937362671
1772729281934613800,3.01261376953125,-0.47036588191986084,2.4465134143829346,2.355494499206543
1772729281951960300,3.029960205078125,0.3451386094093323,-0.6352993845939636,0.9486730098724365
1772729281969307100,3.04730712890625,0.2809978127479553,-0.10140355676412582,1.1325433254241943
1772729281986654000,3.064654052734375,0.10201441496610641,0.40378162264823914,0.5436696410179138
1772729282004000500,3.08200048828125,-0.004276053514331579,0.7519745230674744,-0.15210533142089844
1772729282021347300,3.099347412109375,-0.0922405794262886,0.7525854110717773,-0.8955277800559998
1772729282038694000,3.11669384765625,-0.40927940607070923,0.45020735263824463,-1.0610721111297607
1772729282056040700,3.134040771484375,-0.7531962990760803,0.33658650517463684,-0.9566142559051514
1772729282073387500,3.151387451171875,-1.0690133571624756,0.5192350745201111,-0.17287473380565643
1772729282090734300,3.168734375,-0.6872228980064392,1.472795009613037,1.1117738485336304
1772729282108081000,3.186080810546875,-1.1404845714569092,1.8918482065200806,1.1129956245422363
1772729282125427700,3.203427734375,-1.1661409139633179,1.7592905759811401,1.1972949504852295
1772729282142774300,3.220774169921875,-0.4520399272441864,0.7458658814430237,0.6261364221572876
1772729282160121000,3.23812109375,-0.24373504519462585,0.17165300250053406,0.21502439677715302
1772729282177468000,3.255468017578125,-0.5174024701118469,-0.9706641435623169,0.5962040424346924
1772729282194814500,3.272814453125,-0.962722897529602,-2.3542728424072266,0.9303470849990845
1772729282212161300,3.290161376953125,-1.2052361965179443,-4.803840637207031,0.32131487131118774
1772729282229508000,3.307508056640625,-1.1643083095550537,-7.4733195304870605,-0.9413426518440247
1772729282246854700,3.324854736328125,-1.397047758102417,-7.28700590133667,-1.6859867572784424
1772729282264201500,3.342201416015625,-0.6811142563819885,-3.850891590118408,-0.6438514590263367
1772729282281548000,3.359548095703125,-0.03787361457943916,-0.9211840629577637,0.06902772188186646
1772729282298894800,3.376894775390625,-0.039706211537122726,0.3133736252784729,-0.003665188793092966
1772729282316241700,3.39424169921875,-0.01954767294228077,0.5516108870506287,-0.1637117564678192
1772729282333588200,3.411588134765625,-0.09651663154363632,0.03481929376721382,-0.28588470816612244
1772729282350935000,3.42893505859375,-0.13744457066059113,-0.3426951467990875,-0.6139190793037415
1772729282368281600,3.446281494140625,-0.14049890637397766,-0.6432406306266785,-0.8759800791740417
1772729282385628400,3.46362841796875,-0.09896009415388107,-0.6340776681900024,-1.0140355825424194
1772729282402975200,3.480975341796875,-0.13255766034126282,-0.31581708788871765,-1.1221586465835571
1772729282420322000,3.498322021484375,-0.17776164412498474,-0.09407317638397217,-1.1429280042648315
1772729282437668600,3.515668701171875,-0.1905898153781891,-0.16676609218120575,-1.0439679622650146
1772729282455015400,3.533015380859375,-0.23762640357017517,-0.2614501118659973,-0.9126319885253906
1772729282472362000,3.550362060546875,-0.41416633129119873,-0.3426951467990875,-0.9468404054641724
1772729282489708800,3.567708740234375,-0.48075059056282043,-0.6181951761245728,-0.9584468603134155
1772729282507055400,3.585055419921875,-0.318871408700943,-1.0164790153503418,-0.7837395071983337
1772729282524402200,3.602402099609375,-0.1740964651107788,-1.2705987691879272,-0.4819723069667816
1772729282541749000,3.6197490234375,-0.046425722539424896,-1.1074978113174438,-0.1331685185432434
1772729282559095600,3.637095458984375,0.06719512492418289,-0.656679630279541,0.12522727251052856
1772729282576442400,3.6544423828125,0.10934479534626007,-0.44470956921577454,0.19853104650974274
1772729282593789200,3.6717890625,0.10567960888147354,-0.4978547990322113,0.19914191961288452
1772729282611135700,3.6891357421875,-0.046425722539424896,-0.6267472505569458,0.13439024984836578
1772729282628482600,3.706482666015625,-0.10690133273601532,-0.6542361974716187,-0.028099779039621353
1772729282645829000,3.7238291015625,-0.06352993845939636,-0.4770853817462921,-0.13744457066059113
1772729282663176000,3.741176025390625,-0.08552107214927673,-0.08674279600381851,-0.13988803327083588
1772729282680522800,3.758522705078125,-0.12950333952903748,0.017104214057326317,-0.01893680728971958
1772729282697869300,3.775869384765625,-0.05558869615197182,-0.1533270627260208,0.38667741417884827
1772729282715216100,3.793216064453125,0.027488915249705315,0.02626718580722809,1.0702351331710815
1772729282732562700,3.810562744140625,-0.039706211537122726,0.3952295184135437,1.464242935180664
1772729282749909500,3.827909423828125,-0.16249002516269684,0.5601630210876465,1.4740166664123535
1772729282767256300,3.84525634765625,-0.23823726177215576,0.4251618981361389,1.3836086988449097
1772729282784603000,3.862602783203125,-0.20952661335468292,-0.05497783049941063,1.3084723949432373
1772729282801949700,3.87994970703125,-0.287106454372406,-0.1178968995809555,0.9327905178070068
1772729282819296500,3.897296630859375,-0.24984370172023773,0.5204567909240723,0.6939423680305481
1772729282836643000,3.91464306640625,-0.16126830875873566,0.2608392536640167,1.0378592014312744
1772729282853990000,3.931989990234375,0.20463970303535461,-0.24373504519462585,0.7837395071983337
1772729282871336400,3.94933642578125,0.5338957905769348,-0.10690133273601532,0.0409279391169548
1772729282888683300,3.966683349609375,0.564439058303833,0.38850998878479004,-0.4214966893196106
1772729282906029800,3.98402978515625,0.5534434914588928,0.7385355234146118,-0.5467239618301392
1772729282923376600,4.001376708984375,0.6517927050590515,1.6444480419158936,-0.43371400237083435
1772729282940723500,4.018723388671875,0.12950333952903748,5.685929298400879,1.0158681869506836
1772729282958070000,4.036070068359375,-0.164322629570961,8.504459381103516,2.434296131134033
1772729282975416800,4.053416748046875,-0.010384701192378998,7.2045392990112305,2.042731761932373
1772729282992763600,4.070763671875,-0.026878049597144127,3.313941478729248,1.137430191040039
1772729283010110200,4.088110107421875,0.11423171311616898,0.32070401310920715,0.45937031507492065
1772729283027457000,4.10545703125,0.25961753726005554,-0.4214966893196106,-0.06780599057674408
1772729283044803600,4.122803466796875,0.19853104650974274,-0.813060998916626,-0.4257727563381195
1772729283062150400,4.140150390625,0.15210533142089844,-1.470962405204773,-0.5864301919937134
1772729283079497000,4.1574970703125,0.14782927930355072,-1.8466442823410034,-0.7996219992637634
1772729283096843800,4.17484375,0.09285144507884979,-2.042120933532715,-0.9126319885253906
1772729283114190600,4.192190673828125,0.1588248461484909,-0.6420188546180725,-0.43921178579330444
1772729283131537200,4.209537109375,0.25900667905807495,2.4263548851013184,0.38240134716033936
1772729283148884000,4.226884033203125,-0.37751442193984985,3.469712018966675,0.8246674537658691
1772729283166230500,4.24423046875,-0.6737838387489319,3.274846076965332,1.0396918058395386
1772729283183577300,4.261577392578125,-0.4459312856197357,2.1673481464385986,0.42821621894836426
1772729283200924200,4.278924072265625,0.17348559200763702,0.7342594861984253,-0.36285367608070374
1772729283218270700,4.296270751953125,0.037262752652168274,-0.17531819641590118,-0.0977383628487587
1772729283235617500,4.313617431640625,-0.3695732057094574,-1.4563016891479492,0.19242240488529205
1772729283252964000,4.330964111328125,-0.0409279391169548,-2.970635414123535,-0.009162971749901772
1772729283270311000,4.348310791015625,0.4428769648075104,-4.328588008880615,-0.15699224174022675
1772729283287657700,4.36565771484375,0.23884813487529755,-4.318202972412109,-0.21868959069252014
1772729283305004300,4.38300439453125,0.06352993845939636,-3.6138761043548584,-0.19425499439239502
1772729283322351000,4.40035107421875,0.17592905461788177,-2.766606569290161,-0.3078758418560028
1772729283339697700,4.41769775390625,-0.09101885557174683,-1.8099923133850098,-0.5106829404830933
1772729283357044500,4.43504443359375,-0.2412915825843811,-1.1722495555877686,-0.8368847370147705
1772729283374391300,4.452391357421875,-0.10323614627122879,-0.9419534802436829,-1.053741693496704
1772729283391737900,4.46973779296875,0.053145237267017365,-0.5442805290222168,-0.924238383769989
1772729283409084700,4.487084716796875,-0.028099779039621353,0.053145237267017365,-0.5937605500221252
1772729283426431200,4.50443115234375,-0.14782927930355072,0.21685700118541718,-0.4783071279525757
1772729283443778000,4.521778076171875,-0.18203771114349365,-0.06780599057674408,-0.6786707639694214
1772729283461124900,4.539124755859375,-0.1747073233127594,-0.30543237924575806,-0.9352339506149292
1772729283478471400,4.556471435546875,-0.21868959069252014,-0.4740310609340668,-1.0140355825424194
1772729283495818200,4.573818359375,-0.24006985127925873,-0.5687150955200195,-0.8594867587089539
1772729283513164800,4.591164794921875,-0.2632827162742615,-0.5815432667732239,-0.6707295179367065
1772729283530511600,4.60851171875,-0.30970844626426697,-0.6230821013450623,-0.5412262082099915
1772729283547858200,4.625858154296875,-0.22724169492721558,-0.7977893948554993,-0.3530798554420471
1772729283565205000,4.643205078125,-0.040317077189683914,-0.8924734592437744,-0.11423171311616898
1772729283582551800,4.6605517578125,0.1802051067352295,-0.6151408553123474,0.056810423731803894
1772729283599898400,4.6778984375,0.3127627670764923,-0.3066541254520416,0.14049890637397766
1772729283617245200,4.6952451171875,0.3897317349910736,-0.20341797173023224,0.15271618962287903
1772729283634591700,4.712591796875,0.29504770040512085,-0.2412915825843811,0.05192350596189499
1772729283651938600,4.7299384765625,0.09407317638397217,-0.40255987644195557,-0.235793799161911
1772729283669285400,4.747285400390625,-0.21991132199764252,-0.36712974309921265,-0.6017017960548401
1772729283686632000,4.7646318359375,-0.3396408259868622,-0.20647229254245758,-0.665842592716217
1772729283703978800,4.781978759765625,-0.24312418699264526,-0.13439024984836578,-0.4471530318260193
1772729283721325300,4.7993251953125,-0.21135921776294708,-0.17165300250053406,-0.20891575515270233
1772729283738672000,4.816672119140625,-0.017715077847242355,-0.31520622968673706,0.3610210716724396
1772729283756018700,4.834018798828125,0.053756099194288254,-0.021380268037319183,1.2809834480285645
1772729283773365500,4.851365478515625,0.003665188793092966,0.4526508152484894,1.7690644264221191
1772729283790712000,4.868712158203125,-0.2412915825843811,0.5375609993934631,1.8747440576553345
1772729283808059000,4.886058837890625,-0.39217519760131836,0.12278381735086441,1.9297218322753906
1772729283825405700,4.90340576171875,-0.32559093832969666,-0.5009090900421143,1.8338160514831543
1772729283842752300,4.920752197265625,-0.20769402384757996,-0.411722868680954,0.9492838382720947
1772729283860099000,4.93809912109375,0.11117739230394363,-0.2620609998703003,0.5497782826423645
1772729283877445600,4.955445556640625,0.24923282861709595,-0.516791582107544,0.46914416551589966
1772729283894792400,4.97279248046875,0.5491674542427063,-0.08429934084415436,0.14294235408306122
1772729283912139000,4.990138916015625,0.6432406306266785,0.5900954008102417,-0.05070177838206291
1772729283929485800,5.00748583984375,0.389120876789093,1.174692988395691,-0.21380266547203064
1772729283946832600,5.02483251953125,0.20769402384757996,1.4752384424209595,-0.3909534513950348
1772729283964179200,5.04217919921875,0.2522871494293213,1.5577051639556885,-0.5717694163322449
1772729283981526000,5.059526123046875,-0.1233946830034256,5.7879438400268555,1.1215476989746094
1772729283998872600,5.07687255859375,-0.27855435013771057,7.746987342834473,2.1019856929779053
1772729284016219400,5.094219482421875,-0.19181154668331146,5.273595809936523,1.5289945602416992
1772729284033566000,5.11156591796875,-0.008552107028663158,1.3628393411636353,0.46364638209342957
1772729284050912800,5.128912841796875,0.20891575515270233,-0.4214966893196106,-0.13500112295150757
1772729284068259600,5.146259521484375,0.2571740746498108,-1.0403027534484863,-0.5436696410179138
1772729284085606100,5.163606201171875,0.3090975880622864,-1.6249003410339355,-0.7715222239494324
1772729284102953000,5.180952880859375,0.22968515753746033,-1.6982040405273438,-0.9694424271583557
1772729284120299500,5.198299560546875,0.027488915249705315,-1.7519601583480835,-1.0403027534484863
1772729284137646300,5.215646240234375,0.14233149588108063,-0.09529490768909454,-0.5693259835243225
1772729284154993000,5.232992919921875,0.35735589265823364,2.5558581352233887,0.6133082509040833
1772729284172339700,5.250339599609375,-0.2614501118659973,3.034776210784912,1.3151918649673462
1772729284189686500,5.2676865234375,-0.3854556679725647,2.4263548851013184,1.2993093729019165
1772729284207033000,5.285033203125,-0.2889390289783478,1.4587451219558716,0.24801109731197357
1772729284224380000,5.3023798828125,-0.03909534588456154,0.9596685767173767,-0.9511164426803589
1772729284241726500,5.3197265625,-0.26389357447624207,0.5296197533607483,-0.3384190797805786
1772729284259073300,5.3370732421875,-0.6255255341529846,-0.675616443157196,-0.07086031138896942
1772729284276419800,5.354419921875,-0.039706211537122726,-2.737895965576172,-0.036651886999607086
1772729284293766700,5.3717666015625,0.46608981490135193,-3.800189733505249,0.2260199636220932
1772729284311113200,5.38911328125,0.33169957995414734,-3.045771837234497,0.039706211537122726
1772729284328460000,5.4064599609375,0.33231043815612793,-2.4214680194854736,-0.2101374864578247
1772729284345806600,5.423806640625,0.31154105067253113,-2.227212905883789,-0.3133736252784729
1772729284363153400,5.4411533203125,-0.03787361457943916,-1.5668681859970093,-0.6627882719039917
1772729284380500000,5.4585,-0.2052505612373352,-1.3897173404693604,-1.1966841220855713
1772729284397846800,5.4758466796875,-0.1331685185432434,-1.470962405204773,-1.5063925981521606
1772729284415193600,5.493193603515625,0.007330377586185932,-1.0238093137741089,-1.3213005065917969
1772729284432540200,5.5105400390625,0.014660755172371864,-0.33658650517463684,-0.8900299668312073
1772729284449887000,5.527886962890625,-0.026878049597144127,0.3170388340950012,-0.7061597108840942
1772729284467233500,5.545233642578125,-0.10506874322891235,0.37140578031539917,-0.8759800791740417
1772729284484580400,5.562580322265625,-0.164322629570961,0.10751219838857651,-1.0360267162322998
1772729284501927000,5.579927001953125,-0.20830489695072174,-0.205861434340477,-1.0128138065338135
1772729284519273700,5.597273681640625,-0.2828303873538971,-0.4935787320137024,-0.8936951756477356
1772729284536620300,5.614620361328125,-0.2864955961704254,-0.7831286191940308,-0.7226530313491821
1772729284553967000,5.631967041015625,-0.1594357043504715,-1.0378592014312744,-0.5039634704589844
1772729284571314000,5.64931396484375,0.003665188793092966,-1.0622938871383667,-0.21746785938739777
1772729284588660500,5.666660400390625,0.18814635276794434,-0.8973603844642639,0.07880155742168427
1772729284606007300,5.68400732421875,0.33658650517463684,-0.7024945020675659,0.2767217457294464
1772729284623353900,5.701353759765625,0.4557051360607147,-0.4508182108402252,0.35063639283180237
1772729284640700700,5.71870068359375,0.3652971386909485,-0.15821397304534912,0.2938259541988373
1772729284658047200,5.736047119140625,0.07941242307424545,-0.09346231073141098,0.10140355676412582
1772729284675394000,5.75339404296875,-0.44348782300949097,-0.2822195291519165,-0.2205221801996231
1772729284692740600,5.77074072265625,-0.5907062292098999,-0.28527384996414185,-0.5174024701118469
1772729284710087400,5.78808740234375,-0.3335321843624115,-0.21502439677715302,-0.6126973628997803
1772729284727434000,5.80543408203125,-0.21258094906806946,-0.1747073233127594,-0.46547895669937134
1772729284744780800,5.82278076171875,-0.20280711352825165,-0.29016077518463135,0.17165300250053406
1772729284762127400,5.84012744140625,-0.24740023910999298,-0.24373504519462585,0.9492838382720947
1772729284779474200,5.85747412109375,-0.20769402384757996,0.053145237267017365,1.3182462453842163
1772729284796820700,5.87482080078125,-0.08002328872680664,0.24984370172023773,1.525940179824829
1772729284814167600,5.89216748046875,0.015271619893610477,0.10934479534626007,1.7165300846099854
1772729284831514000,5.90951416015625,0.15638138353824615,-0.328645259141922,1.830150842666626
1772729284848861000,5.92686083984375,0.04764745384454727,0.24556763470172882,1.1337649822235107
1772729284866207500,5.94420751953125,-0.001832594396546483,0.8698714375495911,0.5387827157974243
1772729284883554300,5.96155419921875,-0.027488915249705315,0.35246896743774414,0.5442805290222168
1772729284900901000,5.978901123046875,0.4373791813850403,-0.020769402384757996,0.2156352698802948
1772729284918247700,5.99624755859375,0.5601630210876465,0.1185077652335167,-0.09468404203653336
1772729284935594500,6.013594482421875,0.45448338985443115,0.3756818473339081,-0.2981020212173462
1772729284952941000,6.030941162109375,0.268169641494751,0.6976075768470764,-0.4618137776851654
1772729284970287900,6.048287841796875,0.11667517572641373,1.0293071269989014,-0.5436696410179138
1772729284987634400,6.065634521484375,-0.7770199775695801,5.428144454956055,1.8014402389526367
1772729285004981200,6.082981201171875,-0.9706641435623169,7.635809898376465,3.3182175159454346
1772729285022327800,6.100327880859375,-0.5876519083976746,5.639503479003906,2.089768409729004
1772729285039674600,6.117674560546875,-0.2516762912273407,1.7470732927322388,0.8393282294273376
1772729285057021200,6.135021240234375,0.15027274191379547,-0.3750709891319275,0.03176496922969818
1772729285074368000,6.152367919921875,0.37629270553588867,-0.8491020202636719,-0.4147771894931793
1772729285091714600,6.169714599609375,0.5082395076751709,-1.240666389465332,-0.6065887212753296
1772729285109061400,6.187061279296875,0.46975502371788025,-1.6615521907806396,-0.6963858604431152
1772729285126408000,6.204407958984375,0.17104214429855347,-1.9657628536224365,-0.8698714375495911
1772729285143754800,6.221754638671875,-0.010384701192378998,-1.7263038158416748,-1.0690133571624756
1772729285161101600,6.2391015625,0.008552107028663158,0.48075059056282043,-0.2822195291519165
1772729285178448100,6.2564482421875,-0.08002328872680664,2.1080944538116455,0.6890554428100586
1772729285195794700,6.273794677734375,-0.2932150959968567,1.3109158277511597,1.0134246349334717
1772729285213141500,6.2911416015625,-0.2981020212173462,1.2724313735961914,0.832608699798584
1772729285230488300,6.30848828125,-0.14110976457595825,1.0958913564682007,-0.2919933497905731
1772729285247835000,6.3258349609375,0.0818558782339096,0.9407317638397217,-0.5491674542427063
1772729285265181700,6.343181640625,-0.17104214429855347,0.360410213470459,0.053145237267017365
1772729285282528300,6.3605283203125,-0.1490510106086731,-0.7739656567573547,0.2761108875274658
1772729285299875000,6.377875,0.32559093832969666,-2.649320602416992,0.5858193039894104
1772729285317221600,6.3952216796875,0.4917461574077606,-3.3298239707946777,0.2779434621334076
1772729285334568400,6.412568359375,0.3225366175174713,-2.721402645111084,-0.2003636509180069
1772729285351915000,6.4299150390625,0.2510654330253601,-1.9822561740875244,-0.3035998046398163
1772729285369261800,6.44726171875,0.13133592903614044,-1.3585633039474487,-0.26450446248054504
1772729285386608400,6.4646083984375,-0.12278381735086441,-0.5845975875854492,-0.4838049113750458
1772729285403955200,6.481955078125,-0.22846342623233795,-0.8246674537658691,-0.823445737361908
1772729285421301800,6.4993017578125,-0.08368847519159317,-1.5418226718902588,-0.9926552772521973
1772729285438648600,6.516648681640625,-0.010995565913617611,-1.0384701490402222,-0.8998038172721863
1772729285455995100,6.5339951171875,-0.07880155742168427,-0.15821397304534912,-0.695164144039154
1772729285473342000,6.551342041015625,-0.14782927930355072,0.2877173125743866,-0.6866120100021362
1772729285490688500,6.5686884765625,-0.205861434340477,0.17104214429855347,-0.8967494964599609
1772729285508035300,6.586035400390625,-0.22724169492721558,-0.11545344442129135,-1.0231984853744507
1772729285525382000,6.6033818359375,-0.21380266547203064,-0.5192350745201111,-0.9272927641868591
1772729285542728700,6.620728759765625,-0.18692462146282196,-0.7727439403533936,-0.7177661061286926
1772729285560075300,6.6380751953125,-0.164322629570961,-0.8503237962722778,-0.5564978122711182
1772729285577422000,6.655422119140625,-0.14599667489528656,-0.8008437156677246,-0.4667007029056549
1772729285594768600,6.6727685546875,-0.06475166976451874,-0.7831286191940308,-0.3799578845500946
1772729285612115500,6.690115478515625,0.10079269111156464,-0.8216131329536438,-0.15638138353824615
1772729285629462000,6.7074619140625,0.20952661335468292,-0.6731730103492737,0.14538581669330597
1772729285646808800,6.724808837890625,0.21135921776294708,-0.41233372688293457,0.27000224590301514
1772729285664155400,6.7421552734375,0.10201441496610641,-0.3805687427520752,0.22846342623233795
1772729285681502200,6.759502197265625,-0.14294235408306122,-0.5809323787689209,0.1081230640411377
1772729285698848800,6.776848876953125,-0.29993459582328796,-0.6487383842468262,-0.17898337543010712
1772729285716195600,6.794195556640625,-0.2510654330253601,-0.4453204274177551,-0.5772672295570374
1772729285733542100,6.811542236328125,-0.21135921776294708,-0.4373791813850403,-0.7183769941329956
1772729285750889000,6.828888916015625,-0.13622283935546875,-0.564439058303833,-0.5143481492996216
1772729285768235500,6.846235595703125,-0.037262752652168274,-0.4508182108402252,-0.031154103577136993
1772729285785582300,6.863582275390625,-0.01649334840476513,0.01588248461484909,0.7476984858512878
1772729285802929000,6.880928955078125,-0.20219624042510986,0.5516108870506287,1.406821608543396
1772729285820275700,6.898275634765625,-0.33169957995414734,0.7770199775695801,1.9028438329696655
1772729285837622300,6.915622314453125,-0.49602219462394714,0.6524035930633545,2.1612396240234375
1772729285854969000,6.932968994140625,-0.46547895669937134,0.1380554437637329,2.081827163696289
1772729285872316000,6.95031591796875,-0.27427828311920166,0.5125155448913574,0.9663881063461304
1772729285889662500,6.967662353515625,-0.09651663154363632,-0.021380268037319183,0.7153226733207703
1772729285907009000,6.985009033203125,0.10567960888147354,-0.6841685771942139,0.5900954008102417
1772729285924355800,7.00235595703125,0.37812530994415283,-0.5558869242668152,0.08063415437936783
1772729285941702400,7.019702392578125,0.48441576957702637,0.23884813487529755,-0.3707949221134186
1772729285959049200,7.03704931640625,0.33169957995414734,1.0225876569747925,-0.6194168925285339
1772729285976395800,7.054395751953125,0.19853104650974274,1.3597849607467651,-0.6921098232269287
1772729285993742600,7.07174267578125,0.19242240488529205,1.4624103307724,-0.7605266571044922
1772729286011089200,7.089089111328125,0.3176496922969818,2.0580034255981445,-0.544891357421875
1772729286028436000,7.10643603515625,-0.3139844834804535,6.507542610168457,1.4917317628860474
1772729286045782500,7.123782470703125,-0.370184063911438,6.154462814331055,1.913839340209961
1772729286063129300,7.14112939453125,-0.22418737411499023,2.6132795810699463,1.1716386079788208
1772729286080476000,7.158475830078125,0.15760311484336853,-0.6505709886550903,0.16615521907806396
1772729286097822700,7.17582275390625,0.27366742491722107,-1.528383731842041,-0.1844811588525772
1772729286115169300,7.193169189453125,0.26022839546203613,-1.8869613409042358,-0.5009090900421143
1772729286132516000,7.21051611328125,0.2522871494293213,-2.2504258155822754,-0.9737184643745422
1772729286149862700,7.227862548828125,-0.10751219838857651,-2.81425404548645,-1.2217295169830322
1772729286167209500,7.24520947265625,-0.2779434621334076,-1.4508038759231567,-0.8888082504272461
1772729286184556000,7.26255615234375,0.13683371245861053,1.5674790143966675,-0.08857539296150208
1772729286201902800,7.27990283203125,-0.07024945318698883,2.737895965576172,0.9859357476234436
1772729286219249400,7.29724951171875,-0.12034036219120026,2.4654502868652344,1.8539745807647705
1772729286236596200,7.31459619140625,-0.13011419773101807,1.3261874914169312,1.2846486568450928
1772729286253942800,7.33194287109375,0.015271619893610477,-0.16004657745361328,-0.5112938284873962
1772729286271289600,7.34928955078125,-0.08552107214927673,-0.3139844834804535,-0.6682860851287842
1772729286288636200,7.36663623046875,-0.13500112295150757,-0.5009090900421143,0.39217519760131836
1772729286305983000,7.38398291015625,0.4459312856197357,-2.414748430252075,1.2150100469589233
1772729286323329500,7.40132958984375,0.9279035925865173,-3.2229225635528564,0.4050033390522003
1772729286340676400,7.41867626953125,0.6963858604431152,-3.138012409210205,-0.4251618981361389
1772729286358023000,7.43602294921875,0.09346231073141098,-2.391535520553589,-0.35735589265823364
1772729286375369700,7.45336962890625,-0.2309068888425827,-2.151465654373169,-0.32681265473365784
1772729286392716300,7.47071630859375,-0.42394015192985535,-2.0806055068969727,-0.526565432548523
1772729286410063000,7.48806298828125,-0.40927940607070923,-1.422093152999878,-1.0610721111297607
1772729286427409700,7.50540966796875,0.16737695038318634,-0.5540543794631958,-1.3732240200042725
1772729286444756500,7.522756591796875,0.2156352698802948,-0.20341797173023224,-1.082452416419983
1772729286462103000,7.54010302734375,0.1496618688106537,0.21197007596492767,-0.729983389377594
1772729286479449900,7.557449951171875,0.07024945318698883,0.4886918365955353,-0.6114756464958191
1772729286496796400,7.57479638671875,0.0256563201546669,0.4318813979625702,-0.6139190793037415
1772729286514143200,7.592143310546875,0.001221729558892548,0.12644900381565094,-0.6255255341529846
1772729286531489800,7.60948974609375,0.01893680728971958,-0.07635809481143951,-0.6560688018798828
1772729286548836400,7.62683642578125,-0.026878049597144127,-0.17592905461788177,-0.6743947267532349
1772729286566183200,7.64418310546875,-0.07147117704153061,-0.32009315490722656,-0.6133082509040833
1772729286583529700,7.66152978515625,-0.13133592903614044,-0.5778780579566956,-0.35613417625427246
1772729286600876500,7.67887646484375,-0.05864302068948746,-0.832608699798584,0.07086031138896942
1772729286618223000,7.69622314453125,0.09590577334165573,-0.8283326625823975,0.3347539007663727
1772729286635570000,7.71356982421875,0.23029601573944092,-0.750141978263855,0.30054548382759094
1772729286652916500,7.73091650390625,0.25900667905807495,-0.6255255341529846,0.0513126403093338
1772729286670263300,7.74826318359375,0.27366742491722107,-0.3695732057094574,-0.13744457066059113
1772729286687609900,7.76560986328125,0.23212862014770508,-0.09468404203653336,-0.12217295914888382
1772729286704956700,7.782956787109375,0.11178825795650482,0.2052505612373352,-0.1380554437637329
1772729286722303200,7.80030322265625,-0.14660754799842834,0.4159989058971405,-0.3335321843624115
1772729286739650000,7.817650146484375,-0.24434591829776764,0.34636032581329346,-0.4917461574077606
1772729286756996600,7.83499658203125,-0.2559523284435272,-0.08857539296150208,-0.5216785073280334
1772729286774343400,7.852343505859375,-0.3536907136440277,-0.5088503360748291,0.02260199747979641
1772729286791690000,7.86968994140625,-0.30054548382759094,-0.4514290690422058,0.9382883310317993
1772729286809036500,7.88703662109375,-0.3640754222869873,-0.05558869615197182,1.7220277786254883
1772729286826383400,7.90438330078125,-0.31581708788871765,0.3127627670764923,2.078772783279419
1772729286843730000,7.92172998046875,-0.03909534588456154,0.4251618981361389,1.9773693084716797
1772729286861076700,7.93907666015625,0.19364413619041443,0.4929678738117218,1.2101231813430786
1772729286878423600,7.956423583984375,0.23823726177215576,0.8460476994514465,0.3396408259868622
1772729286895770000,7.97377001953125,-0.0409279391169548,0.3555232882499695,0.42821621894836426
1772729286913116700,7.99111669921875,0.12034036219120026,-0.06475166976451874,0.4630354940891266
1772729286930463500,8.00846337890625,0.5204567909240723,-0.09101885557174683,-0.12522727251052856
1772729286947810000,8.02581005859375,0.6548470258712769,0.29443681240081787,-0.4166097939014435
1772729286965156900,8.043156982421875,0.4618137776851654,0.7422007322311401,-0.4880809485912323
1772729286982503400,8.06050341796875,0.19608759880065918,1.01708984375,-0.5015199780464172
1772729286999850200,8.077850341796875,0.15210533142089844,1.505781650543213,-0.43371400237083435
1772729287017196800,8.09519677734375,-0.7153226733207703,6.62666130065918,1.9761475324630737
1772729287034543600,8.112543701171875,-0.43310311436653137,7.368861675262451,2.3713769912719727
1772729287051890200,8.12989013671875,-0.3329212963581085,4.078743934631348,1.1698060035705566
1772729287069237000,8.147237060546875,-0.04520399495959282,0.6029235124588013,0.18264856934547424
1772729287086583600,8.16458349609375,0.2620609998703003,-0.6591231226921082,-0.268169641494751
1772729287103930000,8.18193017578125,0.3121519088745117,-1.2913681268692017,-0.4324922561645508
1772729287121277000,8.19927685546875,0.3243691921234131,-1.9987496137619019,-0.5021308660507202
1772729287138623500,8.21662353515625,0.19425499439239502,-2.472169876098633,-0.8741474747657776
1772729287155970300,8.23397021484375,-0.09957095980644226,-2.3958115577697754,-1.0250310897827148
1772729287173316900,8.25131689453125,-0.1692095398902893,-0.5192350745201111,-0.5778780579566956
1772729287190663700,8.26866357421875,0.05803215503692627,2.232710838317871,0.4355465769767761
1772729287208010200,8.28601025390625,-0.20341797173023224,3.154505729675293,1.0274745225906372
1772729287225357000,8.303357177734375,-0.30115634202957153,2.673755168914795,1.0958913564682007
1772729287242703600,8.32070361328125,-0.2883281707763672,1.7043126821517944,-0.040317077189683914
1772729287260050400,8.338050537109375,-0.1178968995809555,1.2229512929916382,-0.667064368724823
1772729287277397000,8.35539697265625,-0.4471530318260193,0.12767073512077332,-0.1185077652335167
1772729287294743600,8.37274365234375,-0.5998691916465759,-1.5968005657196045,0.18264856934547424
1772729287312090400,8.39009033203125,0.14110976457595825,-3.3768606185913086,0.24495677649974823
1772729287329437000,8.40743701171875,0.2834412455558777,-4.026209831237793,0.2052505612373352
1772729287346783700,8.42478369140625,0.13561198115348816,-3.1838271617889404,0.010995565913617611
1772729287364130300,8.44213037109375,0.2883281707763672,-2.3658792972564697,-0.02871064469218254
1772729287381477000,8.45947705078125,0.18875721096992493,-1.8435899019241333,-0.16798780858516693
1772729287398823700,8.47682373046875,-0.07880155742168427,-1.1966841220855713,-0.5766563415527344
1772729287416170500,8.49417041015625,-0.12156209349632263,-1.1600322723388672,-1.1239912509918213
1772729287433517000,8.51151708984375,0.02626718580722809,-1.2089014053344727,-1.3096940517425537
1772729287450863900,8.52886376953125,-0.0030543238390237093,-0.4318813979625702,-1.1722495555877686
1772729287468210400,8.54621044921875,-0.010384701192378998,0.4520399272441864,-0.9101884961128235
1772729287485557200,8.56355712890625,-0.06780599057674408,0.7984002828598022,-0.9517273306846619
1772729287502903800,8.58090380859375,-0.1899789422750473,0.43982264399528503,-1.1869102716445923
1772729287520250400,8.59825048828125,-0.28954991698265076,-0.23884813487529755,-1.2968659400939941
1772729287537597200,8.61559716796875,-0.3946186602115631,-0.9999856352806091,-1.183245062828064
1772729287554943700,8.63294384765625,-0.46975502371788025,-1.6615521907806396,-0.8619301915168762
1772729287572290600,8.65029052734375,-0.44348782300949097,-1.904065489768982,-0.40927940607070923
1772729287589637000,8.66763720703125,-0.21135921776294708,-1.6810998916625977,0.028099779039621353
1772729287606983700,8.684983642578125,0.03787361457943916,-1.1380411386489868,0.2828303873538971
1772729287624330500,8.70233056640625,0.19730933010578156,-0.6988292932510376,0.41355544328689575
1772729287641677000,8.719677001953125,0.33536475896835327,-0.40317076444625854,0.34086254239082336
1772729287659024000,8.73702392578125,0.37629270553588867,-0.050090912729501724,0.08124501258134842
1772729287676370400,8.754370361328125,0.16615521907806396,0.27488914132118225,-0.06719512492418289
1772729287693717200,8.77171728515625,-0.1380554437637329,0.3042106628417969,-0.09101885557174683
1772729287711063800,8.789063720703124,-0.45998117327690125,0.06536252796649933,-0.13500112295150757
1772729287728410600,8.80641064453125,-0.23884813487529755,-0.3384190797805786,-0.2052505612373352
1772729287745757200,8.823757080078124,-0.3237583339214325,-0.7898481488227844,-0.23945899307727814
1772729287763104000,8.84110400390625,-0.1844811588525772,-1.0067051649093628,-0.3402516841888428
1772729287780450600,8.858450439453126,-0.023823726922273636,-0.9334014058113098,-0.0256563201546669
1772729287797797000,8.875797119140625,-0.03848448023200035,-0.21685700118541718,0.5039634704589844
1772729287815144000,8.89314404296875,-0.0922405794262886,0.471587598323822,1.1520910263061523
1772729287832490500,8.910490478515625,-0.08857539296150208,0.6267472505569458,1.7825034856796265
1772729287849837300,8.92783740234375,-0.01893680728971958,0.41416633129119873,2.2223260402679443
1772729287867183900,8.945183837890625,-0.018325943499803543,0.1692095398902893,2.219271659851074
1772729287884530700,8.96253076171875,-0.1844811588525772,1.2351685762405396,1.1795798540115356
1772729287901877200,8.979877197265624,-0.11178825795650482,1.2932007312774658,0.6224712133407593
1772729287919224000,8.99722412109375,-0.21930044889450073,-0.6212494969367981,0.9908226728439331
1772729287936570600,9.014570556640624,0.4508182108402252,-0.4581485986709595,0.010995565913617611
1772729287953917200,9.031917236328125,0.5778780579566956,-0.23335035145282745,-0.748920202255249
1772729287971264000,9.049263916015626,0.471587598323822,-0.10201441496610641,-0.9413426518440247
1772729287988610600,9.066610595703125,0.4196641147136688,0.17653992772102356,-0.9224058389663696
1772729288005957400,9.083957275390626,0.3744601011276245,2.9804091453552246,0.04520399495959282
1772729288023304000,9.101303955078125,-0.05436696484684944,9.001092910766602,2.609614372253418
1772729288040650800,9.118650634765626,-0.10690133273601532,7.792191028594971,2.676809549331665
1772729288057997300,9.135997314453125,-0.24984370172023773,2.4514002799987793,1.3793326616287231
1772729288075344000,9.15334375,-0.11362084746360779,-0.0409279391169548,0.268169641494751
1772729288092690700,9.170690673828124,0.25350889563560486,0.44959646463394165,-0.5815432667732239
1772729288110037200,9.188037353515625,0.2657261788845062,-0.08491020649671555,-0.5894845128059387
1772729288127384000,9.205384033203124,0.14477495849132538,-0.9566142559051514,-0.3842339515686035
1772729288144730600,9.222730712890625,0.17165300250053406,-1.5570943355560303,-0.6389645338058472
1772729288162077400,9.240077392578126,0.1233946830034256,-2.3402230739593506,-0.9498947262763977
1772729288179424000,9.257424072265625,0.0665842592716217,-2.084270715713501,-0.6688969135284424
1772729288196770600,9.2747705078125,0.10567960888147354,0.21197007596492767,0.3610210716724396
1772729288214117400,9.292117431640625,-0.1747073233127594,1.7091996669769287,0.9492838382720947
1772729288231464000,9.3094638671875,-0.3964512348175049,2.218050003051758,1.153923511505127
1772729288248810800,9.326810791015625,-0.37751442193984985,2.265697479248047,0.6023126840591431
1772729288266157300,9.3441572265625,-0.08491020649671555,1.6212351322174072,-0.516791582107544
1772729288283504000,9.361504150390624,-0.04459312930703163,0.7819069027900696,-0.7067705392837524
1772729288300850700,9.3788505859375,-0.47036588191986084,-0.3042106628417969,-0.2761108875274658
1772729288318197200,9.396197265625,-0.516791582107544,-2.397644281387329,0.14294235408306122
1772729288335544000,9.4135439453125,0.5174024701118469,-4.786736488342285,0.24862197041511536
1772729288352890600,9.430890625,0.7953459620475769,-4.064083576202393,0.003665188793092966
1772729288370237400,9.448237548828125,0.49052441120147705,-2.5363106727600098,-0.2987128794193268
1772729288387584000,9.465583984375,0.28038692474365234,-1.7067562341690063,-0.3298669755458832
1772729288404930800,9.482930908203125,-0.02871064469218254,-1.4856231212615967,-0.5827649831771851
1772729288422277400,9.50027734375,-0.235793799161911,-1.0201442241668701,-1.1478148698806763
1772729288439624000,9.5176240234375,-0.12278381735086441,-0.7513636946678162,-1.527161955833435
1772729288456970800,9.534970703125,-0.01893680728971958,-0.6200277805328369,-1.3280199766159058
1772729288474317300,9.5523173828125,-0.02626718580722809,0.18203771114349365,-0.9841031432151794
1772729288491664100,9.5696640625,-0.21380266547203064,0.9676098227500916,-0.7531962990760803
1772729288509010700,9.5870107421875,-0.3536907136440277,0.9285144805908203,-0.768467903137207
1772729288526357500,9.604357421875,-0.41844236850738525,0.03481929376721382,-0.9615011811256409
1772729288543704000,9.6217041015625,-0.5571087002754211,-0.9584468603134155,-1.0916153192520142
1772729288561050600,9.639050537109375,-0.6939423680305481,-1.6762129068374634,-1.0378592014312744
1772729288578397400,9.6563974609375,-0.6249146461486816,-2.000582218170166,-0.730594277381897
1772729288595744000,9.673743896484375,-0.5039634704589844,-1.8295400142669678,-0.2626718580722809
1772729288613090800,9.6910908203125,-0.35185810923576355,-1.4098758697509766,0.18631376326084137
1772729288630437400,9.708437255859375,-0.12278381735086441,-1.0396918058395386,0.5479456782341003
1772729288647784000,9.725783935546875,0.08002328872680664,-0.7171552777290344,0.7195987105369568
1772729288665130800,9.743130859375,0.24862197041511536,-0.401949018239975,0.6695078015327454
1772729288682477300,9.760477294921875,0.3121519088745117,-0.03237583488225937,0.4465421438217163
1772729288699824000,9.77782421875,0.258395791053772,0.0818558782339096,0.2516762912273407
1772729288717170700,9.795170654296875,0.0922405794262886,0.06475166976451874,0.11728604137897491
1772729288734517500,9.812517578125,-0.16187916696071625,0.1490510106086731,-0.02260199747979641
1772729288751864000,9.829864013671875,-0.4221075773239136,0.48930269479751587,-0.2968802750110626
1772729288769210600,9.847210693359376,-0.16737695038318634,0.565049946308136,-0.545502245426178
1772729288786557400,9.864557373046875,-0.19364413619041443,-0.27488914132118225,-0.4098902642726898
1772729288803904000,9.881904052734376,-0.23823726177215576,-0.8179479241371155,-0.020769402384757996
1772729288821250800,9.899250732421875,-0.32009315490722656,-0.711046576499939,0.7641918659210205
1772729288838597400,9.916597412109375,-0.17776164412498474,-0.6163625717163086,1.6230677366256714
1772729288855944000,9.93394384765625,0.023823726922273636,-0.007330377586185932,2.106261730194092
1772729288873290800,9.951290771484375,-0.08429934084415436,0.32681265473365784,2.386037826538086
1772729288890637300,9.96863720703125,-0.3225366175174713,0.5754346251487732,2.3060145378112793
1772729288907984100,9.985984130859375,-0.37140578031539917,1.8191553354263306,1.227838158607483
1772729288925330700,10.00333056640625,-0.3426951467990875,1.074511170387268,1.431867003440857
1772729288942677500,10.020677490234375,-0.07819069176912308,0.023212861269712448,1.1136064529418945
1772729288960024000,10.038024169921876,0.7238747477531433,0.471587598323822,-0.25961753726005554
1772729288977370600,10.05537060546875,0.8539889454841614,0.23212862014770508,-1.026863694190979
1772729288994717400,10.072717529296876,0.5540543794631958,0.006108647678047419,-1.1270455121994019
1772729289012064000,10.09006396484375,0.2987128794193268,0.007941242307424545,-1.099556565284729
1772729289029410600,10.10741064453125,0.16554436087608337,1.2956441640853882,-0.62857985496521
1772729289046757400,10.12475732421875,-0.5296197533607483,7.439722061157227,2.207665205001831
1772729289064104000,10.14210400390625,-0.3139844834804535,7.316938400268555,2.299294948577881
1772729289081450800,10.15945068359375,-0.34208428859710693,2.9718570709228516,1.1270455121994019
1772729289098797300,10.17679736328125,-0.000610864779446274,0.26511532068252563,0.40866854786872864
1772729289116144000,10.19414404296875,0.33597561717033386,-0.16554436087608337,-0.15515965223312378
1772729289133490700,10.21149072265625,0.40805765986442566,-0.3445277214050293,-0.6236929297447205
1772729289150837200,10.228837158203126,0.48441576957702637,-0.7147117853164673,-0.8998038172721863
1772729289168184000,10.24618408203125,0.41294458508491516,-1.1160500049591064,-0.9944878816604614
1772729289185530600,10.263530517578126,0.0513126403093338,-1.8319834470748901,-1.191797137260437
1772729289202877400,10.28087744140625,-0.1130099818110466,-1.4587451219558716,-1.0311397314071655
1772729289220224000,10.29822412109375,0.08307760953903198,1.331685185432434,0.08063415437936783
1772729289237570600,10.315570556640624,0.03543015569448471,2.5894558429718018,0.6200277805328369
1772729289254917400,10.33291748046875,-0.4056142270565033,2.386648654937744,0.6786707639694214
1772729289272264000,10.350263916015624,-0.3341430425643921,2.1746785640716553,0.41783151030540466
1772729289289610800,10.36761083984375,-0.009773836471140385,1.6322306394577026,-0.3023780584335327
1772729289306957300,10.384957275390626,0.12400554865598679,0.9847140312194824,-0.6151408553123474
1772729289324304000,10.402303955078125,-0.164322629570961,0.27855435013771057,-0.07880155742168427
1772729289341650700,10.419650634765626,-0.5106829404830933,-1.092226266860962,0.10567960888147354
1772729289358997200,10.436997314453125,0.13194678723812103,-2.6224424839019775,0.18264856934547424
1772729289376344000,10.454343994140626,0.5907062292098999,-3.785529136657715,0.09468404203653336
1772729289393690600,10.471690673828125,0.20952661335468292,-3.9999425411224365,-0.05436696484684944
1772729289411037200,10.489037109375,0.03298669680953026,-3.2950046062469482,-0.21502439677715302
1772729289428384000,10.506384033203124,0.11178825795650482,-2.249204158782959,-0.4013381600379944
1772729289445730600,10.52373046875,-0.08368847519159317,-1.4135410785675049,-0.5754346251487732
1772729289463077000,10.5410771484375,-0.08491020649671555,-1.0225876569747925,-0.8845322132110596
1772729289480424000,10.558423828125,0.06597339361906052,-0.8881973624229431,-1.1527018547058105
1772729289497770500,10.5757705078125,0.06047561392188072,-0.34086254239082336,-1.0439679622650146
1772729289515117300,10.593117431640625,0.07330377399921417,0.471587598323822,-0.9004147052764893
1772729289532463900,10.6104638671875,-0.06291907280683517,0.8185588121414185,-0.8588758707046509
1772729289549810700,10.627810791015625,-0.1740964651107788,0.37690356373786926,-0.9297361969947815
1772729289567157200,10.6451572265625,-0.2528980076313019,-0.4172206521034241,-1.0238093137741089
1772729289584503800,10.66250390625,-0.3292561173439026,-0.9572250843048096,-0.9694424271583557
1772729289601850600,10.6798505859375,-0.500298261642456,-1.2479966878890991,-0.8246674537658691
1772729289619197200,10.697197265625,-0.5589412450790405,-1.4538581371307373,-0.6780598759651184
1772729289636543700,10.714543701171875,-0.5045742988586426,-1.5772528648376465,-0.47586366534233093
1772729289653890600,10.731890625,-0.32070401310920715,-1.6016874313354492,-0.2205221801996231
1772729289671237000,10.749237060546875,-0.08613193035125732,-1.4703515768051147,0.07513637095689774
1772729289688584000,10.766583984375,0.12278381735086441,-1.0751219987869263,0.3194822669029236
1772729289705930500,10.783930419921875,0.3249800503253937,-0.667064368724823,0.3652971386909485
1772729289723277000,10.801277099609376,0.42943793535232544,-0.26511532068252563,0.21991132199764252
1772729289740624000,10.818623779296875,0.3750709891319275,0.003665188793092966,-0.025045456364750862
1772729289757970400,10.835970458984375,0.13194678723812103,0.12950333952903748,-0.25045454502105713
1772729289775317200,10.853317138671875,-0.3640754222869873,0.17165300250053406,-0.545502245426178
1772729289792663800,10.870663818359375,-0.38850998878479004,0.16004657745361328,-0.778241753578186
1772729289810010400,10.88801025390625,-0.3543015718460083,-0.27550002932548523,-0.5711585879325867
1772729289827357200,10.905357177734375,-0.2730565667152405,-0.6969966888427734,-0.08124501258134842
1772729289844703700,10.922703857421874,-0.12705987691879272,-0.6701186895370483,0.6713404059410095
1772729289862050300,10.94005029296875,-0.15821397304534912,-0.1740964651107788,1.2815942764282227
1772729289879397000,10.957397216796876,-0.17776164412498474,0.49541133642196655,1.616348147392273
1772729289896743700,10.97474365234375,-0.04581485688686371,0.739757239818573,1.8026620149612427
1772729289914090500,10.992090576171876,-0.010384701192378998,0.34636032581329346,1.9010112285614014
1772729289931437000,11.00943701171875,-0.19242240488529205,0.7629700899124146,1.2143992185592651
1772729289948783600,11.02678369140625,-0.1893680840730667,1.2345577478408813,0.8356630206108093
1772729289966130400,11.04413037109375,-0.03237583488225937,0.44959646463394165,1.0946696996688843
1772729289983477000,11.06147705078125,0.2968802750110626,-0.09590577334165573,0.5241219997406006
1772729290000823800,11.07882373046875,0.5100721120834351,-0.143553227186203,-0.29626941680908203
1772729290018170400,11.09617041015625,0.47525280714035034,0.1484401375055313,-0.7367029190063477
1772729290035517000,11.113516845703124,0.44959646463394165,0.5858193039894104,-0.9712749719619751
1772729290052863700,11.13086376953125,0.2864955961704254,3.836230754852295,-0.04520399495959282
1772729290070210300,11.148210205078126,-0.26939135789871216,9.357226371765137,2.3451099395751953
1772729290087556900,11.165556884765625,-0.30054548382759094,7.67857027053833,2.243706226348877
1772729290104903700,11.182903564453126,-0.3335321843624115,2.5332562923431396,1.2186752557754517
1772729290122250200,11.200250244140625,-0.007941242307424545,-0.2522871494293213,0.3500255048274994
1772729290139596800,11.2175966796875,0.3610210716724396,-0.4105011224746704,-0.40744680166244507
1772729290156943600,11.234943603515624,0.4367683231830597,-0.6957749724388123,-0.7562506198883057
1772729290174290200,11.252290283203125,0.4105011224746704,-1.276707410812378,-0.778241753578186
1772729290191637000,11.269636962890624,0.3329212963581085,-1.9956952333450317,-0.8564324378967285
1772729290208983600,11.286983642578125,0.1130099818110466,-2.7397284507751465,-1.084285020828247
1772729290226330000,11.304330078125,-0.053756099194288254,-1.6340632438659668,-0.7990111112594604
1772729290243677000,11.321677001953125,0.10751219838857651,1.3542872667312622,0.28038692474365234
1772729290261023500,11.3390234375,-0.19303326308727264,2.453233003616333,1.102000117301941
1772729290278370300,11.356370361328125,-0.25473061203956604,1.8179335594177246,1.2663227319717407
1772729290295716900,11.373716796875,-0.185092031955719,1.1074978113174438,0.3964512348175049
1772729290313063400,11.3910634765625,0.024434590712189674,0.6640099883079529,-0.7470875978469849
1772729290330410200,11.40841015625,-0.14110976457595825,0.37812530994415283,-0.4929678738117218
1772729290347756800,11.4257568359375,-0.7049379348754883,-0.5131264328956604,0.15027274191379547
1772729290365103600,11.443103515625,-0.04825831577181816,-2.6218316555023193,0.5503891706466675
1772729290382450200,11.4604501953125,0.49663305282592773,-4.087907314300537,0.31031930446624756
1772729290399796700,11.477796630859375,0.3384190797805786,-3.6315910816192627,-0.0665842592716217
1772729290417143600,11.4951435546875,0.4159989058971405,-2.3707661628723145,-0.20402882993221283
1772729290434490000,11.512489990234375,0.23762640357017517,-1.5515965223312378,-0.35063639283180237
1772729290451836700,11.529836669921876,-0.1545487940311432,-1.0421353578567505,-0.8179479241371155
1772729290469183500,11.54718359375,-0.1484401375055313,-0.8087849617004395,-1.4245367050170898
1772729290486530000,11.564530029296876,0.010384701192378998,-1.1362085342407227,-1.665217399597168
1772729290503876600,11.581876708984375,0.0665842592716217,-0.831997811794281,-1.5296053886413574
1772729290521223400,11.599223388671875,0.03848448023200035,0.4147771894931793,-1.2351685762405396
1772729290538570000,11.616570068359374,-0.08429934084415436,1.2260055541992188,-1.1398736238479614
1772729290555916500,11.63391650390625,-0.235793799161911,0.42943793535232544,-1.0989457368850708
1772729290573263400,11.651263427734374,-0.5290089249610901,-0.9321796298027039,-1.072678565979004
1772729290590610000,11.66860986328125,-0.6682860851287842,-1.811824917793274,-1.0054833889007568
1772729290607956700,11.685956787109374,-0.5564978122711182,-2.0470077991485596,-0.7122683525085449
1772729290625303300,11.70330322265625,-0.3964512348175049,-1.8643592596054077,-0.23273947834968567
1772729290642649900,11.72064990234375,-0.21502439677715302,-1.3652827739715576,0.29504770040512085
1772729290659996700,11.73799658203125,-0.046425722539424896,-0.850934624671936,0.6896663308143616
1772729290677343200,11.75534326171875,0.11178825795650482,-0.5595521330833435,0.8765909671783447
1772729290694689800,11.772689697265625,0.2663370370864868,-0.574212908744812,0.8362739086151123
1772729290712036600,11.79003662109375,0.3329212963581085,-0.4630354940891266,0.5326740741729736
1772729290729383200,11.807383056640624,0.27550002932548523,-0.020158538594841957,0.25411975383758545
1772729290746729700,11.824729736328125,0.02871064469218254,0.3023780584335327,0.0720820426940918
1772729290764076500,11.84207666015625,-0.36224281787872314,0.4202749729156494,-0.29016077518463135
1772729290781423000,11.859423095703125,-0.3084867000579834,0.5345066785812378,-0.7220421433448792
1772729290798770000,11.87677001953125,-0.32070401310920715,-0.07757982611656189,-0.768467903137207
1772729290816116500,11.894116455078125,-0.21868959069252014,-0.8466585874557495,-0.47952884435653687
1772729290833463000,11.911463134765626,-0.040317077189683914,-0.9071341753005981,0.19364413619041443
1772729290850809900,11.928809814453125,-0.004276053514331579,-0.18387030065059662,0.9279035925865173
1772729290868156400,11.946156494140626,-0.16737695038318634,0.5754346251487732,1.4996730089187622
1772729290885503000,11.9635029296875,-0.3023780584335327,0.9089667797088623,1.8185445070266724
1772729290902849800,11.980849853515625,-0.2364046722650528,0.6133082509040833,1.9584324359893799
1772729290920196400,11.9981962890625,-0.3543015718460083,0.049480047076940536,1.795331597328186
1772729290937543000,12.01554296875,-0.28466299176216125,0.9101884961128235,0.9169080257415771
1772729290954889700,12.0328896484375,-0.2162461280822754,0.7312051653862,0.9376774430274963
1772729290972236300,12.050236328125,0.07513637095689774,-0.047036588191986084,0.8539889454841614
1772729290989582800,12.067582763671876,0.4422661066055298,-0.2461785078048706,0.04153880476951599
1772729291006929700,12.0849296875,0.4667007029056549,0.1233946830034256,-0.5760455131530762
1772729291024276200,12.102276123046876,0.42394015192985535,0.56382817029953,-0.9169080257415771
1772729291041623000,12.119623046875,0.49113526940345764,1.3249657154083252,-0.896138608455658
1772729291058969600,12.136969482421875,-0.18814635276794434,7.762869834899902,1.5796962976455688
1772729291076316200,12.154316162109374,-0.22785256803035736,9.151365280151367,2.425133228302002
1772729291093663000,12.1716630859375,-0.3536907136440277,4.715265274047852,1.533881425857544
1772729291111009500,12.189009521484374,-0.23273947834968567,0.39278605580329895,0.7257073521614075
1772729291128356000,12.206356201171875,0.12461641430854797,-0.5106829404830933,-0.09651663154363632
1772729291145703000,12.223702880859374,0.37201663851737976,-0.10995566099882126,-0.8075632452964783
1772729291163049500,12.241049560546875,0.4202749729156494,-0.4324922561645508,-0.8930842876434326
1772729291180396000,12.25839599609375,0.3897317349910736,-1.2614357471466064,-0.7971785664558411
1772729291197742800,12.275742919921875,0.18203771114349365,-2.0189080238342285,-0.9407317638397217
1772729291215089400,12.29308935546875,-0.0873536616563797,-1.8112140893936157,-1.1630865335464478
1772729291232436000,12.31043603515625,-0.10690133273601532,0.23945899307727814,-0.6023126840591431
1772729291249782800,12.32778271484375,-0.026878049597144127,2.0977096557617188,0.430659681558609
1772729291267129300,12.34512939453125,-0.38667741417884827,1.746462345123291,0.9810488224029541
1772729291284476200,12.36247607421875,-0.3402516841888428,1.1795798540115356,0.8888082504272461
1772729291301822700,12.37982275390625,-0.1288924664258957,0.9236275553703308,0.031154103577136993
1772729291319169300,12.397169189453125,0.04459312930703163,0.8344413042068481,-0.759304940700531
1772729291336516000,12.41451611328125,-0.24434591829776764,0.8069523572921753,-0.31031930446624756
1772729291353862700,12.431862548828125,-0.3915643095970154,-0.16310089826583862,0.16310089826583862
1772729291371209200,12.449209228515626,-0.023212861269712448,-2.1087052822113037,0.42882707715034485
1772729291388556000,12.46655615234375,0.4618137776851654,-3.14289927482605,0.2156352698802948
1772729291405902600,12.483902587890626,0.31520622968673706,-3.0439391136169434,-0.11667517572641373
1772729291423249200,12.501249267578125,0.29565855860710144,-2.4660611152648926,-0.12522727251052856
1772729291440596000,12.518595947265625,0.28588470816612244,-1.8380920886993408,-0.16798780858516693
1772729291457942500,12.535942626953124,-0.04459312930703163,-1.3109158277511597,-0.4673115611076355
1772729291475289000,12.5532890625,-0.1997527778148651,-1.1588104963302612,-0.9792162179946899
1772729291492636000,12.570635986328124,-0.1747073233127594,-1.3060288429260254,-1.191797137260437
1772729291509982500,12.587982421875,-0.10567960888147354,-1.0665699243545532,-1.1026109457015991
1772729291527329000,12.6053291015625,-0.11117739230394363,-0.25045454502105713,-0.9199623465538025
1772729291544675800,12.62267578125,-0.19730933010578156,0.38301220536231995,-0.7141009569168091
1772729291562022400,12.6400224609375,-0.24556763470172882,0.2510654330253601,-0.7000510096549988
1772729291579369000,12.657368896484375,-0.370184063911438,-0.27488914132118225,-0.8203914165496826
1772729291596715800,12.6747158203125,-0.41905322670936584,-0.9272927641868591,-0.8784235715866089
1772729291614062300,12.692062255859375,-0.35124725103378296,-1.4202606678009033,-0.7055488228797913
1772729291631409000,12.709408935546875,-0.24495677649974823,-1.5039490461349487,-0.3659079968929291
1772729291648755700,12.726755615234374,-0.14721840620040894,-1.1826342344284058,-0.027488915249705315
1772729291666102300,12.744102294921875,-0.012217295356094837,-0.7446441650390625,0.1954767256975174
1772729291683448800,12.76144873046875,0.08918625861406326,-0.3995055556297302,0.33597561717033386
1772729291700795600,12.778795654296875,0.16676609218120575,-0.2577849328517914,0.3756818473339081
1772729291718142200,12.79614208984375,0.1795942485332489,-0.31520622968673706,0.27427828311920166
1772729291735488800,12.81348876953125,0.0769689604640007,-0.45020735263824463,0.19242240488529205
1772729291752835600,12.830835693359376,-0.02932151034474373,-0.4972439408302307,0.1698204129934311
1772729291770182100,12.84818212890625,-0.24923282861709595,-0.3078758418560028,0.03298669680953026
1772729291787529000,12.865529052734376,-0.38789913058280945,0.06108647957444191,-0.45448338985443115
1772729291804875500,12.88287548828125,-0.29077163338661194,-0.18142683804035187,-0.8167262077331543
1772729291822222000,12.90022216796875,-0.2156352698802948,-1.0250310897827148,-0.8246674537658691
1772729291839568600,12.917568603515624,0.050090912729501724,-1.64872407913208,-0.6603448390960693
1772729291856915500,12.93491552734375,0.06902772188186646,-1.3280199766159058,-0.1637117564678192
1772729291874262000,12.952261962890624,-0.017715077847242355,-0.0616973415017128,0.6395754218101501
1772729291891608600,12.969608642578125,-0.07513637095689774,0.822834849357605,1.3836086988449097
1772729291908955400,12.986955322265626,-0.09285144507884979,1.1404845714569092,1.924834966659546
1772729291926302000,13.004302001953125,-0.17287473380565643,1.2302817106246948,2.1025965213775635
1772729291943648800,13.021648681640626,-0.39889469742774963,1.1026109457015991,1.8393138647079468
1772729291960995300,13.038995361328125,-0.22968515753746033,1.5864158868789673,0.768467903137207
1772729291978342000,13.056341796875,-0.08674279600381851,0.6774490475654602,0.9193515181541443
1772729291995688400,13.0736884765625,0.056810423731803894,-0.08857539296150208,1.1001675128936768
1772729292013035300,13.09103515625,0.45509424805641174,-0.0720820426940918,0.41416633129119873
1772729292030381800,13.1083818359375,0.45998117327690125,0.03237583488225937,-0.4312705397605896
1772729292047728400,13.125728271484375,0.4990765154361725,0.2987128794193268,-0.9388991594314575
1772729292065075200,13.1430751953125,0.5821541547775269,0.6224712133407593,-1.1013891696929932
1772729292082421800,13.160421875,0.29138249158859253,5.6902055740356445,0.5180133581161499
1772729292099768300,13.177768310546876,-0.012217295356094837,9.344398498535156,2.064723014831543
1772729292117115100,13.195115234375,-0.24006985127925873,5.852695465087891,1.599854826927185
1772729292134461700,13.212461669921876,-0.3402516841888428,1.2455532550811768,0.8087849617004395
1772729292151808500,13.22980859375,0.06841685622930527,-0.04153880476951599,-0.04459312930703163
1772729292169155000,13.247155029296875,0.36651885509490967,-0.09101885557174683,-0.4923570156097412
1772729292186501600,13.264501708984374,0.3225366175174713,-0.7348703145980835,-0.5186241865158081
1772729292203848200,13.28184814453125,0.34636032581329346,-1.1661409139633179,-0.6316341757774353
1772729292221195000,13.299195068359374,0.3139844834804535,-1.6743803024291992,-0.9932661056518555
1772729292238541600,13.31654150390625,-0.06963858753442764,-1.9187263250350952,-1.1685843467712402
1772729292255888100,13.33388818359375,-0.2724456787109375,-0.46608981490135193,-0.8875865340232849
1772729292273235000,13.35123486328125,-0.05742128938436508,1.6346741914749146,0.011606430634856224
1772729292290581500,13.36858154296875,-0.2809978127479553,1.6426154375076294,0.667064368724823
1772729292307928000,13.385927978515625,-0.29138249158859253,1.4685189723968506,0.9181297421455383
1772729292325275000,13.40327490234375,-0.09651663154363632,1.5638138055801392,0.31581708788871765
1772729292342621400,13.420621337890625,0.09957095980644226,0.5229002237319946,-0.38667741417884827
1772729292359968000,13.437968017578125,0.004276053514331579,-0.04214967042207718,-0.1386663019657135
1772729292377314800,13.455314697265624,-0.22968515753746033,-0.27977606654167175,0.3182605504989624
1772729292394661400,13.472661376953125,-0.013439024798572063,-1.7140865325927734,0.5839866995811462
1772729292412008000,13.490008056640624,0.41783151030540466,-2.952920436859131,0.41355544328689575
1772729292429354800,13.507354736328125,0.22235478460788727,-3.0995278358459473,0.11117739230394363
1772729292446701300,13.524701416015626,0.2205221801996231,-2.5699081420898438,0.22724169492721558
1772729292464047900,13.5420478515625,0.2987128794193268,-1.8307617902755737,0.3017672002315521
1772729292481394700,13.559394775390626,0.22357651591300964,-1.2443315982818604,0.12705987691879272
1772729292498741200,13.5767412109375,-0.06047561392188072,-0.6585122346878052,-0.3689623177051544
1772729292516087800,13.594087890625,-0.19853104650974274,-1.1655299663543701,-0.8295543789863586
1772729292533434400,13.611434326171874,-0.09590577334165573,-1.9822561740875244,-1.0500766038894653
1772729292550781200,13.62878125,0.023823726922273636,-1.5515965223312378,-0.9639446139335632
1772729292568127700,13.646127685546874,-0.05192350596189499,-0.711046576499939,-0.6921098232269287
1772729292585474300,13.663474365234375,-0.27855435013771057,0.009162971749901772,-0.6982184648513794
1772729292602821000,13.680821044921874,-0.3072649836540222,0.10323614627122879,-0.9639446139335632
1772729292620167700,13.698167724609375,-0.32009315490722656,-0.2706131041049957,-1.176525592803955
1772729292637514200,13.71551416015625,-0.3249800503253937,-0.8894191384315491,-1.1252129077911377
1772729292654861000,13.732861083984375,-0.287106454372406,-1.3744457960128784,-0.8497129082679749
1772729292672207600,13.75020751953125,-0.2107483446598053,-1.4471386671066284,-0.5143481492996216
1772729292689554200,13.76755419921875,-0.08918625861406326,-1.2235621213912964,-0.18325942754745483
1772729292706901000,13.78490087890625,0.09590577334165573,-0.8295543789863586,0.14721840620040894
1772729292724247600,13.80224755859375,0.21380266547203064,-0.4355465769767761,0.46914416551589966
1772729292741594000,13.819593994140625,0.3298669755458832,-0.16859868168830872,0.5241219997406006
1772729292758941000,13.83694091796875,0.34697118401527405,-0.23335035145282745,0.35613417625427246
1772729292776287500,13.85428759765625,0.235793799161911,-0.4159989058971405,0.1905898153781891
1772729292793634000,13.871634033203126,0.05192350596189499,-0.29565855860710144,0.0818558782339096
1772729292810980600,13.888980712890625,-0.19303326308727264,0.13927717506885529,-0.09834922850131989
1772729292828327400,13.906327392578126,-0.1594357043504715,0.6108647584915161,-0.36835145950317383
1772729292845674000,13.923674072265625,-0.22296564280986786,0.21685700118541718,-0.3225366175174713
1772729292863020500,13.9410205078125,-0.1496618688106537,-0.472198486328125,-0.15577052533626556
1772729292880367400,13.958367431640625,-0.11911863088607788,-0.7776308655738831,0.3078758418560028
1772729292897714000,13.9757138671875,-0.21135921776294708,-0.6096430420875549,0.8851430416107178
1772729292915060500,13.993060546875,-0.07513637095689774,-0.3488037884235382,1.3176352977752686
1772729292932407300,14.0104072265625,-0.18325942754745483,0.024434590712189674,1.6420044898986816
1772729292949753900,14.02775390625,-0.17776164412498474,0.1899789422750473,1.859472393989563
1772729292967100400,14.045100341796875,-0.3090975880622864,0.3549124300479889,1.7959424257278442
1772729292984447200,14.062447265625,-0.2968802750110626,1.6603304147720337,0.8857539296150208
1772729293001793800,14.079793701171875,-0.08552107214927673,1.9101741313934326,0.5613847374916077
1772729293019140400,14.097140380859376,0.1637117564678192,0.9669989347457886,0.7031053900718689
1772729293036487000,14.11448681640625,0.45509424805641174,0.5430588126182556,0.37262752652168274
1772729293053833700,14.131833740234375,0.44470956921577454,0.24923282861709595,-0.17226386070251465
1772729293071180300,14.14918017578125,0.2889390289783478,0.1533270627260208,-0.6175842881202698
1772729293088526800,14.16652685546875,0.20769402384757996,0.1594357043504715,-0.8839213252067566
1772729293105873700,14.183873779296874,0.30604326725006104,0.2559523284435272,-1.0238093137741089
1772729293123220200,14.20122021484375,-0.08674279600381851,4.533838272094727,0.9902117848396301
1772729293140566800,14.21856689453125,-0.185092031955719,6.348106861114502,2.0970988273620605
1772729293157913600,14.23591357421875,-0.15577052533626556,3.6340346336364746,1.145371437072754
1772729293175260200,14.25326025390625,0,0.6835576891899109,0.15149445831775665
1772729293192606700,14.270606689453125,0.22479823231697083,-0.37751442193984985,-0.3549124300479889
1772729293209953500,14.28795361328125,0.35246896743774414,-1.250440239906311,-0.5845975875854492
1772729293227300000,14.305300048828125,0.3194822669029236,-1.8808526992797852,-0.6957749724388123
1772729293244646700,14.322646728515625,-0.0030543238390237093,-2.092211961746216,-0.9016364216804504
1772729293261993200,14.3399931640625,-0.16737695038318634,-1.951712965965271,-1.099556565284729
1772729293279340000,14.357340087890625,-0.036651886999607086,-0.7977893948554993,-0.9932661056518555
1772729293296686600,14.3746865234375,0.25534147024154663,1.5864158868789673,-0.16737695038318634
1772729293314033200,14.392033203125,-0.01649334840476513,2.7904303073883057,0.9022472500801086
1772729293331380000,14.4093798828125,-0.07024945318698883,2.378096580505371,1.4074324369430542
1772729293348726500,14.4267265625,-0.06841685622930527,1.4947861433029175,0.647516667842865
1772729293366073000,14.444072998046876,-0.009773836471140385,1.1429280042648315,-0.7770199775695801
1772729293383420000,14.461419921875,-0.04520399495959282,0.8503237962722778,-0.3078758418560028
1772729293400766500,14.478766357421875,-0.08857539296150208,0.03481929376721382,0.38728827238082886
1772729293418113000,14.496113037109374,0.18081597983837128,-1.3439024686813354,0.657290518283844
1772729293435459600,14.51345947265625,0.5711585879325867,-2.648709774017334,0.43493571877479553
1772729293452806400,14.530806396484374,0.2968802750110626,-2.8625123500823975,0.06475166976451874
1772729293470153000,14.548153076171875,0.2926042377948761,-2.34694242477417,0.040317077189683914
1772729293487499500,14.56549951171875,0.3756818473339081,-1.459966778755188,0.025045456364750862
1772729293504846000,14.58284619140625,0.21197007596492767,-0.5797106623649597,-0.2571740746498108
1772729293522193000,14.60019287109375,-0.023212861269712448,0.03787361457943916,-0.5888736248016357
1772729293539539500,14.61753955078125,-0.043371398001909256,-0.14294235408306122,-0.6511818766593933
1772729293556886000,14.634885986328126,-0.04520399495959282,-0.7440332770347595,-0.5876519083976746
1772729293574232800,14.65223291015625,-0.040317077189683914,-0.8552106618881226,-0.6145299673080444
1772729293591579400,14.669579345703125,-0.1588248461484909,-0.5106829404830933,-0.8912517428398132
1772729293608926000,14.686926025390624,-0.24556763470172882,-0.30054548382759094,-1.2247838973999023
1772729293626272800,14.704272705078125,-0.2608392536640167,-0.4581485986709595,-1.3750566244125366
1772729293643619300,14.721619384765624,-0.287106454372406,-0.8778126835823059,-1.293811559677124
1772729293660966000,14.7389658203125,-0.3066541254520416,-1.390328288078308,-1.0384701490402222
1772729293678312400,14.7563125,-0.3072649836540222,-1.6859867572784424,-0.7092140316963196
1772729293695659300,14.7736591796875,-0.2663370370864868,-1.6426154375076294,-0.32070401310920715
1772729293713005800,14.791005859375,-0.06352993845939636,-1.3054180145263672,0.017104214057326317
1772729293730352400,14.808352294921875,0.1337793916463852,-0.7629700899124146,0.3591884970664978
1772729293747699200,14.82569921875,0.2724456787109375,-0.12095122784376144,0.7024945020675659
1772729293765045800,14.843045654296875,0.3347539007663727,0.37201663851737976,0.7880155444145203
1772729293782392300,14.860392333984375,0.29565855860710144,0.4001164436340332,0.6212494969367981
1772729293799739100,14.8777392578125,0.14477495849132538,-0.18692462146282196,0.360410213470459
1772729293817085700,14.895085693359375,-0.004276053514331579,-0.5858193039894104,0.0665842592716217
1772729293834432300,14.912432373046874,-0.1545487940311432,-0.29504770040512085,-0.2528980076313019
1772729293851778800,14.92977880859375,-0.23273947834968567,0.3555232882499695,-0.5962040424346924
1772729293869125600,14.947125732421876,-0.29993459582328796,0.16615521907806396,-0.6053670048713684
1772729293886472200,14.96447216796875,-0.2107483446598053,-0.6456840634346008,-0.4569268524646759
1772729293903818800,14.98181884765625,-0.07757982611656189,-1.22234046459198,-0.12950333952903748
1772729293921165300,14.999165283203125,-0.10934479534626007,-1.1704169511795044,0.3744601011276245
1772729293938512100,15.01651220703125,-0.1282816082239151,-0.4783071279525757,0.8906408548355103
1772729293955858700,15.033858642578124,-0.18325942754745483,0.24006985127925873,1.3628393411636353
1772729293973205200,15.051205322265625,-0.06902772188186646,0.5131264328956604,1.7171409130096436
1772729293990551800,15.0685517578125,-0.13072505593299866,0.49418962001800537,1.8032728433609009
1772729294007898600,15.085898681640625,-0.37262752652168274,1.255937933921814,1.036637544631958
1772729294025245200,15.1032451171875,-0.023212861269712448,1.0604612827301025,0.6359102129936218
1772729294042592000,15.120592041015625,0.11239911615848541,0.09896009415388107,0.593149721622467
1772729294059938600,15.1379384765625,0.4263836145401001,-0.258395791053772,0.13072505593299866
1772729294077285000,15.15528515625,0.4147771894931793,-0.010995565913617611,-0.39400777220726013
1772729294094631700,15.172631591796875,0.2528980076313019,0.41233372688293457,-0.7092140316963196
1772729294111978500,15.189978515625,0.21441353857517242,0.8222240209579468,-0.925460159778595
1772729294129325000,15.207324951171875,-0.10384701192378998,5.056127548217773,0.6676751971244812
1772729294146671600,15.224671630859374,-0.23823726177215576,7.979726791381836,2.1386375427246094
1772729294164018200,15.24201806640625,-0.25534147024154663,5.059182167053223,1.469740629196167
1772729294181365000,15.259364990234374,0.011606430634856224,0.8222240209579468,0.6255255341529846
1772729294198711600,15.276711669921875,0.34636032581329346,-0.7012727856636047,0.08307760953903198
1772729294216058000,15.29405810546875,0.3659079968929291,-0.8998038172721863,-0.35674503445625305
1772729294233404700,15.31140478515625,0.2101374864578247,-1.0928370952606201,-0.6731730103492737
1772729294250751500,15.32875146484375,0.20341797173023224,-1.2699878215789795,-1.0054833889007568
1772729294268098000,15.34609814453125,-0.023823726922273636,-1.913839340209961,-1.3347395658493042
1772729294285444600,15.363444580078125,-0.13072505593299866,-2.0751075744628906,-1.3158026933670044
1772729294302791400,15.38079150390625,-0.01954767294228077,0.1802051067352295,-0.7568614482879639
1772729294320138000,15.398137939453125,-0.01588248461484909,3.0854780673980713,0.36163195967674255
1772729294337484500,15.415484619140624,-0.4838049113750458,2.8930556774139404,0.9615011811256409
1772729294354831000,15.4328310546875,-0.5369501113891602,2.0891575813293457,0.8533781170845032
1772729294372178000,15.450177978515624,-0.5717694163322449,1.9706497192382812,0.001221729558892548
1772729294389524500,15.4675244140625,-0.3500255048274994,1.4373648166656494,-0.5772672295570374
1772729294406871000,15.48487109375,-0.2632827162742615,0.21685700118541718,0.277332603931427
1772729294424217600,15.502217529296875,-0.30115634202957153,-1.0861176252365112,0.11911863088607788
1772729294441564400,15.519564453125,0.12400554865598679,-2.922377109527588,0.17287473380565643
1772729294458911000,15.536910888671875,0.4929678738117218,-3.9907796382904053,0.12156209349632263
1772729294476257500,15.554257568359375,0.3023780584335327,-2.9016077518463135,0.1496618688106537
1772729294493604000,15.57160400390625,0.5161807537078857,-1.7989968061447144,0.0769689604640007
1772729294510951000,15.588950927734375,0.5907062292098999,-1.0965023040771484,-0.010384701192378998
1772729294528297500,15.60629736328125,0.21197007596492767,-1.1068869829177856,-0.3017672002315521
1772729294545644000,15.62364404296875,-0.12705987691879272,-1.1533126831054688,-0.8399390578269958
1772729294562990800,15.640990966796876,-0.23335035145282745,-1.5442661046981812,-1.2712095975875854
1772729294580337400,15.65833740234375,-0.04886918142437935,-1.5735876560211182,-1.3652827739715576
1772729294597684000,15.67568408203125,-0.024434590712189674,-0.8674280047416687,-1.247385859489441
1772729294615030500,15.693030517578125,-0.08979712426662445,0.017104214057326317,-1.0873392820358276
1772729294632377300,15.71037744140625,-0.23762640357017517,0.22846342623233795,-1.1117738485336304
1772729294649724000,15.727723876953124,-0.379347026348114,-0.1698204129934311,-1.349400281906128
1772729294667070500,15.745070556640625,-0.5748237371444702,-0.9199623465538025,-1.5442661046981812
1772729294684417000,15.7624169921875,-0.6004800796508789,-1.7531819343566895,-1.4159845113754272
1772729294701763800,15.779763916015625,-0.4819723069667816,-2.1783437728881836,-0.8710931539535522
1772729294719110400,15.7971103515625,-0.23457208275794983,-1.8808526992797852,-0.1490510106086731
1772729294736457000,15.81445703125,0.0665842592716217,-1.0403027534484863,0.48441576957702637
1772729294753803500,15.831803466796876,0.2761108875274658,-0.17104214429855347,0.8503237962722778
1772729294771150300,15.849150390625,0.40317076444625854,0.22479823231697083,1.0030399560928345
1772729294788497000,15.866496826171876,0.49052441120147705,0.36774060130119324,0.8778126835823059
1772729294805843500,15.883843505859375,0.33536475896835327,0.5192350745201111,0.5754346251487732
1772729294823190300,15.901190185546875,-0.07819069176912308,0.5381718873977661,0.24251331388950348
1772729294840536800,15.918536865234374,-0.4159989058971405,0.6102539300918579,-0.15027274191379547
1772729294857883400,15.93588330078125,-0.20830489695072174,0.8087849617004395,-0.49541133642196655
1772729294875230000,15.95322998046875,-0.4062250852584839,0.3610210716724396,-0.4673115611076355
1772729294892576800,15.97057666015625,-0.22846342623233795,-0.4667007029056549,-0.3915643095970154
1772729294909923300,15.98792333984375,-0.15210533142089844,-0.9468404054641724,-0.034208428114652634
1772729294927270000,16.005269775390627,-0.10995566099882126,-0.7696896195411682,0.6310232877731323
1772729294944616400,16.022616455078126,-0.09285144507884979,-0.16737695038318634,1.361006736755371
1772729294961963300,16.03996337890625,-0.25411975383758545,0.4618137776851654,1.9944734573364258
1772729294979309800,16.057309814453124,-0.27427828311920166,0.7910698652267456,2.3457207679748535
1772729294996656400,16.074656494140626,-0.42455101013183594,1.1001675128936768,2.3005168437957764
1772729295014003000,16.0920029296875,-0.33047783374786377,2.226602077484131,1.2944225072860718
1772729295031349800,16.109349853515624,0.056810423731803894,2.249204158782959,0.7006618976593018
1772729295048696300,16.1266962890625,0.11056652665138245,0.48441576957702637,0.943175196647644
1772729295066043000,16.14404296875,0.5393936038017273,-0.4477638900279999,0.5375609993934631
1772729295083389400,16.161389404296877,0.5815432667732239,-0.5497782826423645,-0.235793799161911
1772729295100736300,16.178736328125,0.4673115611076355,-0.2864955961704254,-0.7641918659210205
1772729295118082800,16.196082763671875,0.40927940607070923,0.07452550530433655,-1.053741693496704
1772729295135429400,16.213429443359374,0.41905322670936584,0.5351175665855408,-1.1435388326644897
1772729295152776000,16.23077587890625,0.17165300250053406,3.4642140865325928,0.0824667438864708
1772729295170122800,16.248122802734375,-0.23335035145282745,6.782431602478027,2.0219624042510986
1772729295187469300,16.26546923828125,-0.22479823231697083,5.236332893371582,1.6126830577850342
1772729295204816000,16.28281591796875,-0.04520399495959282,1.6939280033111572,0.3433060050010681
1772729295222162400,16.300162353515624,0.20341797173023224,-0.3897317349910736,-0.33169957995414734
1772729295239509200,16.31750927734375,0.21502439677715302,-1.7934989929199219,-0.5094612240791321
1772729295256855800,16.334855712890626,0.26389357447624207,-2.4263548851013184,-0.7721330523490906
1772729295274202400,16.352202392578125,0.010384701192378998,-2.393979072570801,-1.1618647575378418
1772729295291549000,16.369548828125,-0.2968802750110626,-2.054338216781616,-1.395825982093811
1772729295308895700,16.386895751953126,-0.2669478952884674,-0.9334014058113098,-1.3011419773101807
1772729295326242300,16.4042421875,-0.010384701192378998,0.8387173414230347,-0.7739656567573547
1772729295343588900,16.4215888671875,-0.13622283935546875,3.174664258956909,0.6908880472183228
1772729295360935400,16.438935302734375,-0.08368847519159317,2.9407031536102295,1.6218459606170654
1772729295378282200,16.4562822265625,-0.12278381735086441,1.1264346837997437,1.2174534797668457
1772729295395628800,16.47362890625,0.014049889519810677,-0.5656607747077942,-0.3610210716724396
1772729295412975400,16.490975341796876,-0.23823726177215576,0.35613417625427246,-1.1905754804611206
1772729295430322000,16.508322021484375,-0.46425724029541016,1.1508692502975464,-0.7238747477531433
1772729295447668700,16.525668701171874,0.017104214057326317,0.6536253094673157,0.3903425931930542
1772729295465015300,16.543015380859377,0.2309068888425827,-1.4782928228378296,0.646905779838562
1772729295482361900,16.56036181640625,0.13133592903614044,-2.484387159347534,0.4221075773239136
1772729295499708400,16.57770849609375,0.16065743565559387,-2.5381431579589844,0.3439168632030487
1772729295517055200,16.59505517578125,0.15149445831775665,-2.330449104309082,0.14538581669330597
1772729295534401800,16.61240185546875,-0.13072505593299866,-1.5277727842330933,-0.4886918365955353
1772729295551748400,16.629748291015623,-0.235793799161911,-1.2150100469589233,-0.9908226728439331
1772729295569095000,16.647094970703126,-0.07086031138896942,-1.554650902748108,-1.1172716617584229
1772729295586441700,16.664441650390625,0.09162971377372742,-1.2705987691879272,-0.9272927641868591
1772729295603788300,16.681788330078124,0.10506874322891235,-0.4367683231830597,-0.5540543794631958
1772729295621134800,16.699134765625,-0.004276053514331579,0.5754346251487732,-0.6047561168670654
1772729295638481400,16.7164814453125,-0.10629047453403473,0.9816597104072571,-1.0048725605010986
1772729295655828200,16.733828125,-0.235793799161911,0.1484401375055313,-1.2290599346160889
1772729295673174800,16.7511748046875,-0.2981020212173462,-1.0879502296447754,-1.1136064529418945
1772729295690521300,16.768521240234374,-0.29077163338661194,-1.8600832223892212,-0.6414080262184143
1772729295707868000,16.785867919921873,-0.287106454372406,-1.7159191370010376,-0.053145237267017365
1772729295725214500,16.80321435546875,-0.19242240488529205,-1.102000117301941,0.5235111117362976
1772729295742561300,16.820561279296875,-0.01954767294228077,-0.6065887212753296,0.9169080257415771
1772729295759907800,16.837907958984374,0.07330377399921417,-0.2577849328517914,1.0311397314071655
1772729295777254400,16.85525439453125,0.10995566099882126,-0.18753549456596375,0.9810488224029541
1772729295794601200,16.872601318359376,0.07452550530433655,-0.41783151030540466,0.842382550239563
1772729295811947800,16.88994775390625,0.12461641430854797,-0.7739656567573547,0.6194168925285339
1772729295829294300,16.90729443359375,0.16126830875873566,-0.8820887207984924,0.20769402384757996
1772729295846641000,16.924640869140624,0.26389357447624207,0.017715077847242355,-0.22174391150474548
1772729295863987500,16.941987548828124,0.4007273018360138,1.5656464099884033,-0.6743947267532349
1772729295881334300,16.959334228515626,0.07269290834665298,1.6401718854904175,-0.8020654320716858
1772729295898680800,16.976680908203125,0.002443459117785096,-0.2211330533027649,-0.7574723362922668
1772729295916027400,16.99402734375,0.11728604137897491,-2.3817617893218994,-0.5210676789283752
1772729295933374000,17.0113740234375,0.010384701192378998,-2.310901403427124,0.0818558782339096
1772729295950720500,17.028720458984374,-0.1844811588525772,-0.6078104376792908,1.102000117301941
1772729295968067300,17.0460673828125,-0.14233149588108063,0.8436042666435242,1.9364413022994995
1772729295985414000,17.063413818359376,-0.29443681240081787,1.8099923133850098,2.3377795219421387
1772729296002760400,17.080760498046875,-0.43310311436653137,2.939481258392334,2.067166328430176
1772729296020107300,17.098107177734374,-0.2816086709499359,3.85028076171875,1.324354887008667
1772729296037453800,17.115453857421876,0.07086031138896942,2.439793825149536,1.174692988395691
1772729296054800400,17.13280029296875,0.2571740746498108,0.030543239787220955,1.0610721111297607
1772729296072147000,17.15014697265625,0.34208428859710693,-0.9957095980644226,0.462424635887146
1772729296089493500,17.167493408203125,0.2712239623069763,-0.9498947262763977,-0.22296564280986786
1772729296106840300,17.18484033203125,0.24251331388950348,-0.6780598759651184,-0.7147117853164673
1772729296124187000,17.202186767578127,0.17165300250053406,-0.6041452884674072,-1.0323615074157715
1772729296141533400,17.219533447265626,0.18387030065059662,-0.6059778332710266,-1.3078614473342896
1772729296158880000,17.2368798828125,0.28038692474365234,-0.6524035930633545,-1.480736255645752
1772729296176226600,17.2542265625,0.21746785938739777,-0.006108647678047419,-1.1087195873260498
1772729296193573400,17.271573486328126,-0.1282816082239151,3.7232208251953125,1.063515543937683
1772729296210920000,17.288919921875,0.07635809481143951,3.4965898990631104,1.1459823846817017
1772729296228266500,17.3062666015625,0.1539379209280014,1.0274745225906372,0.32009315490722656
1772729296245613000,17.323613037109375,-0.09590577334165573,-0.37812530994415283,-0.185092031955719
1772729296262959600,17.340959716796874,-0.16065743565559387,-1.4324779510498047,-0.4062250852584839
1772729296280306400,17.358306396484377,-0.2211330533027649,-2.0946552753448486,-0.6352993845939636
1772729296297653000,17.375653076171876,-0.25411975383758545,-2.006690740585327,-1.0506874322891235
1772729296314999600,17.39299951171875,-0.10567960888147354,-0.7757982611656189,-1.4049890041351318
1772729296332346400,17.410346435546874,0.22785256803035736,0.9468404054641724,-0.8723149299621582
1772729296349693000,17.42769287109375,0.20708316564559937,3.2559092044830322,0.6621774435043335
1772729296367039500,17.44503955078125,0.19120067358016968,3.7794203758239746,1.229670763015747
1772729296384386000,17.462385986328126,-0.16554436087608337,3.078758478164673,0.656679630279541
1772729296401732600,17.479732666015625,-0.1533270627260208,1.8723005056381226,-0.05497783049941063
1772729296419079400,17.497079345703124,-0.3488037884235382,0.5900954008102417,0.5271763205528259
1772729296436426000,17.514426025390627,-0.5045742988586426,-1.359174132347107,0.7183769941329956
1772729296453772500,17.5317724609375,0.02871064469218254,-4.850877285003662,0.3756818473339081
1772729296471119000,17.549119140625,0.2919933497905731,-4.500851631164551,-0.21685700118541718
1772729296488465700,17.566465576171876,0.4978547990322113,-0.4575377106666565,0.554665207862854
1772729296505812500,17.5838125,0.5711585879325867,0.9181297421455383,0.38667741417884827
1772729296523159000,17.601158935546874,0.2107483446598053,-0.8057306408882141,-0.22235478460788727
1772729296540505600,17.618505615234376,-0.10384701192378998,-1.9773693084716797,-0.8081740736961365
1772729296557852200,17.63585205078125,-0.03298669680953026,-1.545487880706787,-1.1111630201339722
1772729296575199000,17.653198974609374,0.10201441496610641,-0.6096430420875549,-0.8826996088027954
1772729296592545500,17.670545654296873,0.10018182545900345,0.18203771114349365,-0.6065887212753296
1772729296609892000,17.68789208984375,0.002443459117785096,0.2864955961704254,-0.5974257588386536
1772729296627238700,17.70523876953125,-0.16676609218120575,-0.14721840620040894,-0.657290518283844
1772729296644585200,17.722585205078126,-0.235793799161911,-0.8252783417701721,-0.7183769941329956
1772729296661932000,17.73993212890625,-0.16310089826583862,-1.2253947257995605,-0.638353705406189
1772729296679278600,17.757278564453124,-0.08857539296150208,-1.0348049402236938,-0.3555232882499695
1772729296696625200,17.774625244140626,-0.043371398001909256,-0.481361448764801,-0.11972949653863907
1772729296713971700,17.7919716796875,-0.027488915249705315,-0.1533270627260208,0.001221729558892548
1772729296731318300,17.809318359375,0.0030543238390237093,-0.18875721096992493,0.1637117564678192
1772729296748665000,17.8266650390625,0.13927717506885529,-0.31642794609069824,0.26450446248054504
1772729296766011600,17.84401171875,0.3280344009399414,-0.35246896743774414,0.3329212963581085
1772729296783358200,17.861358154296877,0.3952295184135437,-0.3090975880622864,0.2528980076313019
1772729296800704800,17.878704833984376,0.3543015718460083,-0.25045454502105713,-0.034208428114652634
1772729296818051600,17.896051513671875,0.2822195291519165,-0.2919933497905731,-0.33231043815612793
1772729296835398100,17.913398193359374,-0.11972949653863907,-0.4318813979625702,-0.6120865345001221
1772729296852744700,17.93074462890625,-0.5051851868629456,0.056199558079242706,-0.9822705388069153
1772729296870091300,17.94809130859375,-0.33658650517463684,0.14110976457595825,-1.0201442241668701
1772729296887437800,17.965437744140626,-0.3952295184135437,-0.5418370366096497,-0.6371319890022278
1772729296904784600,17.98278466796875,-0.3585776388645172,-0.998763918876648,0.18753549456596375
1772729296922131200,18.000131103515624,-0.4740310609340668,-0.7031053900718689,0.9236275553703308
1772729296939477800,18.017477783203127,-0.37629270553588867,-0.24801109731197357,1.6242893934249878
1772729296956824300,18.03482421875,-0.4764745235443115,0.4202749729156494,2.1642940044403076
1772729296974171000,18.0521708984375,-0.4404335021972656,0.8081740736961365,2.157574415206909
1772729296991517700,18.069517578125,-0.3481929302215576,0.7360920310020447,1.9272783994674683
1772729297008864300,18.0868642578125,-0.09834922850131989,0.3640754222869873,1.5839723348617554
1772729297026210800,18.1042109375,0.010384701192378998,-0.4880809485912323,1.2638791799545288
1772729297043557400,18.121557373046876,-0.05436696484684944,-0.7574723362922668,0.6420188546180725
1772729297060904000,18.138904052734375,0.1954767256975174,0.06963858753442764,-0.20708316564559937
1772729297078250800,18.156250732421874,0.11911863088607788,0.7360920310020447,-0.6273581385612488
1772729297095597300,18.173597412109373,0.020158538594841957,1.2510510683059692,-0.8649845123291016
1772729297112943900,18.19094384765625,0.10629047453403473,1.6016874313354492,-1.0739002227783203
1772729297130290400,18.20829052734375,-0.3029889166355133,5.925388336181641,0.18875721096992493
1772729297147637200,18.22563720703125,-0.5235111117362976,8.780570030212402,1.5754202604293823
1772729297164983800,18.24298388671875,-0.42455101013183594,5.373777389526367,1.0958913564682007
1772729297182330400,18.260330322265624,-0.19181154668331146,0.7519745230674744,0.4935787320137024
1772729297199677000,18.277677001953126,0.16004657745361328,-1.0378592014312744,0.04764745384454727
1772729297217023500,18.2950234375,0.19425499439239502,-1.434921383857727,-0.3640754222869873
1772729297234370000,18.3123701171875,0.2162461280822754,-1.8478659391403198,-0.7012727856636047
1772729297251716900,18.329716796875,0.27427828311920166,-2.4373505115509033,-0.94439697265625
1772729297269063400,18.3470634765625,0.011606430634856224,-2.8405213356018066,-1.0378592014312744
1772729297286410000,18.364409912109377,-0.08552107214927673,-2.304792881011963,-0.9120211005210876
1772729297303756500,18.381756591796876,0.2364046722650528,-0.360410213470459,-0.6298015713691711
1772729297321103000,18.39910302734375,0.19364413619041443,3.8343982696533203,0.49602219462394714
1772729297338450000,18.416449951171874,0.009162971749901772,6.284576892852783,1.8228205442428589
1772729297355796500,18.43379638671875,-0.2883281707763672,4.057974815368652,1.4062107801437378
1772729297373143000,18.45114306640625,-0.26511532068252563,1.4453060626983643,-0.3860665261745453
1772729297390489600,18.468489501953126,-0.18387030065059662,1.9260566234588623,-0.7525854110717773
1772729297407836400,18.48583642578125,-0.25473061203956604,0.49418962001800537,-0.1282816082239151
1772729297425183000,18.503182861328124,-0.32009315490722656,-2.2094979286193848,-0.10140355676412582
1772729297442529500,18.520529541015627,0.26389357447624207,-5.12026834487915,0.37323838472366333
1772729297459876000,18.5378759765625,0.4147771894931793,-5.7879438400268555,0.1026252806186676
1772729297477222700,18.55522265625,0.164322629570961,-3.814239740371704,0.13683371245861053
1772729297494569200,18.5725693359375,0.3530798554420471,-2.129474639892578,0.2467893660068512
1772729297511916000,18.589916015625,0.09468404203653336,-1.2877029180526733,0.049480047076940536
1772729297529262600,18.6072626953125,-0.21441353857517242,-1.29503333568573,-0.29993459582328796
1772729297546609200,18.624609130859376,-0.1490510106086731,-1.3781108856201172,-1.1062761545181274
1772729297563955700,18.641955810546875,0.09346231073141098,-1.0409135818481445,-1.3255765438079834
1772729297581302300,18.65930224609375,0.13439024984836578,-0.2309068888425827,-0.9388991594314575
1772729297598648800,18.67664892578125,0.14477495849132538,0.7513636946678162,-0.8869756460189819
1772729297615995600,18.69399560546875,0.12767073512077332,1.1423171758651733,-1.099556565284729
1772729297633342200,18.71134228515625,0.050090912729501724,0.6621774435043335,-1.2290599346160889
1772729297650688800,18.728688720703126,-0.02626718580722809,-0.18753549456596375,-1.1478148698806763
1772729297668035300,18.746035400390625,-0.13194678723812103,-0.9132428169250488,-0.9395100474357605
1772729297685382100,18.763382080078124,-0.23823726177215576,-1.5008947849273682,-0.6811142563819885
1772729297702728700,18.780728759765626,-0.1997527778148651,-1.6029092073440552,-0.41416633129119873
1772729297720075300,18.7980751953125,-0.07513637095689774,-1.3646719455718994,-0.12767073512077332
1772729297737421800,18.815421875,0.01954767294228077,-1.1209368705749512,0.1282816082239151
1772729297754768400,18.832768310546875,0.08124501258134842,-0.9639446139335632,0.4734202027320862
1772729297772115000,18.850114990234374,0.17348559200763702,-0.7757982611656189,0.6462949514389038
1772729297789461800,18.867461669921877,0.09407317638397217,-0.5338957905769348,0.5467239618301392
1772729297806808300,18.884808349609376,-0.0616973415017128,-0.45448338985443115,0.3335321843624115
1772729297824155000,18.90215478515625,-0.2461785078048706,-0.4062250852584839,-0.07024945318698883
1772729297841501400,18.91950146484375,-0.1337793916463852,-0.3133736252784729,-0.5748237371444702
1772729297858848000,18.936847900390624,-0.3390299379825592,-0.4868592321872711,-0.5754346251487732
1772729297876194800,18.95419482421875,-0.2767217457294464,-0.8008437156677246,-0.4770853817462921
1772729297893541400,18.971541259765626,-0.08979712426662445,-0.8778126835823059,-0.2412915825843811
1772729297910888000,18.988887939453125,-0.053756099194288254,-0.43982264399528503,0.33536475896835327
1772729297928234500,19.006234375,-0.09712749719619751,-0.017715077847242355,1.1050543785095215
1772729297945581000,19.0235810546875,-0.18325942754745483,-0.07574722915887833,1.684765100479126
1772729297962927900,19.040927978515626,-0.3646862804889679,0.009773836471140385,2.175900459289551
1772729297980274400,19.0582744140625,-0.39400777220726013,0.07330377399921417,2.417191982269287
1772729297997621000,19.07562109375,-0.39339691400527954,0.10873392969369888,1.9468261003494263
1772729298014967600,19.092967529296875,-0.05253437161445618,1.1074978113174438,0.915075421333313
1772729298032314000,19.110314208984374,0.07941242307424545,0.16187916696071625,0.9950987100601196
1772729298049660700,19.12766064453125,0.4111120104789734,-1.0916153192520142,0.711046576499939
1772729298067007200,19.14500732421875,0.6725621223449707,-0.8985821008682251,0.036651886999607086
1772729298084354000,19.16235400390625,0.6444623470306396,-0.09896009415388107,-0.45875945687294006
1772729298101700600,19.17970068359375,0.564439058303833,0.45875945687294006,-0.8436042666435242
1772729298119047200,19.197047119140624,0.3292561173439026,2.2614214420318604,-0.45937031507492065
1772729298136393700,19.214393798828127,-0.471587598323822,8.138551712036133,2.2870776653289795
1772729298153740500,19.231740478515626,-0.38728827238082886,7.776919364929199,2.4349069595336914
1772729298171087000,19.249087158203125,-0.5216785073280334,3.4159557819366455,1.2913681268692017
1772729298188433700,19.26643359375,-0.1740964651107788,0.3897317349910736,0.4630354940891266
1772729298205780200,19.2837802734375,0.2669478952884674,-0.5583304166793823,-0.17898337543010712
1772729298223126800,19.301126708984373,0.4043924808502197,-1.0054833889007568,-0.6255255341529846
1772729298240473300,19.318473388671876,0.34636032581329346,-1.7898337841033936,-0.8148936033248901
1772729298257820200,19.335820068359375,0.3591884970664978,-2.20155668258667,-1.0054833889007568
1772729298275166700,19.353166748046874,0.14721840620040894,-2.760498046875,-1.3842196464538574
1772729298292513300,19.37051318359375,-0.1740964651107788,-2.248593330383301,-1.4147628545761108
1772729298309859800,19.38785986328125,-0.2669478952884674,0.5858193039894104,-0.29016077518463135
1772729298327206400,19.405206298828126,-0.3811796307563782,3.5497353076934814,1.156977891921997
1772729298344553000,19.422552978515625,-0.45448338985443115,1.6798781156539917,1.1685843467712402
1772729298361899500,19.4398994140625,-0.38301220536231995,0.9187406301498413,0.6896663308143616
1772729298379246300,19.457246337890624,-0.16554436087608337,0.7336485981941223,-0.4990765154361725
1772729298396593000,19.474593017578126,0.05253437161445618,0.45448338985443115,-0.7415898442268372
1772729298413939500,19.491939453125,-0.17592905461788177,0.35674503445625305,-0.2406807243824005
1772729298431286000,19.5092861328125,-0.3231474757194519,-0.4923570156097412,0.08491020649671555
1772729298448632600,19.526632568359375,0.20219624042510986,-2.4410157203674316,0.4043924808502197
1772729298465979400,19.5439794921875,0.39339691400527954,-3.5521786212921143,0.4831940531730652
1772729298483326000,19.561325927734377,0.27366742491722107,-3.0579891204833984,0.45387253165245056
1772729298500672500,19.578672607421876,0.3341430425643921,-2.455676317214966,0.44470956921577454
1772729298518019000,19.59601904296875,0.12950333952903748,-1.9425499439239502,0.24923282861709595
1772729298535365600,19.61336572265625,-0.2009745091199875,-1.3597849607467651,-0.4111120104789734
1772729298552712200,19.630712158203124,-0.23518294095993042,-1.5876375436782837,-1.063515543937683
1772729298570059000,19.64805908203125,-0.08552107214927673,-2.0720534324645996,-1.250440239906311
1772729298587405600,19.665405517578126,0.023823726922273636,-1.3432916402816772,-1.061682939529419
1772729298604752100,19.682752197265625,-0.05436696484684944,-0.11972949653863907,-0.767857015132904
1772729298622098700,19.7000986328125,-0.05864302068948746,0.6249146461486816,-0.6988292932510376
1772729298639445200,19.7174453125,-0.10018182545900345,0.6615665555000305,-0.8710931539535522
1772729298656791800,19.734791748046874,-0.1692095398902893,-0.039706211537122726,-0.9407317638397217
1772729298674138600,19.752138671875,-0.21197007596492767,-0.8368847370147705,-0.9193515181541443
1772729298691485200,19.769485107421875,-0.25350889563560486,-1.5699224472045898,-0.7935133576393127
1772729298708831700,19.786831787109374,-0.18142683804035187,-1.802051067352295,-0.47952884435653687
1772729298726178300,19.80417822265625,-0.08124501258134842,-1.4666863679885864,-0.006108647678047419
1772729298743524900,19.82152490234375,0.1026252806186676,-0.9327905178070068,0.39828383922576904
1772729298760871700,19.83887158203125,0.23518294095993042,-0.43493571877479553,0.7244856357574463
1772729298778218200,19.85621826171875,0.25961753726005554,-0.14294235408306122,0.8436042666435242
1772729298795564800,19.873564697265625,0.2009745091199875,0.03176496922969818,0.5888736248016357
1772729298812911400,19.890911376953124,0.0824667438864708,-0.1178968995809555,0.08307760953903198
1772729298830258000,19.9082578125,-0.07574722915887833,-0.26450446248054504,-0.3274235129356384
1772729298847604500,19.9256044921875,-0.24434591829776764,-0.0030543238390237093,-0.6994401812553406
1772729298864951000,19.942950927734376,-0.3017672002315521,-0.15699224174022675,-0.5595521330833435
1772729298882297900,19.9602978515625,-0.23518294095993042,-0.8258891701698303,-0.2657261788845062
1772729298899644400,19.97764453125,-0.11545344442129135,-1.2846486568450928,-0.13927717506885529
1772729298916991000,19.994990966796873,-0.09285144507884979,-1.0567960739135742,0.37140578031539917
1772729298934337500,20.012337646484376,-0.16859868168830872,-0.32620179653167725,1.2467750310897827
1772729298951684000,20.02968408203125,-0.40866854786872864,0.5064069032669067,1.916893720626831
1772729298969030700,20.04703076171875,-0.3426951467990875,0.7037162184715271,2.20155668258667
1772729298986377200,20.064377197265625,-0.3329212963581085,0.3035998046398163,2.213163137435913
1772729299003724000,20.08172412109375,-0.389120876789093,0.6023126840591431,1.2565488815307617
1772729299021070600,20.099070556640626,-0.1026252806186676,1.0396918058395386,0.6517927050590515
1772729299038417200,20.116417236328125,0.3384190797805786,0.29443681240081787,0.6328558921813965
1772729299055763700,20.133763671875,0.5760455131530762,-0.24801109731197357,0.36285367608070374
1772729299073110300,20.1511103515625,0.5766563415527344,0.2419024556875229,-0.1081230640411377
1772729299090456800,20.168456787109374,0.536339282989502,0.7739656567573547,-0.5558869242668152
1772729299107803600,20.1858037109375,0.48930269479751587,1.061682939529419,-0.9010255336761475
1772729299125150200,20.203150146484376,0.5583304166793823,1.2889246940612793,-1.0488548278808594
1772729299142496800,20.220496826171875,0.07147117704153061,5.682875156402588,0.9712749719619751
1772729299159843300,20.23784326171875,-0.04825831577181816,7.021279811859131,1.9755367040634155
1772729299177190000,20.25518994140625,-0.04153880476951599,3.9474081993103027,1.2382229566574097
1772729299194536400,20.272536376953123,0.14782927930355072,0.8491020202636719,0.17165300250053406
1772729299211883300,20.28988330078125,0.2993237376213074,-0.6511818766593933,-0.4868592321872711
1772729299229229800,20.307229736328125,0.3176496922969818,-1.848476767539978,-0.7031053900718689
1772729299246576400,20.324576416015624,0.2981020212173462,-2.25531268119812,-0.9187406301498413
1772729299263923000,20.3419228515625,-0.1380554437637329,-2.034790515899658,-1.173471212387085
1772729299281269500,20.35926953125,-0.27488914132118225,-1.4453060626983643,-1.1264346837997437
1772729299298616000,20.376615966796876,0.07147117704153061,1.6762129068374634,-0.007941242307424545
1772729299315963000,20.393962890625,0.036651886999607086,4.115396022796631,1.5503748655319214
1772729299333309400,20.411309326171875,-0.24434591829776764,2.4776675701141357,1.3939933776855469
1772729299350656000,20.428656005859374,-0.26511532068252563,2.221104383468628,0.2003636509180069
1772729299368002600,20.44600244140625,-0.11056652665138245,1.757457971572876,-0.8466585874557495
1772729299385349000,20.46334912109375,-0.25045454502105713,0.47036588191986084,-0.23518294095993042
1772729299402695700,20.48069580078125,-0.7079922556877136,-0.7476984858512878,0.12278381735086441
1772729299420042200,20.498042236328125,-0.05803215503692627,-2.4795000553131104,0.4776962697505951
1772729299437388800,20.515388916015624,0.5705476999282837,-3.481318473815918,0.6493492722511292
1772729299454735600,20.532735595703127,0.573602020740509,-3.0024003982543945,0.24923282861709595
1772729299472082200,20.550082275390626,0.45875945687294006,-2.486219644546509,-0.3029889166355133
1772729299489428700,20.5674287109375,0.3909534513950348,-2.4465134143829346,-0.33719736337661743
1772729299506775300,20.584775390625,0.018325943499803543,-2.171013355255127,-0.33169957995414734
1772729299524121900,20.602121826171874,-0.3426951467990875,-1.5906919240951538,-0.8014546036720276
1772729299541468400,20.619468505859373,-0.3347539007663727,-1.737910270690918,-1.0757328271865845
1772729299558815200,20.636815185546876,-0.2761108875274658,-1.7342450618743896,-0.8344413042068481
1772729299576161800,20.654161865234375,-0.20219624042510986,-0.9028581380844116,-0.5155698657035828
1772729299593508400,20.67150830078125,-0.20219624042510986,-0.16554436087608337,-0.4581485986709595
1772729299610855000,20.68885498046875,-0.20952661335468292,-0.049480047076940536,-0.6243038177490234
1772729299628201500,20.706201416015624,-0.3066541254520416,-0.2626718580722809,-0.7812960743904114
1772729299645548000,20.723548095703126,-0.38179048895835876,-0.618806004524231,-0.8552106618881226
1772729299662894600,20.74089453125,-0.37262752652168274,-1.0928370952606201,-0.7128791809082031
1772729299680241200,20.7582412109375,-0.3194822669029236,-1.266933560371399,-0.46914416551589966
1772729299697588000,20.775587890625,-0.1997527778148651,-1.153923511505127,-0.2162461280822754
1772729299714934500,20.7929345703125,-0.001221729558892548,-0.8552106618881226,0.10018182545900345
1772729299732281000,20.810281005859373,0.23212862014770508,-0.657290518283844,0.42271843552589417
1772729299749627600,20.827627685546876,0.4880809485912323,-0.6157516837120056,0.5845975875854492
1772729299766974200,20.84497412109375,0.6273581385612488,-0.5137372612953186,0.5076286196708679
1772729299784320800,20.86232080078125,0.583375871181488,-0.06291907280683517,0.18203771114349365
1772729299801667300,20.879667236328125,0.34697118401527405,0.4557051360607147,-0.2461785078048706
1772729299819014000,20.897013916015624,-0.021380268037319183,0.9688315391540527,-0.7825177907943726
1772729299836360700,20.914360595703126,-0.09590577334165573,1.08978271484375,-1.1490366458892822
1772729299853707300,20.931707275390625,-0.3176496922969818,0.1130099818110466,-0.9315688014030457
1772729299871053800,20.9490537109375,-0.24556763470172882,-0.7715222239494324,-0.5632173418998718
1772729299888400400,20.966400390625,-0.16554436087608337,-0.565049946308136,0.21930044889450073
1772729299905747000,20.983746826171874,-0.14721840620040894,0.2926042377948761,1.2205078601837158
1772729299923093800,21.00109375,-0.17776164412498474,0.7648026943206787,1.9181153774261475
1772729299940440300,21.0184404296875,-0.27855435013771057,1.0506874322891235,2.2650866508483887
1772729299957787000,21.035786865234375,-0.4202749729156494,0.953559935092926,2.342055559158325
1772729299975133400,21.053133544921874,-0.43982264399528503,0.5845975875854492,1.8588615655899048
1772729299992480000,21.07047998046875,-0.15821397304534912,1.0891718864440918,0.6609556674957275
1772729300009826600,21.08782666015625,0.008552107028663158,0.8845322132110596,0.27550002932548523
1772729300027173000,21.105173095703126,0.28466299176216125,0.29993459582328796,0.0030543238390237093
1772729300044519700,21.122519775390625,0.6640099883079529,0.3329212963581085,-0.24862197041511536
1772729300061866500,21.139866455078124,0.5992583632469177,0.7458658814430237,-0.5766563415527344
1772729300079213000,21.157213134765627,0.4575377106666565,1.1826342344284058,-0.9132428169250488
1772729300096559600,21.1745595703125,0.4043924808502197,1.4074324369430542,-1.2180644273757935
1772729300113906200,21.19190625,0.46608981490135193,2.140470266342163,-1.1972949504852295
1772729300131252700,21.209252685546875,-0.22479823231697083,7.966287612915039,1.2260055541992188
1772729300148599300,21.226599365234375,-0.30054548382759094,7.357866287231445,1.6688826084136963
1772729300165945900,21.24394580078125,-0.31459537148475647,3.0445499420166016,0.8344413042068481
1772729300183292700,21.261292724609376,-0.010995565913617611,-0.014660755172371864,-0.053756099194288254
1772729300200639200,21.27863916015625,0.21319180727005005,-1.0775654315948486,-0.3897317349910736
1772729300217985800,21.29598583984375,0.2614501118659973,-1.9370522499084473,-0.5351175665855408
1772729300235332400,21.313332275390625,0.3194822669029236,-2.526536703109741,-0.7171552777290344
1772729300252679000,21.330678955078124,0.12522727251052856,-2.8295257091522217,-0.9902117848396301
1772729300270025500,21.348025390625,-0.21258094906806946,-1.9663736820220947,-1.0690133571624756
1772729300287372000,21.3653720703125,0.031154103577136993,0.43982264399528503,-0.5485565662384033
1772729300304718600,21.382718505859376,0.22357651591300964,3.342041254043579,0.7250964641571045
1772729300322065200,21.400065185546875,-0.03481929376721382,3.9529058933258057,1.3469568490982056
1772729300339412000,21.417411865234374,-0.2919933497905731,3.174053430557251,0.9950987100601196
1772729300356758500,21.434758544921873,-0.39767298102378845,1.709810495376587,-0.546113133430481
