time,seconds_elapsed,z,y,x
1772729620105378600,0.102378662109375,9.29611587524414,3.5820555686950684,-0.275174617767334
1772729620122723800,0.119723876953125,8.518448829650879,4.082155227661133,-0.9116654396057129
1772729620140069000,0.137069091796875,8.21695327758789,4.694717884063721,-1.3591232299804688
1772729620157414100,0.1544140625,9.10229778289795,5.182853698730469,-1.1078768968582153
1772729620174759400,0.171759521484375,8.477770805358887,5.254638671875,-1.8113667964935303
1772729620192104700,0.189104736328125,8.34855842590332,4.898108005523682,-1.1700903177261353
1772729620209449700,0.20644970703125,8.367700576782227,4.29033088684082,-0.7417750358581543
1772729620226795000,0.223794921875,9.291330337524414,3.7471601963043213,-0.9954141974449158
1772729620244140300,0.241140380859375,10.15753173828125,4.864608287811279,-0.4833501875400543
1772729620261485300,0.2584853515625,8.987442016601562,1.129412293434143,-1.9022940397262573
1772729620278830600,0.27583056640625,8.528019905090332,2.8977081775665283,-0.9284151792526245
1772729620296175600,0.293175537109375,6.905686378479004,5.742774486541748,-0.34217363595962524
1772729620313521000,0.31052099609375,7.975277900695801,5.568098068237305,-0.9762716293334961
1772729620330866200,0.3278662109375,5.737988471984863,3.5533416271209717,-0.6675975322723389
1772729620348211200,0.345211181640625,1.6965112686157227,1.7060825824737549,0.34695929288864136
1772729620365556500,0.362556396484375,1.0959128141403198,1.0959128141403198,2.376072883605957
1772729620382901800,0.37990185546875,3.1752755641937256,-0.2273181527853012,2.045863389968872
1772729620400246800,0.397246826171875,5.295316696166992,-1.5194423198699951,0.19142581522464752
1772729620417592000,0.414592041015625,7.434499740600586,-1.5409778356552124,-1.2251251935958862
1772729620434937000,0.43193701171875,9.109476089477539,-2.6488547325134277,-1.9070796966552734
1772729620452282400,0.449282470703125,9.533005714416504,-3.895515203475952,-1.765903115272522
1772729620469627600,0.466627685546875,8.72901725769043,-4.809573650360107,-2.194218397140503
1772729620486972700,0.48397265625,7.2335028648376465,-3.830909013748169,-2.806781053543091
1772729620504318000,0.50131787109375,6.814758777618408,-4.2209391593933105,-3.153740167617798
1772729620521663200,0.518663330078125,6.685546398162842,-4.357329845428467,-4.603790760040283
1772729620539008300,0.53600830078125,6.7932233810424805,-5.391029357910156,-5.816951751708984
1772729620556353500,0.553353515625,5.532206058502197,-5.972485542297363,-6.695117950439453
1772729620573698800,0.57069873046875,4.120440483093262,-6.939185619354248,-8.02074146270752
1772729620591043800,0.5880439453125,3.9768712520599365,-7.0683979988098145,-9.621540069580078
1772729620608389000,0.60538916015625,4.474578380584717,-7.252645492553711,-11.095519065856934
1772729620625734400,0.622734375,4.792823791503906,-7.944170951843262,-11.84447193145752
1772729620643079400,0.640079345703125,4.084548473358154,-8.551948547363281,-12.143574714660645
1772729620660424700,0.6574248046875,3.1106693744659424,-9.262616157531738,-12.899706840515137
1772729620677770000,0.67477001953125,2.5770699977874756,-9.80100154876709,-13.986048698425293
1772729620695115000,0.692114990234375,2.0099709033966064,-9.77707290649414,-14.835500717163086
1772729620712460300,0.709460205078125,1.8185452222824097,-10.238887786865234,-14.59621810913086
1772729620729805300,0.726805419921875,0.9188438653945923,-10.293923377990723,-13.971691131591797
1772729620747150600,0.744150634765625,0.8087740540504456,-9.78664493560791,-13.60319709777832
1772729620764496000,0.761495849609375,0.8757730722427368,-10.241280555725098,-13.263416290283203
1772729620781841000,0.7788408203125,0.4378865361213684,-10.750951766967773,-12.29671573638916
1772729620799186200,0.796186279296875,-0.5455635786056519,-11.49512004852295,-10.868200302124023
1772729620816531500,0.813531494140625,-0.8446664214134216,-11.906685829162598,-10.382457733154297
1772729620833876500,0.83087646484375,-1.5984054803848267,-11.576476097106934,-10.511670112609863
1772729620851221800,0.8482216796875,-1.5146567821502686,-11.210373878479004,-10.3681001663208
1772729620868566800,0.86556689453125,-1.1988041400909424,-10.88973617553711,-9.9469633102417
1772729620885912000,0.882912109375,-1.6247265338897705,-10.750951766967773,-9.32722282409668
1772729620903257300,0.90025732421875,-2.562713146209717,-9.66939640045166,-8.566305160522461
1772729620920602400,0.917602294921875,-2.9048867225646973,-8.872586250305176,-7.628318786621094
1772729620937947600,0.93494775390625,-1.7994025945663452,-9.382257461547852,-6.632904529571533
1772729620955293000,0.95229296875,-0.9379864931106567,-9.1716890335083,-5.441278457641602
1772729620972638000,0.969637939453125,-0.6293123364448547,-10.133604049682617,-4.1491546630859375
1772729620989983200,0.986983154296875,-1.7132610082626343,-9.753145217895508,-2.234896421432495
1772729621007328500,1.00432861328125,-2.847458839416504,-8.755337715148926,-0.9978070259094238
1772729621024673500,1.021673583984375,-3.3379876613616943,-8.965906143188477,-1.0217353105545044
1772729621042018800,1.039018798828125,-3.735196113586426,-9.119047164916992,-1.919043779373169
1772729621059364000,1.056364013671875,-4.462614059448242,-9.020941734313965,-2.0338993072509766
1772729621076709000,1.073709228515625,-4.273581027984619,-9.468399047851562,-0.20338992774486542
1772729621094054400,1.091054443359375,-3.6634113788604736,-9.540184020996094,0.8207381963729858
1772729621111399700,1.108399658203125,-2.359323024749756,-8.635697364807129,1.770688772201538
1772729621128744700,1.12574462890625,-0.763310432434082,-9.324830055236816,2.967100143432617
1772729621146090000,1.143090087890625,6.675975322723389,-9.987641334533691,5.685346603393555
1772729621163435000,1.16043505859375,3.311666488647461,-6.003592014312744,3.649054527282715
1772729621180780300,1.1777802734375,1.332802176475525,-3.3332018852233887,1.5840486288070679
1772729621198125300,1.195125244140625,0.08614161610603333,-5.548955917358398,1.4787644147872925
1772729621215470600,1.212470703125,-1.9645073413848877,-7.618747234344482,1.6462619304656982
1772729621232815900,1.22981591796875,-3.060420274734497,-6.486942291259766,2.5770699977874756
1772729621250161000,1.247160888671875,-1.5481562614440918,-5.536991596221924,4.335794448852539
1772729621267506200,1.264506103515625,-1.4333007335662842,-5.44845724105835,6.393621921539307
1772729621284851500,1.2818515625,-2.3401806354522705,-5.553741455078125,6.7070817947387695
1772729621302196500,1.299196533203125,-5.06799840927124,-6.276373863220215,5.706881999969482
1772729621319541800,1.316541748046875,-4.797609329223633,-5.38624382019043,2.0650060176849365
1772729621336887000,1.333886962890625,-4.005585193634033,-3.9864425659179688,-2.0745773315429688
1772729621354232000,1.351232177734375,-13.768301963806152,5.4795637130737305,-0.48574298620224
1772729621371577300,1.368577392578125,-2.991028308868408,-6.833901405334473,-3.579662561416626
1772729621388922600,1.385922607421875,3.3020951747894287,2.9862427711486816,-11.753544807434082
1772729621406267600,1.403267578125,-10.786844253540039,5.168497085571289,-13.182060241699219
1772729621423613000,1.420613037109375,-3.3714871406555176,-23.14816665649414,4.067798614501953
1772729621440958200,1.437958251953125,-1.4141582250595093,-19.932212829589844,7.015756130218506
1772729621458303200,1.45530322265625,7.247859954833984,-13.883156776428223,7.544569969177246
1772729621475648500,1.4726484375,2.1822543144226074,-13.622339248657227,13.155738830566406
1772729621492993500,1.48999365234375,-3.7256247997283936,-12.782458305358887,9.083154678344727
1772729621510338800,1.5073388671875,-2.610569477081299,-7.489534854888916,2.4047868251800537
1772729621527684000,1.52468408203125,-2.242074728012085,-5.048855781555176,0.9092726111412048
1772729621545029000,1.542029052734375,-4.551148891448975,-5.697310924530029,1.8759729862213135
1772729621562374400,1.55937451171875,-5.259424209594727,-8.563912391662598,6.58265495300293
1772729621579719700,1.5767197265625,-5.441278457641602,-9.757930755615234,6.561119556427002
1772729621597064700,1.594064697265625,-1.0552347898483276,-4.960321426391602,0.48574298620224
1772729621614410000,1.611409912109375,4.041477680206299,-4.115654945373535,-7.944170951843262
1772729621631755000,1.628755126953125,3.2039895057678223,-6.565905570983887,-2.9048867225646973
1772729621649100300,1.646100341796875,3.8883368968963623,-8.793622970581055,-4.3788652420043945
1772729621666445600,1.663445556640625,3.675375461578369,-7.798209190368652,-2.943171739578247
1772729621683790600,1.68079052734375,1.3304094076156616,-8.901300430297852,-2.3497519493103027
1772729621701136000,1.698135986328125,-1.7276179790496826,-10.059426307678223,-2.4765713214874268
1772729621718481200,1.715481201171875,1.4835500717163086,-13.052847862243652,-1.0097711086273193
1772729621735826200,1.732826171875,-8.492127418518066,-17.302499771118164,6.314659118652344
1772729621753171500,1.75017138671875,-6.496513366699219,-14.904891967773438,2.4909284114837646
1772729621770516500,1.7675166015625,-2.6703901290893555,-9.456435203552246,0.3613162338733673
1772729621787861800,1.78486181640625,-1.9884356260299683,-8.597412109375,-0.641276478767395
1772729621805207000,1.80220703125,-0.09092725813388824,-9.726823806762695,-1.2897313833236694
1772729621822552000,1.819552001953125,-3.177668571472168,-11.038090705871582,-1.5553346872329712
1772729621839897300,1.8368974609375,-1.730010747909546,-9.181260108947754,-0.885344386100769
1772729621857242400,1.854242431640625,-0.9379864931106567,-9.899106979370117,-2.4765713214874268
1772729621874587600,1.871587646484375,-1.1940184831619263,-8.516056060791016,-0.9284151792526245
1772729621891933000,1.888932861328125,0.12442677468061447,-9.748359680175781,-0.5072783827781677
1772729621909278000,1.90627783203125,1.210768222808838,-11.270195007324219,-1.0432707071304321
1772729621926623200,1.923623291015625,2.8043880462646484,-12.023933410644531,-1.8975083827972412
1772729621943968300,1.94096826171875,3.5509488582611084,-8.958727836608887,-3.4815568923950195
1772729621961313500,1.9583134765625,0.6604190468788147,-8.264809608459473,-2.227717876434326
1772729621978658800,1.975658935546875,-1.069591760635376,-10.1216402053833,-1.6701902151107788
1772729621996003800,1.99300390625,-0.3684946894645691,-12.818350791931152,0.32542386651039124
1772729622013349000,2.01034912109375,1.2705888748168945,-11.140982627868652,0.5264210104942322
1772729622030694400,2.0276943359375,-1.0049854516983032,-14.167902946472168,-0.6317051649093628
1772729622048039400,2.045039306640625,-1.679761528968811,-18.151952743530273,-3.304488182067871
1772729622065384700,2.062384765625,-1.098305583000183,-8.317451477050781,-0.8135597109794617
1772729622082729700,2.079729736328125,2.2947168350219727,-7.420143127441406,0.24167509377002716
1772729622100075000,2.097074951171875,3.3643085956573486,-7.893921852111816,0.3206382393836975
1772729622117420300,2.114420166015625,0.9188438653945923,-11.502298355102539,0.15314064919948578
1772729622134765300,2.131765380859375,-0.6867401003837585,-12.476177215576172,-0.9643075466156006
1772729622152110600,2.149110595703125,-0.8709874153137207,-12.06939697265625,-0.28953152894973755
1772729622169455900,2.166455810546875,-0.8590233325958252,-8.094919204711914,-0.851844847202301
1772729622186801000,2.18380078125,1.1054840087890625,-6.903293132781982,-0.6029912829399109
1772729622204146200,2.201146240234375,0.397208571434021,-8.334200859069824,0.15314064919948578
1772729622221491200,2.2184912109375,-0.4570291340351105,-8.700303077697754,0.2799602448940277
1772729622238836500,2.23583642578125,-1.1485549211502075,-8.970691680908203,0.11485548317432404
1772729622256181800,2.253181640625,-0.9379864931106567,-9.810572624206543,-0.349352091550827
1772729622273526800,2.27052685546875,-0.4019941985607147,-10.796415328979492,-0.6843472719192505
1772729622290872000,2.2878720703125,-0.23688943684101105,-10.686346054077148,-0.6819544434547424
1772729622308217000,2.305217041015625,-0.014356935396790504,-10.021141052246094,-0.6580262184143066
1772729622325562400,2.322562255859375,-0.10049854964017868,-9.477970123291016,-0.6340979933738708
1772729622342907600,2.33990771484375,-0.13878370821475983,-9.083154678344727,-0.763310432434082
1772729622360252700,2.357252685546875,-0.36610186100006104,-8.992227554321289,-1.0001999139785767
1772729622377598000,2.374597900390625,-0.4211367964744568,-9.317651748657227,-1.2370892763137817
1772729622394943200,2.391943115234375,-0.4307080805301666,-9.836894035339355,-1.3710874319076538
1772729622412288300,2.409288330078125,-0.37088751792907715,-10.112068176269531,-1.2610175609588623
1772729622429633500,2.426633544921875,-0.40677985548973083,-10.272387504577637,-0.9260223507881165
1772729622446978800,2.443978759765625,-0.5407779216766357,-10.097711563110352,-1.0336993932724
1772729622464323800,2.46132373046875,-0.5527420043945312,-9.80817985534668,-1.4428720474243164
1772729622481669000,2.478669189453125,-0.4331009089946747,-9.748359680175781,-1.7276179790496826
1772729622499014100,2.49601416015625,-0.24885354936122894,-9.958928108215332,-1.6893328428268433
1772729622516359400,2.513359375,-0.02153540402650833,-10.078569412231445,-1.3806586265563965
1772729622533704700,2.53070458984375,0.05503492057323456,-10.076175689697266,-1.0480563640594482
1772729622551049700,2.5480498046875,0.12921242415905,-9.93978500366211,-0.9643075466156006
1772729622568395000,2.56539501953125,0.10767702013254166,-9.68375301361084,-1.069591760635376
1772729622585740300,2.582740234375,-0.016749758273363113,-9.422935485839844,-1.2251251935958862
1772729622603085300,2.600085205078125,0,-9.432506561279297,-1.3758729696273804
1772729622620430600,2.6174306640625,0.19621145725250244,-9.623932838439941,-1.428515076637268
1772729622637775600,2.634775634765625,0.48813581466674805,-9.738788604736328,-1.4763715267181396
1772729622655121000,2.652120849609375,0.7704889178276062,-9.779465675354004,-1.4213366508483887
1772729622672466200,2.669466064453125,0.8183453679084778,-9.93978500366211,-1.3232308626174927
1772729622689811200,2.686811279296875,0.6604190468788147,-9.992427825927734,-1.1318050622940063
1772729622707156500,2.704156494140625,0.6245267391204834,-10.03310489654541,-1.069591760635376
1772729622724501800,2.721501708984375,0.6771687865257263,-10.205389022827148,-0.7417750358581543
1772729622741846800,2.7388466796875,0.727418065071106,-10.396814346313477,-0.35892340540885925
1772729622759192000,2.756192138671875,0.7561319470405579,-10.461421012878418,-0.1746760457754135
1772729622776537000,2.773537109375,0.7250252366065979,-10.40638542175293,-0.19142581522464752
1772729622793882400,2.79088232421875,0.9260223507881165,-10.133604049682617,-0.31106695532798767
1772729622811227600,2.8082275390625,1.2442678213119507,-9.67657470703125,-0.6364908218383789
1772729622828572700,2.82557275390625,1.2418749332427979,-9.231510162353516,-1.0456634759902954
1772729622845918000,2.84291796875,1.0719845294952393,-8.927620887756348,-1.3232308626174927
1772729622863263000,2.860262939453125,0.9978070259094238,-8.748159408569336,-1.5409778356552124
1772729622880608300,2.877608154296875,1.062413215637207,-8.609375953674316,-1.6223337650299072
1772729622897953300,2.894953369140625,1.0193424224853516,-8.585447311401367,-1.5912270545959473
1772729622915298600,2.912298583984375,0.8709874153137207,-8.776873588562012,-1.459621787071228
1772729622932643800,2.929643798828125,0.8135597109794617,-9.324830055236816,-1.1102696657180786
1772729622949988900,2.94698876953125,0.6340979933738708,-10.068997383117676,-0.7082754969596863
1772729622967334100,2.964334228515625,0.5024927258491516,-10.179067611694336,-0.6556333899497986
1772729622984679400,2.981679443359375,0.5048855543136597,-10.001998901367188,-1.0863415002822876
1772729623002024400,2.9990244140625,0.7226324677467346,-9.597611427307129,-1.6247265338897705
1772729623019369700,3.01636962890625,0.8039883971214294,-9.638289451599121,-1.7611174583435059
1772729623036714800,3.03371484375,0.35413774847984314,-10.01874828338623,-1.545763373374939
1772729623054060000,3.05106005859375,-0.6939185857772827,-9.91107177734375,-1.1820544004440308
1772729623071405300,3.0684052734375,-1.0839486122131348,-9.757930755615234,-0.4546363055706024
1772729623088750300,3.085750244140625,-1.196411371231079,-9.729216575622559,0.5072783827781677
1772729623106095600,3.103095703125,-1.332802176475525,-9.954142570495605,1.1629117727279663
1772729623123441000,3.12044091796875,-1.2203395366668701,-10.224531173706055,0.7848458290100098
1772729623140786000,3.137785888671875,-0.6867401003837585,-10.813165664672852,-0.1866401731967926
1772729623158131200,3.155131103515625,-0.1746760457754135,-10.738987922668457,-0.48813581466674805
1772729623175476200,3.172476318359375,-0.05503492057323456,-9.671789169311523,-0.38285163044929504
1772729623192821500,3.189821533203125,-0.4737788736820221,-8.846264839172363,-0.3086741268634796
1772729623210166800,3.207166748046875,-0.8255237936973572,-8.673981666564941,-0.5479564070701599
1772729623227511800,3.22451171875,-1.098305583000183,-9.212367057800293,-0.9595218896865845
1772729623244857000,3.241857177734375,-1.2849457263946533,-9.841679573059082,-0.5623133182525635
1772729623262202000,3.2592021484375,-1.5864413976669312,-10.009177207946777,-0.16510476171970367
1772729623279547400,3.27654736328125,-1.950150489807129,-9.585647583007812,0.3158525824546814
1772729623296892700,3.293892578125,-2.3569302558898926,-8.994620323181152,1.0480563640594482
1772729623314237700,3.31123779296875,-2.344966173171997,-8.779266357421875,1.8161523342132568
1772729623331583000,3.3285830078125,-1.852044701576233,-8.183453559875488,1.2083754539489746
1772729623348928000,3.345927978515625,-1.2011969089508057,-7.463213920593262,0.064606212079525
1772729623366273300,3.363273193359375,-0.9930213689804077,-7.841279983520508,-0.11006984114646912
1772729623383618600,3.38061865234375,-0.9643075466156006,-8.812766075134277,-0.5407779216766357
1772729623400963600,3.397963623046875,-1.3926228284835815,-9.8871431350708,-1.0049854516983032
1772729623418308900,3.415308837890625,-2.060220241546631,-10.868200302124023,-1.3184453248977661
1772729623435654000,3.43265380859375,-1.9645073413848877,-11.492727279663086,-1.7994025945663452
1772729623452999200,3.449999267578125,-2.706282377243042,-11.382657051086426,-1.1150553226470947
1772729623470344400,3.467344482421875,-2.297109842300415,-11.272587776184082,-0.3732803463935852
1772729623487689500,3.484689453125,-4.4243292808532715,-10.963912963867188,0.9882357716560364
1772729623505034800,3.50203466796875,-5.166104316711426,-10.736595153808594,1.9022940397262573
1772729623522379800,3.5193798828125,-0.5000999569892883,-9.89432144165039,-0.6508477330207825
1772729623539725000,3.53672509765625,3.7112679481506348,-11.387442588806152,-5.2115678787231445
1772729623557070300,3.5540703125,0.9284151792526245,-17.158931732177734,-7.310073375701904
1772729623574415400,3.571415283203125,-3.053241729736328,-17.230716705322266,-5.096712112426758
1772729623591760600,3.5887607421875,-2.4119651317596436,-9.93260669708252,-1.1389836072921753
1772729623609106000,3.60610595703125,-0.7106683254241943,-5.01296329498291,0.08614161610603333
1772729623626451000,3.623450927734375,0.605384111404419,-5.015356063842773,0.5886343717575073
1772729623643796200,3.640796142578125,-0.20099709928035736,-7.781459331512451,-0.5312066078186035
1772729623661141200,3.658141357421875,2.297109842300415,-10.380064964294434,-2.7278177738189697
1772729623678486500,3.675486572265625,3.78544545173645,-11.791830062866211,-5.594419479370117
1772729623695831600,3.69283154296875,2.297109842300415,-13.452448844909668,-6.025127410888672
1772729623713176800,3.7101767578125,1.2394821643829346,-13.028919219970703,-5.113461971282959
1772729623730522000,3.727522216796875,0.6436693072319031,-12.617353439331055,0.8015955686569214
1772729623747867100,3.7448671875,-0.5144568681716919,-15.1417818069458,7.2574310302734375
1772729623765212400,3.76221240234375,0.11964113265275955,-15.215959548950195,7.960920810699463
1772729623782557400,3.779557373046875,2.6775684356689453,-9.858428955078125,5.776273727416992
1772729623799902700,3.79690283203125,4.000799655914307,-5.807380676269531,2.242074728012085
1772729623817247700,3.814247802734375,5.058426856994629,-4.632504463195801,-1.0456634759902954
1772729623834593000,3.831593017578125,4.386044025421143,-2.9718856811523438,-5.661418437957764
1772729623851938000,3.84893798828125,2.5292134284973145,-3.5844483375549316,-8.193024635314941
1772729623869283300,3.866283447265625,0.19621145725250244,-4.859822750091553,-8.327022552490234
1772729623886628600,3.883628662109375,-2.3258235454559326,-4.273581027984619,-8.405985832214355
1772729623903973600,3.9009736328125,-4.9124650955200195,-2.242074728012085,-9.145368576049805
1772729623921319000,3.91831884765625,-6.63769006729126,-0.9427721500396729,-10.363314628601074
1772729623938664000,3.935663818359375,-8.432307243347168,-3.2685956954956055,-10.987841606140137
1772729623956009200,3.95300927734375,-8.824729919433594,-5.582455158233643,-12.844672203063965
1772729623973354500,3.9703544921875,-9.107083320617676,-5.3312087059021,-19.11865234375
1772729623990699500,3.987699462890625,-11.073983192443848,-4.517649173736572,-21.080766677856445
1772729624008044800,4.005044921875,-10.394421577453613,-5.254638671875,-14.601003646850586
1772729624025389800,4.022389892578125,-9.336793899536133,-7.255038261413574,-7.032505512237549
1772729624042735000,4.039735107421875,-8.104490280151367,-8.166703224182129,-1.6103696823120117
1772729624060080000,4.057080078125,-3.7878382205963135,-6.821937561035156,-0.4570291340351105
1772729624077425400,4.07442529296875,-3.3332018852233887,-4.919643402099609,-3.462414264678955
1772729624094770700,4.091770751953125,-5.515456199645996,-1.6271194219589233,-4.890929698944092
1772729624112115700,4.10911572265625,-5.00578498840332,0.9786644577980042,-3.060420274734497
1772729624129461000,4.1264609375,-4.151547431945801,1.8305093050003052,-1.3423734903335571
1772729624146806000,4.143805908203125,-4.161118507385254,1.8999011516571045,-1.832902193069458
1772729624164151300,4.1611513671875,-6.4079790115356445,-1.3830515146255493,-3.6921253204345703
1772729624181496600,4.17849658203125,-6.329015731811523,-4.094119548797607,-4.7401814460754395
1772729624198841600,4.195841552734375,-4.847858905792236,-5.594419479370117,-3.751945972442627
1772729624216187000,4.213186767578125,-2.919243574142456,-5.106283664703369,-2.8187451362609863
1772729624233532000,4.230531982421875,-2.555534601211548,-3.8668015003204346,-2.8666014671325684
1772729624250877200,4.247877197265625,-2.6297121047973633,-2.902493953704834,-3.4265220165252686
1772729624268222500,4.265222412109375,-1.4715858697891235,-3.5844483375549316,-5.115854740142822
1772729624285567500,4.2825673828125,-1.4500504732131958,-4.730610370635986,-6.836294174194336
1772729624302912800,4.299912841796875,-3.9984066486358643,-5.663811206817627,-9.856036186218262
1772729624320257800,4.3172578125,-6.640082836151123,-7.874779224395752,-13.117453575134277
1772729624337603000,4.33460302734375,-7.613961696624756,-6.2500529289245605,-14.445469856262207
1772729624354948400,4.3519482421875,-6.441478729248047,-0.36610186100006104,-13.808979034423828
1772729624372293400,4.36929345703125,-5.142175674438477,3.3714871406555176,-15.084354400634766
1772729624389638700,4.386638671875,-5.395814895629883,2.837887763977051,-20.159530639648438
1772729624406984000,4.40398388671875,-5.044070243835449,0.09810572862625122,-20.135602951049805
1772729624424329000,4.421328857421875,-4.5583271980285645,-0.8231309652328491,-13.83530044555664
1772729624441674200,4.43867431640625,-5.079962253570557,-1.2179467678070068,-9.650253295898438
1772729624459019300,4.456019287109375,-5.601597785949707,-1.2275179624557495,-7.312466144561768
1772729624476364500,4.473364501953125,-5.960521221160889,-2.1678972244262695,-6.39601469039917
1772729624493709600,4.49070947265625,-5.613562107086182,-4.862215518951416,-6.38165807723999
1772729624511054800,4.508054931640625,-5.06082010269165,-9.09990406036377,-6.187839508056641
1772729624528400100,4.525400146484375,-3.7950167655944824,-9.135796546936035,-4.54636287689209
1772729624545745200,4.5427451171875,-3.0580272674560547,-6.099305152893066,-1.7635103464126587
1772729624563090400,4.56009033203125,-3.6705899238586426,-3.656233072280884,-0.02871387079358101
1772729624580435500,4.577435546875,-3.4265220165252686,-3.4265220165252686,1.0432707071304321
1772729624597780700,4.59478076171875,-3.483949661254883,-4.682754039764404,0.8997012972831726
1772729624615125800,4.612125732421875,-1.5960127115249634,-7.010970115661621,0.34217363595962524
1772729624632471000,4.629470947265625,0.30149564146995544,-10.832307815551758,-0.07657032459974289
1772729624649816300,4.64681640625,0.8374879360198975,-15.06999683380127,-1.3758729696273804
1772729624667161300,4.664161376953125,2.1607189178466797,-20.585453033447266,-0.973878800868988
1772729624684506600,4.681506591796875,5.010570526123047,-21.915863037109375,-1.3878371715545654
1772729624701851600,4.6988515625,2.1104695796966553,-14.395220756530762,-1.2945170402526855
1772729624719197000,4.716197021484375,0.8638089895248413,-9.293723106384277,-0.4450650215148926
1772729624736542000,4.7335419921875,-0.8087740540504456,-6.082555294036865,0.24885354936122894
1772729624753887200,4.75088720703125,-1.911865234375,-4.309473514556885,0.9427721500396729
1772729624771232300,4.768232177734375,-2.4358935356140137,-4.208974838256836,0.44745782017707825
1772729624788577500,4.78557763671875,-3.5294134616851807,-6.329015731811523,-2.469393014907837
1772729624805922800,4.8029228515625,-5.252245903015137,-8.441878318786621,-6.032305717468262
1772729624823267800,4.820267822265625,-3.7232320308685303,-9.607182502746582,-8.575876235961914
1772729624840613000,4.837613037109375,-2.163111686706543,-10.006784439086914,-9.798608779907227
1772729624857958100,4.854958251953125,-0.8757730722427368,-10.96869945526123,-8.764909744262695
1772729624875303400,4.872303466796875,-1.954936146736145,-10.798809051513672,-3.4791641235351562
1772729624892648400,4.8896484375,-5.13739013671875,-11.693724632263184,0.02153540402650833
1772729624909993700,4.90699365234375,-8.126026153564453,-12.29671573638916,1.3591232299804688
1772729624927338800,4.9243388671875,-7.850851058959961,-10.559526443481445,1.679761528968811
1772729624944684000,4.94168408203125,-5.752345561981201,-7.3675007820129395,1.5720844268798828
1772729624962029300,4.959029296875,-4.455435752868652,-6.893722057342529,0.9284151792526245
1772729624979374300,4.976374267578125,-3.9218363761901855,-8.432307243347168,1.0767701864242554
1772729624996719600,4.9937197265625,-3.6323046684265137,-8.71226692199707,1.4069796800613403
1772729625014064600,5.011064697265625,-3.6705899238586426,-8.336593627929688,1.1676974296569824
1772729625031410000,5.028409912109375,-2.746960401535034,-8.271987915039062,0.12442677468061447
1772729625048755000,5.0457548828125,-2.854637384414673,-8.882157325744629,-0.9092726111412048
1772729625066100200,5.063100341796875,-2.943171739578247,-9.956535339355469,-0.5288137793540955
1772729625083445500,5.080445556640625,-3.0484559535980225,-10.207781791687012,1.801795482635498
1772729625100790500,5.09779052734375,-3.074777126312256,-10.12881851196289,3.184846878051758
1772729625118135800,5.1151357421875,-2.172683000564575,-10.238887786865234,2.0195422172546387
1772729625135480800,5.132480712890625,-1.5912270545959473,-10.707880973815918,0.2632105052471161
1772729625152826000,5.149826171875,-1.8496519327163696,-11.423335075378418,-0.44027936458587646
1772729625170171100,5.167171142578125,-2.5435705184936523,-11.313265800476074,-0.18903298676013947
1772729625187516400,5.184516357421875,-3.517449378967285,-9.954142570495605,0.5623133182525635
1772729625204861400,5.201861328125,-4.742574691772461,-9.183652877807617,1.557727575302124
1772729625222206700,5.219206787109375,-5.888736724853516,-8.410771369934082,1.828116536140442
1772729625239552000,5.236552001953125,-6.001199245452881,-8.671588897705078,1.4979069232940674
1772729625256897000,5.25389697265625,-6.357729911804199,-9.21715259552002,1.9334007501602173
1772729625274242300,5.2712421875,-7.338787078857422,-9.757930755615234,1.6773686408996582
1772729625291587300,5.28858740234375,-7.836493968963623,-9.891928672790527,-0.275174617767334
1772729625308932600,5.3059326171875,-8.329415321350098,-9.714859962463379,-1.8472590446472168
1772729625326277600,5.323277587890625,-7.5565338134765625,-9.06401252746582,-3.091526746749878
1772729625343623000,5.340622802734375,-4.505684852600098,-6.742974281311035,-4.577469825744629
1772729625360968000,5.357968017578125,-1.0767701864242554,-5.548955917358398,-8.353343963623047
1772729625378313200,5.375313232421875,1.7443677186965942,-10.990234375,-13.371092796325684
1772729625395658200,5.392658203125,-4.063013076782227,-13.2897367477417,-7.410571575164795
1772729625413003500,5.41000341796875,-7.566105365753174,-10.99741268157959,1.794616937637329
1772729625430348800,5.427348876953125,-8.240880966186523,-9.7005033493042,5.079962253570557
1772729625447693800,5.44469384765625,-0.8470591902732849,-6.556334018707275,0.8350951075553894
1772729625465039000,5.4620390625,2.65842604637146,-9.980463027954102,-0.6125625967979431
1772729625482384100,5.479384033203125,0.6604190468788147,-15.75434398651123,-3.6059837341308594
1772729625499729400,5.4967294921875,0.2560320198535919,-13.423734664916992,-3.6323046684265137
1772729625517074400,5.514074462890625,-5.359922885894775,-11.93061351776123,0.8087740540504456
1772729625534419700,5.531419677734375,-4.051048755645752,-6.439085960388184,2.2779672145843506
1772729625551765000,5.548764892578125,0.15314064919948578,-5.5106706619262695,1.2658032178878784
1772729625569110000,5.566110107421875,3.177668571472168,-8.135597229003906,-1.428515076637268
1772729625586455300,5.583455322265625,1.576870083808899,-10.205389022827148,-4.960321426391602
1772729625603800300,5.60080029296875,-0.32303106784820557,-8.839086532592773,-6.592226505279541
1772729625621145600,5.6181455078125,-2.682354211807251,-7.884350776672363,-7.058826923370361
1772729625638490600,5.63549072265625,-3.5533416271209717,-9.298508644104004,-7.23589563369751
1772729625655836000,5.6528359375,-4.855037212371826,-12.081361770629883,-3.3858439922332764
1772729625673181000,5.670180908203125,-5.680561065673828,-13.284951210021973,-2.579462766647339
1772729625690526200,5.687526123046875,-5.723631858825684,-10.188638687133789,-6.063412666320801
1772729625707871200,5.704871337890625,-4.687539577484131,-2.7876384258270264,-12.689138412475586
1772729625725216500,5.722216552734375,-7.465606689453125,4.718646049499512,-15.574882507324219
1772729625742561800,5.739561767578125,-8.61894702911377,4.204189300537109,-15.227923393249512
1772729625759906800,5.75690673828125,-8.793622970581055,5.383851051330566,-18.94158363342285
1772729625777252000,5.774252197265625,-6.941578388214111,0.3038884699344635,-15.443277359008789
1772729625794597000,5.79159716796875,-6.876972198486328,-4.589433670043945,-10.15035343170166
1772729625811942400,5.8089423828125,-8.585447311401367,-7.518248558044434,-5.1182475090026855
1772729625829287400,5.826287353515625,-7.558926582336426,-7.063612461090088,-1.3543375730514526
1772729625846632700,5.8436328125,-4.457828521728516,-2.5148565769195557,2.0003998279571533
1772729625863977700,5.860977783203125,-0.8973084688186646,2.833101987838745,3.1992039680480957
1772729625881323000,5.878322998046875,-2.2325034141540527,5.441278457641602,2.1056840419769287
1772729625898668300,5.895668212890625,-2.500499725341797,-0.5790630578994751,0.16510476171970367
1772729625916013300,5.913013427734375,-3.136990547180176,-6.034698486328125,-2.8354947566986084
1772729625933358600,5.930358642578125,-4.541577339172363,-5.864808082580566,-5.333601474761963
1772729625950703600,5.94770361328125,-4.778466701507568,-5.197210788726807,-5.661418437957764
1772729625968049000,5.965048828125,-5.1565327644348145,-5.216353416442871,-5.2737812995910645
1772729625985394000,5.982393798828125,-4.634897232055664,-5.996413707733154,-5.395814895629883
1772729626002739200,5.9997392578125,-3.2470602989196777,-6.099305152893066,-5.84566593170166
1772729626020084200,6.017084228515625,-2.0721843242645264,-5.041677474975586,-6.594619274139404
1772729626037429500,6.034429443359375,-2.4023938179016113,-4.350151538848877,-8.434700012207031
1772729626054774800,6.05177490234375,-3.4959139823913574,-5.221138954162598,-10.911271095275879
1772729626072119800,6.069119873046875,-3.0029923915863037,-5.592026710510254,-12.966706275939941
1772729626089465000,6.086465087890625,-4.063013076782227,-4.764110088348389,-15.139389038085938
1772729626106810000,6.10381005859375,-3.4241292476654053,-3.996013879776001,-17.855241775512695
1772729626124155400,6.1211552734375,-4.737788677215576,-1.459621787071228,-16.555940628051758
1772729626141500700,6.138500732421875,-5.694917678833008,3.326023578643799,-10.992627143859863
1772729626158845700,6.155845703125,-5.170889854431152,5.383851051330566,-8.047062873840332
1772729626176191000,6.17319091796875,-3.4983067512512207,-0.16271193325519562,-7.470392227172852
1772729626193536000,6.190535888671875,-3.201596736907959,-5.359922885894775,-6.357729911804199
1772729626210881300,6.20788134765625,-3.4887354373931885,-8.3629150390625,-4.878965377807617
1772729626228226300,6.225226318359375,-2.620140790939331,-11.952149391174316,-3.1896326541900635
1772729626245571600,6.242571533203125,-1.210768222808838,-14.658431053161621,-3.744767427444458
1772729626262916900,6.259916748046875,0.6484549641609192,-13.495519638061523,-4.436293125152588
1772729626280262000,6.277261962890625,0.8733802437782288,-10.248459815979004,-3.9529430866241455
1772729626297607200,6.294607177734375,0.7585247755050659,-8.803194046020508,-4.957928657531738
1772729626314952200,6.3119521484375,0.5431707501411438,-7.8795647621154785,-6.278766632080078
1772729626332297500,6.32929736328125,0.5862415432929993,-7.192824840545654,-7.010970115661621
1772729626349642800,6.346642822265625,0.24406790733337402,-6.348158359527588,-7.252645492553711
1772729626366987800,6.36398779296875,0.19621145725250244,-5.749952793121338,-6.6113691329956055
1772729626384333000,6.3813330078125,0.7752745151519775,-6.022734642028809,-6.271588325500488
1772729626401678000,6.398677978515625,1.435693621635437,-7.472784996032715,-5.78345251083374
1772729626419023400,6.4160234375,3.2446675300598145,-9.789037704467773,-4.66361141204834
1772729626436368400,6.433368408203125,5.123033046722412,-12.28953742980957,-4.874179840087891
1772729626453713700,6.450713623046875,3.6059837341308594,-15.206387519836426,-6.092126369476318
1772729626471058700,6.46805859375,1.1318050622940063,-19.482362747192383,-5.527420520782471
1772729626488404000,6.485404052734375,-1.5481562614440918,-17.06321907043457,-4.603790760040283
1772729626505749200,6.502749267578125,-3.713660717010498,-4.749752998352051,-3.7878382205963135
1772729626523094300,6.52009423828125,-5.802595138549805,1.734796404838562,-4.955535888671875
1772729626540439600,6.537439453125,-5.259424209594727,0.16271193325519562,-4.977071285247803
1772729626557784600,6.55478466796875,-0.8087740540504456,-5.656632900238037,-2.7110681533813477
1772729626575129900,6.5721298828125,0.07178468257188797,-12.220145225524902,0.12203395366668701
1772729626592475000,6.589474853515625,-3.9457645416259766,-15.136996269226074,-0.019142581149935722
1772729626609820200,6.606820068359375,-6.63769006729126,-14.388042449951172,-2.723032236099243
1772729626627165200,6.624165283203125,-3.3930225372314453,-10.71984577178955,-3.7399818897247314
1772729626644510500,6.641510498046875,-0.9188438653945923,-5.998806476593018,-3.7016966342926025
1772729626661855500,6.65885546875,-0.698704183101654,-6.740581512451172,-2.7326035499572754
1772729626679200800,6.67620068359375,-2.0506489276885986,-9.20997428894043,-3.239881753921509
1772729626696545800,6.6935458984375,-3.689732551574707,-10.770094871520996,-3.105883836746216
1772729626713891000,6.71089111328125,-3.555734395980835,-11.432906150817871,-1.8496519327163696
1772729626731236400,6.728236328125,-1.8185452222824097,-11.160124778747559,-1.1318050622940063
1772729626748581400,6.745581298828125,-2.321038007736206,-10.305887222290039,-0.9547362327575684
1772729626765926700,6.7629267578125,-3.2279176712036133,-9.391828536987305,-0.7489534616470337
1772729626783271700,6.780271728515625,-3.122633457183838,-9.080761909484863,-0.6699903607368469
1772729626800617000,6.797616943359375,-1.038485050201416,-10.650453567504883,-0.7417750358581543
1772729626817962000,6.8149619140625,0.15074782073497772,-12.39721393585205,0.08135596662759781
1772729626835307300,6.832307373046875,0.35413774847984314,-13.37587833404541,1.0001999139785767
1772729626852652500,6.849652587890625,0.016749758273363113,-12.658031463623047,1.4715858697891235
1772729626869997600,6.86699755859375,-0.2273181527853012,-10.76530933380127,1.4021940231323242
1772729626887342800,6.8843427734375,-0.5072783827781677,-9.542576789855957,0.28953152894973755
1772729626904687900,6.90168798828125,-0.4905286431312561,-9.487542152404785,-0.13160525262355804
1772729626922033200,6.919033203125,0.04546362906694412,-9.626325607299805,0.4785645306110382
1772729626939378200,6.936378173828125,0.7106683254241943,-9.824930191040039,0.7992027401924133
1772729626956723500,6.953723388671875,1.3232308626174927,-10.676774978637695,0.34695929288864136
1772729626974068700,6.97106884765625,1.4404792785644531,-11.475976943969727,-0.5240281820297241
1772729626991413800,6.988413818359375,0.9978070259094238,-10.573883056640625,-0.19142581522464752
1772729627008759000,7.005759033203125,1.0456634759902954,-9.78664493560791,0.24406790733337402
1772729627026104000,7.02310400390625,0.9930213689804077,-8.83669376373291,0.5096712112426758
1772729627043449300,7.040449462890625,0.9619147181510925,-8.365307807922363,0.2919243574142456
1772729627060794400,7.05779443359375,1.2011969089508057,-8.358129501342773,-0.39960137009620667
1772729627078139600,7.0751396484375,1.7132610082626343,-8.451449394226074,-1.5792629718780518
1772729627095484700,7.092484619140625,2.1296122074127197,-9.236295700073242,-2.7349963188171387
1772729627112830000,7.109829833984375,2.555534601211548,-9.987641334533691,-2.830709218978882
1772729627130175000,7.127175048828125,3.3068809509277344,-10.62413215637207,-2.6249263286590576
1772729627147520300,7.144520263671875,3.139383316040039,-10.619346618652344,-2.1032910346984863
1772729627164865300,7.161865234375,1.9214365482330322,-10.53799057006836,-1.9405791759490967
1772729627182210600,7.17921044921875,0.7441678643226624,-8.446663856506348,-1.576870083808899
1772729627199555600,7.1965556640625,0.35413774847984314,-7.936992645263672,-1.3112667798995972
1772729627216900900,7.21390087890625,0.2799602448940277,-7.944170951843262,-0.29431718587875366
1772729627234246100,7.23124609375,0.605384111404419,-7.939385414123535,0.6317051649093628
1772729627251591200,7.248591064453125,0.18903298676013947,-8.458627700805664,1.2538390159606934
1772729627268936400,7.2659365234375,-0.6340979933738708,-8.724231719970703,1.1126625537872314
1772729627286281500,7.283281494140625,-1.275374412536621,-9.159725189208984,0.8470591902732849
1772729627303626800,7.300626708984375,-1.301695466041565,-9.609575271606445,-0.0023928226437419653
1772729627320971800,7.3179716796875,-1.0528420209884644,-9.803394317626953,-1.4404792785644531
1772729627338317000,7.335317138671875,0.02392822690308094,-9.073583602905273,-2.1607189178466797
1772729627355662300,7.352662353515625,0.8877372145652771,-8.597412109375,-1.9645073413848877
1772729627373007400,7.37000732421875,1.9142581224441528,-12.827921867370605,-2.3330020904541016
1772729627390352600,7.3873525390625,0.9547362327575684,-13.469198226928711,-2.3306093215942383
1772729627407697700,7.40469775390625,0.9355936646461487,-10.473384857177734,-4.019941806793213
1772729627425043000,7.42204296875,0.11006984114646912,-9.719645500183105,-4.376472473144531
1772729627442388000,7.439387939453125,0.4713860750198364,-9.207581520080566,-3.036491870880127
1772729627459733200,7.456733154296875,2.227717876434326,-11.760723114013672,-2.2301106452941895
1772729627477078300,7.474078369140625,1.4859428405761719,-14.287544250488281,-2.3856441974639893
1772729627494423600,7.491423583984375,-0.21774685382843018,-15.443277359008789,-4.517649173736572
1772729627511768600,7.5087685546875,-1.5002998113632202,-14.055439949035645,-4.716253280639648
1772729627529113900,7.52611376953125,-1.3710874319076538,-13.694124221801758,-2.445464849472046
1772729627546459000,7.543458984375,-0.2871387302875519,-12.43549919128418,-1.1653046607971191
1772729627563804200,7.56080419921875,0.8901300430297852,-13.476377487182617,-0.5407779216766357
1772729627581149200,7.578149169921875,-0.8350951075553894,-14.71346664428711,-1.3591232299804688
1772729627598494500,7.595494384765625,-0.19381862878799438,-12.445070266723633,-0.34217363595962524
1772729627615839500,7.612839599609375,0.28235307335853577,-9.332008361816406,-0.35892340540885925
1772729627633184800,7.630184814453125,1.0767701864242554,-8.997013092041016,-1.6031911373138428
1772729627650530000,7.647530029296875,1.1748759746551514,-10.449456214904785,-1.5433706045150757
1772729627667875000,7.664875,0.8662018179893494,-11.516654968261719,-2.1894326210021973
1772729627685220400,7.682220458984375,-1.7156537771224976,-11.990434646606445,-2.861815929412842
1772729627702565400,7.6995654296875,-1.94297194480896,-11.787044525146484,-1.7802600860595703
1772729627719910700,7.71691064453125,-1.4333007335662842,-13.28255844116211,-1.337587833404541
1772729627737255700,7.734255615234375,-2.194218397140503,-13.301701545715332,-1.2442678213119507
1772729627754601000,7.75160107421875,-2.50289249420166,-11.45683479309082,0.2560320198535919
1772729627771946000,7.768946044921875,6.0538411140441895,-10.53081226348877,-5.230710506439209
1772729627789291300,7.786291259765625,2.746960401535034,-3.084348440170288,-12.114861488342285
1772729627806636500,7.803636474609375,-1.588834285736084,-3.87876558303833,-8.738588333129883
1772729627823981600,7.820981689453125,-2.3234307765960693,-3.4169507026672363,-7.659425258636475
1772729627841326800,7.838326904296875,-1.2394821643829346,-2.289931297302246,-9.595218658447266
1772729627858671900,7.855671875,0.7202396392822266,-0.4378865361213684,-10.083354949951172
1772729627876017200,7.87301708984375,2.021935224533081,0.4785645306110382,-8.994620323181152
1772729627893362200,7.890362060546875,2.5603201389312744,-2.117648124694824,-8.530412673950195
1772729627910707500,7.90770751953125,2.1894326210021973,-6.364908218383789,-10.947163581848145
1772729627928052500,7.925052490234375,-2.256431818008423,-5.0225348472595215,-15.503097534179688
1772729627945397800,7.942397705078125,-0.9308080077171326,-2.675175666809082,-17.48674774169922
1772729627962742800,7.95974267578125,2.0338993072509766,-2.3736801147460938,-17.350357055664062
1772729627980088000,7.977088134765625,3.1034910678863525,-8.219346046447754,-16.30230140686035
1772729627997433000,7.99443310546875,2.313859462738037,-11.547761917114258,-15.000605583190918
1772729628014778400,8.0117783203125,0.3924229145050049,-12.100503921508789,-15.555740356445312
1772729628032123400,8.029123291015624,2.0315065383911133,-10.39920711517334,-16.161123275756836
1772729628049468700,8.04646875,4.493721008300781,-10.107282638549805,-15.972090721130371
1772729628066814000,8.06381396484375,6.204588890075684,-11.7990083694458,-12.045469284057617
1772729628084159000,8.081158935546876,7.003791809082031,-11.897113800048828,-9.31047248840332
1772729628101504300,8.098504150390625,7.867600917816162,-10.401599884033203,-8.458627700805664
1772729628118849300,8.115849365234375,7.386643409729004,-8.441878318786621,-7.872386455535889
1772729628136194600,8.133194580078126,6.843472957611084,-6.386443614959717,-6.5491557121276855
1772729628153539600,8.15053955078125,6.477370738983154,-5.07517671585083,-4.910071849822998
1772729628170884900,8.167884765625,6.3122663497924805,-4.677968502044678,-3.955335855484009
1772729628188230000,8.18522998046875,6.455835342407227,-3.9672999382019043,-3.9529430866241455
1772729628205575200,8.2025751953125,6.711867332458496,-3.572484254837036,-3.3547372817993164
1772729628222920200,8.219920166015624,8.271987915039062,-2.7326035499572754,-1.31365966796875
1772729628240265500,8.237265380859375,11.909078598022461,-0.009571290574967861,1.6199408769607544
1772729628257610500,8.254610595703125,11.365907669067383,0.9571290612220764,3.2925238609313965
1772729628274955800,8.271955810546874,9.879964828491211,1.5840486288070679,1.3639088869094849
1772729628292301000,8.289301025390625,7.551748275756836,1.4404792785644531,-0.641276478767395
1772729628309646000,8.30664599609375,6.771687984466553,2.187039852142334,-2.313859462738037
1772729628326991400,8.323991455078126,5.4795637130737305,3.2709884643554688,-3.7399818897247314
1772729628344336400,8.34133642578125,4.3788652420043945,4.053441524505615,-4.024727821350098
1772729628361681700,8.358681640625,3.792623996734619,4.412364959716797,-3.4648072719573975
1772729628379026700,8.376026611328125,3.5294134616851807,4.194618225097656,-2.6464617252349854
1772729628396372000,8.3933720703125,3.744767427444458,4.06540584564209,-1.6079767942428589
1772729628413717000,8.410717041015625,4.510470867156982,4.6301116943359375,-1.3902299404144287
1772729628431062300,8.428062255859375,5.4867424964904785,4.591826438903809,-2.2229323387145996
1772729628448407300,8.4454072265625,7.058826923370361,5.101497650146484,-2.203789710998535
1772729628465752600,8.462752685546874,7.142575740814209,4.522434711456299,-3.0077781677246094
1772729628483097900,8.480097900390625,5.623133182525635,4.455435752868652,-3.5222349166870117
1772729628500443000,8.49744287109375,7.058826923370361,5.675775527954102,6.592226505279541
1772729628517788200,8.5147880859375,9.743574142456055,4.194618225097656,1.7012969255447388
1772729628535133200,8.53213330078125,9.19561767578125,6.4079790115356445,-2.1272194385528564
1772729628552478500,8.549478515625,6.214160442352295,7.032505512237549,-2.249253273010254
1772729628569823500,8.566823486328126,4.9124650955200195,7.288537979125977,-3.1800613403320312
1772729628587168800,8.584168701171874,6.285944938659668,7.310073375701904,-2.6081767082214355
1772729628604513800,8.601513671875,7.164111137390137,6.685546398162842,-1.1676974296569824
1772729628621859000,8.618859130859375,6.790830612182617,6.86261510848999,-0.6005984544754028
1772729628639204000,8.6362041015625,6.305087566375732,7.176074981689453,-0.7130611538887024
1772729628656549400,8.65354931640625,6.668796539306641,7.592426300048828,-0.2512463629245758
1772729628673894400,8.670894287109375,5.225924491882324,6.939185619354248,0.11485548317432404
1772729628691239700,8.68823974609375,7.056434154510498,6.805187702178955,-0.9619147181510925
1772729628708584700,8.705584716796874,5.893522262573242,6.357729911804199,0.4498506486415863
1772729628725930000,8.722929931640625,8.908478736877441,6.226124286651611,0.363709032535553
1772729628743275000,8.74027490234375,6.790830612182617,7.113861560821533,0.6221339106559753
1772729628760620300,8.757620361328126,7.125825881958008,8.274380683898926,0.5455635786056519
1772729628777965600,8.774965576171875,6.427121639251709,7.424928665161133,0.06939185410737991
1772729628795310600,8.792310546875,5.948556900024414,6.7932233810424805,0.05024927482008934
1772729628812655900,8.80965576171875,6.776473522186279,7.135396957397461,0.4426721930503845
1772729628830001000,8.8270009765625,6.302694797515869,7.1856465339660645,0.42352959513664246
1772729628847346200,8.84434619140625,6.034698486328125,6.857829570770264,0.7369893789291382
1772729628864691200,8.861691162109375,6.116054534912109,6.783652305603027,0.5647061467170715
1772729628882036500,8.879036376953126,5.883950710296631,7.001399040222168,0.4331009089946747
1772729628899381500,8.896381591796874,5.383851051330566,7.070790767669678,0.3565305769443512
1772729628916726800,8.913726806640625,6.185446739196777,7.310073375701904,0.39481574296951294
1772729628934071800,8.93107177734375,7.36032247543335,6.984649181365967,-0.638883650302887
1772729628951417000,8.9484169921875,7.88913631439209,7.451249599456787,-0.9667003750801086
1772729628968762400,8.965762451171875,7.668996810913086,7.23589563369751,-0.4163511395454407
1772729628986107400,8.983107421875,6.50608491897583,7.609176158905029,-0.17946170270442963
1772729629003452700,9.00045263671875,6.58265495300293,6.453442573547363,0.9978070259094238
1772729629020797700,9.017797607421874,5.936593055725098,5.907878875732422,1.4117653369903564
1772729629038143000,9.03514306640625,6.400800704956055,6.075376510620117,1.3423734903335571
1772729629055488000,9.052488037109375,6.898507595062256,6.687939167022705,0.7657032608985901
1772729629072833300,9.069833251953124,6.4701924324035645,6.967899322509766,0.7154539823532104
1772729629090178300,9.08717822265625,5.996413707733154,7.008577346801758,0.7728816866874695
1772729629107523600,9.104523681640625,5.924628734588623,6.963113784790039,0.7537391185760498
1772729629124868600,9.12186865234375,5.9437713623046875,6.91765022277832,0.6795616149902344
1772729629142214000,9.1392138671875,6.333801746368408,7.010970115661621,0.5216353535652161
1772729629159559000,9.156558837890625,6.759724140167236,7.101897716522217,0.5359922647476196
1772729629176904200,9.173904296875,6.994220733642578,7.032505512237549,0.6532405614852905
1772729629194249500,9.19124951171875,7.314858913421631,6.977470874786377,0.8446664214134216
1772729629211594500,9.208594482421875,7.393822193145752,6.941578388214111,1.031306505203247
1772729629228939800,9.225939697265625,7.044469833374023,7.137789726257324,0.9260223507881165
1772729629246284800,9.243284912109376,6.867401123046875,7.183253765106201,1.0097711086273193
1772729629263630000,9.260630126953124,6.697510719299316,7.271788120269775,1.0480563640594482
1772729629280975000,9.27797509765625,6.58265495300293,7.223931789398193,1.0887342691421509
1772729629298320400,9.2953203125,6.498906135559082,7.23589563369751,1.1030912399291992
1772729629315665400,9.31266552734375,6.561119556427002,7.176074981689453,1.074377417564392
1772729629333010700,9.3300107421875,6.364908218383789,7.087540626525879,0.9355936646461487
1772729629350355700,9.347355712890625,6.357729911804199,6.874579429626465,0.9930213689804077
1772729629367701000,9.364700927734376,6.64486837387085,6.860222339630127,1.0887342691421509
1772729629385046000,9.3820458984375,6.977470874786377,6.652047157287598,1.1150553226470947
1772729629402391300,9.399391357421875,6.946363925933838,6.742974281311035,1.0719845294952393
