time,seconds_elapsed,z,y,x
1772729620091609000,0.088609130859375,8.96068286895752,3.983487129211426,0.09148965030908585
1772729620101609000,0.09860888671875,9.046651840209961,3.7852694988250732,0.014809095300734043
1772729620111609000,0.108609130859375,9.073354721069336,3.718261957168579,-0.13837991654872894
1772729620121609000,0.11860888671875,9.046109199523926,3.7727906703948975,-0.32303452491760254
1772729620131609000,0.128609130859375,8.981782913208008,3.9034206867218018,-0.511136531829834
1772729620141609000,0.13860888671875,8.903066635131836,4.052273273468018,-0.6963303685188293
1772729620151609000,0.148609130859375,8.849471092224121,4.149703502655029,-0.7982561588287354
1772729620161609000,0.15860888671875,8.803349494934082,4.2344279289245605,-0.8608334064483643
1772729620171609000,0.168609130859375,8.750284194946289,4.3209614753723145,-0.9655135273933411
1772729620181609000,0.17860888671875,8.703432083129883,4.389914512634277,-1.0720598697662354
1772729620191609000,0.188609130859375,8.674739837646484,4.431149959564209,-1.1332170963287354
1772729620201609000,0.19860888671875,8.656399726867676,4.460864543914795,-1.156638264656067
1772729620211609000,0.208609130859375,8.648735046386719,4.471207618713379,-1.173911690711975
1772729620221609000,0.21860888671875,8.652605056762695,4.456186771392822,-1.2021701335906982
1772729620231609000,0.228609130859375,8.658329963684082,4.4368510246276855,-1.2320983409881592
1772729620241609000,0.23860888671875,8.651080131530762,4.447443962097168,-1.2447646856307983
1772729620251609000,0.248609130859375,8.608742713928223,4.538101673126221,-1.2106081247329712
1772729620261609000,0.25860888671875,8.590649604797363,4.55709171295166,-1.2665117979049683
1772729620271609000,0.268609130859375,8.603192329406738,4.512143135070801,-1.340165138244629
1772729620281609000,0.27860888671875,8.581099510192871,4.543008327484131,-1.3770166635513306
1772729620291609000,0.288609130859375,8.518007278442383,4.655227184295654,-1.3938441276550293
1772729620301609000,0.29860888671875,8.420731544494629,4.8144211769104,-1.44326651096344
1772729620311609000,0.308609130859375,8.321576118469238,4.950108051300049,-1.5550563335418701
1772729620321609000,0.31860888671875,8.243502616882324,5.037216663360596,-1.6856753826141357
1772729620331609000,0.328609130859375,8.16895866394043,5.114038467407227,-1.8124839067459106
1772729620341609000,0.33860888671875,8.100300788879395,5.1839094161987305,-1.919012188911438
1772729620351609000,0.348609130859375,8.04304313659668,5.2320756912231445,-2.026137113571167
1772729620361609000,0.35860888671875,8.027921676635742,5.235310077667236,-2.0771141052246094
1772729620371609000,0.368609130859375,8.065674781799316,5.1392645835876465,-2.1686933040618896
1772729620381609000,0.37860888671875,8.166343688964844,4.928418159484863,-2.2785770893096924
1772729620391609000,0.388609130859375,8.305419921875,4.611195087432861,-2.4345991611480713
1772729620401609000,0.39860888671875,8.461234092712402,4.204740524291992,-2.6264190673828125
1772729620411609000,0.408609130859375,8.611483573913574,3.739741802215576,-2.8332085609436035
1772729620421609000,0.41860888671875,8.73841381072998,3.2528679370880127,-3.0379855632781982
1772729620431609000,0.428609130859375,8.84230899810791,2.7507519721984863,-3.227586030960083
1772729620441609000,0.43860888671875,8.925710678100586,2.2394919395446777,-3.3892109394073486
1772729620451609000,0.448609130859375,8.985562324523926,1.74100923538208,-3.5212132930755615
1772729620461609000,0.45860888671875,9.018754005432129,1.2596564292907715,-3.639470100402832
1772729620471609000,0.468609130859375,9.01548957824707,0.8118866682052612,-3.7725560665130615
1772729620481609000,0.47860888671875,8.975276947021484,0.4111705720424652,-3.9301068782806396
1772729620491609000,0.488609130859375,8.899858474731445,0.04939209297299385,-4.118309020996094
1772729620501609000,0.49860888671875,8.793072700500488,-0.3242039978504181,-4.329798221588135
1772729620511609000,0.508609130859375,8.658888816833496,-0.6928350925445557,-4.551263809204102
1772729620521609000,0.51860888671875,8.497746467590332,-1.0574653148651123,-4.779168128967285
1772729620531609000,0.528609130859375,8.310503959655762,-1.4257031679153442,-5.007322788238525
1772729620541609000,0.53860888671875,8.110899925231934,-1.7956211566925049,-5.211472034454346
1772729620551609000,0.548609130859375,7.902101516723633,-2.1688151359558105,-5.387337684631348
1772729620561609000,0.55860888671875,7.669538974761963,-2.562067985534668,-5.548367500305176
1772729620571609000,0.568609130859375,7.391876220703125,-2.9873902797698975,-5.710170745849609
1772729620581609000,0.57860888671875,7.07394552230835,-3.43269681930542,-5.860569953918457
1772729620591609000,0.588609130859375,6.719884872436523,-3.8817708492279053,-5.99544620513916
1772729620601609000,0.59860888671875,6.347066402435303,-4.317877769470215,-6.102546691894531
1772729620611609000,0.608609130859375,5.9706315994262695,-4.732570648193359,-6.174520969390869
1772729620621609000,0.61860888671875,5.615902423858643,-5.124080181121826,-6.194823741912842
1772729620631609000,0.628609130859375,5.279059886932373,-5.496953964233398,-6.171337127685547
1772729620641609000,0.63860888671875,4.956687927246094,-5.851696014404297,-6.11222505569458
1772729620651609000,0.648609130859375,4.640721797943115,-6.196823596954346,-6.019423007965088
1772729620661609000,0.65860888671875,4.319501876831055,-6.5312113761901855,-5.9038615226745605
1772729620671609000,0.668609130859375,3.9920904636383057,-6.849692344665527,-5.771942138671875
1772729620681609000,0.67860888671875,3.6633763313293457,-7.148172855377197,-5.626160621643066
1772729620691609000,0.688609130859375,3.3412327766418457,-7.420324802398682,-5.47223424911499
1772729620701609000,0.69860888671875,3.0238583087921143,-7.666666507720947,-5.314970016479492
1772729620711609000,0.708609130859375,2.7217440605163574,-7.890739440917969,-5.147693157196045
1772729620721609000,0.71860888671875,2.4341259002685547,-8.097332954406738,-4.9677581787109375
1772729620731609000,0.728609130859375,2.151986598968506,-8.289422035217285,-4.777534484863281
1772729620741609000,0.73860888671875,1.882348895072937,-8.46816349029541,-4.573550701141357
1772729620751609000,0.748609130859375,1.625024676322937,-8.634098052978516,-4.356836795806885
1772729620761609000,0.75860888671875,1.381589651107788,-8.786443710327148,-4.130375862121582
1772729620771609000,0.768609130859375,1.1581073999404907,-8.92359733581543,-3.8985352516174316
1772729620781609000,0.77860888671875,0.9531756639480591,-9.048304557800293,-3.659238576889038
1772729620791609000,0.788609130859375,0.7611505389213562,-9.165057182312012,-3.4048142433166504
1772729620801609000,0.79860888671875,0.5707206726074219,-9.277158737182617,-3.1271371841430664
1772729620811609000,0.808609130859375,0.3825927972793579,-9.384024620056152,-2.822072982788086
1772729620821609000,0.81860888671875,0.2079923301935196,-9.480504035949707,-2.4994304180145264
1772729620831609000,0.828609130859375,0.03897147253155708,-9.5634183883667,-2.1702303886413574
1772729620841609000,0.83860888671875,-0.12436356395483017,-9.630882263183594,-1.844190001487732
1772729620851609000,0.848609130859375,-0.2744392156600952,-9.683218002319336,-1.5265508890151978
1772729620861609000,0.85860888671875,-0.4137915372848511,-9.721757888793945,-1.2192606925964355
1772729620871609000,0.868609130859375,-0.53670734167099,-9.747298240661621,-0.9340790510177612
1772729620881609000,0.87860888671875,-0.6489143967628479,-9.761314392089844,-0.6826609373092651
1772729620891609000,0.888609130859375,-0.762941837310791,-9.765812873840332,-0.4660542607307434
1772729620901609000,0.89860888671875,-0.892654299736023,-9.761810302734375,-0.283899188041687
1772729620911609000,0.908609130859375,-1.0467126369476318,-9.749746322631836,-0.1312941163778305
1772729620921609000,0.91860888671875,-1.22196364402771,-9.730219841003418,-0.002761839423328638
1772729620931609000,0.928609130859375,-1.4036977291107178,-9.70506763458252,0.10809191316366196
1772729620941609000,0.93860888671875,-1.5797066688537598,-9.676395416259766,0.20566585659980774
1772729620951609000,0.948609130859375,-1.7456285953521729,-9.645610809326172,0.2921617925167084
1772729620961609000,0.95860888671875,-1.8960857391357422,-9.614534378051758,0.36872953176498413
1772729620971609000,0.968609130859375,-2.0248491764068604,-9.58533000946045,0.4379577338695526
1772729620981609000,0.97860888671875,-2.1284210681915283,-9.559446334838867,0.5071521401405334
1772729620991609000,0.988609130859375,-2.2249107360839844,-9.533080101013184,0.5835704207420349
1772729621001609000,0.99860888671875,-2.3265719413757324,-9.502795219421387,0.6740366816520691
1772729621011609000,1.008609130859375,-2.4402999877929688,-9.466248512268066,0.7781203985214233
1772729621021609000,1.01860888671875,-2.5667731761932373,-9.423198699951172,0.8862257599830627
1772729621031609000,1.028609130859375,-2.7053260803222656,-9.374241828918457,0.9875132441520691
1772729621041609000,1.03860888671875,-2.8586738109588623,-9.319537162780762,1.0698537826538086
1772729621051609000,1.048609130859375,-3.0302746295928955,-9.258284568786621,1.1278274059295654
1772729621061609000,1.05860888671875,-3.2210140228271484,-9.188630104064941,1.1681289672851562
1772729621071609000,1.068609130859375,-3.424428701400757,-9.10971736907959,1.2069517374038696
1772729621081609000,1.07860888671875,-3.636749744415283,-9.021110534667969,1.2506039142608643
1772729621091609000,1.088609130859375,-3.8516433238983154,-8.924859046936035,1.2969636917114258
1772729621101609000,1.09860888671875,-4.065956115722656,-8.822381019592285,1.3431259393692017
1772729621111609000,1.108609130859375,-4.274872779846191,-8.71638011932373,1.3858522176742554
1772729621121609000,1.11860888671875,-4.464635848999023,-8.61477279663086,1.4223588705062866
1772729621131609000,1.128609130859375,-4.606130123138428,-8.531913757324219,1.469826340675354
1772729621141609000,1.13860888671875,-4.6421051025390625,-8.49128246307373,1.5872523784637451
1772729621151609000,1.148609130859375,-4.487761974334717,-8.528956413269043,1.8130813837051392
1772729621161609000,1.15860888671875,-4.234243392944336,-8.599164962768555,2.072659969329834
1772729621171609000,1.168609130859375,-3.97678542137146,-8.663004875183105,2.3038883209228516
1772729621181609000,1.17860888671875,-3.7511308193206787,-8.718253135681152,2.4680898189544678
1772729621191609000,1.188609130859375,-3.56058931350708,-8.769392967224121,2.5671639442443848
1772729621201609000,1.19860888671875,-3.400899887084961,-8.814947128295898,2.6269712448120117
1772729621211609000,1.208609130859375,-3.26033878326416,-8.857686996459961,2.66119647026062
1772729621221609000,1.21860888671875,-3.145198106765747,-8.89080810546875,2.6891698837280273
1772729621231609000,1.228609130859375,-3.0640146732330322,-8.909355163574219,2.721318244934082
1772729621241609000,1.23860888671875,-3.0071520805358887,-8.916747093200684,2.7602601051330566
1772729621251609000,1.248609130859375,-2.953629732131958,-8.921154975891113,2.803467273712158
1772729621261609000,1.25860888671875,-2.8946785926818848,-8.925799369812012,2.84979248046875
1772729621271609000,1.268609130859375,-2.823127508163452,-8.930978775024414,2.9048173427581787
1772729621281609000,1.27860888671875,-2.7379939556121826,-8.934905052185059,2.973426103591919
1772729621291609000,1.288609130859375,-2.6534271240234375,-8.935649871826172,3.046945333480835
1772729621301609000,1.29860888671875,-2.5952281951904297,-8.928094863891602,3.118382215499878
1772729621311609000,1.308609130859375,-2.5787878036499023,-8.910177230834961,3.1826071739196777
1772729621321609000,1.31860888671875,-2.58502197265625,-8.894022941589355,3.2224819660186768
1772729621331609000,1.328609130859375,-2.5945160388946533,-8.888971328735352,3.2287869453430176
1772729621341609000,1.33860888671875,-2.5672035217285156,-8.925129890441895,3.1499063968658447
1772729621351609000,1.348609130859375,-1.9815267324447632,-9.19082260131836,2.7879607677459717
1772729621361609000,1.35860888671875,-1.6716829538345337,-9.2659330368042,2.741959571838379
1772729621371609000,1.368609130859375,-1.3727461099624634,-9.298148155212402,2.7982840538024902
1772729621381609000,1.37860888671875,-1.034883975982666,-9.33891773223877,2.807849884033203
1772729621391609000,1.388609130859375,-0.688607394695282,-9.41038703918457,2.6722326278686523
1772729621401609000,1.39860888671875,-0.3467155396938324,-9.503164291381836,2.3958380222320557
1772729621411609000,1.408609130859375,-0.32411637902259827,-9.604644775390625,1.9534971714019775
1772729621421609000,1.41860888671875,-0.24195370078086853,-9.675390243530273,1.5807223320007324
1772729621431609000,1.428609130859375,-0.2375701516866684,-9.716798782348633,1.3029776811599731
1772729621441609000,1.43860888671875,-0.32096248865127563,-9.736845970153809,1.123024582862854
1772729621451609000,1.448609130859375,-0.46544408798217773,-9.736519813537598,1.074207067489624
1772729621461609000,1.45860888671875,-0.5238569378852844,-9.736504554748535,1.0471071004867554
1772729621471609000,1.468609130859375,-0.5194423794746399,-9.735594749450684,1.0577092170715332
1772729621481609000,1.47860888671875,-0.5519365668296814,-9.723516464233398,1.1484705209732056
1772729621491609000,1.488609130859375,-0.6395527720451355,-9.698966979980469,1.3005387783050537
1772729621501609000,1.49860888671875,-0.75542151927948,-9.677580833435059,1.3943300247192383
1772729621511609000,1.508609130859375,-0.8821734189987183,-9.660765647888184,1.4358800649642944
1772729621521609000,1.51860888671875,-1.015149474143982,-9.64572811126709,1.4490677118301392
1772729621531609000,1.528609130859375,-1.1550266742706299,-9.631104469299316,1.4415669441223145
1772729621541609000,1.53860888671875,-1.3055928945541382,-9.614540100097656,1.4235305786132812
1772729621551609000,1.548609130859375,-1.470632791519165,-9.590178489685059,1.4269299507141113
1772729621561609000,1.55860888671875,-1.6375311613082886,-9.55282211303711,1.4941455125808716
1772729621571609000,1.568609130859375,-1.7828868627548218,-9.504837989807129,1.6278055906295776
1772729621581609000,1.57860888671875,-1.8867558240890503,-9.45252799987793,1.8056159019470215
1772729621591609000,1.588609130859375,-1.9379940032958984,-9.407697677612305,1.9773186445236206
1772729621601609000,1.59860888671875,-1.9385795593261719,-9.38545036315918,2.0798094272613525
1772729621611609000,1.608609130859375,-1.8884587287902832,-9.401214599609375,2.0545780658721924
1772729621621609000,1.61860888671875,-1.796467900276184,-9.45517635345459,1.8822139501571655
1772729621631609000,1.628609130859375,-1.6906899213790894,-9.51301383972168,1.6776541471481323
1772729621641609000,1.63860888671875,-1.5905938148498535,-9.557887077331543,1.5123478174209595
1772729621651609000,1.648609130859375,-1.490909457206726,-9.60012149810791,1.336128830909729
1772729621661609000,1.65860888671875,-1.4009283781051636,-9.639741897583008,1.1327718496322632
1772729621671609000,1.668609130859375,-1.3362488746643066,-9.673750877380371,0.8963068723678589
1772729621681609000,1.67860888671875,-1.2902342081069946,-9.701654434204102,0.6193473935127258
1772729621691609000,1.688609130859375,-1.2649140357971191,-9.719822883605957,0.3088957965373993
1772729621701609000,1.69860888671875,-1.279338002204895,-9.7228364944458,-0.011390644125640392
1772729621711609000,1.708609130859375,-1.3132562637329102,-9.713482856750488,-0.30657970905303955
1772729621721609000,1.71860888671875,-1.3306059837341309,-9.696727752685547,-0.6110179424285889
1772729621731609000,1.728609130859375,-1.3773738145828247,-9.667609214782715,-0.9003133773803711
1772729621741609000,1.73860888671875,-1.4678761959075928,-9.634866714477539,-1.0886062383651733
1772729621751609000,1.748609130859375,-1.5926626920700073,-9.602783203125,-1.191786766052246
1772729621761609000,1.75860888671875,-1.619039535522461,-9.588885307312012,-1.2658528089523315
1772729621771609000,1.768609130859375,-1.57802414894104,-9.58741283416748,-1.3273119926452637
1772729621781609000,1.77860888671875,-1.4996918439865112,-9.595243453979492,-1.3611059188842773
1772729621791609000,1.788609130859375,-1.381879210472107,-9.61046314239502,-1.378324270248413
1772729621801609000,1.79860888671875,-1.2127337455749512,-9.63032341003418,-1.3987632989883423
1772729621811609000,1.808609130859375,-1.0161775350570679,-9.650182723999023,-1.4183590412139893
1772729621821609000,1.81860888671875,-0.8228911757469177,-9.668547630310059,-1.418599247932434
1772729621831609000,1.828609130859375,-0.6347110867500305,-9.685344696044922,-1.400580883026123
1772729621841609000,1.83860888671875,-0.44993022084236145,-9.699786186218262,-1.3718929290771484
1772729621851609000,1.848609130859375,-0.27573153376579285,-9.709244728088379,-1.3508998155593872
1772729621861609000,1.85860888671875,-0.11465992778539658,-9.713679313659668,-1.3422609567642212
1772729621871609000,1.868609130859375,0.0321631133556366,-9.71348762512207,-1.3481497764587402
1772729621881609000,1.87860888671875,0.16228215396404266,-9.71360969543457,-1.3378524780273438
1772729621891609000,1.888609130859375,0.2715640068054199,-9.714418411254883,-1.3140552043914795
1772729621901609000,1.89860888671875,0.3563368022441864,-9.71542739868164,-1.2860314846038818
1772729621911609000,1.908609130859375,0.41109928488731384,-9.717687606811523,-1.2521671056747437
1772729621921609000,1.91860888671875,0.443612664937973,-9.720577239990234,-1.2181850671768188
1772729621931609000,1.928609130859375,0.4643959403038025,-9.723102569580078,-1.1899586915969849
1772729621941609000,1.93860888671875,0.4755089581012726,-9.724431991577148,-1.1746083498001099
1772729621951609000,1.948609130859375,0.47714200615882874,-9.723538398742676,-1.181327223777771
1772729621961609000,1.95860888671875,0.4483274221420288,-9.724808692932129,-1.1821485757827759
1772729621971609000,1.968609130859375,0.3950154483318329,-9.72717571258545,-1.181692123413086
1772729621981609000,1.97860888671875,0.30950048565864563,-9.730863571166992,-1.176809549331665
1772729621991609000,1.988609130859375,0.22025838494300842,-9.740188598632812,-1.1183018684387207
1772729622001609000,1.99860888671875,0.17678582668304443,-9.747262954711914,-1.0630136728286743
1772729622011609000,2.008609130859375,0.17526520788669586,-9.751302719116211,-1.0255488157272339
1772729622021609000,2.01860888671875,0.19014619290828705,-9.754853248596191,-0.988469123840332
1772729622031609000,2.028609130859375,0.20134618878364563,-9.757142066955566,-0.9633326530456543
1772729622041609000,2.03860888671875,0.21260623633861542,-9.757761001586914,-0.9546204805374146
1772729622051609000,2.048609130859375,0.17613020539283752,-9.755648612976074,-0.9832046031951904
1772729622061609000,2.05860888671875,0.08596718311309814,-9.75222396850586,-1.0281734466552734
1772729622071609000,2.068609130859375,-0.008913924917578697,-9.747381210327148,-1.0765091180801392
1772729622081609000,2.07860888671875,-0.09971757233142853,-9.741593360900879,-1.1233000755310059
1772729622091609000,2.088609130859375,-0.1385013461112976,-9.737143516540527,-1.1572608947753906
1772729622101609000,2.09860888671875,-0.13906808197498322,-9.73518180847168,-1.173572301864624
1772729622111609000,2.108609130859375,-0.11768550425767899,-9.736297607421875,-1.1666451692581177
1772729622121609000,2.11860888671875,-0.0863080769777298,-9.739992141723633,-1.1381956338882446
1772729622131609000,2.128609130859375,-0.05407493934035301,-9.742465019226074,-1.1188629865646362
1772729622141609000,2.13860888671875,-0.029769854620099068,-9.743353843688965,-1.1120038032531738
1772729622151609000,2.148609130859375,-0.020590096712112427,-9.745406150817871,-1.0940861701965332
1772729622161609000,2.15860888671875,-0.033113688230514526,-9.746949195861816,-1.0799400806427002
1772729622171609000,2.168609130859375,-0.07836458086967468,-9.748462677001953,-1.0638266801834106
1772729622181609000,2.17860888671875,-0.12519407272338867,-9.749971389770508,-1.0453587770462036
1772729622191609000,2.188609130859375,-0.14489123225212097,-9.750736236572266,-1.0356389284133911
1772729622201609000,2.19860888671875,-0.13833296298980713,-9.750895500183105,-1.0350267887115479
1772729622211609000,2.208609130859375,-0.11682725697755814,-9.751179695129395,-1.0349990129470825
1772729622221609000,2.21860888671875,-0.0893697440624237,-9.751611709594727,-1.0336703062057495
1772729622231609000,2.228609130859375,-0.06101485341787338,-9.75198745727539,-1.0321848392486572
1772729622241609000,2.23860888671875,-0.03746231272816658,-9.752214431762695,-1.0311691761016846
1772729622251609000,2.248609130859375,-0.02446586824953556,-9.752058029174805,-1.0330357551574707
1772729622261609000,2.25860888671875,-0.01807926408946514,-9.751254081726074,-1.0407277345657349
1772729622271609000,2.268609130859375,-0.010288825258612633,-9.74996566772461,-1.052836537361145
1772729622281609000,2.27860888671875,0.0046973866410553455,-9.74831485748291,-1.0680525302886963
1772729622291609000,2.288609130859375,0.02471921592950821,-9.746601104736328,-1.0832990407943726
1772729622301609000,2.29860888671875,0.04434656351804733,-9.74512767791748,-1.0958582162857056
1772729622311609000,2.308609130859375,0.06067565083503723,-9.744026184082031,-1.1048282384872437
1772729622321609000,2.31860888671875,0.07336294651031494,-9.743401527404785,-1.109565258026123
1772729622331609000,2.328609130859375,0.08389424532651901,-9.74315357208252,-1.111000895500183
1772729622341609000,2.33860888671875,0.09385434538125992,-9.74303913116455,-1.1111969947814941
1772729622351609000,2.348609130859375,0.1033349260687828,-9.74276351928711,-1.112776517868042
1772729622361609000,2.35860888671875,0.11165541410446167,-9.742128372192383,-1.1175264120101929
1772729622371609000,2.368609130859375,0.11849012970924377,-9.740992546081543,-1.126672387123108
1772729622381609000,2.37860888671875,0.12431894987821579,-9.739352226257324,-1.1401582956314087
1772729622391609000,2.388609130859375,0.12926124036312103,-9.737261772155762,-1.1573344469070435
1772729622401609000,2.39860888671875,0.1330258697271347,-9.734907150268555,-1.176545262336731
1772729622411609000,2.408609130859375,0.1363147646188736,-9.732560157775879,-1.1954418420791626
1772729622421609000,2.41860888671875,0.14086206257343292,-9.73056697845459,-1.2110365629196167
1772729622431609000,2.428609130859375,0.1464136838912964,-9.729267120361328,-1.2207838296890259
1772729622441609000,2.43860888671875,0.1513824760913849,-9.728679656982422,-1.2248483896255493
1772729622451609000,2.448609130859375,0.1550959050655365,-9.728482246398926,-1.2259581089019775
1772729622461609000,2.45860888671875,0.15841832756996155,-9.728280067443848,-1.2271332740783691
1772729622471609000,2.468609130859375,0.16293729841709137,-9.72785758972168,-1.2298895120620728
1772729622481609000,2.47860888671875,0.16954439878463745,-9.727264404296875,-1.2336843013763428
1772729622491609000,2.488609130859375,0.1786564439535141,-9.7267484664917,-1.236460566520691
1772729622501609000,2.49860888671875,0.19003427028656006,-9.726574897766113,-1.236129641532898
1772729622511609000,2.508609130859375,0.20341847836971283,-9.726806640625,-1.2321701049804688
1772729622521609000,2.51860888671875,0.21788007020950317,-9.727407455444336,-1.22493314743042
1772729622531609000,2.528609130859375,0.2325761616230011,-9.728334426879883,-1.214827060699463
1772729622541609000,2.53860888671875,0.24714712798595428,-9.729384422302246,-1.2034841775894165
1772729622551609000,2.548609130859375,0.2621060907840729,-9.730317115783691,-1.1927320957183838
1772729622561609000,2.55860888671875,0.27803897857666016,-9.730964660644531,-1.1838116645812988
1772729622571609000,2.568609130859375,0.2947815954685211,-9.731209754943848,-1.1777304410934448
1772729622581609000,2.57860888671875,0.31171277165412903,-9.730995178222656,-1.1751408576965332
1772729622591609000,2.588609130859375,0.3292714059352875,-9.730386734008789,-1.1753853559494019
1772729622601609000,2.59860888671875,0.34751981496810913,-9.72950553894043,-1.1774317026138306
1772729622611609000,2.608609130859375,0.36595645546913147,-9.728503227233887,-1.1801166534423828
1772729622621609000,2.61860888671875,0.38375481963157654,-9.727587699890137,-1.1820100545883179
1772729622631609000,2.628609130859375,0.401088148355484,-9.726840019226074,-1.1824126243591309
1772729622641609000,2.63860888671875,0.41788166761398315,-9.72625732421875,-1.1813868284225464
1772729622651609000,2.648609130859375,0.4334165155887604,-9.725837707519531,-1.1792452335357666
1772729622661609000,2.65860888671875,0.4468591511249542,-9.725568771362305,-1.1764450073242188
1772729622671609000,2.668609130859375,0.4572294056415558,-9.725396156311035,-1.1738791465759277
1772729622681609000,2.67860888671875,0.4641989767551422,-9.72528076171875,-1.1721011400222778
1772729622691609000,2.688609130859375,0.4677466154098511,-9.725172996520996,-1.171586513519287
1772729622701609000,2.69860888671875,0.46918708086013794,-9.72504711151123,-1.172054648399353
1772729622711609000,2.708609130859375,0.46994471549987793,-9.72493839263916,-1.1726535558700562
1772729622721609000,2.71860888671875,0.47085505723953247,-9.725088119506836,-1.1710481643676758
1772729622731609000,2.728609130859375,0.4735742509365082,-9.725567817687988,-1.165956735610962
1772729622741609000,2.73860888671875,0.4786408841609955,-9.726359367370605,-1.157243013381958
1772729622751609000,2.748609130859375,0.4856235980987549,-9.727445602416992,-1.145147442817688
1772729622761609000,2.75860888671875,0.4943736493587494,-9.72869873046875,-1.1306631565093994
1772729622771609000,2.768609130859375,0.5035645365715027,-9.729988098144531,-1.1154147386550903
1772729622781609000,2.77860888671875,0.5121793746948242,-9.731313705444336,-1.0998179912567139
1772729622791609000,2.788609130859375,0.5202944278717041,-9.732742309570312,-1.0832480192184448
1772729622801609000,2.79860888671875,0.5290221571922302,-9.73428726196289,-1.0649778842926025
1772729622811609000,2.808609130859375,0.5395210981369019,-9.735862731933594,-1.0451247692108154
1772729622821609000,2.81860888671875,0.5519905686378479,-9.737395286560059,-1.024116039276123
1772729622831609000,2.828609130859375,0.565862238407135,-9.738852500915527,-1.0024656057357788
1772729622841609000,2.83860888671875,0.580629825592041,-9.740192413330078,-0.980765700340271
1772729622851609000,2.848609130859375,0.5958169102668762,-9.741328239440918,-0.9601669907569885
1772729622861609000,2.85860888671875,0.6108623743057251,-9.74217700958252,-0.9419234991073608
1772729622871609000,2.868609130859375,0.6253431439399719,-9.742735862731934,-0.9265159368515015
1772729622881609000,2.87860888671875,0.6389829516410828,-9.74301528930664,-0.914189875125885
1772729622891609000,2.888609130859375,0.6520253419876099,-9.742979049682617,-0.905323326587677
1772729622901609000,2.89860888671875,0.6640293002128601,-9.742676734924316,-0.8998305797576904
1772729622911609000,2.908609130859375,0.6741012334823608,-9.742194175720215,-0.8975748419761658
1772729622921609000,2.91860888671875,0.6824268698692322,-9.741520881652832,-0.8985904455184937
1772729622931609000,2.928609130859375,0.6905151605606079,-9.740579605102539,-0.9025965929031372
1772729622941609000,2.93860888671875,0.7012271881103516,-9.739340782165527,-0.9076973795890808
1772729622951609000,2.948609130859375,0.7149980664253235,-9.737895011901855,-0.912451982498169
1772729622961609000,2.95860888671875,0.7303125262260437,-9.736273765563965,-0.9176044464111328
1772729622971609000,2.968609130859375,0.7453795671463013,-9.734601974487305,-0.9232154488563538
1772729622981609000,2.97860888671875,0.7595803141593933,-9.73298454284668,-0.9286738038063049
1772729622991609000,2.988609130859375,0.7734777927398682,-9.731335639953613,-0.9344605207443237
1772729623001609000,2.99860888671875,0.7868788838386536,-9.729568481445312,-0.9416492581367493
1772729623011609000,3.008609130859375,0.799031674861908,-9.727694511413574,-0.9507385492324829
1772729623021609000,3.01860888671875,0.8108068704605103,-9.72587776184082,-0.9593132138252258
1772729623031609000,3.028609130859375,0.8234620094299316,-9.724451065063477,-0.9629931449890137
1772729623041609000,3.03860888671875,0.8343794345855713,-9.723772048950195,-0.9604417681694031
1772729623051609000,3.048609130859375,0.8410755395889282,-9.72388744354248,-0.9534061551094055
1772729623061609000,3.05860888671875,0.8417125344276428,-9.724885940551758,-0.9426105618476868
1772729623071609000,3.068609130859375,0.8381462693214417,-9.726487159729004,-0.9291573166847229
1772729623081609000,3.07860888671875,0.8339349627494812,-9.728328704833984,-0.9135462045669556
1772729623091609000,3.088609130859375,0.8302531838417053,-9.73015308380127,-0.8973233103752136
1772729623101609000,3.09860888671875,0.826966404914856,-9.731831550598145,-0.882016658782959
1772729623111609000,3.108609130859375,0.8233631253242493,-9.733280181884766,-0.869326114654541
1772729623121609000,3.11860888671875,0.8197519183158875,-9.734221458435059,-0.8621714115142822
1772729623131609000,3.128609130859375,0.8181143403053284,-9.734285354614258,-0.8629960417747498
1772729623141609000,3.13860888671875,0.8198246359825134,-9.73345947265625,-0.8706493973731995
1772729623151609000,3.148609130859375,0.8246217370033264,-9.732382774353027,-0.8781257271766663
1772729623161609000,3.15860888671875,0.8314518928527832,-9.731849670410156,-0.8776070475578308
1772729623171609000,3.168609130859375,0.8392025828361511,-9.732163429260254,-0.866665244102478
1772729623181609000,3.17860888671875,0.8455997109413147,-9.733231544494629,-0.8482620120048523
1772729623191609000,3.188609130859375,0.8492031097412109,-9.734903335571289,-0.8251689672470093
1772729623201609000,3.19860888671875,0.8498680591583252,-9.736912727355957,-0.800402820110321
1772729623211609000,3.208609130859375,0.8468934297561646,-9.739102363586426,-0.7765568494796753
1772729623221609000,3.21860888671875,0.8384843468666077,-9.741660118103027,-0.7532625794410706
1772729623231609000,3.228609130859375,0.8234938383102417,-9.74478530883789,-0.7289733290672302
1772729623241609000,3.23860888671875,0.8002146482467651,-9.748802185058594,-0.7006521821022034
1772729623251609000,3.248609130859375,0.7671717405319214,-9.75390911102295,-0.6656551361083984
1772729623261609000,3.25860888671875,0.7247742414474487,-9.75983715057373,-0.6250396370887756
1772729623271609000,3.268609130859375,0.6747525930404663,-9.766209602355957,-0.5798637866973877
1772729623281609000,3.27860888671875,0.6225583553314209,-9.772479057312012,-0.5305281281471252
1772729623291609000,3.288609130859375,0.5747354030609131,-9.77810287475586,-0.4782775640487671
1772729623301609000,3.29860888671875,0.5323961973190308,-9.782952308654785,-0.42517393827438354
1772729623311609000,3.308609130859375,0.4967821538448334,-9.786969184875488,-0.37258026003837585
1772729623321609000,3.31860888671875,0.46977365016937256,-9.790020942687988,-0.3243409991264343
1772729623331609000,3.328609130859375,0.45360031723976135,-9.791882514953613,-0.2892918288707733
1772729623341609000,3.33860888671875,0.44635918736457825,-9.792582511901855,-0.27653616666793823
1772729623351609000,3.348609130859375,0.442771852016449,-9.7924222946167,-0.28776970505714417
1772729623361609000,3.35860888671875,0.4371199905872345,-9.791756629943848,-0.3175162076950073
1772729623371609000,3.368609130859375,0.42654621601104736,-9.7908353805542,-0.3577289879322052
1772729623381609000,3.37860888671875,0.41393935680389404,-9.789559364318848,-0.40443918108940125
1772729623391609000,3.388609130859375,0.4005443751811981,-9.78774642944336,-0.45822158455848694
1772729623401609000,3.39860888671875,0.3858395218849182,-9.785408020019531,-0.5170158743858337
1772729623411609000,3.408609130859375,0.3693452775478363,-9.78276252746582,-0.5757811069488525
1772729623421609000,3.41860888671875,0.3545238971710205,-9.77998161315918,-0.6298143267631531
1772729623431609000,3.428609130859375,0.3462528884410858,-9.777165412902832,-0.6764083504676819
1772729623441609000,3.43860888671875,0.34719783067703247,-9.774486541748047,-0.7136170864105225
1772729623451609000,3.448609130859375,0.3487642705440521,-9.772283554077148,-0.7424428462982178
1772729623461609000,3.45860888671875,0.3450165092945099,-9.770336151123047,-0.7693324685096741
1772729623471609000,3.468609130859375,0.342027872800827,-9.76828670501709,-0.7962208390235901
1772729623481609000,3.47860888671875,0.33704692125320435,-9.766244888305664,-0.8229467272758484
1772729623491609000,3.488609130859375,0.3235614597797394,-9.764765739440918,-0.8456035256385803
1772729623501609000,3.49860888671875,0.29739299416542053,-9.764605522155762,-0.856986403465271
1772729623511609000,3.508609130859375,0.2720930874347687,-9.764896392822266,-0.8620594143867493
1772729623521609000,3.51860888671875,0.2722136974334717,-9.764037132263184,-0.8716902732849121
1772729623531609000,3.528609130859375,0.29982858896255493,-9.76110553741455,-0.8951621055603027
1772729623541609000,3.53860888671875,0.34265750646591187,-9.75544548034668,-0.9403524994850159
1772729623551609000,3.548609130859375,0.39081650972366333,-9.74755859375,-1.0013750791549683
1772729623561609000,3.55860888671875,0.41505661606788635,-9.743398666381836,-1.0316396951675415
1772729623571609000,3.568609130859375,0.39205193519592285,-9.749988555908203,-0.9769338965415955
1772729623581609000,3.57860888671875,0.33424675464630127,-9.76583194732666,-0.8289794921875
1772729623591609000,3.588609130859375,0.26659125089645386,-9.782905578613281,-0.6277408599853516
1772729623601609000,3.59860888671875,0.19811366498470306,-9.795099258422852,-0.4326329529285431
1772729623611609000,3.608609130859375,0.13784778118133545,-9.801730155944824,-0.27833816409111023
1772729623621609000,3.61860888671875,0.09567172080278397,-9.804571151733398,-0.17783083021640778
1772729623631609000,3.628609130859375,0.07306870818138123,-9.805450439453125,-0.134866863489151
1772729623641609000,3.63860888671875,0.06877061724662781,-9.805227279663086,-0.1522328406572342
1772729623651609000,3.648609130859375,0.09070324897766113,-9.803566932678223,-0.22853714227676392
1772729623661609000,3.65860888671875,0.151010200381279,-9.799041748046875,-0.3554859161376953
1772729623671609000,3.668609130859375,0.24852757155895233,-9.7894926071167,-0.5238679051399231
1772729623681609000,3.67860888671875,0.36324959993362427,-9.773425102233887,-0.7201398015022278
1772729623691609000,3.688609130859375,0.45844370126724243,-9.753023147583008,-0.9158436059951782
1772729623701609000,3.69860888671875,0.5039016008377075,-9.733698844909668,-1.0824000835418701
1772729623711609000,3.708609130859375,0.4912206828594208,-9.717506408691406,-1.2244025468826294
1772729623721609000,3.71860888671875,0.41370484232902527,-9.701669692993164,-1.3699798583984375
1772729623731609000,3.728609130859375,0.2729695737361908,-9.682971000671387,-1.528378963470459
1772729623741609000,3.73860888671875,0.07897569984197617,-9.662046432495117,-1.676011323928833
1772729623751609000,3.748609130859375,-0.15985894203186035,-9.639766693115234,-1.794354796409607
1772729623761609000,3.75860888671875,-0.41798707842826843,-9.612763404846191,-1.8948495388031006
1772729623771609000,3.768609130859375,-0.671139121055603,-9.574606895446777,-2.0116827487945557
1772729623781609000,3.77860888671875,-0.905593752861023,-9.51862621307373,-2.1785433292388916
1772729623791609000,3.788609130859375,-1.1264270544052124,-9.439249038696289,-2.4087603092193604
1772729623801609000,3.79860888671875,-1.3450602293014526,-9.334494590759277,-2.688570499420166
1772729623811609000,3.808609130859375,-1.5670324563980103,-9.207086563110352,-2.9907138347625732
1772729623821609000,3.81860888671875,-1.787871241569519,-9.060276985168457,-3.299287796020508
1772729623831609000,3.828609130859375,-2.003788709640503,-8.892653465270996,-3.6160666942596436
1772729623841609000,3.83860888671875,-2.2095677852630615,-8.697009086608887,-3.9560375213623047
1772729623851609000,3.848609130859375,-2.398620367050171,-8.474628448486328,-4.312500953674316
1772729623861609000,3.85860888671875,-2.5794215202331543,-8.231074333190918,-4.6654462814331055
1772729623871609000,3.868609130859375,-2.758739709854126,-7.975134372711182,-4.995696544647217
1772729623881609000,3.87860888671875,-2.943751573562622,-7.713813781738281,-5.291671276092529
1772729623891609000,3.888609130859375,-3.1463398933410645,-7.443758010864258,-5.55530309677124
1772729623901609000,3.89860888671875,-3.3753275871276855,-7.150533199310303,-5.8006391525268555
1772729623911609000,3.908609130859375,-3.632768392562866,-6.814869403839111,-6.044082164764404
1772729623921609000,3.91860888671875,-3.9057867527008057,-6.418012619018555,-6.302724361419678
1772729623931609000,3.928609130859375,-4.20290470123291,-5.925781726837158,-6.587190628051758
1772729623941609000,3.93860888671875,-4.478130340576172,-5.355514049530029,-6.887321949005127
1772729623951609000,3.948609130859375,-4.686169147491455,-4.762039661407471,-7.178662300109863
1772729623961609000,3.95860888671875,-4.808386325836182,-4.179940223693848,-7.45505952835083
1772729623971609000,3.968609130859375,-4.83486270904541,-3.635638952255249,-7.7185893058776855
1772729623981609000,3.97860888671875,-4.778345584869385,-3.1549925804138184,-7.961396217346191
1772729623991609000,3.988609130859375,-4.697665691375732,-2.7545766830444336,-8.155651092529297
1772729624001609000,3.99860888671875,-4.670772075653076,-2.4301576614379883,-8.273366928100586
1772729624011609000,4.008609130859375,-4.732032299041748,-2.1500039100646973,-8.315993309020996
1772729624021609000,4.01860888671875,-4.8473801612854,-1.8866631984710693,-8.313470840454102
1772729624031609000,4.028609130859375,-4.980223655700684,-1.6398558616638184,-8.287257194519043
1772729624041609000,4.03860888671875,-5.091840744018555,-1.4140934944152832,-8.260985374450684
1772729624051609000,4.048609130859375,-5.133202075958252,-1.198226809501648,-8.269515037536621
1772729624061609000,4.05860888671875,-5.068263530731201,-0.9760608077049255,-8.338489532470703
1772729624071609000,4.068609130859375,-4.902678966522217,-0.7382670044898987,-8.461033821105957
1772729624081609000,4.07860888671875,-4.699653625488281,-0.49150845408439636,-8.5931396484375
1772729624091609000,4.088609130859375,-4.539997100830078,-0.24668453633785248,-8.688956260681152
1772729624101609000,4.09860888671875,-4.46671724319458,-0.018546229228377342,-8.73031997680664
1772729624111609000,4.108609130859375,-4.4708709716796875,0.1772983819246292,-8.726411819458008
1772729624121609000,4.11860888671875,-4.504221439361572,0.3335246741771698,-8.70466136932373
1772729624131609000,4.128609130859375,-4.51597785949707,0.44550177454948425,-8.693552017211914
1772729624141609000,4.13860888671875,-4.468292713165283,0.505225658416748,-8.714900970458984
1772729624151609000,4.148609130859375,-4.365991592407227,0.5025439858436584,-8.766752243041992
1772729624161609000,4.15860888671875,-4.242213249206543,0.4347013533115387,-8.830914497375488
1772729624171609000,4.168609130859375,-4.121444225311279,0.31320449709892273,-8.89302921295166
1772729624181609000,4.17860888671875,-4.018603801727295,0.16073353588581085,-8.944013595581055
1772729624191609000,4.188609130859375,-3.945652484893799,-0.0021952807437628508,-8.977872848510742
1772729624201609000,4.19860888671875,-3.9027516841888428,-0.16360445320606232,-8.995118141174316
1772729624211609000,4.208609130859375,-3.8705029487609863,-0.3181959092617035,-9.00490665435791
1772729624221609000,4.21860888671875,-3.831117630004883,-0.46972042322158813,-9.015113830566406
1772729624231609000,4.228609130859375,-3.780860185623169,-0.6328036189079285,-9.026352882385254
1772729624241609000,4.23860888671875,-3.719280481338501,-0.8256489038467407,-9.036351203918457
1772729624251609000,4.248609130859375,-3.650402069091797,-1.05777108669281,-9.040246963500977
1772729624261609000,4.25860888671875,-3.577958822250366,-1.3284668922424316,-9.03348159790039
1772729624271609000,4.268609130859375,-3.505772113800049,-1.6331051588058472,-9.011820793151855
1772729624281609000,4.27860888671875,-3.4362854957580566,-1.9648292064666748,-8.972277641296387
1772729624291609000,4.288609130859375,-3.3586010932922363,-2.3086280822753906,-8.919666290283203
1772729624301609000,4.29860888671875,-3.2674272060394287,-2.6438214778900146,-8.860278129577637
1772729624311609000,4.308609130859375,-3.171478271484375,-2.9605283737182617,-8.794736862182617
1772729624321609000,4.31860888671875,-3.0942280292510986,-3.254823684692383,-8.717927932739258
1772729624331609000,4.328609130859375,-3.0404467582702637,-3.515712261199951,-8.635150909423828
1772729624341609000,4.33860888671875,-2.984938383102417,-3.732017755508423,-8.563444137573242
1772729624351609000,4.348609130859375,-2.918924570083618,-3.9159185886383057,-8.503872871398926
1772729624361609000,4.35860888671875,-2.8297083377838135,-4.099242210388184,-8.4474458694458
1772729624371609000,4.368609130859375,-2.6989457607269287,-4.309358596801758,-8.3854341506958
1772729624381609000,4.37860888671875,-2.5209436416625977,-4.557307720184326,-8.309402465820312
1772729624391609000,4.388609130859375,-2.3123629093170166,-4.847984790802002,-8.204901695251465
1772729624401609000,4.39860888671875,-2.107102155685425,-5.179409980773926,-8.056315422058105
1772729624411609000,4.408609130859375,-1.9208489656448364,-5.525745391845703,-7.870633602142334
1772729624421609000,4.41860888671875,-1.754836916923523,-5.858829498291016,-7.665837287902832
1772729624431609000,4.428609130859375,-1.5924431085586548,-6.173191547393799,-7.4515910148620605
1772729624441609000,4.43860888671875,-1.4149281978607178,-6.471144199371338,-7.23136568069458
1772729624451609000,4.448609130859375,-1.2148690223693848,-6.75457239151001,-7.0050153732299805
1772729624461609000,4.45860888671875,-0.9977220892906189,-7.01869010925293,-6.775909423828125
1772729624471609000,4.468609130859375,-0.7850971817970276,-7.260896682739258,-6.5447235107421875
1772729624481609000,4.47860888671875,-0.6002223491668701,-7.486507892608643,-6.305737495422363
1772729624491609000,4.488609130859375,-0.4585912823677063,-7.696478366851807,-6.06005859375
1772729624501609000,4.49860888671875,-0.36345335841178894,-7.892714500427246,-5.808902740478516
1772729624511609000,4.508609130859375,-0.30556851625442505,-8.081693649291992,-5.5464630126953125
1772729624521609000,4.51860888671875,-0.2689128816127777,-8.267645835876465,-5.26726770401001
1772729624531609000,4.528609130859375,-0.2413923442363739,-8.448993682861328,-4.972589015960693
1772729624541609000,4.53860888671875,-0.22051431238651276,-8.619770050048828,-4.671329975128174
1772729624551609000,4.548609130859375,-0.2150566726922989,-8.775225639343262,-4.372591495513916
1772729624561609000,4.55860888671875,-0.23049987852573395,-8.91143798828125,-4.086996078491211
1772729624571609000,4.568609130859375,-0.2659682631492615,-9.026411056518555,-3.8240749835968018
1772729624581609000,4.57860888671875,-0.31243395805358887,-9.121301651000977,-3.588123083114624
1772729624591609000,4.588609130859375,-0.3589082658290863,-9.198573112487793,-3.3805060386657715
1772729624601609000,4.59860888671875,-0.3976493775844574,-9.26054859161377,-3.202263116836548
1772729624611609000,4.608609130859375,-0.4127236008644104,-9.309621810913086,-3.0546677112579346
1772729624621609000,4.61860888671875,-0.3874761760234833,-9.35021686553955,-2.9314992427825928
1772729624631609000,4.628609130859375,-0.3152715563774109,-9.386124610900879,-2.8234102725982666
1772729624641609000,4.63860888671875,-0.20446984469890594,-9.418578147888184,-2.723778486251831
1772729624651609000,4.648609130859375,-0.07828377932310104,-9.44540786743164,-2.6360018253326416
1772729624661609000,4.65860888671875,0.027940962463617325,-9.46706771850586,-2.558171272277832
1772729624671609000,4.668609130859375,0.07534196227788925,-9.4869384765625,-2.482482671737671
1772729624681609000,4.67860888671875,0.07091904431581497,-9.508109092712402,-2.4002552032470703
1772729624691609000,4.688609130859375,0.0466117300093174,-9.528106689453125,-2.3202152252197266
1772729624701609000,4.69860888671875,0.008827731013298035,-9.546733856201172,-2.242809534072876
1772729624711609000,4.708609130859375,-0.04406170919537544,-9.566454887390137,-2.156708240509033
1772729624721609000,4.71860888671875,-0.1068422868847847,-9.588726043701172,-2.053115129470825
1772729624731609000,4.728609130859375,-0.17899668216705322,-9.61369514465332,-1.9274879693984985
1772729624741609000,4.73860888671875,-0.2594587504863739,-9.639752388000488,-1.782766580581665
1772729624751609000,4.748609130859375,-0.3438611626625061,-9.664219856262207,-1.629418134689331
1772729624761609000,4.75860888671875,-0.4284859895706177,-9.685019493103027,-1.4789129495620728
1772729624771609000,4.768609130859375,-0.5037404894828796,-9.7017822265625,-1.338677167892456
1772729624781609000,4.77860888671875,-0.5589407682418823,-9.71471881866455,-1.2174623012542725
1772729624791609000,4.788609130859375,-0.5991377234458923,-9.722477912902832,-1.1335129737854004
1772729624801609000,4.79860888671875,-0.6434846520423889,-9.723075866699219,-1.1036741733551025
1772729624811609000,4.808609130859375,-0.7030805945396423,-9.715827941894531,-1.1308177709579468
1772729624821609000,4.81860888671875,-0.7839521169662476,-9.701998710632324,-1.1945886611938477
1772729624831609000,4.828609130859375,-0.8855770826339722,-9.684722900390625,-1.2618584632873535
1772729624841609000,4.83860888671875,-0.9999582171440125,-9.667912483215332,-1.3045827150344849
1772729624851609000,4.848609130859375,-1.1135389804840088,-9.654452323913574,-1.3122347593307495
1772729624861609000,4.85860888671875,-1.2127119302749634,-9.645096778869629,-1.2929940223693848
1772729624871609000,4.868609130859375,-1.287313461303711,-9.64018440246582,-1.257004976272583
1772729624881609000,4.87860888671875,-1.3317874670028687,-9.640857696533203,-1.2044073343276978
1772729624891609000,4.888609130859375,-1.3454904556274414,-9.647480010986328,-1.1340949535369873
1772729624901609000,4.89860888671875,-1.3348236083984375,-9.658498764038086,-1.0497795343399048
1772729624911609000,4.908609130859375,-1.3084735870361328,-9.6713285446167,-0.9610803127288818
1772729624921609000,4.91860888671875,-1.27483069896698,-9.683004379272461,-0.8857882022857666
1772729624931609000,4.928609130859375,-1.2386287450790405,-9.691251754760742,-0.8460683822631836
1772729624941609000,4.93860888671875,-1.2030037641525269,-9.6947660446167,-0.8571213483810425
1772729624951609000,4.948609130859375,-1.1739752292633057,-9.693011283874512,-0.9152499437332153
1772729624961609000,4.95860888671875,-1.1573879718780518,-9.68714714050293,-0.9950034618377686
1772729624971609000,4.968609130859375,-1.1574418544769287,-9.679618835449219,-1.0656911134719849
1772729624981609000,4.97860888671875,-1.1781445741653442,-9.67221736907959,-1.1093053817749023
1772729624991609000,4.988609130859375,-1.2210359573364258,-9.665340423583984,-1.1227831840515137
1772729625001609000,4.99860888671875,-1.2800498008728027,-9.658291816711426,-1.1177066564559937
1772729625011609000,5.008609130859375,-1.3479069471359253,-9.650430679321289,-1.1057716608047485
1772729625021609000,5.01860888671875,-1.415191411972046,-9.642050743103027,-1.094748616218567
1772729625031609000,5.028609130859375,-1.470413088798523,-9.6342134475708,-1.09096097946167
1772729625041609000,5.03860888671875,-1.5071840286254883,-9.627471923828125,-1.1002609729766846
1772729625051609000,5.048609130859375,-1.527119755744934,-9.621286392211914,-1.1265627145767212
1772729625061609000,5.05860888671875,-1.5365537405014038,-9.614843368530273,-1.1679842472076416
1772729625071609000,5.068609130859375,-1.5474408864974976,-9.607020378112793,-1.2169500589370728
1772729625081609000,5.07860888671875,-1.5715593099594116,-9.596899032592773,-1.2649552822113037
1772729625091609000,5.088609130859375,-1.6135282516479492,-9.584162712097168,-1.3079485893249512
1772729625101609000,5.09860888671875,-1.6675941944122314,-9.569296836853027,-1.3483633995056152
1772729625111609000,5.108609130859375,-1.7176475524902344,-9.554253578186035,-1.391509771347046
1772729625121609000,5.11860888671875,-1.7447924613952637,-9.541582107543945,-1.4437016248703003
1772729625131609000,5.128609130859375,-1.737903118133545,-9.53327465057373,-1.5055766105651855
1772729625141609000,5.13860888671875,-1.6977927684783936,-9.529462814331055,-1.5739175081253052
1772729625151609000,5.148609130859375,-1.631199598312378,-9.529505729675293,-1.642588496208191
1772729625161609000,5.15860888671875,-1.5522112846374512,-9.532209396362305,-1.7023544311523438
1772729625171609000,5.168609130859375,-1.4793121814727783,-9.536208152770996,-1.7443501949310303
1772729625181609000,5.17860888671875,-1.42661452293396,-9.54052448272705,-1.764532208442688
1772729625191609000,5.188609130859375,-1.4003359079360962,-9.544581413269043,-1.7636369466781616
1772729625201609000,5.19860888671875,-1.4009308815002441,-9.54754638671875,-1.7470355033874512
1772729625211609000,5.208609130859375,-1.4242743253707886,-9.54794979095459,-1.7258291244506836
1772729625221609000,5.21860888671875,-1.4586632251739502,-9.544907569885254,-1.7138898372650146
1772729625231609000,5.228609130859375,-1.487113118171692,-9.538082122802734,-1.7273858785629272
1772729625241609000,5.23860888671875,-1.496864914894104,-9.526803016662598,-1.7803987264633179
1772729625251609000,5.248609130859375,-1.4818018674850464,-9.51154899597168,-1.8721894025802612
1772729625261609000,5.25860888671875,-1.451390266418457,-9.494857788085938,-1.9777581691741943
1772729625271609000,5.268609130859375,-1.4222168922424316,-9.479406356811523,-2.0708820819854736
1772729625281609000,5.27860888671875,-1.4017077684402466,-9.466767311096191,-2.141477346420288
1772729625291609000,5.288609130859375,-1.3863730430603027,-9.457788467407227,-2.190572738647461
1772729625301609000,5.29860888671875,-1.3670645952224731,-9.453902244567871,-2.2192914485931396
1772729625311609000,5.308609130859375,-1.3361493349075317,-9.455923080444336,-2.2294864654541016
1772729625321609000,5.31860888671875,-1.2903956174850464,-9.464132308959961,-2.2215919494628906
1772729625331609000,5.328609130859375,-1.2236360311508179,-9.478139877319336,-2.199535608291626
1772729625341609000,5.33860888671875,-1.1345772743225098,-9.496521949768066,-2.167757511138916
1772729625351609000,5.348609130859375,-1.0362387895584106,-9.515398025512695,-2.133960008621216
1772729625361609000,5.35860888671875,-0.9648051261901855,-9.526102066040039,-2.119647741317749
1772729625371609000,5.368609130859375,-0.9198052883148193,-9.521768569946289,-2.158766031265259
1772729625381609000,5.37860888671875,-0.8933961391448975,-9.500990867614746,-2.259070873260498
1772729625391609000,5.388609130859375,-0.9010277986526489,-9.475088119506836,-2.3624703884124756
1772729625401609000,5.39860888671875,-0.9709746241569519,-9.464459419250488,-2.3773086071014404
1772729625411609000,5.408609130859375,-1.0997586250305176,-9.472413063049316,-2.28786039352417
1772729625421609000,5.41860888671875,-1.2631508111953735,-9.492887496948242,-2.111853837966919
1772729625431609000,5.428609130859375,-1.4305495023727417,-9.517144203186035,-1.8835806846618652
1772729625441609000,5.43860888671875,-1.5533266067504883,-9.536495208740234,-1.6771432161331177
1772729625451609000,5.448609130859375,-1.5800299644470215,-9.548469543457031,-1.5813359022140503
1772729625461609000,5.45860888671875,-1.487297534942627,-9.555061340332031,-1.6306878328323364
1772729625471609000,5.468609130859375,-1.2533372640609741,-9.55774211883545,-1.8025237321853638
1772729625481609000,5.47860888671875,-0.9956178665161133,-9.535874366760254,-2.060643196105957
1772729625491609000,5.488609130859375,-0.8822824954986572,-9.476536750793457,-2.363729238510132
1772729625501609000,5.49860888671875,-0.8661209940910339,-9.390218734741211,-2.6914689540863037
1772729625511609000,5.508609130859375,-0.9426942467689514,-9.287759780883789,-3.003201961517334
1772729625521609000,5.51860888671875,-1.1265769004821777,-9.17616081237793,-3.270977258682251
1772729625531609000,5.528609130859375,-1.3901828527450562,-9.056021690368652,-3.4966049194335938
1772729625541609000,5.53860888671875,-1.6964985132217407,-8.924097061157227,-3.6949644088745117
1772729625551609000,5.548609130859375,-2.00840163230896,-8.780464172363281,-3.8781635761260986
1772729625561609000,5.55860888671875,-2.2870850563049316,-8.631827354431152,-4.05354118347168
1772729625571609000,5.568609130859375,-2.507390022277832,-8.484850883483887,-4.229740619659424
1772729625581609000,5.57860888671875,-2.665872097015381,-8.342275619506836,-4.412476539611816
1772729625591609000,5.588609130859375,-2.7753798961639404,-8.197026252746582,-4.612636566162109
1772729625601609000,5.59860888671875,-2.8419923782348633,-8.038239479064941,-4.845634937286377
1772729625611609000,5.608609130859375,-2.870236396789551,-7.8553290367126465,-5.121124744415283
1772729625621609000,5.61860888671875,-2.8946080207824707,-7.640445709228516,-5.423579692840576
1772729625631609000,5.628609130859375,-2.956181287765503,-7.372894763946533,-5.750809192657471
1772729625641609000,5.63860888671875,-3.073962450027466,-7.037837505340576,-6.098358631134033
1772729625651609000,5.648609130859375,-3.254028558731079,-6.639237880706787,-6.442220687866211
1772729625661609000,5.65860888671875,-3.4926528930664062,-6.192758083343506,-6.754369735717773
1772729625671609000,5.668609130859375,-3.7731008529663086,-5.716338157653809,-7.018373966217041
1772729625681609000,5.67860888671875,-4.083004474639893,-5.226180553436279,-7.2240214347839355
1772729625691609000,5.688609130859375,-4.381631374359131,-4.728569984436035,-7.390015125274658
1772729625701609000,5.69860888671875,-4.598604202270508,-4.224391460418701,-7.561596870422363
1772729625711609000,5.708609130859375,-4.717101573944092,-3.694213390350342,-7.763513088226318
1772729625721609000,5.71860888671875,-4.77675199508667,-3.094454050064087,-7.986074924468994
1772729625731609000,5.728609130859375,-4.784897804260254,-2.4691965579986572,-8.196231842041016
1772729625741609000,5.73860888671875,-4.738744735717773,-1.8914328813552856,-8.374794006347656
1772729625751609000,5.748609130859375,-4.669681549072266,-1.3786739110946655,-8.51256275177002
1772729625761609000,5.75860888671875,-4.602097988128662,-0.9334821105003357,-8.60927963256836
1772729625771609000,5.768609130859375,-4.547733783721924,-0.5510996580123901,-8.670916557312012
1772729625781609000,5.77860888671875,-4.5063676834106445,-0.20346997678279877,-8.707562446594238
1772729625791609000,5.788609130859375,-4.469949722290039,0.11240804940462112,-8.727960586547852
1772729625801609000,5.79860888671875,-4.42104434967041,0.39019763469696045,-8.744855880737305
1772729625811609000,5.808609130859375,-4.356442451477051,0.6218786835670471,-8.763849258422852
1772729625821609000,5.81860888671875,-4.271796703338623,0.8038262724876404,-8.790677070617676
1772729625831609000,5.828609130859375,-4.162411689758301,0.9314615726470947,-8.830464363098145
1772729625841609000,5.83860888671875,-4.035289287567139,0.999038815498352,-8.88193416595459
1772729625851609000,5.848609130859375,-3.9017558097839355,1.015734314918518,-8.939517974853516
1772729625861609000,5.85860888671875,-3.776944160461426,0.9951708316802979,-8.995261192321777
1772729625871609000,5.868609130859375,-3.6578609943389893,0.9444580674171448,-9.049775123596191
1772729625881609000,5.87860888671875,-3.5436482429504395,0.8849285244941711,-9.101090431213379
1772729625891609000,5.888609130859375,-3.4555845260620117,0.8484903573989868,-9.138346672058105
1772729625901609000,5.89860888671875,-3.395958662033081,0.8275463581085205,-9.162588119506836
1772729625911609000,5.908609130859375,-3.3575947284698486,0.8004177808761597,-9.179121971130371
1772729625921609000,5.91860888671875,-3.343848943710327,0.7641595602035522,-9.187226295471191
1772729625931609000,5.928609130859375,-3.3475871086120605,0.7132542133331299,-9.189957618713379
1772729625941609000,5.93860888671875,-3.353656053543091,0.6333810687065125,-9.193595886230469
1772729625951609000,5.948609130859375,-3.3465826511383057,0.5062673091888428,-9.204046249389648
1772729625961609000,5.95860888671875,-3.321880340576172,0.3227155804634094,-9.221244812011719
1772729625971609000,5.968609130859375,-3.275865316390991,0.082184799015522,-9.242961883544922
1772729625981609000,5.97860888671875,-3.2080564498901367,-0.2064652144908905,-9.264779090881348
1772729625991609000,5.988609130859375,-3.1223244667053223,-0.5305954813957214,-9.281161308288574
1772729626001609000,5.99860888671875,-3.0258610248565674,-0.8764030933380127,-9.286897659301758
1772729626011609000,6.008609130859375,-2.9256432056427,-1.2310138940811157,-9.278772354125977
1772729626021609000,6.01860888671875,-2.824907064437866,-1.5863696336746216,-9.256009101867676
1772729626031609000,6.028609130859375,-2.7165420055389404,-1.9382530450820923,-9.221385955810547
1772729626041609000,6.03860888671875,-2.6002085208892822,-2.2860233783721924,-9.175151824951172
1772729626051609000,6.048609130859375,-2.483415365219116,-2.6299521923065186,-9.115172386169434
1772729626061609000,6.05860888671875,-2.3573691844940186,-2.9756221771240234,-9.042060852050781
1772729626071609000,6.068609130859375,-2.211337089538574,-3.3311967849731445,-8.954524993896484
1772729626081609000,6.07860888671875,-2.033818244934082,-3.6974451541900635,-8.852280616760254
1772729626091609000,6.088609130859375,-1.8322538137435913,-4.065072536468506,-8.73432445526123
1772729626101609000,6.09860888671875,-1.6287271976470947,-4.4222307205200195,-8.600088119506836
1772729626111609000,6.108609130859375,-1.456701636314392,-4.754552841186523,-8.452374458312988
1772729626121609000,6.11860888671875,-1.3328293561935425,-5.044640064239502,-8.303345680236816
1772729626131609000,6.128609130859375,-1.2361154556274414,-5.2985100746154785,-8.158933639526367
1772729626141609000,6.13860888671875,-1.1399002075195312,-5.5395684242248535,-8.011503219604492
1772729626151609000,6.148609130859375,-1.0421632528305054,-5.780613422393799,-7.852947235107422
1772729626161609000,6.15860888671875,-0.9389939308166504,-6.031442165374756,-7.675310134887695
1772729626171609000,6.168609130859375,-0.8325265645980835,-6.302199840545654,-7.467232704162598
1772729626181609000,6.17860888671875,-0.7232882380485535,-6.590204238891602,-7.226095199584961
1772729626191609000,6.188609130859375,-0.6242360472679138,-6.888553142547607,-6.951874256134033
1772729626201609000,6.19860888671875,-0.5527514219284058,-7.188666343688965,-6.647400379180908
1772729626211609000,6.208609130859375,-0.5198653936386108,-7.4778313636779785,-6.323144912719727
1772729626221609000,6.21860888671875,-0.5176816582679749,-7.745197772979736,-5.992854595184326
1772729626231609000,6.228609130859375,-0.5275306701660156,-7.982782363891602,-5.671621322631836
1772729626241609000,6.23860888671875,-0.5283091068267822,-8.185745239257812,-5.374463081359863
1772729626251609000,6.248609130859375,-0.5063562393188477,-8.353833198547363,-5.111502170562744
1772729626261609000,6.25860888671875,-0.46075576543807983,-8.49206829071045,-4.882915019989014
1772729626271609000,6.268609130859375,-0.4000715911388397,-8.610573768615723,-4.676358699798584
1772729626281609000,6.27860888671875,-0.32915934920310974,-8.71936321258545,-4.476019859313965
1772729626291609000,6.288609130859375,-0.2502060532569885,-8.819661140441895,-4.280345916748047
1772729626301609000,6.29860888671875,-0.16771630942821503,-8.908066749572754,-4.097390174865723
1772729626311609000,6.308609130859375,-0.08736688643693924,-8.983012199401855,-3.932969570159912
1772729626321609000,6.31860888671875,-0.012150099501013756,-9.046165466308594,-3.7864389419555664
1772729626331609000,6.328609130859375,0.057102978229522705,-9.10024642944336,-3.654125452041626
1772729626341609000,6.33860888671875,0.12010698765516281,-9.146811485290527,-3.534377336502075
1772729626351609000,6.348609130859375,0.174232617020607,-9.187047004699707,-3.426104784011841
1772729626361609000,6.35860888671875,0.2170364111661911,-9.222373962402344,-3.327324151992798
1772729626371609000,6.368609130859375,0.24823886156082153,-9.253765106201172,-3.2367570400238037
1772729626381609000,6.37860888671875,0.26934176683425903,-9.280946731567383,-3.1562447547912598
1772729626391609000,6.388609130859375,0.2837185561656952,-9.30323314666748,-3.088646411895752
1772729626401609000,6.39860888671875,0.29753395915031433,-9.320540428161621,-3.0346968173980713
1772729626411609000,6.408609130859375,0.3200221657752991,-9.334099769592285,-2.990410566329956
1772729626421609000,6.41860888671875,0.36247768998146057,-9.346267700195312,-2.9472506046295166
1772729626431609000,6.428609130859375,0.4287189841270447,-9.356322288513184,-2.90617036819458
1772729626441609000,6.43860888671875,0.5060504078865051,-9.364243507385254,-2.867967367172241
1772729626451609000,6.448609130859375,0.5557618737220764,-9.370491981506348,-2.8382015228271484
1772729626461609000,6.45860888671875,0.5550456047058105,-9.377472877502441,-2.8151931762695312
1772729626471609000,6.468609130859375,0.5188881754875183,-9.386789321899414,-2.790935516357422
1772729626481609000,6.47860888671875,0.4821365773677826,-9.395931243896484,-2.766659736633301
1772729626491609000,6.488609130859375,0.4749920964241028,-9.398869514465332,-2.757901668548584
1772729626501609000,6.49860888671875,0.5062751770019531,-9.393105506896973,-2.771937847137451
1772729626511609000,6.508609130859375,0.5654404163360596,-9.381930351257324,-2.798219919204712
1772729626521609000,6.51860888671875,0.6321275234222412,-9.371892929077148,-2.8175208568573
1772729626531609000,6.528609130859375,0.6760122179985046,-9.372597694396973,-2.8049604892730713
1772729626541609000,6.53860888671875,0.6809180378913879,-9.387908935546875,-2.7520751953125
1772729626551609000,6.548609130859375,0.6574143171310425,-9.412771224975586,-2.671691656112671
1772729626561609000,6.55860888671875,0.6341848373413086,-9.439245223999023,-2.582414150238037
1772729626571609000,6.568609130859375,0.639284074306488,-9.462154388427734,-2.495863199234009
1772729626581609000,6.57860888671875,0.6825360655784607,-9.480290412902832,-2.4142560958862305
1772729626591609000,6.588609130859375,0.749529242515564,-9.493282318115234,-2.3422610759735107
1772729626601609000,6.59860888671875,0.8069943189620972,-9.500582695007324,-2.2930502891540527
1772729626611609000,6.608609130859375,0.8417619466781616,-9.498866081237793,-2.287656307220459
1772729626621609000,6.61860888671875,0.8557822108268738,-9.485061645507812,-2.339154005050659
1772729626631609000,6.628609130859375,0.8548758029937744,-9.460868835449219,-2.4354751110076904
1772729626641609000,6.63860888671875,0.8587148189544678,-9.430110931396484,-2.5506832599639893
1772729626651609000,6.648609130859375,0.8896153569221497,-9.397193908691406,-2.659268617630005
1772729626661609000,6.65860888671875,0.9556403756141663,-9.36755657196045,-2.7397117614746094
1772729626671609000,6.668609130859375,1.0425868034362793,-9.344090461730957,-2.7877197265625
1772729626681609000,6.67860888671875,1.1258149147033691,-9.325825691223145,-2.81636381149292
1772729626691609000,6.688609130859375,1.1806548833847046,-9.310712814331055,-2.843773603439331
1772729626701609000,6.69860888671875,1.1971566677093506,-9.297307014465332,-2.880502462387085
1772729626711609000,6.708609130859375,1.184817910194397,-9.284529685974121,-2.9264471530914307
1772729626721609000,6.71860888671875,1.1672190427780151,-9.271506309509277,-2.9744162559509277
1772729626731609000,6.728609130859375,1.1713563203811646,-9.26080322265625,-3.0059666633605957
1772729626741609000,6.73860888671875,1.2084780931472778,-9.253803253173828,-3.012820243835449
1772729626751609000,6.748609130859375,1.270546317100525,-9.246683120727539,-3.009145975112915
1772729626761609000,6.75860888671875,1.3399391174316406,-9.235398292541504,-3.0136969089508057
1772729626771609000,6.768609130859375,1.399989128112793,-9.220193862915039,-3.032893419265747
1772729626781609000,6.77860888671875,1.4354699850082397,-9.204678535461426,-3.063282012939453
1772729626791609000,6.788609130859375,1.4420533180236816,-9.193172454833984,-3.094583749771118
1772729626801609000,6.79860888671875,1.4161733388900757,-9.187708854675293,-3.1226353645324707
1772729626811609000,6.808609130859375,1.3983827829360962,-9.183712005615234,-3.1423473358154297
1772729626821609000,6.81860888671875,1.3973795175552368,-9.180994987487793,-3.150723457336426
1772729626831609000,6.828609130859375,1.4096943140029907,-9.1797513961792,-3.148858070373535
1772729626841609000,6.83860888671875,1.4264285564422607,-9.18189525604248,-3.135040283203125
1772729626851609000,6.848609130859375,1.4329562187194824,-9.189260482788086,-3.1103904247283936
1772729626861609000,6.85860888671875,1.42478609085083,-9.202553749084473,-3.0746359825134277
1772729626871609000,6.868609130859375,1.408537745475769,-9.220521926879883,-3.0279369354248047
1772729626881609000,6.87860888671875,1.387481927871704,-9.240945816040039,-2.974929094314575
1772729626891609000,6.888609130859375,1.361411690711975,-9.261384963989258,-2.922959327697754
1772729626901609000,6.89860888671875,1.329780101776123,-9.280791282653809,-2.875584363937378
1772729626911609000,6.908609130859375,1.2923908233642578,-9.2989501953125,-2.833660840988159
1772729626921609000,6.91860888671875,1.253153920173645,-9.315282821655273,-2.7974069118499756
1772729626931609000,6.928609130859375,1.215752363204956,-9.329353332519531,-2.7668588161468506
1772729626941609000,6.93860888671875,1.1818304061889648,-9.341238021850586,-2.741337537765503
1772729626951609000,6.948609130859375,1.1520564556121826,-9.35184383392334,-2.7177505493164062
1772729626961609000,6.95860888671875,1.1279020309448242,-9.362210273742676,-2.692068576812744
1772729626971609000,6.968609130859375,1.109848976135254,-9.372748374938965,-2.662742853164673
1772729626981609000,6.97860888671875,1.1006959676742554,-9.383329391479492,-2.6290624141693115
1772729626991609000,6.988609130859375,1.1000866889953613,-9.393892288208008,-2.59132719039917
1772729627001609000,6.99860888671875,1.104080080986023,-9.404376029968262,-2.551295280456543
1772729627011609000,7.008609130859375,1.114621877670288,-9.414443969726562,-2.5092344284057617
1772729627021609000,7.01860888671875,1.1306627988815308,-9.424675941467285,-2.4632248878479004
1772729627031609000,7.028609130859375,1.147436499595642,-9.434941291809082,-2.415712594985962
1772729627041609000,7.03860888671875,1.161118507385254,-9.444607734680176,-2.37099027633667
1772729627051609000,7.048609130859375,1.1693098545074463,-9.453383445739746,-2.331660509109497
1772729627061609000,7.05860888671875,1.1728816032409668,-9.46104907989502,-2.298539161682129
1772729627071609000,7.068609130859375,1.174904227256775,-9.46739673614502,-2.271207332611084
1772729627081609000,7.07860888671875,1.1778640747070312,-9.471918106079102,-2.250730514526367
1772729627091609000,7.088609130859375,1.1811950206756592,-9.4749174118042,-2.2363154888153076
1772729627101609000,7.09860888671875,1.1828242540359497,-9.478161811828613,-2.221658706665039
1772729627111609000,7.108609130859375,1.1795538663864136,-9.484419822692871,-2.1965479850769043
1772729627121609000,7.11860888671875,1.1698247194290161,-9.495203018188477,-2.1547675132751465
1772729627131609000,7.128609130859375,1.1578521728515625,-9.510485649108887,-2.0929462909698486
1772729627141609000,7.13860888671875,1.1478688716888428,-9.53016185760498,-2.0071864128112793
1772729627151609000,7.148609130859375,1.1392650604248047,-9.553149223327637,-1.899949312210083
1772729627161609000,7.15860888671875,1.1298738718032837,-9.577950477600098,-1.7766876220703125
1772729627171609000,7.168609130859375,1.1167800426483154,-9.602784156799316,-1.6461234092712402
1772729627181609000,7.17860888671875,1.1036039590835571,-9.624889373779297,-1.5211695432662964
1772729627191609000,7.188609130859375,1.0884159803390503,-9.643620491027832,-1.4093695878982544
1772729627201609000,7.19860888671875,1.0627713203430176,-9.659794807434082,-1.3150194883346558
1772729627211609000,7.208609130859375,1.0162577629089355,-9.675091743469238,-1.23702073097229
1772729627221609000,7.21860888671875,0.9455994963645935,-9.690145492553711,-1.1735925674438477
1772729627231609000,7.228609130859375,0.855666995048523,-9.704167366027832,-1.1257758140563965
1772729627241609000,7.23860888671875,0.7551651000976562,-9.71584701538086,-1.0965615510940552
1772729627251609000,7.248609130859375,0.6513487696647644,-9.724742889404297,-1.084208607673645
1772729627261609000,7.25860888671875,0.5462585687637329,-9.731406211853027,-1.0824596881866455
1772729627271609000,7.268609130859375,0.44261986017227173,-9.736379623413086,-1.085068941116333
1772729627281609000,7.27860888671875,0.34195929765701294,-9.739980697631836,-1.0891386270523071
1772729627291609000,7.288609130859375,0.2416599988937378,-9.742307662963867,-1.0951851606369019
1772729627301609000,7.29860888671875,0.13812491297721863,-9.743758201599121,-1.1002181768417358
1772729627311609000,7.308609130859375,0.029839973896741867,-9.74558162689209,-1.0923041105270386
1772729627321609000,7.31860888671875,-0.08102833479642868,-9.748720169067383,-1.0612692832946777
1772729627331609000,7.328609130859375,-0.19229595363140106,-9.75231647491455,-1.0127785205841064
1772729627341609000,7.33860888671875,-0.302613765001297,-9.75513744354248,-0.957135021686554
1772729627351609000,7.348609130859375,-0.4084220826625824,-9.756792068481445,-0.8992239832878113
1772729627361609000,7.35860888671875,-0.5083459615707397,-9.75745677947998,-0.8390499949455261
1772729627371609000,7.368609130859375,-0.6102140545845032,-9.758230209350586,-0.7582601308822632
1772729627381609000,7.37860888671875,-0.7261354327201843,-9.758508682250977,-0.6439054608345032
1772729627391609000,7.388609130859375,-0.8294340372085571,-9.75804615020752,-0.5127829909324646
1772729627401609000,7.39860888671875,-0.8791449666023254,-9.758978843688965,-0.3997856676578522
1772729627411609000,7.408609130859375,-0.8658971786499023,-9.762630462646484,-0.3341352641582489
1772729627421609000,7.41860888671875,-0.8213512897491455,-9.767114639282227,-0.3150392174720764
1772729627431609000,7.428609130859375,-0.7811732888221741,-9.769967079162598,-0.3285054564476013
1772729627441609000,7.43860888671875,-0.7710050344467163,-9.769375801086426,-0.36774370074272156
1772729627451609000,7.448609130859375,-0.8051429986953735,-9.764196395874023,-0.42729872465133667
1772729627461609000,7.45860888671875,-0.8729436993598938,-9.754390716552734,-0.5101206302642822
1772729627471609000,7.468609130859375,-0.9621782898902893,-9.7406005859375,-0.6044134497642517
1772729627481609000,7.47860888671875,-1.060732364654541,-9.724535942077637,-0.6918413043022156
1772729627491609000,7.488609130859375,-1.1429232358932495,-9.709315299987793,-0.7702663540840149
1772729627501609000,7.49860888671875,-1.1869345903396606,-9.698287010192871,-0.8395196795463562
1772729627511609000,7.508609130859375,-1.196768045425415,-9.691367149353027,-0.9030658006668091
1772729627521609000,7.51860888671875,-1.1917698383331299,-9.687198638916016,-0.9530270099639893
1772729627531609000,7.528609130859375,-1.1884208917617798,-9.684627532958984,-0.9828634262084961
1772729627541609000,7.53860888671875,-1.1960312128067017,-9.682272911071777,-0.9967467784881592
1772729627551609000,7.548609130859375,-1.2179652452468872,-9.679057121276855,-1.0014052391052246
1772729627561609000,7.55860888671875,-1.250165343284607,-9.675978660583496,-0.9914261698722839
1772729627571609000,7.568609130859375,-1.285954475402832,-9.675272941589355,-0.951743483543396
1772729627581609000,7.57860888671875,-1.305592656135559,-9.680889129638672,-0.8638340830802917
1772729627591609000,7.588609130859375,-1.3119839429855347,-9.688830375671387,-0.7587071657180786
1772729627601609000,7.59860888671875,-1.3285930156707764,-9.694957733154297,-0.6426720023155212
1772729627611609000,7.608609130859375,-1.368397831916809,-9.696907997131348,-0.517551064491272
1772729627621609000,7.61860888671875,-1.4375070333480835,-9.692826271057129,-0.3912387788295746
1772729627631609000,7.628609130859375,-1.5316168069839478,-9.682147026062012,-0.283833384513855
1772729627641609000,7.63860888671875,-1.6511094570159912,-9.664506912231445,-0.20382079482078552
1772729627651609000,7.648609130859375,-1.7908004522323608,-9.640701293945312,-0.1424952894449234
1772729627661609000,7.65860888671875,-1.937447428703308,-9.612772941589355,-0.10621015727519989
1772729627671609000,7.668609130859375,-2.0872788429260254,-9.581474304199219,-0.09487133473157883
1772729627681609000,7.67860888671875,-2.2399344444274902,-9.546757698059082,-0.11177196353673935
1772729627691609000,7.688609130859375,-2.397378921508789,-9.508101463317871,-0.1376669555902481
1772729627701609000,7.69860888671875,-2.559847354888916,-9.465239524841309,-0.16373565793037415
1772729627711609000,7.708609130859375,-2.729344367980957,-9.417336463928223,-0.18664072453975677
1772729627721609000,7.71860888671875,-2.903920888900757,-9.364429473876953,-0.21231690049171448
1772729627731609000,7.728609130859375,-3.0868334770202637,-9.304916381835938,-0.2457670420408249
1772729627741609000,7.73860888671875,-3.2782821655273438,-9.237848281860352,-0.29225441813468933
1772729627751609000,7.748609130859375,-3.4780421257019043,-9.16241455078125,-0.35181063413619995
1772729627761609000,7.75860888671875,-3.6834776401519775,-9.080880165100098,-0.37415340542793274
1772729627771609000,7.768609130859375,-3.8521740436553955,-9.010013580322266,-0.3883168399333954
1772729627781609000,7.77860888671875,-3.91984224319458,-8.970552444458008,-0.578277587890625
1772729627791609000,7.788609130859375,-3.9157824516296387,-8.941271781921387,-0.9437696933746338
1772729627801609000,7.79860888671875,-3.859769821166992,-8.909586906433105,-1.375434160232544
1772729627811609000,7.808609130859375,-3.7786941528320312,-8.872289657592773,-1.7816665172576904
1772729627821609000,7.81860888671875,-3.6866116523742676,-8.83525562286377,-2.125450849533081
1772729627831609000,7.828609130859375,-3.5914957523345947,-8.800456047058105,-2.413196086883545
1772729627841609000,7.83860888671875,-3.479473829269409,-8.76811695098877,-2.680255889892578
1772729627851609000,7.848609130859375,-3.332103967666626,-8.734753608703613,-2.9616782665252686
1772729627861609000,7.85860888671875,-3.127554178237915,-8.69525146484375,-3.2835044860839844
1772729627871609000,7.868609130859375,-2.849759340286255,-8.641977310180664,-3.6558845043182373
1772729627881609000,7.87860888671875,-2.4846291542053223,-8.570286750793457,-4.067824840545654
1772729627891609000,7.888609130859375,-2.0270028114318848,-8.47823715209961,-4.4923415184021
1772729627901609000,7.89860888671875,-1.4830974340438843,-8.366212844848633,-4.896660804748535
1772729627911609000,7.908609130859375,-0.8569319248199463,-8.245233535766602,-5.23948335647583
1772729627921609000,7.91860888671875,-0.20880244672298431,-8.124129295349121,-5.488652229309082
1772729627931609000,7.928609130859375,0.4045756459236145,-8.00100326538086,-5.656027793884277
1772729627941609000,7.93860888671875,0.9711881875991821,-7.864142894744873,-5.777753829956055
1772729627951609000,7.948609130859375,1.5068342685699463,-7.694498062133789,-5.890206336975098
1772729627961609000,7.95860888671875,2.043239116668701,-7.4720635414123535,-6.013636589050293
1772729627971609000,7.968609130859375,2.6025092601776123,-7.183835983276367,-6.147342681884766
1772729627981609000,7.97860888671875,3.1771411895751953,-6.832145690917969,-6.276779651641846
1772729627991609000,7.988609130859375,3.7672688961029053,-6.429415225982666,-6.37500524520874
1772729628001609000,7.99860888671875,4.346503257751465,-5.991062641143799,-6.433154582977295
1772729628011609000,8.008609130859375,4.866175651550293,-5.532907962799072,-6.471294403076172
1772729628021609000,8.01860888671875,5.2996392250061035,-5.06135368347168,-6.516664028167725
1772729628031609000,8.028609130859374,5.660808563232422,-4.573805809020996,-6.573122024536133
1772729628041609000,8.03860888671875,5.974056720733643,-4.063007354736328,-6.6312150955200195
1772729628051609000,8.048609130859376,6.255301475524902,-3.527284622192383,-6.6783127784729
1772729628061609000,8.05860888671875,6.5210771560668945,-2.9747931957244873,-6.69302225112915
1772729628071609000,8.068609130859375,6.786685466766357,-2.4206743240356445,-6.652189254760742
1772729628081609000,8.07860888671875,7.047581672668457,-1.8722805976867676,-6.557176113128662
1772729628091609000,8.088609130859375,7.313346862792969,-1.3313536643981934,-6.396315574645996
1772729628101609000,8.09860888671875,7.593585968017578,-0.8020429611206055,-6.153419017791748
1772729628111609000,8.108609130859374,7.875279903411865,-0.28933700919151306,-5.836663722991943
1772729628121609000,8.11860888671875,8.140547752380371,0.19737190008163452,-5.464696407318115
1772729628131609000,8.128609130859376,8.373892784118652,0.6526886224746704,-5.061846733093262
1772729628141609000,8.13860888671875,8.568031311035156,1.0731326341629028,-4.64840030670166
1772729628151609000,8.148609130859375,8.718536376953125,1.4587976932525635,-4.246105670928955
1772729628161609000,8.15860888671875,8.823646545410156,1.8081990480422974,-3.878669500350952
1772729628171609000,8.168609130859375,8.885269165039062,2.1240928173065186,-3.565195322036743
1772729628181609000,8.17860888671875,8.912483215332031,2.419309139251709,-3.299238681793213
1772729628191609000,8.188609130859374,8.913681983947754,2.7058846950531006,-3.0651004314422607
1772729628201609000,8.19860888671875,8.897034645080566,2.989037036895752,-2.842327356338501
1772729628211609000,8.208609130859376,8.866616249084473,3.270270824432373,-2.61893630027771
1772729628221609000,8.21860888671875,8.825961112976074,3.542721748352051,-2.3920516967773438
1772729628231609000,8.228609130859375,8.780335426330566,3.81730318069458,-2.12233304977417
1772729628241609000,8.23860888671875,8.713995933532715,4.114734649658203,-1.8181352615356445
1772729628251609000,8.248609130859375,8.62746810913086,4.414174556732178,-1.5007543563842773
1772729628261609000,8.25860888671875,8.508841514587402,4.710977077484131,-1.2556712627410889
1772729628271609000,8.268609130859375,8.366262435913086,4.995007514953613,-1.1072160005569458
1772729628281609000,8.27860888671875,8.210281372070312,5.257507801055908,-1.0584285259246826
1772729628291609000,8.288609130859374,8.048972129821777,5.496561527252197,-1.0826996564865112
1772729628301609000,8.29860888671875,7.885923862457275,5.715099334716797,-1.1490163803100586
1772729628311609000,8.308609130859375,7.7271857261657715,5.913445472717285,-1.2215378284454346
1772729628321609000,8.31860888671875,7.579550266265869,6.089827537536621,-1.2785948514938354
1772729628331609000,8.328609130859375,7.447880268096924,6.2439703941345215,-1.308547019958496
1772729628341609000,8.33860888671875,7.335917949676514,6.376425743103027,-1.3022645711898804
1772729628351609000,8.348609130859375,7.244910717010498,6.487723350524902,-1.2613883018493652
1772729628361609000,8.35860888671875,7.176792621612549,6.576047420501709,-1.1914825439453125
1772729628371609000,8.368609130859374,7.132167339324951,6.640331745147705,-1.0993493795394897
1772729628381609000,8.37860888671875,7.110995292663574,6.679140090942383,-0.9966052770614624
1772729628391609000,8.388609130859376,7.114285945892334,6.690483093261719,-0.8914933204650879
1772729628401609000,8.39860888671875,7.140109539031982,6.67560338973999,-0.7909138202667236
1772729628411609000,8.408609130859375,7.18574857711792,6.636900424957275,-0.6978136897087097
1772729628421609000,8.41860888671875,7.245931625366211,6.579710960388184,-0.6117620468139648
1772729628431609000,8.428609130859375,7.312577724456787,6.5122785568237305,-0.5355572700500488
1772729628441609000,8.43860888671875,7.379197120666504,6.441324234008789,-0.47664639353752136
1772729628451609000,8.448609130859374,7.439699172973633,6.375175952911377,-0.42236328125
1772729628461609000,8.45860888671875,7.484487056732178,6.325535297393799,-0.37475669384002686
1772729628471609000,8.468609130859376,7.5149102210998535,6.291477203369141,-0.33738189935684204
1772729628481609000,8.47860888671875,7.532609939575195,6.27052640914917,-0.33266836404800415
1772729628491609000,8.488609130859375,7.540965557098389,6.258521556854248,-0.36761024594306946
1772729628501609000,8.49860888671875,7.538575649261475,6.25677490234375,-0.43933770060539246
1772729628511609000,8.508609130859375,7.526332378387451,6.263352870941162,-0.5432502031326294
1772729628521609000,8.51860888671875,7.504227638244629,6.283808708190918,-0.608849823474884
1772729628531609000,8.528609130859374,7.449643611907959,6.355494022369385,-0.5300036072731018
1772729628541609000,8.53860888671875,7.344519138336182,6.485759258270264,-0.40416219830513
1772729628551609000,8.548609130859376,7.210084915161133,6.6382598876953125,-0.3443177342414856
1772729628561609000,8.55860888671875,7.077999591827393,6.780237674713135,-0.31732311844825745
1772729628571609000,8.568609130859375,6.960302829742432,6.901164531707764,-0.31386664509773254
1772729628581609000,8.57860888671875,6.859655857086182,7.000581741333008,-0.3276534974575043
1772729628591609000,8.588609130859375,6.773587703704834,7.083223819732666,-0.3417970538139343
1772729628601609000,8.59860888671875,6.697562217712402,7.155122756958008,-0.3424549996852875
1772729628611609000,8.608609130859374,6.628081798553467,7.220093250274658,-0.33043763041496277
1772729628621609000,8.61860888671875,6.566050052642822,7.2773566246032715,-0.3121798038482666
1772729628631609000,8.628609130859376,6.518503189086914,7.320712089538574,-0.2944013774394989
1772729628641609000,8.63860888671875,6.496420383453369,7.341454029083252,-0.26449331641197205
1772729628651609000,8.648609130859375,6.505870342254639,7.334928512573242,-0.20703749358654022
1772729628661609000,8.65860888671875,6.546061992645264,7.301127910614014,-0.11401595175266266
1772729628671609000,8.668609130859375,6.606902122497559,7.24700403213501,-0.012404012493789196
1772729628681609000,8.67860888671875,6.673320770263672,7.185698986053467,0.053988274186849594
1772729628691609000,8.688609130859374,6.733577728271484,7.128874778747559,0.09193321317434311
1772729628701609000,8.69860888671875,6.780411243438721,7.083930969238281,0.1196993738412857
1772729628711609000,8.708609130859376,6.810372352600098,7.0551438331604,0.11902064085006714
1772729628721609000,8.71860888671875,6.825927257537842,7.040447235107422,0.09590727090835571
1772729628731609000,8.728609130859375,6.837364196777344,7.0294647216796875,0.08634235709905624
1772729628741609000,8.73860888671875,6.842751502990723,7.024293422698975,0.08024135231971741
1772729628751609000,8.748609130859375,6.847021102905273,7.020075798034668,0.08498799800872803
1772729628761609000,8.75860888671875,6.851406097412109,7.015368461608887,0.11509785801172256
1772729628771609000,8.768609130859375,6.8531999588012695,7.012232780456543,0.1806105077266693
1772729628781609000,8.77860888671875,6.850785732269287,7.01218318939209,0.25769680738449097
1772729628791609000,8.788609130859374,6.846774578094482,7.013359069824219,0.3238034248352051
1772729628801609000,8.79860888671875,6.8432512283325195,7.0142364501953125,0.37520113587379456
1772729628811609000,8.808609130859375,6.840822696685791,7.013364315032959,0.4315728545188904
1772729628821609000,8.81860888671875,6.83974552154541,7.0096869468688965,0.5025603771209717
1772729628831609000,8.828609130859375,6.840952396392822,7.002597808837891,0.5791158080101013
1772729628841609000,8.83860888671875,6.844418525695801,6.99277400970459,0.6522580981254578
1772729628851609000,8.848609130859375,6.847872734069824,6.982998847961426,0.7174626588821411
1772729628861609000,8.85860888671875,6.849053382873535,6.975953102111816,0.7726247906684875
1772729628871609000,8.868609130859374,6.847184181213379,6.972564697265625,0.8184089660644531
1772729628881609000,8.87860888671875,6.845581531524658,6.969561576843262,0.8565167188644409
1772729628891609000,8.888609130859376,6.846088409423828,6.965908527374268,0.8818105459213257
1772729628901609000,8.89860888671875,6.847634792327881,6.96372127532959,0.8870554566383362
1772729628911609000,8.908609130859375,6.847620010375977,6.964880466461182,0.8780244588851929
1772729628921609000,8.91860888671875,6.842996597290039,6.971612453460693,0.8604648113250732
1772729628931609000,8.928609130859375,6.834489345550537,6.982877254486084,0.8363975286483765
1772729628941609000,8.93860888671875,6.820497989654541,6.999213695526123,0.8137581944465637
1772729628951609000,8.948609130859374,6.804723262786865,7.015670299530029,0.8040473461151123
1772729628961609000,8.95860888671875,6.788708209991455,7.031435966491699,0.8017107844352722
1772729628971609000,8.968609130859376,6.771756649017334,7.047151565551758,0.807060956954956
1772729628981609000,8.97860888671875,6.755569934844971,7.06068754196167,0.8242369294166565
1772729628991609000,8.988609130859375,6.7376813888549805,7.076169013977051,0.8377725481987
1772729629001609000,8.99860888671875,6.72127103805542,7.090043067932129,0.8521631360054016
1772729629011609000,9.008609130859375,6.7106709480285645,7.097989082336426,0.8693900108337402
1772729629021609000,9.01860888671875,6.703243255615234,7.103672504425049,0.8802000284194946
1772729629031609000,9.028609130859374,6.69480037689209,7.111778259277344,0.8790051341056824
1772729629041609000,9.03860888671875,6.685853481292725,7.121118545532227,0.8714501261711121
1772729629051609000,9.048609130859376,6.678537368774414,7.128506183624268,0.8671354651451111
1772729629061609000,9.05860888671875,6.670655250549316,7.135486602783203,0.8703824281692505
1772729629071609000,9.068609130859375,6.660111427307129,7.144364356994629,0.8782719969749451
1772729629081609000,9.07860888671875,6.649051666259766,7.1536970138549805,0.8860602974891663
1772729629091609000,9.088609130859375,6.638527870178223,7.162807941436768,0.8913568258285522
1772729629101609000,9.09860888671875,6.629456996917725,7.1709794998168945,0.8931642770767212
1772729629111609000,9.108609130859374,6.621816158294678,7.178272724151611,0.8912566900253296
1772729629121609000,9.11860888671875,6.617150783538818,7.183225154876709,0.8859860897064209
1772729629131609000,9.128609130859376,6.61671781539917,7.184374809265137,0.8798819780349731
1772729629141609000,9.13860888671875,6.620231628417969,7.181635856628418,0.8757997751235962
1772729629151609000,9.148609130859375,6.628162384033203,7.174163341522217,0.8770560026168823
1772729629161609000,9.15860888671875,6.6399736404418945,7.162093639373779,0.8863229155540466
1772729629171609000,9.168609130859375,6.654635906219482,7.146356582641602,0.9032191038131714
1772729629181609000,9.17860888671875,6.670114040374756,7.129324436187744,0.9234141111373901
1772729629191609000,9.188609130859374,6.682810306549072,7.114984512329102,0.9420307278633118
1772729629201609000,9.19860888671875,6.690144062042236,7.106344699859619,0.9550988078117371
1772729629211609000,9.208609130859376,6.690121650695801,7.105665683746338,0.9603042602539062
1772729629221609000,9.21860888671875,6.684323787689209,7.111428260803223,0.9580178260803223
1772729629231609000,9.228609130859375,6.6760478019714355,7.120115280151367,0.9511733651161194
1772729629241609000,9.23860888671875,6.667088508605957,7.129728317260742,0.9419615268707275
1772729629251609000,9.248609130859375,6.658270359039307,7.139403820037842,0.9309955835342407
1772729629261609000,9.25860888671875,6.650541305541992,7.148048400878906,0.9198343753814697
1772729629271609000,9.268609130859375,6.6447367668151855,7.154740333557129,0.909695029258728
1772729629281609000,9.27860888671875,6.641324996948242,7.159008502960205,0.9009951949119568
1772729629291609000,9.288609130859374,6.639756202697754,7.161483287811279,0.8928520679473877
1772729629301609000,9.29860888671875,6.638516902923584,7.163708686828613,0.884174644947052
1772729629311609000,9.308609130859375,6.638190746307373,7.165116310119629,0.8751659989356995
1772729629321609000,9.31860888671875,6.637413501739502,7.166845798492432,0.8668645620346069
1772729629331609000,9.328609130859375,6.637299060821533,7.167891979217529,0.8590496182441711
1772729629341609000,9.33860888671875,6.638420104980469,7.1677141189575195,0.8518463373184204
1772729629351609000,9.348609130859375,6.6416778564453125,7.165459156036377,0.8454033136367798
1772729629361609000,9.35860888671875,6.648473739624023,7.159518718719482,0.842306911945343
1772729629371609000,9.368609130859374,6.658375263214111,7.1501030921936035,0.8440679907798767
1772729629381609000,9.37860888671875,6.66928768157959,7.13923978805542,0.8498483896255493
1772729629391609000,9.388609130859376,6.679386138916016,7.129032135009766,0.8562116622924805
