time,seconds_elapsed,z,y,x
1772541310744810000,0.18981005859375,0.8556079864501953,-0.16843099892139435,0.09828200191259384
1772541310759673300,0.20467333984375,0.8556079864501953,-0.16843099892139435,0.09828200191259384
1772541310769583400,0.214583251953125,0.8556079864501953,-0.16843099892139435,0.09828200191259384
1772541310779493400,0.224493408203125,0.8556079864501953,-0.16843099892139435,0.09828200191259384
1772541310789403400,0.2344033203125,0.8556079864501953,-0.16843099892139435,0.09828200191259384
1772541310799313400,0.2443134765625,0.8556079864501953,-0.16843099892139435,0.09828200191259384
1772541310809223400,0.254223388671875,0.8556079864501953,-0.16843099892139435,0.09828200191259384
1772541310819133400,0.264133544921875,0.8556079864501953,-0.16843099892139435,0.09828200191259384
1772541310829043500,0.27404345703125,0.8556079864501953,-0.16843099892139435,0.09828200191259384
1772541310838953700,0.28395361328125,0.8556079864501953,-0.16843099892139435,0.09828200191259384
1772541310848863500,0.293863525390625,0.8556079864501953,-0.16843099892139435,0.09828200191259384
1772541310858773800,0.303773681640625,0.8556079864501953,-0.16843099892139435,0.09828200191259384
1772541310868683500,0.31368359375,0.8556079864501953,-0.16843099892139435,0.09828200191259384
1772541310878593800,0.32359375,0.8556079864501953,-0.16843099892139435,0.09828200191259384
1772541310888503600,0.333503662109375,0.8556079864501953,-0.16843099892139435,0.09828200191259384
1772541310898413600,0.34341357421875,0.8556079864501953,-0.16843099892139435,0.09828200191259384
1772541310908323800,0.35332373046875,0.8556079864501953,-0.16843099892139435,0.09828200191259384
1772541310918233600,0.363233642578125,-1.0768229961395264,0.6804090142250061,3.1382389068603516
1772541310928144000,0.373143798828125,-0.4070650041103363,1.3934799432754517,4.279566764831543
1772541310938054000,0.383053955078125,-0.24875399470329285,1.257120966911316,3.954547882080078
1772541310947964000,0.3929638671875,-0.20444799959659576,0.8148419857025146,3.2036800384521484
1772541310957874000,0.4028740234375,0.9092239737510681,0.44445300102233887,3.307248115539551
1772541310967784000,0.412783935546875,2.7865169048309326,0.349371999502182,3.361553907394409
1772541310977694000,0.42269384765625,4.198352813720703,0.1856839954853058,3.179426908493042
1772541310987604000,0.43260400390625,3.3648478984832764,0.3742330074310303,3.179689884185791
1772541310997514000,0.442513916015625,2.125230073928833,0.7946709990501404,2.251884937286377
1772541311007424000,0.452424072265625,0.5827739834785461,1.0496079921722412,1.4907480478286743
1772541311017334000,0.462333984375,-0.7236089706420898,1.2950530052185059,1.861238956451416
1772541311027244000,0.472244140625,-1.130445957183838,1.299960970878601,3.012075901031494
1772541311037154000,0.482154052734375,-0.6598389744758606,0.7595210075378418,3.193382978439331
1772541311047064000,0.49206396484375,0.3633750081062317,0.8827040195465088,3.834774971008301
1772541311056974000,0.50197412109375,0.9413740038871765,1.103214979171753,4.579967021942139
1772541311066884000,0.511884033203125,-0.3054879903793335,2.0476980209350586,4.093171119689941
1772541311076794000,0.521794189453125,-1.4781270027160645,3.040621042251587,3.723917007446289
1772541311086704400,0.531704345703125,-0.8047810196876526,2.799262046813965,2.3388609886169434
1772541311096614400,0.541614501953125,0.06318999826908112,1.8490289449691772,1.8147050142288208
1772541311106524400,0.5515244140625,0.5328009724617004,1.134714961051941,2.177712917327881
1772541311116434400,0.561434326171875,1.1536840200424194,1.0640950202941895,2.049952983856201
1772541311126344400,0.571344482421875,0.4860750138759613,1.1774630546569824,2.332310914993286
1772541311136254500,0.58125439453125,0.3357509970664978,0.8690320253372192,2.2594621181488037
1772541311146164700,0.591164794921875,0.858663022518158,0.9026979804039001,2.973361015319824
1772541311156074500,0.601074462890625,1.1751320362091064,0.921845018863678,2.790714979171753
1772541311165984500,0.610984619140625,1.1433789730072021,0.8901730179786682,2.3537099361419678
1772541311175894800,0.620894775390625,0.9108089804649353,0.9643319845199585,1.9197449684143066
1772541311185804800,0.6308046875,0.26878300309181213,0.8839719891548157,1.5654120445251465
1772541311195714800,0.64071484375,-0.2647550106048584,1.218492031097412,2.2113430500030518
1772541311205624800,0.650624755859375,-0.3369460105895996,1.6530319452285767,2.668912887573242
1772541311215534800,0.660534912109375,-0.2926490008831024,2.0816650390625,2.17769193649292
1772541311225444900,0.67044482421875,-0.21841099858283997,1.6494499444961548,2.557935953140259
1772541311235355000,0.68035498046875,-1.1618390083312988,0.8405460119247437,2.4954569339752197
1772541311245265000,0.690264892578125,0.5121530294418335,1.1569969654083252,0.19615299999713898
1772541311255175200,0.700175048828125,1.9084370136260986,1.0782710313796997,-0.5986049771308899
1772541311265085200,0.710085205078125,1.9470950365066528,0.5243330001831055,0.40617701411247253
1772541311284905200,0.7299052734375,1.3950730562210083,1.2897570133209229,3.039530038833618
1772541311294815200,0.739815185546875,0.8530169725418091,1.397400975227356,3.917257070541382
1772541311304725200,0.749725341796875,2.0390360355377197,1.6835180521011353,4.550901889801025
1772541311314635500,0.759635498046875,2.7267990112304688,1.4522860050201416,4.645016193389893
1772541311324545500,0.769545654296875,2.581199884414673,1.4093999862670898,3.6611709594726562
1772541311334455300,0.779455322265625,1.7239209413528442,1.3476289510726929,2.1326019763946533
1772541311344365600,0.789365478515625,0.8410080075263977,1.434622049331665,1.0243760347366333
1772541311354275600,0.799275634765625,0.06055400148034096,1.4699560403823853,0.32777801156044006
1772541311364185900,0.809185791015625,-0.33214399218559265,1.4909390211105347,0.36860400438308716
1772541311374096000,0.819095947265625,0.0348690003156662,1.4740420579910278,0.5231009721755981
1772541311384005600,0.829005615234375,0.3860909938812256,1.5238709449768066,0.65898197889328
1772541311393916000,0.838916015625,0.9213250279426575,1.831009030342102,1.5295939445495605
1772541311403826000,0.848825927734375,1.9753680229187012,2.1774799823760986,3.2341508865356445
1772541311413736000,0.85873583984375,2.374804973602295,2.1118900775909424,4.074800968170166
1772541311423646200,0.868646240234375,1.220708966255188,1.8907430171966553,2.8512799739837646
1772541311433556000,0.878555908203125,-0.4354189932346344,1.9136450290679932,1.1660979986190796
1772541311443466000,0.888466064453125,-1.6528910398483276,1.7262790203094482,-0.011487999930977821
1772541311453376300,0.898376220703125,-2.123387098312378,1.5826460123062134,-1.1424410343170166
1772541311463286300,0.908286376953125,-1.91389000415802,1.4295599460601807,-1.36696195602417
1772541311473196300,0.9181962890625,-1.629660964012146,1.1783549785614014,-0.8481249809265137
1772541311483106300,0.928106201171875,-1.7683210372924805,1.284816026687622,0.5193549990653992
1772541311493016300,0.938016357421875,-0.8360589742660522,1.557073950767517,2.2499489784240723
1772541311502926600,0.947926513671875,0.4114449918270111,1.5612469911575317,2.900191068649292
1772541311512836600,0.957836669921875,0.8199080228805542,1.2614409923553467,2.6358330249786377
1772541311522746600,0.96774658203125,0.3707759976387024,0.9975900053977966,0.8620150089263916
1772541311532656600,0.97765673828125,0.20510800182819366,0.7372609972953796,-0.6361820101737976
1772541311542567000,0.98756689453125,0.0950620025396347,0.46146300435066223,-1.0019700527191162
1772541311552477000,0.997476806640625,0.09346900135278702,0.3942190110683441,-0.8027200102806091
1772541311562387000,1.007386962890625,-0.03170999884605408,0.4063990116119385,-0.622518002986908
1772541311572297000,1.017296875,-0.12424000352621078,0.41485899686813354,-0.5083510279655457
1772541311582207000,1.02720703125,-0.40978899598121643,0.4023370146751404,-0.2703000009059906
1772541311592117000,1.037116943359375,-0.8100889921188354,0.5469239950180054,0.3532389998435974
1772541311602027300,1.04702734375,-0.381401002407074,0.7809780240058899,1.1442270278930664
1772541311611937300,1.056937255859375,-0.23763799667358398,0.5380430221557617,1.0735150575637817
1772541311621847300,1.066847412109375,-0.39854198694229126,0.16010600328445435,0.01547900028526783
1772541311631757300,1.07675732421875,-0.5505009889602661,-0.08421999961137772,-0.7155500054359436
1772541311641667300,1.086667236328125,-0.9107369780540466,-0.5704529881477356,-1.2380690574645996
1772541311651577600,1.09657763671875,-1.5675519704818726,-0.9553959965705872,-1.3726550340652466
1772541311661487400,1.1064873046875,-1.8853739500045776,-0.6485159993171692,-1.188552975654602
1772541311671397600,1.116397705078125,-1.938789963722229,0.14476099610328674,0.09452799707651138
1772541311681307600,1.1263076171875,-1.7997889518737793,0.6255940198898315,2.036358118057251
1772541311691218000,1.136218017578125,-0.9678360223770142,0.7391719818115234,3.3143110275268555
1772541311701127700,1.146127685546875,-0.6063439846038818,0.416034996509552,3.4236350059509277
1772541311711038000,1.156037841796875,-0.23101399838924408,-0.01888200081884861,1.741075038909912
1772541311720948000,1.165947998046875,-1.4132709503173828,-0.42516401410102844,-0.9095100164413452
1772541311730858000,1.17585791015625,-3.8939900398254395,-0.6091979742050171,-3.9513940811157227
1772541311740768000,1.18576806640625,-4.071054935455322,-1.5772579908370972,-3.604728937149048
1772541311750678000,1.195677978515625,-5.885900020599365,-2.1621499061584473,-0.1390639990568161
1772541311780408300,1.225408203125,-5.2216668128967285,-2.1449639797210693,5.298104763031006
1772541311790318300,1.235318359375,-5.067406177520752,-1.9296139478683472,7.245765209197998
1772541311800228600,1.245228515625,-2.065509080886841,-2.090269088745117,10.669124603271484
1772541311810138400,1.255138427734375,1.0557459592819214,-2.118701934814453,12.00124740600586
1772541311820048600,1.265048583984375,2.640014886856079,-1.5900930166244507,10.997396469116211
1772541311829958700,1.274958740234375,2.1736791133880615,-1.8645009994506836,8.79974365234375
1772541311839869000,1.284868896484375,1.2097949981689453,-2.932703971862793,6.221895217895508
1772541311849778700,1.29477880859375,-1.2532089948654175,-4.137814998626709,3.1342968940734863
1772541311859689000,1.30468896484375,-1.5244159698486328,-5.670820236206055,0.5555559992790222
1772541311869599000,1.314598876953125,0.507174015045166,-6.484528064727783,-0.6542019844055176
1772541311879509200,1.32450927734375,2.0873959064483643,-6.824244022369385,-0.9447540044784546
1772541311889419000,1.3344189453125,3.6322309970855713,-6.596504211425781,-1.0881710052490234
1772541311899329300,1.344329345703125,2.6466829776763916,-5.742577075958252,-0.44888800382614136
1772541311909239300,1.3542392578125,1.433150053024292,-5.490192890167236,0.37865498661994934
1772541311919149300,1.3641494140625,2.7624549865722656,-3.949086904525757,-0.032620999962091446
1772541311929059300,1.374059326171875,2.5588059425354004,-3.5588560104370117,-1.1711729764938354
1772541311938969600,1.383969482421875,3.947160005569458,-4.59305477142334,-0.8455250263214111
1772541311948879600,1.393879638671875,4.3209919929504395,-5.679841995239258,0.45421499013900757
1772541311958790000,1.403789794921875,-2.115233898162842,-7.058856010437012,0.7761819958686829
1772541311968699600,1.41369970703125,-2.082458972930908,-9.399873733520508,-2.72804594039917
1772541311978609700,1.423609619140625,-1.1998039484024048,-7.029208183288574,-9.762914657592773
1772541311988520000,1.43352001953125,-1.1873259544372559,-5.693796157836914,-14.670417785644531
1772541311998430200,1.44343017578125,-1.4991110563278198,-5.892578125,-16.278589248657227
1772541312008340000,1.453340087890625,-3.812087059020996,-5.172769069671631,-18.009666442871094
1772541312018250200,1.463250244140625,-5.3524169921875,-5.442477226257324,-18.343303680419922
1772541312028160300,1.47316015625,-3.1728909015655518,-5.302806854248047,-18.412456512451172
1772541312038070500,1.483070556640625,-0.3246000111103058,-3.394521951675415,-17.438199996948242
1772541312047980300,1.492980224609375,0.4786739945411682,-1.2329039573669434,-14.96479606628418
1772541312057890600,1.502890625,1.4512089490890503,-0.05295800045132637,-12.940619468688965
1772541312067800600,1.512800537109375,2.555769920349121,0.38918399810791016,-9.934883117675781
1772541312077710600,1.522710693359375,4.734280109405518,0.7036579847335815,-6.572758197784424
1772541312087620600,1.53262060546875,6.5582170486450195,2.89924693107605,4.49862003326416
1772541312097530600,1.542530517578125,11.049345016479492,8.862336158752441,19.833599090576172
1772541312117351200,1.56235107421875,9.522809028625488,7.023716926574707,12.790266036987305
1772541312127261000,1.572260986328125,7.919572830200195,5.246222019195557,6.201952934265137
1772541312137171200,1.582171142578125,2.4484291076660156,0.9971190094947815,4.897515773773193
1772541312147081200,1.592081298828125,-3.15299391746521,0.19380399584770203,3.2373669147491455
1772541312156991200,1.6019912109375,-3.1167099475860596,0.8251309990882874,2.725430965423584
1772541312166901200,1.6119013671875,-2.8112740516662598,1.9161169528961182,1.7939109802246094
1772541312176811500,1.6218115234375,-3.441037893295288,1.6504110097885132,-1.076828956604004
1772541312186721500,1.631721435546875,-2.282036066055298,1.4019650220870972,-1.6039680242538452
1772541312196631600,1.641631591796875,-1.9967479705810547,0.4381070137023926,-1.6092909574508667
1772541312206541800,1.651541748046875,0.13711600005626678,0.7297189831733704,-0.22742299735546112
1772541312216451800,1.661451904296875,0.8347359895706177,0.6977139711380005,0.7102800011634827
1772541312226362000,1.671362060546875,-0.24998299777507782,0.5479980111122131,0.38575300574302673
1772541312236271900,1.68127197265625,0.13889600336551666,0.24737399816513062,-0.7850509881973267
1772541312246182100,1.69118212890625,1.019901990890503,0.469963014125824,-1.285506010055542
1772541312256092000,1.701091796875,1.666511058807373,0.9856590032577515,-0.3071959912776947
1772541312266002200,1.711002197265625,1.319161057472229,1.7235080003738403,1.183542013168335
1772541312275912200,1.720912109375,0.521731972694397,1.6134350299835205,1.112725019454956
1772541312285822500,1.730822509765625,0.23674499988555908,1.4700069427490234,0.08949100226163864
1772541312295732200,1.740732177734375,0.12615099549293518,1.8025610446929932,0.5821710228919983
1772541312305642500,1.750642578125,-0.635558009147644,1.5322450399398804,0.9868720173835754
1772541312315552500,1.760552490234375,-2.9538168907165527,1.0032869577407837,1.9889459609985352
1772541312325462800,1.770462890625,-2.3704569339752197,1.6546759605407715,3.807065010070801
1772541312335372800,1.780372802734375,-0.49748000502586365,0.8099640011787415,1.9896160364151
1772541312345282800,1.79028271484375,0.5401859879493713,-0.09350399672985077,0.41161298751831055
1772541312355192800,1.80019287109375,1.2701410055160522,-0.5312280058860779,-0.277862012386322
1772541312365103000,1.81010302734375,1.3295259475708008,-1.1564619541168213,-0.9450269937515259
1772541312375013000,1.82001318359375,1.1126530170440674,-1.396414041519165,-1.1244709491729736
1772541312384923400,1.82992333984375,1.9058459997177124,-0.8212940096855164,0.04400400072336197
1772541312394833400,1.83983349609375,1.7755919694900513,-1.1346980333328247,-0.4376310110092163
1772541312404743400,1.849743408203125,1.2240229845046997,-1.423280954360962,-1.451856017112732
1772541312414653400,1.8596533203125,1.8863860368728638,-1.627882957458496,-3.3951210975646973
1772541312424563700,1.869563720703125,4.768202781677246,-3.6077160835266113,-9.309073448181152
1772541312434473700,1.8794736328125,1.547677993774414,-0.46544501185417175,-2.1560850143432617
1772541312444384000,1.889384033203125,2.9121201038360596,-0.9935669898986816,-3.6898300647735596
1772541312454293800,1.899293701171875,3.285090923309326,-1.9952659606933594,-6.030202865600586
1772541312464204000,1.9092041015625,3.8499460220336914,-3.407850980758667,-11.358447074890137
1772541312474114000,1.919114013671875,2.473196029663086,-6.652013778686523,-18.853286743164062
1772541312484024300,1.9290244140625,-1.9049429893493652,-2.3895280361175537,-5.663387775421143
1772541312493934300,1.938934326171875,-2.976351022720337,-0.515919029712677,-4.429964065551758
1772541312503844400,1.94884423828125,-1.9649310111999512,-0.9330059885978699,-1.91143798828125
1772541312513754400,1.95875439453125,-1.3078900575637817,-0.020735999569296837,-1.7234280109405518
1772541312523664600,1.96866455078125,-4.120968818664551,-1.0018550157546997,-3.764094114303589
1772541312533574700,1.97857470703125,-3.246073007583618,0.39906999468803406,3.9419031143188477
1772541312543485000,1.98848486328125,-0.013757999986410141,1.9897650480270386,5.713126182556152
1772541312553395000,1.99839501953125,2.74767804145813,0.281823992729187,6.3898138999938965
1772541312563305000,2.008304931640625,2.5092389583587646,-0.9057760238647461,6.09242582321167
1772541312573215000,2.018215087890625,3.110379934310913,-2.0259430408477783,4.976428985595703
1772541312583125200,2.028125244140625,4.475547790527344,-3.210336923599243,3.0434820652008057
1772541312593035300,2.03803515625,4.708428859710693,-3.9797849655151367,3.2637670040130615
1772541312602945500,2.047945556640625,1.6199779510498047,-4.300510883331299,4.556532859802246
1772541312612855300,2.057855224609375,6.396109104156494,-5.507450103759766,-2.358182907104492
1772541312622765600,2.067765625,-4.459878921508789,-7.913992881774902,-4.153785228729248
1772541312632675800,2.07767578125,-12.361626625061035,-10.734599113464355,-1.0361989736557007
1772541312642585900,2.0875859375,-1.0643019676208496,-7.991652011871338,1.2290159463882446
1772541312652496100,2.09749609375,-0.8663420081138611,-6.533092021942139,4.180462837219238
1772541312662406000,2.107406005859375,-2.1797590255737305,-5.488489151000977,3.9228830337524414
1772541312672316200,2.117316162109375,-0.3420810103416443,-3.262010097503662,2.156450033187866
1772541312682226200,2.12722607421875,0.4913190007209778,-1.5453850030899048,0.36000001430511475
1772541312692136400,2.137136474609375,-1.42985999584198,-2.9970719814300537,-2.018742084503174
1772541312702046500,2.14704638671875,-0.8151969909667969,-3.290558099746704,-4.070952892303467
1772541312711956500,2.15695654296875,-0.4618290066719055,-2.4593260288238525,-3.1516900062561035
1772541312721866800,2.16686669921875,-0.41860198974609375,-2.5852129459381104,-3.866734027862549
1772541312731776800,2.17677685546875,0.533394992351532,-2.6264429092407227,-5.412344932556152
1772541312741686800,2.186686767578125,0.5967400074005127,-3.4655749797821045,-7.699540138244629
1772541312751597000,2.19659716796875,-1.5804309844970703,-2.7981820106506348,-5.986058235168457
1772541312761507000,2.206507080078125,-4.625421047210693,-0.2248540073633194,-3.071521043777466
1772541312771417000,2.2164169921875,-5.857698917388916,3.2102720737457275,0.17841100692749023
1772541312781327400,2.226327392578125,-2.640573024749756,6.632349014282227,6.873331069946289
1772541312791237400,2.2362373046875,-1.460008978843689,7.781863212585449,8.310905456542969
1772541312811057700,2.2560576171875,-2.350132942199707,6.350704193115234,6.546824932098389
1772541312820967700,2.2659677734375,-3.4876110553741455,5.467071056365967,7.4784698486328125
1772541312830877700,2.275877685546875,-6.037898063659668,3.4826040267944336,8.859829902648926
1772541312840788000,2.2857880859375,-7.295320987701416,2.005089044570923,10.779705047607422
1772541312850698000,2.295697998046875,-6.281132221221924,0.4969539940357208,12.278614044189453
1772541312860608300,2.305608154296875,-2.9967401027679443,0.8737409710884094,13.622397422790527
1772541312870518300,2.315518310546875,-1.6111149787902832,-0.1873060017824173,13.783411026000977
1772541312880428300,2.32542822265625,1.2281160354614258,-1.2178759574890137,13.869576454162598
1772541312890338600,2.335338623046875,3.284266948699951,-2.911858081817627,11.121248245239258
1772541312900248600,2.34524853515625,5.256715774536133,-4.672597885131836,7.1486101150512695
1772541312910158600,2.35515869140625,3.8002328872680664,-6.571416854858398,2.097994089126587
1772541312920068900,2.36506884765625,1.1310139894485474,-8.116321563720703,-0.29320698976516724
1772541312929979000,2.374978759765625,-0.1132659986615181,-6.326623916625977,0.07084000110626221
1772541312939889000,2.384888916015625,0.6040639877319336,-1.9914499521255493,2.5598158836364746
1772541312949799200,2.394799072265625,1.7335710525512695,-0.06539399921894073,5.226371765136719
1772541312959709200,2.404709228515625,2.214616060256958,0.01815599948167801,6.770125865936279
1772541312969619700,2.41461962890625,0.9203649759292603,0.5709540247917175,6.18963623046875
1772541312979529500,2.424529541015625,-0.8695319890975952,0.7886030077934265,5.247053146362305
1772541312989439500,2.434439453125,-1.9216580390930176,-0.24671900272369385,4.454269886016846
1772541312999349800,2.444349853515625,0.07247000187635422,-3.2878270149230957,0.46856099367141724
1772541313009259800,2.454259765625,-1.583111047744751,-3.1890430450439453,-4.2074432373046875
1772541313019170000,2.464170166015625,-3.0018250942230225,-2.3772640228271484,-7.004773139953613
1772541313029080300,2.474080322265625,-4.326608180999756,-3.179987907409668,-10.366933822631836
1772541313038990300,2.483990234375,-3.0414390563964844,-3.598422050476074,-12.03416919708252
1772541313048900400,2.493900390625,-1.1206610202789307,-2.279728889465332,-12.694202423095703
1772541313058810400,2.503810302734375,-0.8108310103416443,-3.7184970378875732,-8.491024017333984
1772541313068720600,2.513720703125,1.0620169639587402,-5.863716125488281,-7.254183769226074
1772541313078630700,2.523630615234375,3.1069600582122803,-4.692860126495361,-5.23392391204834
1772541313088541000,2.533541015625,3.515700101852417,-1.953279972076416,-0.5192530155181885
1772541313098451000,2.543450927734375,2.011244058609009,-0.7506430149078369,4.62370491027832
1772541313108361200,2.553361328125,1.2709829807281494,-0.8438010215759277,7.096135139465332
1772541313118271200,2.563271240234375,1.4185800552368164,-1.198796033859253,7.603065013885498
1772541313128181500,2.573181396484375,1.1494519710540771,-1.5993809700012207,5.916713237762451
1772541313138091500,2.583091552734375,0.5322539806365967,-1.782183051109314,2.900393009185791
1772541313148001800,2.593001708984375,0.10616599768400192,-2.4627819061279297,0.5820199847221375
1772541313157911800,2.602911865234375,-1.0351109504699707,-2.9922831058502197,-0.6769790053367615
1772541313167821800,2.61282177734375,-2.437488079071045,-3.3669118881225586,-0.4851140081882477
1772541313177732000,2.622732177734375,-3.9546968936920166,-3.2074029445648193,0.44224101305007935
1772541313187642000,2.63264208984375,-4.89823579788208,-2.88246488571167,0.5526869893074036
1772541313197552400,2.642552490234375,-5.138836860656738,-2.6479439735412598,-0.398824006319046
1772541313207462700,2.652462646484375,-4.859736919403076,-2.1287460327148438,-0.8259360194206238
1772541313217372700,2.66237255859375,-4.279936790466309,-1.2410210371017456,-0.5513049960136414
1772541313227283000,2.672282958984375,-3.299384117126465,-0.017381999641656876,-0.6336320042610168
1772541313237193000,2.68219287109375,-2.458695888519287,1.4461719989776611,-0.7952839732170105
1772541313247103000,2.69210302734375,-1.859226942062378,2.4069108963012695,0.37674999237060547
1772541313257013200,2.70201318359375,-0.9964420199394226,2.935807943344116,1.7629139423370361
1772541313276833500,2.72183349609375,-0.5142539739608765,3.4824230670928955,3.3789620399475098
1772541313286743600,2.73174365234375,-0.5847579836845398,3.8567070960998535,3.192821979522705
1772541313296653800,2.74165380859375,-1.4252419471740723,4.565900802612305,3.0636849403381348
1772541313306564000,2.751564208984375,-0.8060969710350037,4.048480987548828,2.414625883102417
1772541313316474000,2.76147412109375,0.19164399802684784,3.281583070755005,1.6568080186843872
1772541313326384000,2.771384033203125,0.904928982257843,2.556257963180542,0.5577290058135986
1772541313336294100,2.781294189453125,1.306048035621643,1.7635730504989624,-0.7581139802932739
1772541313346204400,2.791204345703125,1.5980969667434692,1.1115729808807373,-2.8213889598846436
1772541313356114400,2.801114501953125,1.6792240142822266,1.4601030349731445,-3.9494569301605225
1772541313366025000,2.81102490234375,1.261639952659607,1.7412409782409668,-4.001897811889648
1772541313375934700,2.820934814453125,0.7909250259399414,2.0390090942382812,-2.6963300704956055
1772541313385845000,2.830844970703125,0.4501410126686096,2.6128358840942383,-1.6458109617233276
1772541313395755300,2.84075537109375,-0.4062899947166443,3.3586061000823975,-0.9856110215187073
1772541313405665300,2.850665283203125,-0.4887849986553192,4.021280765533447,0.3333280086517334
1772541313415575300,2.8605751953125,-0.027372999116778374,4.5241780281066895,1.6373529434204102
1772541313425485600,2.870485595703125,0.6136810183525085,4.881011009216309,1.4674479961395264
1772541313435395600,2.8803955078125,0.7197510004043579,5.070353984832764,0.17590899765491486
1772541313445305900,2.890305908203125,0.3544830083847046,4.1276960372924805,0.10595600306987762
1772541313455215900,2.9002158203125,-0.46813398599624634,3.6608169078826904,-0.7033929824829102
1772541313465126100,2.910126220703125,-1.1650580167770386,3.366236925125122,-2.0510900020599365
1772541313475036400,2.920036376953125,-1.3366069793701172,3.2012999057769775,-2.9197158813476562
1772541313484946400,2.929946533203125,-2.3378500938415527,3.317857027053833,-3.0226891040802
1772541313494856700,2.939856689453125,-3.379401922225952,3.945966958999634,-3.050424098968506
1772541313504766700,2.9497666015625,-2.793710947036743,4.7087860107421875,-2.191948890686035
1772541313514677000,2.959677001953125,-2.171581983566284,4.4217658042907715,-1.3559290170669556
1772541313524587000,2.9695869140625,-1.1123689413070679,4.530697822570801,-0.5430610179901123
1772541313534497300,2.979497314453125,-0.19596000015735626,5.1140031814575195,0.3370620012283325
1772541313544407300,2.9894072265625,1.0107369422912598,5.823119163513184,0.49031099677085876
1772541313554317600,2.999317626953125,11.620805740356445,5.030099868774414,0.8331310153007507
1772541313564227600,3.0092275390625,15.70943546295166,-2.464400053024292,2.775477886199951
1772541313574137900,3.019137939453125,9.12994384765625,-18.702709197998047,16.589736938476562
1772541313584048000,3.029048095703125,2.2037808895111084,-44.51091766357422,10.531126022338867
1772541313593958400,3.03895849609375,-1.0138490200042725,-55.811519622802734,-13.654272079467773
1772541313603868400,3.048868408203125,-8.041131019592285,-29.687606811523438,1.942639946937561
1772541313613778700,3.05877880859375,-4.777091979980469,-7.047561168670654,0.6942489743232727
1772541313623688700,3.068688720703125,0.96567302942276,0.7291560173034668,-2.321789026260376
1772541313633599000,3.078598876953125,3.7215640544891357,-0.8465750217437744,-2.763258934020996
1772541313643509200,3.08850927734375,4.434086799621582,-2.814271926879883,-0.6609010100364685
1772541313653419300,3.098419189453125,3.5928421020507812,-1.8824479579925537,2.265571117401123
1772541313663329300,3.108329345703125,3.022977113723755,-1.049288034439087,5.231645107269287
1772541313673239600,3.118239501953125,3.5087389945983887,-1.180317997932434,6.782896995544434
1772541313683149800,3.12814990234375,4.316041946411133,-2.1576130390167236,7.095123767852783
1772541313693059800,3.138059814453125,3.8943049907684326,-2.8444290161132812,6.16408109664917
1772541313702970000,3.14797021484375,3.736898899078369,-2.9054670333862305,3.48103404045105
1772541313712880400,3.15788037109375,3.869915008544922,-2.9506490230560303,0.9585679769515991
1772541313722790400,3.167790283203125,1.0039360523223877,-2.7262380123138428,-0.7350069880485535
1772541313732700700,3.17770068359375,-1.6059080362319946,-3.2732601165771484,-0.7013930082321167
1772541313742610700,3.187610595703125,-4.764145851135254,-2.964956045150757,-0.5017840266227722
1772541313752521000,3.19752099609375,-7.604869842529297,-2.586599111557007,-0.6788100004196167
1772541313762431000,3.207430908203125,-9.726873397827148,-2.440671920776367,0.16380199790000916
1772541313772341500,3.217341552734375,-9.631007194519043,-1.9552279710769653,0.9347450137138367
1772541313782251300,3.227251220703125,-5.529189109802246,-1.9259259700775146,-0.806207001209259
1772541313792161800,3.237161865234375,-0.08445599675178528,-2.0069260597229004,-1.0715429782867432
1772541313802071800,3.24707177734375,2.299393892288208,-2.0386219024658203,-0.3177489936351776
1772541313811982000,3.256982177734375,3.8002328872680664,-2.363722085952759,0.1255519986152649
1772541313821892400,3.266892333984375,3.5309460163116455,-2.920016050338745,-1.096532940864563
1772541313831802400,3.27680224609375,4.661712169647217,-3.4376540184020996,-3.272902011871338
1772541313841712600,3.286712646484375,4.127573013305664,-3.904007911682129,-4.551950931549072
1772541313851622700,3.29662255859375,-2.9517509937286377,-3.387932062149048,-0.2272700071334839
1772541313861533000,3.306532958984375,-7.296870231628418,-1.8664430379867554,4.401717185974121
1772541313871443200,3.316443115234375,-6.205615043640137,-0.14459699392318726,4.483047008514404
1772541313881353500,3.326353515625,-1.8429629802703857,1.1054710149765015,4.070940017700195
1772541313891263700,3.336263671875,0.34738799929618835,1.5023690462112427,4.155259132385254
1772541313901173800,3.346173828125,-0.6746839880943298,1.321789026260376,3.9074039459228516
1772541313911084000,3.356083984375,-3.1572649478912354,1.2188290357589722,4.356412887573242
1772541313920994000,3.365994140625,-5.490294933319092,1.6567569971084595,5.006475925445557
1772541313930904300,3.375904296875,-6.712563991546631,2.6223130226135254,5.0149688720703125
1772541313940814600,3.385814697265625,-5.948249816894531,3.1876931190490723,5.034862995147705
1772541313950724600,3.395724609375,-5.430578231811523,3.754210948944092,4.707571983337402
1772541313960635100,3.40563525390625,-5.505033016204834,4.399551868438721,3.7933120727539062
1772541313970545200,3.415545166015625,-5.878448009490967,5.473802089691162,3.239135980606079
1772541313980455400,3.425455322265625,-6.124610900878906,6.368161201477051,3.124501943588257
1772541313990365400,3.435365478515625,-6.3476881980896,6.855563163757324,3.5042619705200195
1772541314000275700,3.445275634765625,-6.596593856811523,6.718303203582764,3.5911478996276855
1772541314010185700,3.455185791015625,-6.677455902099609,6.383623123168945,3.0613930225372314
1772541314020096000,3.465095947265625,-6.405226230621338,6.027275085449219,2.4959020614624023
1772541314030006300,3.47500634765625,-5.983438968658447,5.821706771850586,1.678223967552185
1772541314039916300,3.484916259765625,-5.266801834106445,5.701541900634766,1.3102469444274902
1772541314049826800,3.494826904296875,-3.9937050342559814,5.584536075592041,0.2816469967365265
1772541314059736800,3.50473681640625,-2.278062105178833,5.078478813171387,-1.3408030271530151
1772541314069647000,3.514647216796875,-0.08283299952745438,3.906040906906128,-4.278369903564453
1772541314079557400,3.524557373046875,2.0056049823760986,2.2363739013671875,-8.293899536132812
1772541314089467400,3.53446728515625,2.6084868907928467,-0.09743800014257431,-12.086413383483887
1772541314099377700,3.544377685546875,-1.4906560182571411,-1.3480770587921143,-13.517491340637207
1772541314109288000,3.554287841796875,-8.031661987304688,-1.6530009508132935,-12.003138542175293
1772541314119198200,3.5641982421875,-11.05571174621582,-0.32732900977134705,-7.750287055969238
1772541314129108200,3.574108154296875,-7.374237060546875,2.279158115386963,-2.482572078704834
1772541314139018500,3.5840185546875,3.062113046646118,5.568030834197998,3.399509906768799
1772541314148928500,3.593928466796875,39.177181243896484,9.025815963745117,11.811113357543945
1772541314158838800,3.6038388671875,29.749597549438477,1.2401779890060425,1.2121399641036987
1772541314168749300,3.613749267578125,-23.386310577392578,-14.004356384277344,0.2718690037727356
1772541314178659300,3.623659423828125,-31.983657836914062,-20.120849609375,12.7387056350708
1772541314188569600,3.633569580078125,13.01211929321289,-17.972015380859375,14.47201156616211
1772541314198479600,3.643479736328125,8.530296325683594,-8.65794563293457,1.199897050857544
1772541314208390000,3.653389892578125,-7.6689839363098145,-1.454246997833252,-3.1564829349517822
1772541314218300400,3.663300537109375,2.224726915359497,3.714970111846924,-0.9539340138435364
1772541314228210400,3.67321044921875,-0.47149598598480225,5.106338024139404,2.702562093734741
1772541314238120700,3.68312060546875,-6.624436855316162,3.848062038421631,8.390277862548828
1772541314248030700,3.69303076171875,-1.4034379720687866,1.5655900239944458,9.69967269897461
1772541314257941000,3.70294091796875,-1.2271469831466675,-1.4047880172729492,6.594604015350342
1772541314267851300,3.712851318359375,-0.30095601081848145,-4.424025058746338,4.529796123504639
1772541314277761500,3.722761474609375,0.4163370132446289,-6.4730072021484375,4.642833232879639
1772541314287671600,3.732671630859375,0.31422099471092224,-6.243865013122559,3.5607659816741943
1772541314297581800,3.742581787109375,-0.05963899940252304,-4.5680952072143555,2.393873929977417
1772541314307492400,3.752492431640625,-0.8200539946556091,-2.8539628982543945,2.121537923812866
1772541314317402400,3.76240234375,-1.180003046989441,-1.6289329528808594,3.175144910812378
1772541314327312600,3.772312744140625,-1.9825210571289062,-0.4320549964904785,3.3067569732666016
1772541314337223000,3.782222900390625,-2.0658349990844727,0.2057739943265915,3.2311949729919434
1772541314347133000,3.7921328125,-2.134207010269165,0.4042080044746399,3.0837979316711426
1772541314357043200,3.802043212890625,-2.705760955810547,0.0851299986243248,3.071096897125244
1772541314366953500,3.811953369140625,-3.1911909580230713,-0.3823300004005432,2.9975790977478027
1772541314376863700,3.82186376953125,-3.738806962966919,-0.8844559788703918,2.7266390323638916
1772541314386774000,3.83177392578125,-3.6544361114501953,-1.1261980533599854,2.6954588890075684
1772541314396684300,3.841684326171875,-2.891526937484741,-0.6604740023612976,2.5373899936676025
1772541314406594600,3.851594482421875,-2.542006015777588,-0.03786500170826912,1.9729219675064087
1772541314416504600,3.861504638671875,-2.1324069499969482,0.5969129800796509,1.189916968345642
1772541314426414800,3.871414794921875,-1.1853489875793457,0.7280880212783813,-0.19933199882507324
1772541314436324900,3.881324951171875,-0.9307360053062439,0.17176899313926697,-1.7559969425201416
1772541314446235400,3.8912353515625,-0.9059489965438843,-0.5403119921684265,-2.9836249351501465
1772541314456145400,3.9011455078125,-1.4087929725646973,-0.515703022480011,-3.2810189723968506
1772541314466055700,3.9110556640625,-1.914957046508789,-0.08889900147914886,-3.6587700843811035
1772541314475966000,3.920966064453125,-1.2383190393447876,0.2945050001144409,-4.227786064147949
1772541314485876200,3.930876220703125,-0.9437580108642578,0.9168220162391663,-4.319598197937012
1772541314495786500,3.940786376953125,-1.2764979600906372,1.6648739576339722,-4.074193000793457
1772541314505696800,3.95069677734375,-1.079738974571228,2.529881000518799,-3.718709945678711
1772541314515606800,3.960606689453125,-0.3866319954395294,3.3286828994750977,-3.4888839721679688
1772541314525517300,3.970517333984375,0.022538000717759132,3.9541358947753906,-3.5359649658203125
1772541314535427300,3.98042724609375,0.10830099880695343,4.306038856506348,-3.019524097442627
1772541314545337600,3.990337646484375,-0.19095300137996674,4.28167200088501,-2.2731809616088867
1772541314555247900,4.000247802734375,0.20127899944782257,3.830687999725342,-1.5524909496307373
1772541314565158000,4.010157958984375,1.6718930006027222,2.844261884689331,-0.8388879895210266
1772541314575068400,4.020068359375,3.169214963912964,1.8499449491500854,-0.45434099435806274
1772541314584978400,4.029978515625,3.600714921951294,1.3459190130233765,-0.0680909976363182
1772541314594888700,4.039888671875,3.5032079219818115,0.6998230218887329,-0.16617099940776825
1772541314604799000,4.049799072265625,3.076472043991089,-0.11509200185537338,-0.9652529954910278
1772541314614709200,4.059709228515625,2.170474052429199,-1.0469930171966553,-2.120924949645996
1772541314624619300,4.069619384765625,1.1904369592666626,-1.570019006729126,-3.2781310081481934
1772541314634529500,4.079529541015625,0.2716220021247864,-1.4119850397109985,-4.726524829864502
1772541314644440000,4.089440185546875,0.3843260109424591,-0.955079972743988,-6.07696008682251
1772541314654350000,4.09935009765625,1.0334850549697876,-0.2097180038690567,-6.475700855255127
1772541314664260400,4.10926025390625,1.4233609437942505,0.2955459952354431,-6.15492582321167
1772541314674170600,4.119170654296875,1.4783010482788086,0.6154569983482361,-5.382225036621094
1772541314684081000,4.129080810546875,1.3287160396575928,0.7816579937934875,-4.080714225769043
1772541314693991000,4.138990966796875,0.9425579905509949,0.2931939959526062,-2.89054799079895
1772541314703901200,4.148901123046875,0.953112006187439,-0.7333589792251587,-2.3681769371032715
1772541314713811700,4.158811767578125,1.4135420322418213,-1.5135910511016846,-2.2345690727233887
1772541314723721700,4.1687216796875,1.556136965751648,-1.7214759588241577,-2.753592014312744
1772541314733632000,4.178632080078125,1.1452620029449463,-1.1596909761428833,-2.8483378887176514
1772541314743542300,4.188542236328125,0.727849006652832,-1.2913709878921509,-3.950795888900757
1772541314753452500,4.19845263671875,0.8214889764785767,-1.988077998161316,-3.8869400024414062
1772541314763362800,4.20836279296875,2.629439115524292,-3.1254079341888428,-2.8102190494537354
1772541314773272800,4.21827294921875,5.973113059997559,-4.398749828338623,-0.9842820167541504
1772541314783183400,4.228183349609375,9.048201560974121,-5.434003829956055,1.1399739980697632
1772541314793093400,4.23809326171875,8.120466232299805,-6.353421211242676,1.7221930027008057
1772541314803003600,4.248003662109375,4.487502098083496,-6.48230504989624,1.0594309568405151
1772541314812914200,4.2579140625,2.948632001876831,-5.886781215667725,1.5545159578323364
1772541314822824200,4.26782421875,6.129197120666504,-5.084853172302246,3.4032249450683594
1772541314832734500,4.277734375,6.150263786315918,-4.725907802581787,2.9361610412597656
1772541314842645000,4.28764501953125,2.7987051010131836,-4.998373985290527,1.957713007926941
1772541314852555000,4.297554931640625,-0.2802329957485199,-6.163230895996094,1.8273390531539917
1772541314862465300,4.30746533203125,-1.6515380144119263,-7.91951322555542,3.5008630752563477
1772541314872375300,4.317375244140625,-2.365277051925659,-9.607926368713379,5.954139232635498
1772541314882285800,4.327285888671875,-2.4523379802703857,-10.668848037719727,9.1032075881958
1772541314892195800,4.33719580078125,-2.2406840324401855,-10.979907035827637,11.953241348266602
1772541314902106000,4.347106201171875,-2.0013060569763184,-9.948070526123047,12.912517547607422
1772541314912016600,4.3570166015625,-1.5860329866409302,-7.8317060470581055,11.163145065307617
1772541314921926700,4.3669267578125,-1.9313369989395142,-5.127745151519775,7.120335102081299
1772541314931837000,4.3768369140625,-2.295546054840088,-3.0116961002349854,2.331291913986206
1772541314941747200,4.386747314453125,-1.6201109886169434,-2.032241106033325,-1.5987000465393066
1772541314951657500,4.396657470703125,-0.42778900265693665,-2.385978937149048,-3.925977945327759
1772541314961567700,4.406567626953125,0.9673699736595154,-3.277761936187744,-4.723911762237549
1772541314971478000,4.41647802734375,0.8902490139007568,-3.929732084274292,-1.9549469947814941
1772541314981388300,4.42638818359375,0.07581000030040741,-2.9179348945617676,2.528670072555542
1772541314991298800,4.436298828125,-0.6427670121192932,-1.7384740114212036,4.724761962890625
1772541315001209000,4.446208984375,-1.015383005142212,-0.87779700756073,5.514297962188721
1772541315011118800,4.456118896484375,-1.893638014793396,0.2544670104980469,5.949217796325684
1772541315021029400,4.466029296875,-2.762216091156006,0.9587600231170654,5.960756778717041
1772541315030939400,4.475939453125,-3.245033025741577,1.3021429777145386,6.350090026855469
1772541315040850000,4.485849853515625,-3.43277907371521,1.3941789865493774,7.537692070007324
1772541315050760000,4.495760009765625,-3.278048038482666,1.205935001373291,8.646211624145508
1772541315060670200,4.505670166015625,-3.047451972961426,1.0275449752807617,9.043390274047852
1772541315070580500,4.51558056640625,-2.9312689304351807,1.1314300298690796,8.732099533081055
1772541315080490800,4.52549072265625,-3.162642002105713,1.4267679452896118,7.900932788848877
1772541315090401000,4.535401123046875,-3.3429811000823975,1.797916054725647,7.015739917755127
1772541315100311300,4.545311279296875,-3.594304084777832,2.089385986328125,6.0707550048828125
1772541315110221600,4.5552216796875,-3.797597885131836,2.319823980331421,5.158523082733154
1772541315120131800,4.5651318359375,-3.6185309886932373,2.6853420734405518,4.586133003234863
1772541315130042000,4.5750419921875,-3.3692610263824463,2.934622049331665,4.194767951965332
1772541315139952400,4.584952392578125,-3.1875479221343994,3.3398020267486572,3.5978128910064697
1772541315149862700,4.594862548828125,-2.882086992263794,3.6602210998535156,3.650161027908325
1772541315159773000,4.60477294921875,-2.3569459915161133,3.366234064102173,3.086076021194458
1772541315169683200,4.61468310546875,-1.7639939785003662,3.1093928813934326,3.2053110599517822
1772541315179593200,4.62459326171875,-1.0850729942321777,2.5415780544281006,1.4009569883346558
1772541315189503500,4.63450341796875,-0.359483003616333,1.8087960481643677,-0.018857000395655632
1772541315199413800,4.644413818359375,-0.4435029923915863,1.069972038269043,-0.8491719961166382
1772541315209324000,4.654323974609375,-0.8914430141448975,0.5447909832000732,-1.455049991607666
1772541315219234300,4.664234375,-1.2011369466781616,0.17895300686359406,-1.010079026222229
1772541315229144300,4.674144287109375,-1.5252000093460083,0.22313199937343597,0.23725199699401855
1772541315239054800,4.684054931640625,-2.9608259201049805,0.722150981426239,2.7906970977783203
1772541315248965000,4.693965087890625,-5.950437068939209,1.5144929885864258,5.2928571701049805
1772541315258875400,4.70387548828125,-6.55245304107666,2.1888580322265625,7.533743858337402
1772541315268785700,4.71378564453125,3.0685551166534424,3.9332048892974854,9.3445463180542
1772541315278695700,4.72369580078125,16.79075813293457,5.963686943054199,10.546063423156738
1772541315288606000,4.73360595703125,5.949367046356201,2.2100279331207275,4.941608905792236
1772541315298516200,4.74351611328125,-9.195992469787598,-4.876824855804443,-1.5810450315475464
1772541315308426500,4.753426513671875,-6.980943202972412,-13.700377464294434,1.1965889930725098
1772541315318336800,4.763336669921875,16.781883239746094,-24.582477569580078,8.704444885253906
1772541315328247000,4.7732470703125,5.377039909362793,-29.083871841430664,6.370071887969971
1772541315338157300,4.7831572265625,-6.428896903991699,-21.13988494873047,-2.475541114807129
1772541315348067300,4.7930673828125,3.797974109649658,-9.610250473022461,-4.609247207641602
1772541315357977900,4.802977783203125,3.115299940109253,-1.1835609674453735,0.7722780108451843
1772541315367888100,4.81288818359375,-0.423211008310318,4.2930908203125,5.711619853973389
1772541315377798100,4.822798095703125,-2.0687708854675293,6.828670978546143,9.766044616699219
1772541315387708700,4.832708740234375,-1.3184380531311035,5.660697937011719,11.331340789794922
1772541315397618700,4.84261865234375,-0.6907399892807007,1.6235480308532715,9.763280868530273
1772541315407529000,4.852529052734375,-1.2293310165405273,-2.6968090534210205,7.1585540771484375
1772541315417439500,4.862439453125,-1.1618789434432983,-6.196302890777588,5.226899147033691
1772541315427349500,4.872349609375,-0.6645010113716125,-8.804664611816406,4.19714879989624
1772541315437259800,4.882259765625,-1.0890920162200928,-9.478076934814453,4.241113185882568
1772541315447170000,4.892170166015625,-1.1984310150146484,-7.881165981292725,2.755453109741211
1772541315457080300,4.902080322265625,-1.2503730058670044,-5.464838027954102,1.4916280508041382
1772541315466990600,4.911990478515625,-1.9442509412765503,-2.8898839950561523,1.7801179885864258
1772541315476900600,4.921900634765625,-2.512022018432617,-1.0215859413146973,2.39739990234375
1772541315486811100,4.93181103515625,-2.8374109268188477,-0.14080199599266052,2.42449688911438
1772541315496721400,4.941721435546875,-2.884814977645874,0.07651899755001068,1.853729009628296
1772541315506631700,4.951631591796875,-2.858125925064087,-0.08229199796915054,0.8636569976806641
1772541315516542000,4.9615419921875,-2.3646390438079834,-0.3479999899864197,-0.12008199840784073
1772541315526452000,4.971451904296875,-2.147969961166382,-0.5506560206413269,-0.8678290247917175
1772541315536362200,4.9813623046875,-2.4489080905914307,-0.4295920133590698,-1.1930899620056152
1772541315546272300,4.991272216796875,-2.353187084197998,0.05196499824523926,-1.4601449966430664
1772541315556182800,5.001182861328125,-0.850275993347168,0.6665719747543335,-1.9776819944381714
1772541315566093000,5.011093017578125,0.19558799266815186,1.579692006111145,-2.1897289752960205
1772541315576003300,5.02100341796875,0.7034500241279602,2.683182954788208,-1.8949249982833862
1772541315585913600,5.03091357421875,0.9483109712600708,3.54010009765625,-1.3260090351104736
1772541315595823600,5.04082373046875,0.9705520272254944,3.825856924057007,-1.0180410146713257
1772541315605734000,5.05073388671875,0.9865080118179321,3.8018229007720947,-0.48777198791503906
1772541315615644200,5.06064404296875,0.8446779847145081,3.6260969638824463,-0.7007690072059631
1772541315625554400,5.070554443359375,0.8455359935760498,3.473918914794922,-0.33288300037384033
1772541315635464700,5.080464599609375,1.1761449575424194,3.336901903152466,0.12098299711942673
1772541315645375000,5.090375,1.277730941772461,3.1380879878997803,0.879921019077301
1772541315655285200,5.10028515625,1.2607200145721436,2.8029720783233643,1.3664000034332275
1772541315665195300,5.1101953125,1.88898503780365,2.272618055343628,1.4648619890213013
1772541315675105500,5.12010546875,2.95558500289917,1.614428997039795,1.0222259759902954
1772541315685015800,5.130015869140625,3.2230141162872314,0.8306819796562195,0.5845010280609131
1772541315694926000,5.139926025390625,2.7552618980407715,0.04542899876832962,-0.43864500522613525
1772541315704836400,5.14983642578125,1.7822719812393188,-0.6415989995002747,-1.893136978149414
1772541315714746600,5.15974658203125,1.5971260070800781,-1.0637569427490234,-3.4254329204559326
1772541315724657000,5.169656982421875,0.9650269746780396,-1.3299649953842163,-4.724977016448975
1772541315734567200,5.179567138671875,-0.4751780033111572,-1.2532010078430176,-5.826703071594238
1772541315744477200,5.189477294921875,-1.1465460062026978,-1.6533360481262207,-5.485033988952637
1772541315754387700,5.1993876953125,1.358333945274353,-2.4702939987182617,-3.992086887359619
1772541315764297700,5.209297607421875,4.378674030303955,-3.564894914627075,-5.129003047943115
1772541315774208000,5.2192080078125,6.606522083282471,-4.18308687210083,-6.253314971923828
1772541315784118300,5.2291181640625,5.13168478012085,-4.55140495300293,-6.1248979568481445
1772541315794028500,5.239028564453125,1.96390700340271,-5.1485490798950195,-5.653897762298584
1772541315803938800,5.248938720703125,4.346732139587402,-5.685708045959473,-7.329459190368652
1772541315813848800,5.258848876953125,8.06813907623291,-6.564507961273193,-7.961104869842529
1772541315823759400,5.26875927734375,7.989174842834473,-6.875985145568848,-4.851480007171631
1772541315833669400,5.27866943359375,5.644364833831787,-5.898591041564941,-0.13495799899101257
1772541315843579600,5.28857958984375,5.1634650230407715,-5.3163580894470215,3.047600030899048
1772541315853490200,5.298490234375,6.329679012298584,-5.6963348388671875,5.2154622077941895
1772541315863400200,5.308400146484375,6.789958953857422,-6.821946144104004,6.469893932342529
1772541315873310500,5.318310546875,6.096599102020264,-7.715240001678467,6.527164936065674
1772541315883220700,5.328220703125,4.750523090362549,-8.272103309631348,6.221289157867432
1772541315893131000,5.338131103515625,2.992065906524658,-8.34581470489502,6.764088153839111
1772541315903041000,5.348041015625,2.078326940536499,-8.08176326751709,6.905749797821045
1772541315912951300,5.357951416015625,1.3509219884872437,-7.037082195281982,6.229595184326172
1772541315922861800,5.36786181640625,-0.2379090040922165,-5.195133209228516,4.5556230545043945
1772541315932771800,5.377771728515625,-1.5551739931106567,-3.0231130123138428,1.7743370532989502
1772541315942682000,5.38768212890625,-6.686130046844482,-0.8768119812011719,0.7296730279922485
1772541315952592400,5.39759228515625,-9.543437004089355,-0.1225150004029274,2.379607915878296
1772541315962502700,5.407502685546875,-7.166194915771484,-1.8413150310516357,1.5060889720916748
1772541315972413000,5.417412841796875,-1.4081900119781494,-2.9869649410247803,1.1684490442276
1772541315982323200,5.4273232421875,0.8458330035209656,-3.1564440727233887,2.4588630199432373
1772541315992233200,5.437233154296875,0.7663630247116089,-2.462074041366577,2.4889609813690186
1772541316002143700,5.447143798828125,-0.2020619958639145,-2.0056090354919434,1.86136794090271
1772541316012053800,5.4570537109375,0.022205999121069908,-2.174901008605957,0.36380699276924133
1772541316021964000,5.466964111328125,2.9684131145477295,-2.569441080093384,-1.8646169900894165
1772541316031874000,5.4768740234375,6.539268970489502,-3.229783058166504,-3.7543230056762695
1772541316041784600,5.48678466796875,2.9699339866638184,-2.6668620109558105,0.6835950016975403
1772541316051694800,5.49669482421875,-3.0331180095672607,-1.3144830465316772,7.796568870544434
1772541316061604900,5.50660498046875,-6.305796146392822,0.24660800397396088,8.911642074584961
1772541316071515400,5.516515380859375,-4.638757228851318,0.7603480219841003,9.172134399414062
1772541316081425400,5.52642529296875,-1.9870810508728027,1.1799999475479126,8.50411319732666
1772541316091335700,5.536335693359375,-1.643784999847412,1.7536729574203491,8.302133560180664
1772541316101246000,5.546245849609375,-2.317415952682495,2.4100899696350098,8.447725296020508
1772541316111156000,5.556156005859375,-3.083293914794922,3.0378289222717285,8.773539543151855
1772541316121066500,5.56606640625,-3.88606595993042,3.385974884033203,8.551309585571289
1772541316130976500,5.5759765625,-4.171247959136963,3.7299609184265137,8.031417846679688
1772541316140886800,5.58588671875,-4.104031085968018,3.8078010082244873,7.125823020935059
1772541316150797000,5.595797119140625,-4.191084861755371,3.559614896774292,5.388576984405518
1772541316160707300,5.605707275390625,-4.414028167724609,3.3731679916381836,4.6014862060546875
1772541316170617600,5.61561767578125,-4.564260005950928,3.1219398975372314,4.3696417808532715
1772541316180527600,5.625527587890625,-4.3385138511657715,2.5219180583953857,4.474067211151123
1772541316190438000,5.63543798828125,-3.8567159175872803,2.490349054336548,4.490537166595459
1772541316200348200,5.64534814453125,-4.067811965942383,2.315282106399536,3.315157890319824
1772541316210258400,5.655258544921875,-5.130226135253906,2.9431140422821045,2.327224016189575
1772541316220168700,5.665168701171875,-6.373591899871826,3.364177942276001,2.650192975997925
1772541316230079000,5.675078857421875,-7.220416069030762,3.8201980590820312,3.0404269695281982
1772541316239989200,5.6849892578125,-4.520061016082764,4.216532230377197,4.297881126403809
1772541316249899300,5.694899169921875,0.801048994064331,5.048055171966553,4.816104888916016
1772541316259809500,5.7048095703125,3.010776996612549,6.36471700668335,4.807994842529297
1772541316269719800,5.7147197265625,7.653237819671631,6.624413967132568,4.706381797790527
1772541316279630000,5.724630126953125,-3.397239923477173,3.4942800998687744,1.9060970544815063
1772541316289540400,5.734540283203125,-6.295116901397705,-1.8759360313415527,2.9921610355377197
1772541316299450400,5.744450439453125,6.0481767654418945,-9.169421195983887,6.8309221267700195
1772541316309360600,5.754360595703125,8.96782112121582,-17.948585510253906,7.7151570320129395
1772541316319270700,5.764270751953125,0.6261780261993408,-24.143396377563477,5.419132232666016
1772541316329181200,5.77418115234375,5.3087358474731445,-22.807857513427734,-3.857395887374878
1772541316339091500,5.784091552734375,9.86878490447998,-13.145816802978516,-9.796113967895508
1772541316349001500,5.79400146484375,4.992517948150635,-2.3213469982147217,-4.412820816040039
1772541316358911700,5.803911865234375,1.1391390562057495,3.4532179832458496,3.3555729389190674
1772541316368822000,5.813822021484375,0.5085700154304504,6.112611770629883,8.006449699401855
1772541316378732300,5.823732177734375,-0.40967100858688354,6.608356952667236,9.716367721557617
1772541316388642600,5.833642578125,-0.9186319708824158,4.543384075164795,8.749177932739258
1772541316398552600,5.843552490234375,-0.32836300134658813,-0.3044529855251312,6.596358776092529
1772541316408462800,5.853462890625,1.7173140048980713,-5.445560932159424,3.169495105743408
1772541316418373000,5.863373046875,1.8872510194778442,-8.460442543029785,1.3009940385818481
1772541316428283400,5.873283447265625,-0.8031830191612244,-7.237427234649658,2.079185962677002
1772541316438193700,5.883193603515625,-2.1236538887023926,-3.946445941925049,2.806631088256836
1772541316448104000,5.89310400390625,-1.8898279666900635,-1.2725330591201782,2.0536370277404785
1772541316458014000,5.903013916015625,-1.5960530042648315,0.2690980136394501,0.8993409872055054
1772541316467924200,5.91292431640625,-1.2691229581832886,0.6045780181884766,0.20439399778842926
1772541316477834500,5.92283447265625,-1.0287079811096191,0.4801329970359802,-0.5258259773254395
1772541316487744500,5.93274462890625,-0.985489010810852,0.7466220259666443,-0.835873007774353
1772541316497655000,5.942655029296875,-0.5376060009002686,1.176651954650879,-0.9455530047416687
1772541316507565000,5.95256494140625,0.20868700742721558,1.8372039794921875,-0.6507629752159119
1772541316517475300,5.962475341796875,0.4988490045070648,2.6874029636383057,-0.4285689890384674
1772541316527385600,5.972385498046875,0.539417028427124,3.44930100440979,-0.5980349779129028
1772541316537295600,5.982295654296875,0.41659998893737793,4.135153770446777,-0.8602290153503418
1772541316547206100,5.9922060546875,0.43651801347732544,4.517037868499756,-0.9089480042457581
1772541316557116200,6.0021162109375,0.6363630294799805,4.488063812255859,-1.0208009481430054
1772541316567026400,6.0120263671875,1.0431519746780396,3.8814449310302734,-0.8287950158119202
1772541316576936700,6.021936767578125,1.28410804271698,3.4838600158691406,-0.45392999053001404
1772541316586846700,6.0318466796875,1.0986829996109009,3.30143404006958,0.4138840138912201
1772541316596757000,6.041757080078125,0.8095639944076538,3.146662950515747,1.2251499891281128
1772541316606667300,6.051667236328125,0.6731910109519958,3.1710240840911865,1.8069579601287842
1772541316616577500,6.06157763671875,1.0775179862976074,2.980851888656616,2.1470561027526855
1772541316626487600,6.071487548828125,2.1308391094207764,2.66206693649292,1.8243000507354736
1772541316636397800,6.081397705078125,3.5324130058288574,2.168800115585327,1.2085130214691162
1772541316646308000,6.09130810546875,2.43904709815979,1.3431910276412964,0.7974969744682312
1772541316656218400,6.10121826171875,1.0472569465637207,0.8088139891624451,-0.32883501052856445
1772541316666128600,6.111128662109375,1.0412460565567017,0.060343001037836075,-1.3336329460144043
1772541316676038700,6.12103857421875,1.1772849559783936,-0.6775320172309875,-1.2919950485229492
1772541316685949000,6.130948974609375,2.2331809997558594,-1.4881869554519653,-1.619225025177002
1772541316695859200,6.140859130859375,3.322371006011963,-1.8734300136566162,-4.051411151885986
1772541316705769500,6.15076953125,3.5933570861816406,-2.391714096069336,-5.360912799835205
1772541316715679500,6.160679443359375,3.879426956176758,-3.2334840297698975,-5.922110080718994
1772541316725589800,6.17058984375,4.107528209686279,-4.488804817199707,-6.217747211456299
1772541316735500000,6.1805,3.861419916152954,-5.789089202880859,-6.221128940582275
1772541316745410000,6.19041015625,3.237394094467163,-6.722806930541992,-6.0467071533203125
1772541316755320300,6.2003203125,2.039293050765991,-7.665121078491211,-5.2837958335876465
1772541316765230600,6.210230712890625,0.8499879837036133,-8.52951431274414,-5.8668107986450195
1772541316775140900,6.220140869140625,1.4338170289993286,-8.792527198791504,-7.112685203552246
1772541316785051100,6.230051025390625,2.7549729347229004,-8.429415702819824,-5.849001884460449
1772541316794961200,6.239961181640625,3.5928800106048584,-7.504116058349609,-1.6544040441513062
1772541316804871400,6.249871337890625,3.8316729068756104,-6.8375468254089355,2.2588798999786377
1772541316814781400,6.259781494140625,4.2208781242370605,-6.082712173461914,4.6110148429870605
1772541316824691700,6.269691650390625,4.606130123138428,-5.743308067321777,5.463322162628174
1772541316834602000,6.27960205078125,4.758220195770264,-5.542619228363037,5.901831150054932
1772541316844512300,6.28951220703125,4.674915790557861,-5.210318088531494,6.59792423248291
1772541316854422500,6.299422607421875,4.59519100189209,-5.167102813720703,7.395425796508789
1772541316864332500,6.30933251953125,4.418272018432617,-5.246327877044678,7.21386194229126
1772541316874242800,6.319242919921875,4.885385990142822,-5.371316909790039,6.152599811553955
1772541316884152800,6.32915283203125,4.626690864562988,-4.907031059265137,4.474813938140869
1772541316894063400,6.3390634765625,2.72585391998291,-3.5081660747528076,1.7484380006790161
1772541316903973400,6.348973388671875,0.755852997303009,-1.9011030197143555,-1.11831796169281
1772541316913883600,6.358883544921875,-3.8602418899536133,-0.7942990064620972,-2.652529001235962
1772541316923794000,6.3687939453125,-10.742785453796387,-0.5095189809799194,-0.30496200919151306
1772541316933704000,6.378703857421875,-13.93188190460205,-1.7725399732589722,1.1460169553756714
1772541316943614200,6.3886142578125,-7.875965118408203,-4.035901069641113,2.8898680210113525
1772541316953524200,6.398524169921875,0.16472600400447845,-4.66602897644043,2.5769190788269043
1772541316963434500,6.4084345703125,3.0797059535980225,-3.4780049324035645,2.471748113632202
1772541316973344800,6.4183447265625,1.19399094581604,-2.4000821113586426,2.9383718967437744
1772541316983255000,6.428255126953125,-0.7627909779548645,-2.1314868927001953,2.3140299320220947
1772541316993165000,6.4381650390625,0.004040000028908253,-2.080806016921997,-0.11873500049114227
1772541317003075300,6.448075439453125,4.39683723449707,-2.3795149326324463,-3.187248945236206
1772541317012985600,6.457985595703125,6.283999919891357,-2.6116530895233154,-1.5022950172424316
1772541317022895600,6.4678955078125,0.8701310157775879,-1.8701980113983154,5.756443977355957
1772541317032806000,6.477805908203125,-7.254510879516602,-0.0362280011177063,8.204208374023438
1772541317042716000,6.4877158203125,-9.802718162536621,1.1785420179367065,9.249489784240723
1772541317052626400,6.49762646484375,-6.747217178344727,1.27006196975708,9.795299530029297
1772541317062536400,6.507536376953125,-3.8491880893707275,1.917701005935669,8.554962158203125
1772541317072446700,6.51744677734375,-2.4316840171813965,2.811659097671509,7.509057998657227
1772541317082357000,6.52735693359375,-2.852428913116455,3.5877749919891357,7.057633876800537
1772541317092267000,6.53726708984375,-4.275868892669678,3.8930768966674805,7.201327800750732
1772541317102177500,6.547177490234375,-5.795173168182373,3.9645369052886963,7.661587238311768
1772541317112087300,6.55708740234375,-6.315247058868408,4.016703128814697,7.7772088050842285
1772541317121997800,6.566997802734375,-5.849454879760742,3.981981039047241,7.537483215332031
1772541317131907800,6.576907958984375,-5.109847068786621,3.4493401050567627,5.837483882904053
1772541317141818000,6.586818115234375,-4.737943172454834,2.981415033340454,5.258759021759033
1772541317151728400,6.596728271484375,-4.625105857849121,2.6015961170196533,5.336765766143799
1772541317161638400,6.606638427734375,-4.68963623046875,2.484210968017578,5.854176998138428
1772541317171548700,6.616548583984375,-4.422998905181885,2.4723310470581055,5.421501159667969
1772541317181458700,6.626458740234375,-4.038915157318115,2.522545099258423,4.274195194244385
1772541317191369000,6.636368896484375,-3.6214170455932617,3.28621506690979,3.315613031387329
1772541317201279000,6.646279052734375,-3.7368760108947754,3.961522102355957,2.050762891769409
1772541317211189500,6.656189453125,-6.456352233886719,4.1258931159973145,0.4212760031223297
1772541317221099300,6.666099365234375,-9.243586540222168,3.8351409435272217,-0.015453999862074852
1772541317231009800,6.676009765625,-5.798750877380371,4.663879871368408,0.20207099616527557
1772541317240919800,6.685919921875,3.3217599391937256,6.086482048034668,-0.41253599524497986
1772541317250830000,6.695830078125,8.376651763916016,5.7799601554870605,-2.9817919731140137
1772541317260740400,6.705740234375,1.6754209995269775,0.9288340210914612,-2.758207082748413
1772541317270650400,6.715650390625,0.345550000667572,-6.315079212188721,1.993698000907898
1772541317280560600,6.725560546875,4.544672966003418,-14.87308120727539,5.729154109954834
1772541317290470700,6.735470703125,3.50150990486145,-23.1483211517334,6.2487711906433105
1772541317300381200,6.745381103515625,-0.6843730211257935,-25.554950714111328,2.710768938064575
1772541317310291200,6.755291259765625,5.24484920501709,-18.032663345336914,-6.217763900756836
1772541317320201500,6.765201416015625,6.221933841705322,-6.922410011291504,-8.10269546508789
1772541317330111500,6.775111572265625,3.6757659912109375,1.5741169452667236,-1.1398169994354248
1772541317340021800,6.785021728515625,0.35275399684906006,6.266881942749023,5.471484184265137
1772541317349932000,6.79493212890625,-1.541363000869751,9.199840545654297,9.415475845336914
1772541317359842000,6.804842041015625,-1.4689970016479492,9.902156829833984,10.911555290222168
1772541317369752300,6.81475244140625,-1.785112977027893,6.371346950531006,10.335685729980469
1772541317379662600,6.82466259765625,-1.5997849702835083,0.48683300614356995,7.204381942749023
1772541317389572600,6.834572509765625,-0.5289419889450073,-5.501070976257324,3.5622360706329346
1772541317399483000,6.84448291015625,1.4899959564208984,-10.416681289672852,0.3752639889717102
1772541317409393000,6.854392822265625,0.8286910057067871,-11.850973129272461,-1.0292969942092896
1772541317419303200,6.86430322265625,-1.4783940315246582,-8.027848243713379,-0.6642590165138245
1772541317429213200,6.874213134765625,-1.3336700201034546,-3.9229249954223633,-0.7584019899368286
1772541317439123700,6.884123779296875,-0.820330023765564,-0.9178950190544128,-0.39264100790023804
1772541317449033700,6.89403369140625,-0.7776399850845337,0.795989990234375,-0.08257699757814407
1772541317458944000,6.903944091796875,-1.2460620403289795,1.5732029676437378,-0.2648949921131134
1772541317468854300,6.913854248046875,-1.387436032295227,1.8930180072784424,-1.05526602268219
1772541317478764300,6.923764404296875,-1.0040910243988037,2.037277936935425,-1.4995490312576294
1772541317488674300,6.93367431640625,-0.8363959789276123,2.384718894958496,-1.9406030178070068
1772541317498584600,6.94358447265625,-0.580839991569519,2.8771209716796875,-2.0396668910980225
1772541317508494800,6.953494873046875,0.10087999701499939,3.647275924682617,-1.8867379426956177
1772541317518404900,6.96340478515625,-0.08312500268220901,4.3277268409729,-1.6176129579544067
1772541317528315100,6.973315185546875,-0.3985440135002136,4.590212821960449,-1.5045340061187744
1772541317538225400,6.983225341796875,-0.955365002155304,4.58196496963501,-1.138875961303711
1772541317548135400,6.993135498046875,-0.9295520186424255,4.5032172203063965,-0.8983759880065918
1772541317558045700,7.003045654296875,-0.23011699318885803,4.11972713470459,-0.9749150276184082
1772541317567955700,7.012955810546875,0.671442985534668,4.306713104248047,-0.4280569851398468
1772541317577866000,7.022865966796875,1.6098899841308594,4.225615978240967,0.16127699613571167
1772541317587776000,7.03277587890625,1.6445050239562988,4.151043891906738,0.11955399811267853
1772541317597686300,7.042686279296875,1.5542939901351929,3.9163520336151123,0.7424010038375854
1772541317607596300,7.05259619140625,1.5554510354995728,3.1408839225769043,1.2856559753417969
1772541317617506600,7.062506591796875,1.647987961769104,1.950206995010376,1.053380012512207
1772541317627416800,7.072416748046875,1.897966980934143,0.7160739898681641,1.03226900100708
1772541317637327000,7.0823271484375,2.061523914337158,-0.2510969936847687,0.6193979978561401
1772541317647236900,7.09223681640625,1.610996961593628,-0.9233829975128174,-0.04372100159525871
1772541317657147400,7.1021474609375,1.2618329524993896,-1.4874180555343628,-1.614799976348877
1772541317667057400,7.112057373046875,1.3815139532089233,-2.166949987411499,-3.447866916656494
1772541317676967700,7.1219677734375,2.3976070880889893,-2.6364951133728027,-4.009490966796875
1772541317686877700,7.131877685546875,2.589745044708252,-2.8636889457702637,-5.174094200134277
1772541317696788000,7.1417880859375,3.1430981159210205,-3.2357099056243896,-6.617124080657959
1772541317706698000,7.151697998046875,3.060410976409912,-4.009160995483398,-7.316908836364746
1772541317716608300,7.161608154296875,2.523184061050415,-4.871342182159424,-7.017669200897217
1772541317726518500,7.1715185546875,1.4120609760284424,-5.6958417892456055,-5.839653015136719
1772541317736428500,7.181428466796875,0.10857400298118591,-6.4976301193237305,-4.88916015625
1772541317746338800,7.1913388671875,0.41638699173927307,-7.103048801422119,-4.852941036224365
1772541317756248800,7.201248779296875,1.2139209508895874,-7.013898849487305,-4.009039878845215
1772541317766159000,7.2111591796875,1.8782570362091064,-6.465232849121094,-1.464385986328125
1772541317776069000,7.221069091796875,2.334959030151367,-6.208066940307617,1.4096430540084839
1772541317785979400,7.2309794921875,2.734337091445923,-6.848616123199463,3.4356489181518555
1772541317795889400,7.240889404296875,3.2255959510803223,-7.440619945526123,4.864342212677002
1772541317805799700,7.250799560546875,4.0024847984313965,-7.65948486328125,6.1216301918029785
1772541317815709700,7.260709716796875,4.9464521408081055,-7.458624839782715,6.471995830535889
1772541317825620000,7.270619873046875,5.854519844055176,-7.361385822296143,7.600251197814941
1772541317835530200,7.2805302734375,6.4334821701049805,-7.350439071655273,8.503181457519531
1772541317845440300,7.290440185546875,5.922390937805176,-7.197768211364746,8.314884185791016
1772541317855350500,7.3003505859375,4.532919883728027,-6.284204006195068,6.764196872711182
1772541317865260500,7.310260498046875,2.5618999004364014,-4.532279968261719,5.002936840057373
1772541317875170800,7.3201708984375,1.2265100479125977,-3.0187408924102783,2.3954451084136963
1772541317885080800,7.330080810546875,2.6497180461883545,-1.5992239713668823,-2.1793549060821533
1772541317894991000,7.3399912109375,1.7702150344848633,-0.6474149823188782,-4.426925182342529
1772541317904901000,7.349901123046875,-1.5732359886169434,-0.7654500007629395,-2.9230430126190186
1772541317914811400,7.359811279296875,-5.719780921936035,-2.3877758979797363,-1.3378039598464966
1772541317924721400,7.369721435546875,-8.85269832611084,-3.6761419773101807,1.445410966873169
1772541317934631700,7.379631591796875,-7.286269187927246,-3.8557019233703613,3.2879679203033447
1772541317944542000,7.3895419921875,-2.9596619606018066,-3.027756929397583,2.78472900390625
1772541317954452000,7.399451904296875,0.08504299819469452,-1.7810159921646118,2.749082088470459
1772541317964362200,7.4093623046875,1.9859189987182617,-1.3122069835662842,2.2231760025024414
1772541317974272300,7.419272216796875,2.749764919281006,-1.4207570552825928,1.2672549486160278
1772541317984182500,7.4291826171875,0.16726799309253693,-2.001621961593628,0.15542300045490265
1772541317994092500,7.439092529296875,-1.6592450141906738,-2.1900439262390137,-0.5758429765701294
1772541318004002800,7.4490029296875,-0.3924649953842163,-1.0269219875335693,0.10433399677276611
1772541318013913000,7.4589130859375,-1.0956710577011108,0.6054409742355347,4.35484504699707
1772541318023823000,7.468822998046875,-5.290106773376465,1.5175299644470215,7.043769836425781
1772541318033733000,7.478733154296875,-6.603425979614258,1.268064022064209,7.071384906768799
1772541318043643400,7.488643310546875,-5.229870796203613,0.7341060042381287,6.676589012145996
1772541318053553700,7.4985537109375,-3.9569740295410156,0.8897920250892639,6.367569923400879
1772541318063463700,7.508463623046875,-3.436861991882324,1.56694495677948,6.319392204284668
1772541318073374000,7.5183740234375,-3.868016004562378,1.9746530055999756,6.576684951782227
1772541318083284000,7.528283935546875,-4.641531944274902,2.4453001022338867,6.6230340003967285
1772541318093194200,7.5381943359375,-5.568647861480713,3.0337069034576416,6.282094955444336
1772541318103104300,7.548104248046875,-6.046504020690918,3.522891044616699,6.3351359367370605
1772541318113014500,7.5580146484375,-5.625946998596191,4.074982166290283,6.057616233825684
1772541318122924500,7.567924560546875,-4.767078876495361,4.554962158203125,5.099487781524658
1772541318132834800,7.577834716796875,-4.542421817779541,4.967430114746094,4.1903791427612305
1772541318142745000,7.5877451171875,-5.033467769622803,4.957886219024658,3.484113931655884
1772541318152655000,7.597655029296875,-5.40837287902832,4.906284809112549,3.598421096801758
1772541318162565000,7.607565185546875,-5.2980828285217285,5.023181915283203,4.148368835449219
1772541318172475400,7.617475341796875,-4.949794769287109,4.908120155334473,3.6685409545898438
1772541318182385400,7.627385498046875,-4.129944801330566,4.974565029144287,3.0270040035247803
1772541318192295700,7.637295654296875,-3.6818530559539795,5.494490146636963,2.1494719982147217
1772541318202206000,7.6472060546875,-4.5251288414001465,5.73332405090332,1.0528459548950195
1772541318212116200,7.6571162109375,-6.8952717781066895,5.121644973754883,0.13161799311637878
1772541318222026200,7.667026123046875,-8.785991668701172,4.746640205383301,-0.04374200105667114
1772541318231936500,7.6769365234375,-5.677364826202393,5.702404022216797,0.30435800552368164
1772541318241846500,7.686846435546875,8.552998542785645,7.381022930145264,1.384829044342041
1772541318251756500,7.696756591796875,9.749946594238281,5.855407238006592,0.7971010208129883
1772541318261666800,7.706666748046875,-6.78920316696167,-0.5929970145225525,1.0970669984817505
1772541318271576800,7.716576904296875,-7.403022766113281,-7.099230766296387,5.70869779586792
1772541318281487000,7.726487060546875,4.789903163909912,-14.454849243164062,7.665410995483398
1772541318291396900,7.73639697265625,1.4269349575042725,-21.59853744506836,6.804812908172607
1772541318301307400,7.746307373046875,0.4621970057487488,-24.27971076965332,3.600579023361206
1772541318311217400,7.756217529296875,4.016049861907959,-19.002683639526367,-5.9936442375183105
1772541318321127700,7.766127685546875,2.6255879402160645,-10.864813804626465,-10.098959922790527
1772541318331037700,7.77603759765625,2.572166919708252,-3.5498170852661133,-4.650447845458984
1772541318340948000,7.785947998046875,0.6342160105705261,1.2779170274734497,4.144873142242432
1772541318350858200,7.795858154296875,-1.4091730117797852,4.634245872497559,9.085176467895508
1772541318360768300,7.805768310546875,-0.4904080033302307,6.043482780456543,10.966931343078613
1772541318370678500,7.815678466796875,-0.5880709886550903,4.360173225402832,10.706111907958984
1772541318380588300,7.82558837890625,-1.7746989727020264,0.8420029878616333,8.98254108428955
1772541318390498600,7.83549853515625,-2.366892099380493,-2.416584014892578,6.523141860961914
1772541318400408600,7.84540869140625,-2.087045907974243,-4.765303134918213,4.166390895843506
1772541318410318800,7.85531884765625,-1.7910959720611572,-6.369898796081543,1.9896780252456665
1772541318420228900,7.865228759765625,-1.3195470571517944,-6.5935258865356445,1.0311959981918335
1772541318430139100,7.87513916015625,-1.5775460004806519,-5.122531890869141,0.890699028968811
1772541318440049200,7.885049072265625,-1.8476840257644653,-3.4381659030914307,0.7752299904823303
1772541318449959400,7.89495947265625,-2.2709128856658936,-1.8354270458221436,0.60514897108078
1772541318459869400,7.904869384765625,-2.4316160678863525,-0.5685920119285583,-0.02845199964940548
1772541318469779700,7.91477978515625,-2.288825035095215,0.3031330108642578,-0.8232880234718323
1772541318479689700,7.924689697265625,-2.1150269508361816,0.7404299974441528,-1.3412410020828247
1772541318489600000,7.93460009765625,-1.8229249715805054,1.0856319665908813,-1.6716339588165283
1772541318499510000,7.944510009765625,-1.0279070138931274,1.4957389831542969,-1.7505910396575928
1772541318509420300,7.954420166015625,-0.493710994720459,2.107569932937622,-2.125770092010498
1772541318519330300,7.964330322265625,-0.2427069991827011,2.814146041870117,-1.6126209497451782
1772541318529240300,7.974240234375,-0.35490500926971436,3.5669400691986084,-1.3464089632034302
1772541318539150600,7.984150634765625,-0.2691130042076111,4.072743892669678,-1.248005986213684
1772541318549060600,7.994060546875,-0.1363379955291748,4.127051830291748,-1.0805360078811646
1772541318558971000,8.003970947265625,-0.25084298849105835,3.9697959423065186,-1.298048973083496
1772541318568881000,8.013880859375,-0.5271580219268799,4.005077838897705,-1.640813946723938
1772541318578791200,8.023791259765625,-0.19007499516010284,3.9153029918670654,-1.8809239864349365
1772541318588701200,8.033701171875,0.13898900151252747,3.6234970092773438,-1.0699169635772705
1772541318598611500,8.043611572265625,0.05804700031876564,3.1040499210357666,0.06342600286006927
1772541318608521500,8.053521484375,0.05602800101041794,2.5844318866729736,1.3371659517288208
1772541318618431700,8.063431640625,0.6878129839897156,2.093498945236206,1.8845490217208862
1772541318628341800,8.073341796875,1.1295069456100464,1.5842490196228027,2.0640709400177
1772541318638252000,8.083251953125,1.019436001777649,1.001412034034729,2.075809955596924
1772541318648162000,8.093162109375,1.0181050300598145,0.1845099925994873,2.0617480278015137
1772541318658072000,8.103072021484374,1.1892600059509277,-0.2941420078277588,0.5670679807662964
1772541318667982000,8.112982177734375,1.6420079469680786,-0.6579189896583557,-1.1336209774017334
1772541318677892400,8.122892333984375,2.1303720474243164,-1.106801986694336,-1.8601850271224976
1772541318687802400,8.13280224609375,2.345716953277588,-2.045654058456421,-1.6893069744110107
1772541318697712600,8.142712646484375,2.9463820457458496,-2.6925721168518066,-2.6724588871002197
1772541318707622700,8.15262255859375,3.131777048110962,-3.1844429969787598,-3.760422945022583
1772541318717533000,8.162532958984375,3.3260738849639893,-3.707731008529663,-4.431398868560791
1772541318727443000,8.17244287109375,3.332456111907959,-4.298009872436523,-4.972531795501709
1772541318737353200,8.182353271484375,3.012700080871582,-4.732700824737549,-5.556203842163086
1772541318747263200,8.19226318359375,2.5127370357513428,-5.009088039398193,-5.948697090148926
1772541318757173500,8.202173583984376,1.812006950378418,-5.679833889007568,-6.292442798614502
1772541318767083500,8.21208349609375,1.367967963218689,-6.628030776977539,-6.586505889892578
1772541318776993500,8.22199365234375,1.3126729726791382,-6.9905619621276855,-6.409307956695557
1772541318786903800,8.23190380859375,1.5784300565719604,-7.0353779792785645,-4.106881141662598
1772541318796813800,8.241813720703124,2.0129001140594482,-6.959136009216309,-0.8100069761276245
1772541318806724000,8.25172412109375,2.239089012145996,-6.487331867218018,1.6882489919662476
1772541318816634400,8.26163427734375,2.203929901123047,-5.566927909851074,3.435884952545166
1772541318826544400,8.27154443359375,2.2607059478759766,-4.710803031921387,4.7832159996032715
1772541318836454400,8.281454345703125,2.4138588905334473,-4.239373207092285,5.16911506652832
1772541318846364700,8.29136474609375,2.8947179317474365,-4.2730631828308105,5.948324203491211
1772541318856274700,8.301274658203125,3.8646509647369385,-5.041778087615967,6.908875942230225
1772541318866184700,8.311184814453124,4.1980061531066895,-5.85287618637085,6.8514580726623535
1772541318876095000,8.321094970703125,3.860991954803467,-6.1623311042785645,6.319393157958984
1772541318886005000,8.3310048828125,4.198365211486816,-5.798925876617432,4.237435817718506
1772541318895915000,8.3409150390625,4.31286096572876,-3.9517710208892822,0.003579000011086464
1772541318905825300,8.3508251953125,0.1570339947938919,-1.516535997390747,-1.7708489894866943
1772541318915735300,8.3607353515625,-4.577176094055176,-0.3802500069141388,0.09180399775505066
1772541318925645600,8.3706455078125,-10.310683250427246,-0.7758499979972839,2.4743850231170654
1772541318935555300,8.380555419921874,-11.648704528808594,-2.683809995651245,2.9920461177825928
1772541318945465900,8.3904658203125,-8.416852951049805,-3.1776320934295654,2.5892438888549805
1772541318955375600,8.400375732421875,-2.202317953109741,-2.672471046447754,0.6273149847984314
1772541318965286000,8.410285888671876,3.1233270168304443,-2.3724288940429688,-0.5471510291099548
1772541318975196000,8.42019580078125,4.276203155517578,-2.4381020069122314,-0.15273599326610565
1772541318985106200,8.430106201171874,1.5778650045394897,-2.9728760719299316,0.21924999356269836
1772541318995016200,8.44001611328125,-0.9541230201721191,-3.361470937728882,-0.31321001052856445
1772541319004926500,8.449926513671874,-0.5813680291175842,-3.6223270893096924,-1.7025699615478516
1772541319014836500,8.45983642578125,1.3316279649734497,-3.449251890182495,-2.632920980453491
1772541319024746800,8.469746826171875,0.874206006526947,-2.4555540084838867,-0.4501129984855652
1772541319034656800,8.47965673828125,-3.0776150226593018,-1.0559099912643433,3.798938035964966
1772541319044566800,8.48956689453125,-5.235286235809326,-0.3573560118675232,5.975671768188477
1772541319054476800,8.499476806640626,-4.2602081298828125,-0.6760969758033752,7.10579776763916
1772541319064387000,8.509386962890625,-3.1328248977661133,-0.575452983379364,7.058036804199219
1772541319074297000,8.519297119140624,-2.746380090713501,-0.2664400041103363,6.63297176361084
1772541319084207400,8.529207275390625,-2.9037299156188965,0.16425800323486328,6.7097930908203125
1772541319094117400,8.539117431640625,-3.6502668857574463,0.5126950144767761,7.1499128341674805
1772541319104027600,8.549027587890626,-4.583553791046143,0.7617639899253845,7.043132781982422
1772541319113937400,8.5589375,-5.203718185424805,1.0234030485153198,6.7169318199157715
1772541319123847700,8.56884765625,-5.548961162567139,1.4292429685592651,6.896438121795654
1772541319133757700,8.5787578125,-5.527428150177002,2.1673929691314697,6.972521781921387
1772541319143668000,8.58866796875,-5.597931861877441,2.959549903869629,7.116788864135742
1772541319153578000,8.598577880859375,-5.677427768707275,4.033773899078369,6.763177871704102
1772541319163488300,8.60848828125,-5.992180824279785,5.064403057098389,6.631204128265381
1772541319173398300,8.618398193359376,-6.476578235626221,5.619239807128906,6.221327781677246
1772541319183308300,8.628308349609375,-6.8597588539123535,5.8866658210754395,6.055084228515625
1772541319193218600,8.638218505859374,-6.454338073730469,5.821994781494141,5.174641132354736
1772541319203128600,8.648128662109375,-6.034748077392578,5.400175094604492,4.486612796783447
1772541319213038800,8.658038818359374,-5.653151035308838,4.850099086761475,3.8661060333251953
1772541319222948900,8.667948974609375,-4.900618076324463,4.462265968322754,3.141796112060547
1772541319232859000,8.67785888671875,-4.056870937347412,4.2663397789001465,2.8684539794921875
1772541319242769200,8.68776904296875,-3.154534101486206,3.8692739009857178,2.6335530281066895
1772541319252679200,8.69767919921875,-1.699686050415039,3.391455888748169,1.3309810161590576
1772541319262589200,8.707589111328126,-0.2420870065689087,2.297197103500366,-1.7527040243148804
1772541319272499500,8.71749951171875,0.8910679817199707,0.42065000534057617,-5.821063041687012
1772541319282409500,8.727409423828124,1.3394399881362915,-2.3710110187530518,-10.648317337036133
1772541319292319500,8.737319580078125,0.5474690198898315,-4.571650981903076,-11.415517807006836
1772541319302229800,8.747229736328125,-1.3812669515609741,-6.060197830200195,-9.98865795135498
1772541319312139800,8.757139892578126,-3.3091259002685547,-6.537315845489502,-8.301289558410645
1772541319322049800,8.7670498046875,-5.693274021148682,-6.033862113952637,-6.645404815673828
1772541319331960000,8.7769599609375,-8.12463665008545,-4.516471862792969,-4.887440204620361
1772541319341870000,8.7868701171875,-3.3647360801696777,-1.6726700067520142,-1.10526704788208
1772541319351780400,8.7967802734375,16.04802894592285,1.6316319704055786,8.105037689208984
1772541319361690400,8.8066904296875,34.87479019165039,-0.9913210272789001,8.92840576171875
1772541319371600600,8.8166005859375,14.738767623901367,-12.879325866699219,-2.4688000679016113
1772541319381510400,8.826510498046876,-23.869014739990234,-20.103343963623047,4.37734317779541
1772541319391420700,8.836420654296875,-19.370058059692383,-18.672178268432617,14.043792724609375
1772541319401330700,8.84633056640625,8.965618133544922,-9.049813270568848,11.925840377807617
1772541319411241000,8.856240966796875,-2.30692195892334,-0.05389000102877617,1.5837680101394653
1772541319421151000,8.86615087890625,-6.83085823059082,4.031370162963867,1.216101050376892
1772541319431061200,8.876061279296875,-1.9713449478149414,6.307253837585449,4.910643100738525
1772541319440971300,8.88597119140625,-0.5092080235481262,6.089173793792725,7.555810928344727
1772541319450881300,8.89588134765625,-0.5117549896240234,3.7469940185546875,10.204534530639648
1772541319460791300,8.905791259765625,-0.7446179986000061,-0.47245100140571594,11.54049301147461
1772541319470701600,8.91570166015625,-1.3540079593658447,-4.815971851348877,10.143790245056152
1772541319480611600,8.925611572265625,-0.2750680148601532,-7.626588821411133,8.0995512008667
1772541319490521900,8.93552197265625,0.35917600989341736,-8.686845779418945,6.527595043182373
1772541319500432000,8.945431884765625,-0.3476339876651764,-7.641410827636719,5.106215000152588
1772541319510342000,8.955341796875,-0.19710500538349152,-5.030828952789307,4.505080223083496
1772541319520252000,8.965251953125,-0.8482679724693298,-2.591320037841797,4.932546138763428
1772541319530162200,8.975162109375,-1.978153944015503,-1.140887975692749,5.334208965301514
1772541319540072200,8.985072265625,-1.5563509464263916,-0.679364025592804,5.863715171813965
1772541319549982500,8.994982421875,-2.210386037826538,-0.6931089758872986,6.159063816070557
1772541319559892200,9.004892333984374,-2.9762399196624756,-0.7984439730644226,6.019712924957275
1772541319569802500,9.014802490234375,-2.71960711479187,-0.8541179895401001,5.761108875274658
1772541319579712800,9.024712646484375,-2.735682964324951,-0.8772900104522705,5.415349006652832
1772541319589622800,9.034622802734376,-3.439862012863159,-0.7415440082550049,4.853848934173584
1772541319599532800,9.04453271484375,-3.963426113128662,-0.7987859845161438,4.00443696975708
1772541319609442800,9.05444287109375,-3.7061069011688232,-1.1321239471435547,2.8869009017944336
1772541319619352800,9.064352783203125,-2.6488699913024902,-1.3886799812316895,2.6249780654907227
1772541319629263000,9.07426318359375,-2.189263105392456,-1.3078269958496094,2.9743471145629883
1772541319639173400,9.08417333984375,-2.1001949310302734,-1.1259889602661133,3.0554420948028564
1772541319649083400,9.09408349609375,-1.540827989578247,-1.235638976097107,2.213942050933838
1772541319658993400,9.103993408203126,-1.2493259906768799,-2.0570199489593506,0.41284000873565674
1772541319668903400,9.1139033203125,-0.32130900025367737,-3.372204065322876,-1.6634390354156494
1772541319678813700,9.123813720703126,-0.6330829858779907,-3.246920108795166,-2.4407119750976562
1772541319688723700,9.1337236328125,-1.2714730501174927,-1.1552740335464478,-2.094022035598755
1772541319698633700,9.1436337890625,-0.12097399681806564,0.10780099779367447,-2.1535139083862305
1772541319708544000,9.1535439453125,0.1833599954843521,0.9851300120353699,-2.1583139896392822
1772541319718454000,9.1634541015625,-0.29472100734710693,1.4316380023956299,-1.4980759620666504
1772541319728364000,9.173364013671875,-0.8638929724693298,1.910146951675415,-0.8611180186271667
1772541319738274000,9.183274169921875,-0.855135977268219,2.4488658905029297,-0.6360210180282593
1772541319748184300,9.193184326171876,0.09846100211143494,2.485382080078125,-0.18405699729919434
1772541319758094300,9.20309423828125,1.4677979946136475,1.7574089765548706,0.17000900208950043
1772541319768004600,9.213004638671874,1.9890639781951904,0.844199001789093,0.20952099561691284
1772541319777914400,9.222914306640625,1.5158170461654663,0.2618640065193176,0.5539829730987549
1772541319787824600,9.23282470703125,0.6779410243034363,0.05038300156593323,1.4162050485610962
1772541319797734700,9.242734619140625,0.6624169945716858,-0.18499800562858582,2.485275983810425
1772541319807645000,9.25264501953125,2.3784279823303223,-0.4781610071659088,2.724797010421753
1772541319817554700,9.2625546875,1.8813049793243408,-0.5711929798126221,2.446247100830078
1772541319827465000,9.27246484375,1.7235790491104126,-0.43164199590682983,0.2726399898529053
1772541319837375000,9.282375,1.2987920045852661,0.5241810083389282,-1.1334079504013062
1772541319847285200,9.29228515625,-4.493452072143555,0.9255980253219604,-2.147705078125
1772541319857195300,9.3021953125,-4.044877052307129,1.1580790281295776,0.0947989970445633
1772541319867105500,9.31210546875,1.7798229455947876,0.685916006565094,2.666724920272827
1772541319877015300,9.322015380859375,3.7264819145202637,-0.034589000046253204,2.5307209491729736
1772541319886925600,9.331925537109376,3.500214099884033,-0.04617999866604805,0.3387160003185272
1772541319896835600,9.341835693359375,2.6914610862731934,0.41724300384521484,-0.995123028755188
1772541319906745900,9.351745849609374,1.9287879467010498,0.8533179759979248,-0.20162099599838257
1772541319916655900,9.36165576171875,1.7684930562973022,0.8506720066070557,0.9383559823036194
1772541319926566100,9.371566162109374,2.0914769172668457,0.3849419951438904,1.1955660581588745
1772541319936476200,9.38147607421875,1.9129010438919067,-0.46883299946784973,0.5964919924736023
1772541319946386200,9.39138623046875,1.6972819566726685,-1.4555989503860474,-0.30481401085853577
1772541319956296000,9.4012958984375,1.7020139694213867,-2.1383490562438965,-0.641319990158081
1772541319966206500,9.41120654296875,1.4017380475997925,-2.1544559001922607,-0.7891989946365356
1772541319976116200,9.4211162109375,1.059559941291809,-2.1203219890594482,-1.062345027923584
1772541319986026500,9.431026611328125,1.5251250267028809,-2.504910945892334,-1.616294026374817
1772541319995936300,9.440936279296874,2.7106149196624756,-3.156980037689209,-1.4494370222091675
1772541320005846800,9.4508466796875,3.760190010070801,-4.024805068969727,-0.8674489855766296
1772541320015756800,9.4607568359375,3.873616933822632,-4.754611968994141,-0.7971940040588379
1772541320025666800,9.470666748046876,3.7081620693206787,-5.527987003326416,-1.1944650411605835
1772541320035576800,9.480576904296875,3.1580779552459717,-5.979826927185059,-2.0118460655212402
1772541320045487000,9.490487060546876,1.7037960290908813,-6.029290199279785,-2.157912015914917
1772541320055396900,9.50039697265625,0.9081500172615051,-6.121744155883789,-0.9176890254020691
1772541320065307100,9.51030712890625,1.170274019241333,-6.319145202636719,0.9506300091743469
1772541320075217200,9.520217041015625,3.0822579860687256,-6.614990234375,2.1223809719085693
1772541320085127400,9.53012744140625,4.462475776672363,-7.06606912612915,3.0934979915618896
1772541320095037200,9.540037109375,4.733169078826904,-6.909830093383789,3.809968948364258
1772541320104947500,9.549947509765625,4.493989944458008,-5.406699180603027,2.9865689277648926
1772541320114857500,9.559857421875,3.780742883682251,-4.007968902587891,1.666290044784546
1772541320124767700,9.569767822265625,2.6542270183563232,-3.7933740615844727,0.9780300259590149
1772541320134677800,9.579677734375,1.0868730545043945,-4.226848125457764,0.8137570023536682
1772541320144587800,9.589587890625,-0.33352500200271606,-4.336143970489502,0.7811400294303894
1772541320154497800,9.599497802734374,-0.36189401149749756,-4.329689979553223,1.3331619501113892
1772541320164407800,9.60940771484375,-1.1438299417495728,-4.260955810546875,2.367374897003174
1772541320174317800,9.61931787109375,-2.1644740104675293,-3.823451042175293,3.1658759117126465
1772541320184228000,9.62922802734375,-0.7770779728889465,-3.9225919246673584,4.074271202087402
1772541320194138000,9.63913818359375,0.19673800468444824,-4.335204124450684,5.340630054473877
1772541320204048100,9.649048095703124,0.2863520085811615,-4.5461039543151855,6.382509231567383
1772541320213958100,9.658958251953125,0.9669299721717834,-4.825728893280029,6.407358169555664
1772541320223868200,9.6688681640625,2.4493119716644287,-5.471675872802734,4.502782821655273
1772541320233778400,9.6787783203125,0.7204440236091614,-5.56498384475708,3.6097218990325928
1772541320243688400,9.6886884765625,0.15972599387168884,-5.472815036773682,4.986931800842285
1772541320253598700,9.6985986328125,0.3302609920501709,-4.931976795196533,4.85532283782959
1772541320263508500,9.708508544921875,0.3229759931564331,-4.471293926239014,3.1605379581451416
1772541320273418800,9.718418701171874,1.0841439962387085,-4.23057222366333,2.0862340927124023
1772541320283328800,9.728328857421875,1.4702190160751343,-3.9824039936065674,1.7727869749069214
1772541320293239000,9.738239013671874,1.3699920177459717,-3.424062967300415,1.8663239479064941
1772541320303148800,9.748148681640625,0.7883080244064331,-2.429215908050537,2.6866910457611084
1772541320313059000,9.75805908203125,-0.7476670145988464,-1.5390969514846802,4.287524223327637
1772541320322969000,9.767968994140626,-1.3901230096817017,-0.6403869986534119,5.586246967315674
1772541320332879000,9.777879150390625,-0.507381021976471,0.3104409873485565,7.213400840759277
1772541320342789400,9.787789306640626,-1.0235860347747803,1.2715309858322144,8.267260551452637
1772541320352699400,9.797699462890625,-2.43497896194458,2.0789151191711426,8.79813003540039
1772541320362609400,9.807609375,-3.6050760746002197,2.8355178833007812,8.552389144897461
1772541320372519400,9.81751953125,-4.544705867767334,3.297243118286133,8.205971717834473
1772541320382429700,9.8274296875,-4.853676795959473,3.8676159381866455,7.666975021362305
1772541320392339700,9.837339599609376,-4.592863082885742,4.329391956329346,7.246592998504639
1772541320402249700,9.847249755859375,-4.467545032501221,4.779270172119141,7.438333988189697
1772541320412160000,9.857159912109376,-4.44763708114624,5.193049907684326,7.324643135070801
1772541320422070000,9.867070068359375,-4.344845771789551,5.481898784637451,7.321749210357666
1772541320431980000,9.87697998046875,-4.253582954406738,5.681067943572998,6.362142086029053
1772541320441890000,9.88689013671875,-4.592127799987793,5.336517810821533,4.273950099945068
1772541320451800000,9.896800048828124,-4.7737298011779785,4.957426071166992,2.5751430988311768
1772541320461710300,9.90671044921875,-4.363067150115967,4.933811187744141,2.8650550842285156
1772541320471620400,9.916620361328125,-4.187922954559326,4.5854058265686035,3.2508010864257812
1772541320481530400,9.9265302734375,-3.9917309284210205,5.067860126495361,4.120279788970947
1772541320491440400,9.9364404296875,-4.685743808746338,5.544403076171875,4.4021830558776855
1772541320501350700,9.9463505859375,-5.720186233520508,5.5189127922058105,4.707499980926514
1772541320511260700,9.9562607421875,-5.958518981933594,5.3800811767578125,5.198770046234131
1772541320521170700,9.966170654296874,-3.794424057006836,5.339517116546631,6.4008002281188965
1772541320531080700,9.976080810546875,-0.9227499961853027,5.589181900024414,7.553831100463867
1772541320540990700,9.98599072265625,0.157369002699852,5.484079837799072,7.3067522048950195
1772541320550901000,9.99590087890625,9.405332565307617,5.247636795043945,6.048622131347656
1772541320560811000,10.00581103515625,-1.3531750440597534,1.035336971282959,0.7565180063247681
1772541320570721000,10.015720947265624,-6.387843132019043,-6.643387794494629,2.8702330589294434
1772541320580631300,10.02563134765625,2.6964991092681885,-18.655841827392578,9.566884994506836
1772541320590541300,10.035541259765624,-1.3583060503005981,-31.84809112548828,4.387083053588867
1772541320600451300,10.045451416015625,8.14118766784668,-44.16481018066406,-7.412464141845703
1772541320610361300,10.055361328125,15.784929275512695,-22.18621063232422,-12.085670471191406
1772541320620271400,10.065271240234376,5.602231979370117,-2.738976001739502,-2.797313928604126
1772541320630181600,10.075181640625,1.9582840204238892,3.915178060531616,4.95378303527832
1772541320640091400,10.08509130859375,-0.10713999718427658,7.147830009460449,8.3466157913208
1772541320650001700,10.095001708984375,-0.3414660096168518,8.68178653717041,9.850536346435547
1772541320659911700,10.10491162109375,1.7766460180282593,8.721997261047363,9.84039306640625
1772541320669821700,10.11482177734375,2.7731049060821533,5.737733840942383,9.502913475036621
1772541320679731700,10.124731689453125,3.003998041152954,-1.2137880325317383,8.583921432495117
1772541320689642000,10.13464208984375,2.9485878944396973,-8.347285270690918,6.01232385635376
1772541320699552000,10.144552001953125,0.31233900785446167,-10.259653091430664,3.238939046859741
1772541320709462000,10.1544619140625,-1.8401700258255005,-6.970654010772705,4.590146064758301
1772541320719372000,10.1643720703125,-1.7739009857177734,-3.7825980186462402,5.570206165313721
1772541320729282000,10.174281982421874,-1.9442050457000732,-1.3623460531234741,3.768537998199463
1772541320739192300,10.1841923828125,-1.5898139476776123,-0.20941700041294098,1.5812289714813232
1772541320749102300,10.194102294921874,-1.8862680196762085,0.02733599953353405,-0.2596929967403412
1772541320759012400,10.204012451171875,-1.535493016242981,0.40760600566864014,-0.5246719717979431
1772541320768922400,10.21392236328125,-0.5039759874343872,1.1061389446258545,-0.698104977607727
1772541320778832400,10.223832275390626,0.05392200127243996,2.143019914627075,-0.6678770184516907
1772541320788742700,10.23374267578125,0.09336599707603455,2.9571568965911865,-1.700435996055603
1772541320798652700,10.243652587890624,0.07159200310707092,4.0352559089660645,-2.372209072113037
1772541320808562700,10.253562744140625,-0.003792000003159046,4.897146224975586,-2.875053882598877
1772541320818472700,10.26347265625,-0.12627600133419037,5.329873085021973,-2.95475697517395
1772541320828382700,10.2733828125,-0.0038960000965744257,5.343198776245117,-2.7119760513305664
1772541320838293000,10.28329296875,0.18157300353050232,4.98121976852417,-1.762971043586731
1772541320848203000,10.293203125,0.6965190172195435,4.368566989898682,-0.6562600135803223
1772541320858113000,10.303113037109375,1.2440650463104248,3.9944210052490234,0.4260689914226532
1772541320868023000,10.31302294921875,1.4301259517669678,3.5916390419006348,0.6993719935417175
1772541320877933000,10.32293310546875,1.481192946434021,3.289940118789673,1.0781309604644775
1772541320887843000,10.332843017578124,1.359055995941162,3.0117499828338623,1.6823339462280273
1772541320897753300,10.34275341796875,0.9587900042533875,2.5712859630584717,1.5757520198822021
1772541320907663000,10.3526630859375,1.9160510301589966,1.9885259866714478,2.583972930908203
1772541320917573400,10.362573486328126,2.44287109375,1.3674119710922241,3.2383830547332764
1772541320927483400,10.3724833984375,1.923545002937317,0.3192160129547119,2.721308946609497
1772541320937393400,10.382393310546876,1.5809049606323242,-0.5884640216827393,1.7190810441970825
1772541320947303700,10.3923037109375,1.4552960395812988,-1.363163948059082,1.2993489503860474
1772541320957213700,10.402213623046874,1.97147798538208,-2.0088798999786377,0.7176820039749146
1772541320967123700,10.412123779296875,3.209498882293701,-2.820651054382324,-0.7665280103683472
1772541320977033500,10.422033447265624,3.798064947128296,-3.1506590843200684,-2.432476043701172
1772541320986943700,10.43194384765625,3.5179800987243652,-3.425105094909668,-4.04240083694458
1772541320996853800,10.441853759765625,3.4435319900512695,-4.260170936584473,-4.763938903808594
1772541321006763800,10.451763671875,4.26823616027832,-5.319701194763184,-5.076595783233643
1772541321016673800,10.461673828125,5.275094032287598,-6.172184944152832,-4.994340896606445
1772541321026584000,10.471583984375,4.519661903381348,-6.795001983642578,-4.746800899505615
1772541321036494000,10.481494140625,2.1883769035339355,-7.166297912597656,-4.85106897354126
1772541321046404000,10.491404052734374,2.4507699012756348,-7.471923828125,-6.07706880569458
1772541321056314000,10.501314208984375,4.868257999420166,-7.325171947479248,-6.599970817565918
1772541321066224000,10.51122412109375,6.3425421714782715,-7.089414119720459,-5.297062873840332
1772541321076134100,10.521134033203126,5.951189994812012,-6.765095233917236,-1.838060975074768
1772541321086044200,10.531044189453125,5.159488201141357,-5.894516944885254,1.9708210229873657
1772541321095954200,10.5409541015625,5.243838787078857,-5.192169189453125,4.343807220458984
1772541321105864400,10.550864501953125,6.298791885375977,-5.1388020515441895,5.203361988067627
1772541321115774500,10.5607744140625,7.241322040557861,-5.368456840515137,4.749180793762207
1772541321125684500,10.5706845703125,7.220754146575928,-5.491709232330322,5.101928234100342
1772541321135594500,10.580594482421875,6.392930030822754,-5.592589855194092,6.067881107330322
1772541321145504500,10.59050439453125,5.6626691818237305,-5.902026176452637,6.31852912902832
1772541321155414800,10.600414794921875,4.445550918579102,-6.060926914215088,5.884840965270996
1772541321165324500,10.610324462890626,2.2377068996429443,-5.280929088592529,3.7749850749969482
1772541321175234600,10.620234619140625,0.3454279899597168,-3.733973979949951,1.3721389770507812
1772541321185144600,10.63014453125,-2.17616605758667,-2.333616018295288,0.20917299389839172
1772541321195054800,10.640054931640625,-6.707172870635986,-1.6710480451583862,0.5334720015525818
1772541321204964900,10.64996484375,-9.15575122833252,-1.6495039463043213,1.623695969581604
1772541321214875000,10.659875,-4.146184921264648,-4.151216983795166,2.3402280807495117
1772541321224785000,10.669784912109375,0.4662480056285858,-4.402964115142822,4.344198226928711
1772541321234695000,10.67969482421875,1.9713399410247803,-2.736783027648926,4.600625038146973
1772541321244605200,10.689605224609375,1.9177429676055908,-1.9493190050125122,4.107962131500244
1772541321254515000,10.699514892578126,0.8538699746131897,-2.002609968185425,1.8749330043792725
1772541321264425200,10.70942529296875,1.109815001487732,-2.5405609607696533,-1.5518909692764282
1772541321274335200,10.719335205078124,5.081661224365234,-3.851840019226074,-4.638398170471191
1772541321284245200,10.729245361328125,3.814152956008911,-3.843113899230957,-1.7400920391082764
1772541321294155300,10.7391552734375,-3.599186897277832,-1.6743149757385254,5.352043151855469
1772541321304065300,10.749065185546876,-6.461145877838135,-0.4801029860973358,7.697261810302734
1772541321313975300,10.758975341796875,-3.311598062515259,-0.81843501329422,7.626354217529297
1772541321323885300,10.76888525390625,-0.32302799820899963,-0.862185001373291,6.8357977867126465
1772541321333795300,10.77879541015625,-0.21433000266551971,-0.7885730266571045,7.006200790405273
1772541321343705600,10.78870556640625,-1.7177729606628418,-0.4223859906196594,7.054037094116211
1772541321353615600,10.79861572265625,-3.195133924484253,0.07333700358867645,7.473177909851074
1772541321363525600,10.808525634765624,-4.038862228393555,0.5023080110549927,7.388492107391357
1772541321373435600,10.818435546875,-4.549883842468262,0.8421239852905273,7.301544189453125
1772541321383345700,10.828345703125,-4.82854700088501,1.3403990268707275,7.250724792480469
1772541321393256000,10.838255859375,-5.113757133483887,1.853335976600647,7.374969959259033
1772541321403165700,10.848165771484375,-5.1352009773254395,2.7293848991394043,7.963850021362305
1772541321413076000,10.858075927734374,-5.034780979156494,3.8417739868164062,8.055845260620117
1772541321422986000,10.867986083984375,-5.170730113983154,4.621798038482666,7.314597129821777
1772541321432896000,10.87789599609375,-5.452058792114258,5.047914981842041,6.24555778503418
1772541321442806000,10.887805908203125,-5.732296943664551,4.870185852050781,4.966446876525879
1772541321452716000,10.897716064453125,-5.758295059204102,4.694408893585205,4.12824821472168
1772541321462626300,10.907626220703126,-4.763391971588135,4.163701057434082,4.387460231781006
1772541321472536300,10.917536376953125,-3.438636064529419,4.019717216491699,4.654852867126465
1772541321482446300,10.9274462890625,-2.2474520206451416,4.308145046234131,4.066515922546387
1772541321492356400,10.9373564453125,-1.3934279680252075,4.803956031799316,2.651442050933838
1772541321502266400,10.947266357421874,-0.5001400113105774,5.5232768058776855,0.37301701307296753
1772541321512176400,10.95717626953125,-0.021122999489307404,5.491878986358643,-2.284092903137207
1772541321522086400,10.96708642578125,-2.077256917953491,3.6256721019744873,-7.109043121337891
1772541321531996700,10.97699658203125,-7.363083839416504,1.9950859546661377,-9.147928237915039
1772541321541906400,10.986906494140625,-9.46949577331543,1.2509429454803467,-5.214934825897217
1772541321551816400,10.99681640625,-4.357924938201904,2.8204898834228516,0.28719499707221985
1772541321561726700,11.006726806640625,12.318436622619629,5.9737548828125,5.766294002532959
1772541321571636700,11.01663671875,47.18659973144531,8.14665699005127,12.28357219696045
1772541321581546800,11.026546630859375,4.7908148765563965,-1.9983739852905273,-2.665682077407837
1772541321591456800,11.036456787109374,-28.457767486572266,-15.116021156311035,8.157553672790527
1772541321601366800,11.04636669921875,-0.23636199533939362,-22.43943214416504,16.84689712524414
1772541321611276800,11.05627685546875,5.147404193878174,-20.72510528564453,6.502068996429443
1772541321621186800,11.066186767578126,1.7894200086593628,-12.071849822998047,-1.8845319747924805
1772541321631097000,11.07609716796875,3.3466811180114746,-2.467210054397583,-2.812747001647949
1772541321641007000,11.086007080078126,0.5000560283660889,3.1300320625305176,0.38497400283813477
1772541321650917000,11.095917236328125,2.569758892059326,5.9527387619018555,4.726550102233887
1772541321660827000,11.105826904296874,2.0434229373931885,4.861108779907227,8.223647117614746
1772541321670737200,11.115737060546875,1.3479750156402588,0.8502010107040405,7.806445121765137
1772541321680647200,11.125647216796875,1.8604530096054077,-2.8887009620666504,5.944812774658203
1772541321690557200,11.13555712890625,2.166811943054199,-5.630558967590332,5.116930961608887
1772541321700467200,11.14546728515625,0.7148510217666626,-7.014845848083496,5.712428092956543
1772541321710377200,11.155377197265626,-1.118649959564209,-6.071636199951172,4.45429801940918
1772541321720287200,11.165287353515625,-0.24658499658107758,-3.8009960651397705,2.545711040496826
1772541321730197500,11.175197509765624,-0.6812769770622253,-1.509207010269165,3.1434121131896973
1772541321740107300,11.185107177734375,-0.4969339966773987,-0.5814099907875061,3.9397950172424316
1772541321750017500,11.195017578125,0.064021997153759,-0.7526760101318359,4.219901084899902
1772541321759927300,11.20492724609375,-0.24654799699783325,-1.3202940225601196,4.238269805908203
1772541321769837600,11.214837646484375,-0.3859359920024872,-1.943140983581543,3.6003520488739014
1772541321779747600,11.22474755859375,0.09679699689149857,-2.397022008895874,3.0669119358062744
1772541321789657600,11.23465771484375,0.2965390086174011,-2.653611898422241,2.486565113067627
1772541321799567600,11.244567626953126,0.7216039896011353,-2.2577130794525146,2.474632978439331
1772541321809477400,11.254477294921875,1.2632269859313965,-1.5228559970855713,2.2712080478668213
1772541321819387600,11.2643876953125,1.7484350204467773,-1.184926986694336,0.811598002910614
1772541321829297700,11.274297607421875,2.2201550006866455,-0.6714490056037903,-0.02545499987900257
1772541321839207700,11.284207763671875,2.215528964996338,-0.15269599854946136,-0.4270099997520447
1772541321849117700,11.29411767578125,2.258152961730957,0.549340009689331,-0.3836280107498169
1772541321859028000,11.304028076171875,1.755911946296692,1.2149749994277954,-0.5975779891014099
1772541321868937700,11.313937744140626,1.6811339855194092,1.494109034538269,-1.0650620460510254
1772541321878848000,11.323847900390625,2.0913119316101074,1.7588410377502441,-1.4862899780273438
1772541321888757800,11.3337578125,2.2825279235839844,1.9377429485321045,-1.7891089916229248
1772541321898668000,11.34366796875,2.5347399711608887,2.015557050704956,-1.8463870286941528
1772541321908578000,11.353578125,2.321276903152466,1.9200220108032227,-1.48654305934906
1772541321918488000,11.363488037109375,1.2158050537109375,2.087968111038208,-0.9995409846305847
1772541321928398000,11.373398193359375,0.49379900097846985,2.112220048904419,-0.9495450258255005
1772541321938308000,11.38330810546875,0.8516740202903748,2.026041030883789,-0.8881000280380249
1772541321948218000,11.393218017578125,0.9986180067062378,2.1740899085998535,-0.7541369795799255
1772541321958128000,11.403128173828126,1.0098049640655518,2.4669439792633057,-0.6586869955062866
1772541321968038100,11.4130380859375,1.08713698387146,2.9353079795837402,0.02889000065624714
1772541321977948200,11.4229482421875,1.0716769695281982,3.236414909362793,0.9163380265235901
1772541321987858400,11.4328583984375,0.9625369906425476,3.1800079345703125,1.593356966972351
1772541321997768200,11.442768310546874,1.0719000101089478,2.644942045211792,2.184792995452881
1772541322007678500,11.452678466796876,1.394327998161316,1.7606550455093384,2.358114004135132
1772541322017588200,11.462588134765625,1.938668966293335,0.7857400178909302,2.412705898284912
1772541322027498200,11.472498291015626,2.2102930545806885,0.098191998898983,2.310029983520508
1772541322037408500,11.482408447265625,2.336677074432373,-0.2731100022792816,2.094599962234497
1772541322047318500,11.492318603515624,2.534162998199463,-0.20223300158977509,2.0411651134490967
1772541322057228500,11.502228515625,2.9029979705810547,0.02105100080370903,1.081786036491394
1772541322067138600,11.512138671875,3.64683198928833,0.34908100962638855,0.5705699920654297
1772541322077048600,11.522048583984375,4.147040843963623,0.3487260043621063,0.13142600655555725
1772541322086958600,11.53195849609375,3.830198049545288,0.0038449999410659075,-0.5397719740867615
1772541322096868600,11.54186865234375,2.7979230880737305,-0.39228999614715576,-1.5952999591827393
1772541322106778600,11.551778564453125,1.3425229787826538,-0.3952440023422241,-2.332616090774536
1772541322116689000,11.56168896484375,-0.03388600051403046,-0.4629560112953186,-2.507169008255005
1772541322126599000,11.571598876953125,-0.6483839750289917,-0.6404110193252563,-1.4473539590835571
1772541322136508700,11.5815087890625,-0.008836000226438046,-0.773734986782074,-0.699209988117218
1772541322146418700,11.591418701171875,1.4310170412063599,-0.4198310077190399,-0.720749020576477
1772541322156328700,11.60132861328125,2.0429599285125732,-0.07284999638795853,-2.287559986114502
1772541322166239000,11.611239013671875,1.5487639904022217,-0.6254079937934875,-3.851032018661499
1772541322176149000,11.62114892578125,1.305027961730957,-1.4232350587844849,-4.2714152336120605
1772541322186059000,11.63105908203125,2.1712169647216797,-2.2356510162353516,-4.018980026245117
1772541322195969000,11.640968994140625,3.7325589656829834,-3.0053629875183105,-3.0784459114074707
1772541322205879000,11.650879150390624,4.960620880126953,-3.558877944946289,-1.1927690505981445
1772541322215789000,11.6607890625,5.370761871337891,-4.151966094970703,0.46094799041748047
1772541322225699000,11.670698974609374,5.5129218101501465,-5.3860368728637695,0.5362370014190674
1772541322235609000,11.680609130859375,5.516748905181885,-6.717299938201904,-0.47585898637771606
1772541322245519000,11.69051904296875,4.9985151290893555,-7.382979869842529,-1.6249970197677612
1772541322255429000,11.70042919921875,4.053884029388428,-6.655994892120361,-1.2324390411376953
1772541322265339100,11.710339111328125,4.4017767906188965,-5.4176812171936035,0.6563940048217773
1772541322275249200,11.720249267578126,6.135599136352539,-4.940830230712891,1.4480589628219604
1772541322285159200,11.7301591796875,6.5203962326049805,-5.156959056854248,2.1535730361938477
1772541322295069200,11.740069091796874,3.5481109619140625,-5.709963798522949,3.0984020233154297
1772541322304979200,11.749979248046875,0.024373000487685204,-6.655821800231934,3.6271300315856934
1772541322314889200,11.75988916015625,-1.9635529518127441,-7.588345050811768,5.340054035186768
1772541322324799200,11.76979931640625,-4.306241989135742,-7.595063209533691,7.667417049407959
1772541322334709500,11.77970947265625,-5.54962682723999,-6.980493068695068,9.621781349182129
1772541322344619300,11.789619384765626,-1.7932169437408447,-6.114648818969727,12.342119216918945
1772541322354529500,11.799529541015625,2.7791829109191895,-5.576085090637207,13.406638145446777
1772541322364439300,11.809439208984376,2.7435710430145264,-4.8400468826293945,12.552562713623047
1772541322374349600,11.819349609375,0.40304699540138245,-3.84218692779541,10.910970687866211
1772541322384259600,11.829259521484374,-2.5158450603485107,-2.4507250785827637,9.399147987365723
1772541322394169600,11.839169677734375,-4.336877822875977,-1.0801470279693604,7.585766792297363
1772541322404079600,11.84907958984375,-4.737595081329346,0.18909600377082825,6.056443214416504
1772541322413989600,11.85898974609375,-5.117297172546387,1.0666090250015259,4.650598049163818
1772541322423899600,11.868899658203125,-4.8242621421813965,1.6386799812316895,3.4527409076690674
1772541322433809700,11.8788095703125,-2.275270938873291,2.06813907623291,2.2596049308776855
1772541322443719700,11.8887197265625,-0.8810889720916748,2.4406259059906006,1.2390919923782349
1772541322453629700,11.898629638671874,-0.9045529961585999,2.3945720195770264,1.550413966178894
1772541322463539700,11.908539794921875,-0.5393400192260742,2.3687970638275146,2.4127590656280518
1772541322473449700,11.91844970703125,-0.4703589975833893,2.3548290729522705,2.8598101139068604
1772541322483360000,11.928360107421875,-1.0549860000610352,2.4696500301361084,3.124743938446045
1772541322493269800,11.938269775390625,-1.7154059410095215,2.7755329608917236,3.205164909362793
1772541322503179800,11.9481796875,-2.2523109912872314,3.192215919494629,3.1735589504241943
1772541322513089800,11.95808984375,-2.7294809818267822,3.5468130111694336,3.492711067199707
1772541322522999800,11.967999755859376,-3.09039306640625,3.8733019828796387,4.002841949462891
1772541322532909800,11.977909912109375,-3.3614919185638428,4.087982177734375,4.392090797424316
1772541322542819800,11.98781982421875,-3.649749994277954,4.2402191162109375,4.482551097869873
1772541322552730000,11.997730224609375,-3.675020933151245,4.409328937530518,4.807377815246582
1772541322562640000,12.007639892578124,-3.3422670364379883,4.702277183532715,5.169397830963135
1772541322572550000,12.0175498046875,-2.749174118041992,4.852506160736084,5.481360912322998
1772541322582460000,12.0274599609375,-2.0909008979797363,4.964558124542236,5.547846794128418
1772541322592370200,12.0373701171875,-1.554779052734375,5.103206157684326,5.37479305267334
1772541322602280200,12.0472802734375,-1.0718450546264648,5.232641220092773,4.86441707611084
1772541322612190200,12.057190185546874,-0.39319801330566406,5.031206130981445,4.603206157684326
1772541322622100200,12.067100341796875,0.284417986869812,4.626307010650635,4.414350986480713
1772541322632010000,12.077010009765624,1.9046629667282104,3.8001270294189453,4.540860176086426
1772541322641920300,12.086920166015625,5.621523857116699,2.204798936843872,4.213380813598633
1772541322651830000,12.096830078125,11.275313377380371,-0.16879400610923767,2.7501111030578613
1772541322661740300,12.106740234375,16.08517837524414,-3.452294111251831,-0.2872689962387085
1772541322671650000,12.116650146484375,16.437665939331055,-7.860636234283447,-4.242451190948486
1772541322681560300,12.126560302734376,10.796394348144531,-11.20067310333252,-5.183598041534424
1772541322691470000,12.136469970703125,8.18481731414795,-11.305866241455078,-5.455617904663086
1772541322701380400,12.14638037109375,7.354146957397461,-9.236124992370605,-5.672392845153809
1772541322711290400,12.156290283203125,7.478529930114746,-6.886962890625,-5.6669840812683105
1772541322721200400,12.166200439453124,8.312467575073242,-3.508794069290161,-2.7721920013427734
1772541322731110400,12.1761103515625,6.885393142700195,2.940073013305664,3.0963919162750244
1772541322741020400,12.1860205078125,2.153578996658325,7.992955207824707,5.201202869415283
1772541322750930400,12.195930419921876,-1.3697760105133057,10.066990852355957,5.922673225402832
1772541322760840400,12.20584033203125,-3.3912830352783203,9.695302963256836,6.040711879730225
1772541322770750500,12.21575048828125,-3.8612658977508545,8.827766418457031,7.031373023986816
1772541322780660200,12.22566015625,2.2808940410614014,6.170567989349365,10.637298583984375
1772541322790570500,12.235570556640624,6.224308013916016,-0.9842579960823059,13.400077819824219
1772541322800480500,12.24548046875,-0.2802180051803589,-11.424671173095703,6.877626895904541
1772541322810390500,12.255390625,-5.438033103942871,-21.547517776489258,-3.792011022567749
1772541322820300500,12.265300537109376,10.849486351013184,-21.683935165405273,-6.403378009796143
1772541322830210600,12.27521044921875,18.978384017944336,-19.16839599609375,-8.375460624694824
1772541322840120600,12.28512060546875,-8.160767555236816,-11.37713623046875,3.202080011367798
1772541322850030600,12.295030517578125,-5.326111793518066,-2.3620400428771973,11.826908111572266
1772541322859940600,12.304940673828124,6.850584983825684,4.237813949584961,16.403772354125977
1772541322869850600,12.3148505859375,-10.099645614624023,6.443450927734375,13.631667137145996
1772541322879760600,12.3247607421875,-12.465665817260742,4.454061031341553,8.917634010314941
1772541322889670700,12.334670654296875,-3.7844619750976562,2.385338068008423,7.034441947937012
1772541322899580700,12.34458056640625,-1.752972960472107,0.4370039999485016,5.149840831756592
1772541322909490700,12.35449072265625,-3.326421022415161,-0.8583149909973145,3.7548439502716064
1772541322919400700,12.364400634765625,-4.414114952087402,-0.9264730215072632,3.913465976715088
1772541322929310700,12.374310791015626,-2.993396043777466,-1.8216500282287598,3.6673800945281982
1772541322939220500,12.384220458984375,-1.719735026359558,-3.544092893600464,2.3690829277038574
1772541322949130800,12.394130859375,-1.5042380094528198,-4.615266799926758,1.755342960357666
1772541322959040800,12.404040771484375,-0.5675430297851562,-5.077380180358887,1.183210015296936
1772541322968950800,12.41395068359375,0.4129070043563843,-4.7082839012146,1.1849730014801025
1772541322978860800,12.42386083984375,0.37654298543930054,-3.475203037261963,2.068218946456909
1772541322988770800,12.433770751953125,-0.19237299263477325,-1.8002840280532837,2.7764339447021484
1772541322998680800,12.443680908203126,-1.0783499479293823,-0.20337499678134918,2.4074509143829346
1772541323008590800,12.4535908203125,-1.4280929565429688,1.1174869537353516,1.5568439960479736
1772541323018500900,12.4635009765625,-0.531482994556427,2.131047010421753,0.6447479724884033
1772541323028410600,12.47341064453125,0.6325510144233704,2.9938430786132812,0.08605799823999405
1772541323038321000,12.48332080078125,0.8784260153770447,3.6287310123443604,-0.05177199840545654
1772541323048230700,12.493230712890625,0.47036799788475037,3.671499013900757,0.012955999933183193
1772541323058141000,12.503140869140625,0.539339005947113,3.1004459857940674,0.0939439982175827
1772541323068051000,12.513051025390626,1.0805200338363647,2.0924510955810547,0.20168299973011017
1772541323077960700,12.522960693359375,1.810276985168457,0.9664509892463684,0.397489994764328
1772541323087871000,12.53287109375,2.1602840423583984,-0.23524799942970276,0.4489220082759857
1772541323097780700,12.54278076171875,1.9214990139007568,-0.9101589918136597,0.4384649991989136
1772541323107691000,12.55269091796875,1.9577009677886963,-0.7679049968719482,0.6098039746284485
1772541323117601000,12.56260107421875,2.1724720001220703,-0.24275699257850647,0.54476398229599
1772541323127511000,12.572510986328124,2.322873115539551,0.20025700330734253,0.2579919993877411
1772541323137420800,12.5824208984375,2.412708044052124,0.38138699531555176,-0.14954900741577148
1772541323147331000,12.5923310546875,2.4733920097351074,0.3704040050506592,-0.36345499753952026
1772541323157240800,12.60224072265625,2.9760069847106934,0.22579100728034973,-0.40354299545288086
1772541323167150800,12.61215087890625,3.3766989707946777,0.14042599499225616,-0.5161389708518982
1772541323177060900,12.622060791015626,3.5106749534606934,0.1191520020365715,-0.7392640113830566
1772541323186971000,12.631970947265625,3.208230972290039,0.1683340072631836,-0.977778971195221
1772541323196881000,12.641880859375,2.936985969543457,0.20820699632167816,-1.0706130266189575
1772541323206791000,12.651791015625,2.852977991104126,0.21563300490379333,-1.2751569747924805
1772541323216701000,12.661700927734374,2.9100658893585205,-0.06765399873256683,-1.4305139780044556
1772541323226611000,12.67161083984375,2.831105947494507,-0.5006269812583923,-1.262302041053772
1772541323236521200,12.681521240234375,2.931191921234131,-0.40182799100875854,-0.7558209896087646
1772541323246431000,12.691430908203126,3.527614116668701,0.11989200115203857,0.184471994638443
1772541323256341200,12.70134130859375,3.6353089809417725,0.4315580129623413,0.8142510056495667
1772541323266251000,12.7112509765625,2.432760000228882,0.7225430011749268,0.8038070201873779
1772541323276161300,12.721161376953125,1.5136560201644897,0.8871939778327942,0.5409160256385803
1772541323286071000,12.731071044921874,1.8764469623565674,0.9610270261764526,0.13557900488376617
1772541323295981000,12.74098095703125,2.711329936981201,0.824882984161377,-0.14197500050067902
1772541323305891000,12.75089111328125,2.9679670333862305,0.5162010192871094,-0.9318100214004517
1772541323315801000,12.760801025390625,2.368074893951416,0.21172299981117249,-2.0804619789123535
1772541323325711000,12.770711181640625,2.810749053955078,-0.06388399749994278,-2.6082029342651367
1772541323335621000,12.78062109375,4.375813007354736,-0.5920310020446777,-2.581576108932495
1772541323345531100,12.79053125,4.681274890899658,-1.5060739517211914,-2.12009596824646
1772541323355441200,12.800441162109376,3.532341957092285,-2.4330530166625977,-1.7050260305404663
1772541323365351200,12.81035107421875,2.707324981689453,-3.06107497215271,-1.6151139736175537
1772541323375261200,12.82026123046875,2.5947248935699463,-3.6011030673980713,-1.108167052268982
1772541323385171000,12.8301708984375,2.056648015975952,-4.025834083557129,-0.3286609947681427
1772541323395081200,12.840081298828125,1.5921659469604492,-3.9032158851623535,0.3498780131340027
