time,seconds_elapsed,z,y,x
1772541310744810000,0.18981005859375,1.2915375232696533,3.5274250507354736,1.9298124313354492
1772541310759673300,0.20467333984375,1.0308375358581543,3.788262367248535,1.6445000171661377
1772541310769583400,0.214583251953125,1.0297374725341797,2.960237503051758,1.9222500324249268
1772541310779493400,0.224493408203125,1.0797874927520752,2.240837574005127,2.3362624645233154
1772541310789403400,0.2344033203125,0.9574124813079834,1.3373249769210815,2.677949905395508
1772541310799313400,0.2443134765625,-0.6282374858856201,-1.8873250484466553,1.726449966430664
1772541310809223400,0.254223388671875,-1.8990124464035034,-4.413750171661377,0.7708249688148499
1772541310819133400,0.264133544921875,-2.0714375972747803,-5.286462306976318,0.5685625076293945
1772541310829043500,0.27404345703125,-2.090549945831299,-6.302724838256836,0.2919124960899353
1772541310838953700,0.28395361328125,-2.061812400817871,-7.660675048828125,0.050324998795986176
1772541310848863500,0.293863525390625,-1.9118000268936157,-8.959087371826172,0.082225002348423
1772541310858773800,0.303773681640625,-1.6286875009536743,-7.251062393188477,0.010999999940395355
1772541310868683500,0.31368359375,-1.2827374935150146,-5.793012619018555,-0.04647500067949295
1772541310878593800,0.32359375,-0.8762875199317932,-3.131424903869629,-0.21683749556541443
1772541310888503600,0.333503662109375,-0.34732499718666077,-1.9394375085830688,-0.421162486076355
1772541310898413600,0.34341357421875,0.16981250047683716,-1.8042750358581543,-0.7691749930381775
1772541310908323800,0.35332373046875,0.5912500023841858,-1.4690500497817993,-0.9670374989509583
1772541310918233600,0.363233642578125,0.7317749857902527,-1.3125749826431274,-1.0107624530792236
1772541310928144000,0.373143798828125,0.6275500059127808,-1.7095375061035156,-1.0564124584197998
1772541310938054000,0.383053955078125,0.5530250072479248,-1.9479625225067139,-1.126675009727478
1772541310947964000,0.3929638671875,0.6019750237464905,-2.0532875061035156,-1.2501499652862549
1772541310957874000,0.4028740234375,0.7147250175476074,-2.038437604904175,-1.3554749488830566
1772541310967784000,0.412783935546875,0.7297124862670898,-1.806475043296814,-1.3406250476837158
1772541310977694000,0.42269384765625,0.634975016117096,-1.446774959564209,-1.1416624784469604
1772541310987604000,0.43260400390625,0.5263500213623047,-1.1232374906539917,-0.8500249981880188
1772541310997514000,0.442513916015625,0.49334999918937683,-1.1923999786376953,-0.6264500021934509
1772541311007424000,0.452424072265625,0.5306124687194824,-1.5467374324798584,-0.47011250257492065
1772541311017334000,0.462333984375,0.6168249845504761,-1.8096375465393066,-0.42432498931884766
1772541311027244000,0.472244140625,0.6487249732017517,-1.8266874551773071,-0.5285499691963196
1772541311037154000,0.482154052734375,0.6648125052452087,-1.455162525177002,-0.7180249691009521
1772541311047064000,0.49206396484375,0.7339749932289124,-1.0135124921798706,-0.8457624912261963
1772541311056974000,0.50197412109375,0.7030375003814697,-0.8454874753952026,-0.8170250058174133
1772541311066884000,0.511884033203125,0.5689749717712402,-0.8006625175476074,-0.7436000108718872
1772541311076794000,0.521794189453125,0.34869998693466187,-0.785812497138977,-0.7882875204086304
1772541311086704400,0.531704345703125,0.12416250258684158,-0.7517125010490417,-0.8967750072479248
1772541311096614400,0.541614501953125,0.11769999563694,-0.48358750343322754,-0.9618124961853027
1772541311106524400,0.5515244140625,0.1443749964237213,-0.3515875041484833,-1.006500005722046
1772541311116434400,0.561434326171875,0.2167000025510788,-0.24089999496936798,-0.9724000096321106
1772541311126344400,0.571344482421875,0.21463750302791595,-0.18246249854564667,-0.9085999727249146
1772541311136254500,0.58125439453125,0.2560249865055084,-0.03657500073313713,-0.9659374952316284
1772541311146164700,0.591164794921875,0.2283875048160553,0.3539249897003174,-1.0032000541687012
1772541311156074500,0.601074462890625,0.147537499666214,0.607200026512146,-0.9915124773979187
1772541311165984500,0.610984619140625,0.11563749611377716,0.5838249921798706,-0.9106624722480774
1772541311175894800,0.620894775390625,0.05926249921321869,0.36134999990463257,-0.7808625102043152
1772541311185804800,0.6308046875,0.0752125009894371,0.12196250259876251,-0.7148625254631042
1772541311195714800,0.64071484375,0.11247500032186508,-0.035612501204013824,-0.7489625215530396
1772541311205624800,0.650624755859375,0.08373750001192093,-0.14836250245571136,-0.8531875014305115
1772541311215534800,0.660534912109375,0.07301250100135803,-0.22605000436306,-0.9840874671936035
1772541311225444900,0.67044482421875,0.10821250081062317,-0.21642500162124634,-1.1032999753952026
1772541311235355000,0.68035498046875,0.08799999952316284,0.1825999915599823,-1.2236125469207764
1772541311245265000,0.690264892578125,0.147537499666214,0.3592875003814697,-1.3736250400543213
1772541311255175200,0.700175048828125,0.42102500796318054,-0.0929500013589859,-1.3842124938964844
1772541311265085200,0.710085205078125,0.6732000112533569,-0.20157499611377716,-1.1991374492645264
1772541311284905200,0.7299052734375,0.794612467288971,-0.7368624806404114,-0.8148249983787537
1772541311294815200,0.739815185546875,0.6754000186920166,-0.5751624703407288,-0.782925009727478
1772541311304725200,0.749725341796875,0.4816625118255615,-0.4016374945640564,-0.8309124708175659
1772541311314635500,0.759635498046875,0.2465374916791916,-0.11852499842643738,-0.7786625027656555
1772541311324545500,0.769545654296875,0.07617499679327011,0.1293874979019165,-0.6307125091552734
1772541311334455300,0.779455322265625,0.01347499992698431,0.1060125008225441,-0.45938751101493835
1772541311344365600,0.789365478515625,0.03891250118613243,-0.09624999761581421,-0.34347498416900635
1772541311354275600,0.799275634765625,0.15606249868869781,-0.19415000081062317,-0.32958748936653137
1772541311364185900,0.809185791015625,0.3018124997615814,-0.17820000648498535,-0.43174999952316284
1772541311374096000,0.819095947265625,0.431612491607666,-0.11110000312328339,-0.5583875179290771
1772541311384005600,0.829005615234375,0.5285499691963196,-0.07067500054836273,-0.6169624924659729
1772541311393916000,0.838916015625,0.5689749717712402,-0.21642500162124634,-0.5691124796867371
1772541311403826000,0.848825927734375,0.4848249852657318,-0.32711249589920044,-0.4030124843120575
1772541311413736000,0.85873583984375,0.2517625093460083,-0.1909874975681305,-0.16458749771118164
1772541311423646200,0.868646240234375,0.02199999988079071,-0.05362499877810478,0.048262499272823334
1772541311433556000,0.878555908203125,-0.06737499684095383,-0.1461624950170517,0.15674999356269836
1772541311443466000,0.888466064453125,-0.062150001525878906,-0.3877499997615814,0.14932499825954437
1772541311453376300,0.898376220703125,0.024062499403953552,-0.6623374819755554,0.059950001537799835
1772541311463286300,0.908286376953125,0.1816374957561493,-0.934862494468689,-0.03272499889135361
1772541311473196300,0.9181962890625,0.3529624938964844,-1.0657625198364258,-0.08167500048875809
1772541311483106300,0.928106201171875,0.4349125027656555,-0.9944000244140625,-0.18067499995231628
1772541311493016300,0.938016357421875,0.3592875003814697,-0.8082249760627747,-0.3497999906539917
1772541311502926600,0.947926513671875,0.16981250047683716,-0.5262125134468079,-0.4221250116825104
1772541311512836600,0.957836669921875,-0.1036750003695488,-0.15152500569820404,-0.4030124843120575
1772541311522746600,0.96774658203125,-0.27816250920295715,-0.06531249731779099,-0.33605000376701355
1772541311532656600,0.97765673828125,-0.25905001163482666,-0.21546250581741333,-0.2508000135421753
1772541311542567000,0.98756689453125,-0.14726249873638153,-0.45374998450279236,-0.1551000028848648
1772541311552477000,0.997476806640625,-0.025987500324845314,-0.6261749863624573,-0.08057499676942825
1772541311562387000,1.007386962890625,0.0719124972820282,-0.636900007724762,-0.05926249921321869
1772541311572297000,1.017296875,0.1868624985218048,-0.553849995136261,-0.06572499871253967
1772541311582207000,1.02720703125,0.3007124960422516,-0.3750999867916107,-0.08483749628067017
1772541311592117000,1.037116943359375,0.3763374984264374,-0.22288750112056732,-0.1434125006198883
1772541311602027300,1.04702734375,0.3390749990940094,-0.24089999496936798,-0.21889999508857727
1772541311611937300,1.056937255859375,0.21779999136924744,-0.2644124925136566,-0.2316875010728836
1772541311621847300,1.066847412109375,0.22206249833106995,-0.26963749527931213,-0.2199999988079071
1772541311631757300,1.07675732421875,0.38266250491142273,-0.2069374918937683,-0.22426250576972961
1772541311641667300,1.086667236328125,0.6190249919891357,-0.04936249926686287,-0.27211248874664307
1772541311651577600,1.09657763671875,0.9392625093460083,0.24860000610351562,-0.3870624899864197
1772541311661487400,1.1064873046875,1.2989624738693237,0.41359999775886536,-0.5190625190734863
1772541311671397600,1.116397705078125,1.5236375331878662,0.7126625180244446,-0.5817624926567078
1772541311681307600,1.1263076171875,1.5023249387741089,0.9989374876022339,-0.6019750237464905
1772541311691218000,1.136218017578125,1.268162488937378,1.4693249464035034,-0.5658124685287476
1772541311701127700,1.146127685546875,0.9053000211715698,2.3046374320983887,-0.5190625190734863
1772541311711038000,1.156037841796875,0.682824969291687,3.6062123775482178,-0.5350124835968018
1772541311720948000,1.165947998046875,0.8595125079154968,4.860899925231934,-0.4604874849319458
1772541311730858000,1.17585791015625,1.5097500085830688,5.214274883270264,-0.35089999437332153
1772541311740768000,1.18576806640625,2.633537530899048,4.414987564086914,-0.5413374900817871
1772541311750678000,1.195677978515625,3.6872000694274902,3.7562248706817627,-1.2820500135421753
1772541311780408300,1.225408203125,2.6867499351501465,3.879699945449829,-3.5062499046325684
1772541311790318300,1.235318359375,2.4366374015808105,4.197875022888184,-4.096950054168701
1772541311800228600,1.245228515625,1.8438749313354492,3.754162549972534,-4.366175174713135
1772541311810138400,1.255138427734375,0.9765250086784363,3.1135499477386475,-4.100112438201904
1772541311820048600,1.265048583984375,0.07411249727010727,2.503737449645996,-3.5030875205993652
1772541311829958700,1.274958740234375,-0.6421250104904175,1.9938875436782837,-2.9412624835968018
1772541311839869000,1.284868896484375,-1.1273624897003174,1.6981250047683716,-2.513362407684326
1772541311849778700,1.29477880859375,-1.379675030708313,1.8970874547958374,-2.451624870300293
1772541311859689000,1.30468896484375,-1.3967249393463135,2.4334750175476074,-2.7304749488830566
1772541311869599000,1.314598876953125,-1.2944250106811523,2.8463873863220215,-2.9337000846862793
1772541311879509200,1.32450927734375,-1.2285624742507935,3.1517748832702637,-2.9337000846862793
1772541311889419000,1.3344189453125,-1.1838749647140503,2.994337558746338,-2.680424928665161
1772541311899329300,1.344329345703125,-1.1816749572753906,2.7453250885009766,-2.3036749362945557
1772541311909239300,1.3542392578125,-1.2423125505447388,2.619649887084961,-2.1206624507904053
1772541311919149300,1.3641494140625,-1.439212441444397,2.8643999099731445,-1.9387500286102295
1772541311929059300,1.374059326171875,-1.5202000141143799,3.2520124912261963,-1.9324250221252441
1772541311938969600,1.383969482421875,-1.6191999912261963,3.7552623748779297,-1.9016250371932983
1772541311948879600,1.393879638671875,-1.8554250001907349,4.10863733291626,-1.8015249967575073
1772541311958790000,1.403789794921875,-2.3513875007629395,3.4572999477386475,-1.8654625415802002
1772541311968699600,1.41369970703125,-2.7450499534606934,2.333512544631958,-2.126162528991699
1772541311978609700,1.423609619140625,-2.6461875438690186,2.2825000286102295,-2.085737466812134
1772541311988520000,1.43352001953125,-2.0501248836517334,2.1675500869750977,-2.088900089263916
1772541311998430200,1.44343017578125,-1.3466750383377075,1.9237624406814575,-2.027162551879883
1772541312008340000,1.453340087890625,-0.5794249773025513,1.3969999551773071,-2.061262607574463
1772541312018250200,1.463250244140625,0.20281249284744263,0.6701750159263611,-2.346437454223633
1772541312028160300,1.47316015625,0.9722625017166138,-0.10037499666213989,-2.6423375606536865
1772541312038070500,1.483070556640625,1.788462519645691,-0.7272375226020813,-2.689087390899658
1772541312047980300,1.492980224609375,2.4472250938415527,-0.7719249725341797,-2.6731374263763428
1772541312057890600,1.502890625,3.044250011444092,-0.3675374984741211,-2.7923500537872314
1772541312067800600,1.512800537109375,3.449737548828125,0.22316250205039978,-2.877462387084961
1772541312077710600,1.522710693359375,3.650899887084961,0.6318125128746033,-2.904137372970581
1772541312087620600,1.53262060546875,3.2539374828338623,0.5765374898910522,-2.619925022125244
1772541312097530600,1.542530517578125,1.9438375234603882,1.0139249563217163,-2.19216251373291
1772541312107441000,1.55244091796875,-0.39311251044273376,3.208287477493286,-1.4323375225067139
1772541312117351000,1.562350830078125,-1.5063124895095825,3.45523738861084,-1.1629749536514282
1772541312127261000,1.572260986328125,-0.6474875211715698,1.8258625268936157,-0.9693750143051147
1772541312137171200,1.582171142578125,-0.18562500178813934,-0.4174500107765198,-0.1648624986410141
1772541312147081200,1.592081298828125,0.25286251306533813,-2.3416249752044678,0.1321374922990799
1772541312156991200,1.6019912109375,0.5274500250816345,-2.7693874835968018,-0.02969999983906746
1772541312176811500,1.6218115234375,0.4848249852657318,-1.7318124771118164,-0.4680500030517578
1772541312186721500,1.631721435546875,0.4071374833583832,-0.9623624682426453,-0.6362124681472778
1772541312196631600,1.641631591796875,0.31556248664855957,-0.3801875114440918,-0.8683124780654907
1772541312206541800,1.651541748046875,0.2176624983549118,0.23375000059604645,-0.9757000207901001
1772541312216451800,1.661451904296875,0.15592500567436218,0.6115999817848206,-0.9299125075340271
1772541312226362000,1.671362060546875,0.14533749222755432,0.7957124710083008,-0.856487512588501
1772541312236271900,1.68127197265625,0.23691250383853912,0.9383000135421753,-0.8256874680519104
1772541312246182100,1.69118212890625,0.42528748512268066,0.8648750185966492,-0.6905249953269958
1772541312256092000,1.701091796875,0.6433625221252441,0.644599974155426,-0.46598750352859497
1772541312266002200,1.711002197265625,0.7062000036239624,0.4465999901294708,-0.25423750281333923
1772541312275912200,1.720912109375,0.6529874801635742,0.522225022315979,-0.15729999542236328
1772541312285822500,1.730822509765625,0.5849249958992004,0.74566251039505,-0.1541374921798706
1772541312295732200,1.740732177734375,0.49761250615119934,0.8190875053405762,-0.1116499975323677
1772541312305642500,1.750642578125,0.37950000166893005,0.8457624912261963,-0.06366249918937683
1772541312315552500,1.760552490234375,0.2666124999523163,1.0117249488830566,-0.19359999895095825
1772541312325462800,1.770462890625,0.0411125011742115,1.1682000160217285,-0.4511374831199646
1772541312335372800,1.780372802734375,-0.14836250245571136,1.10013747215271,-0.5522000193595886
1772541312345282800,1.79028271484375,-0.1377750039100647,1.0309749841690063,-0.5883625149726868
1772541312355192800,1.80019287109375,-0.11962500214576721,0.8298124670982361,-0.5702124834060669
1772541312365103000,1.81010302734375,-0.04839999973773956,0.6935499906539917,-0.5277249813079834
1772541312375013000,1.82001318359375,0.03464999794960022,0.6839249730110168,-0.5095750093460083
1772541312384923400,1.82992333984375,0.05912499874830246,0.6850249767303467,-0.41813749074935913
1772541312394833400,1.83983349609375,0.04427500069141388,0.7074375152587891,-0.2915000021457672
1772541312404743400,1.849743408203125,0.0835999995470047,0.7925499677658081,-0.2073500007390976
1772541312414653400,1.8596533203125,0.18039999902248383,0.6551874876022339,-0.06792499870061874
1772541312424563700,1.869563720703125,0.607200026512146,0.45196250081062317,0.2853125035762787
1772541312434473700,1.8794736328125,0.6615124940872192,0.43271249532699585,0.46970000863075256
1772541312444384000,1.889384033203125,0.56045001745224,0.9828500151634216,0.41318750381469727
1772541312454293800,1.899293701171875,0.6551874876022339,1.0690624713897705,0.6675624847412109
1772541312464204000,1.9092041015625,0.8722999691963196,1.119112491607666,0.861299991607666
1772541312474114000,1.919114013671875,2.0674500465393066,1.1489499807357788,1.1655875444412231
1772541312484024300,1.9290244140625,2.1375749111175537,0.8009374737739563,1.2018874883651733
1772541312493934300,1.938934326171875,2.1164000034332275,1.0680999755859375,0.8548374772071838
1772541312503844400,1.94884423828125,1.840712547302246,0.5454624891281128,0.8303624987602234
1772541312513754400,1.95875439453125,1.603387475013733,-0.13557499647140503,1.0730500221252441
1772541312523664600,1.96866455078125,1.6554999351501465,-0.8762875199317932,1.0826749801635742
1772541312533574700,1.97857470703125,1.1415250301361084,-1.5893625020980835,1.0667250156402588
1772541312543485000,1.98848486328125,0.506137490272522,-1.4966875314712524,1.0422500371932983
1772541312553395000,1.99839501953125,-0.08552499860525131,-1.2498749494552612,1.102887511253357
1772541312563305000,2.008304931640625,-0.6623374819755554,-1.2636250257492065,1.1646250486373901
1772541312573215000,2.018215087890625,-1.001824975013733,-1.261562466621399,1.2412124872207642
1772541312583125200,2.028125244140625,-1.1455124616622925,-1.723425030708313,1.4093749523162842
1772541312593035300,2.03803515625,-1.0817124843597412,-2.287450075149536,1.651924967765808
1772541312602945500,2.047945556640625,-1.0698875188827515,-2.5247750282287598,1.6658124923706055
1772541312612855300,2.057855224609375,-0.9135500192642212,-2.086287498474121,1.6264874935150146
1772541312622765600,2.067765625,-0.4324375092983246,-2.232174873352051,1.5721750259399414
1772541312632675600,2.077675537109375,-0.1036750003695488,-3.168687582015991,0.7196750044822693
1772541312642585900,2.0875859375,0.3359124958515167,-3.211174964904785,0.7601000070571899
1772541312652496100,2.09749609375,0.6360750198364258,-3.082474946975708,1.038949966430664
1772541312662406000,2.107406005859375,0.7605124711990356,-1.9744999408721924,0.9208375215530396
1772541312672316200,2.117316162109375,0.9062625169754028,-0.8529124855995178,0.7282000184059143
1772541312682226200,2.12722607421875,1.1862125396728516,-0.32711249589920044,0.8336625099182129
1772541312692136400,2.137136474609375,1.3447500467300415,0.045375000685453415,0.8889374732971191
1772541312702046500,2.14704638671875,1.5863374471664429,0.3209249973297119,0.869825005531311
1772541312711956500,2.15695654296875,1.863124966621399,0.5285499691963196,0.9484750032424927
1772541312721866800,2.16686669921875,2.1461000442504883,0.681725025177002,1.0102125406265259
1772541312731776800,2.17677685546875,2.4920499324798584,0.692312479019165,1.112375020980835
1772541312741686800,2.186686767578125,2.994337558746338,0.7497875094413757,1.196524977684021
1772541312751597000,2.19659716796875,3.540212392807007,0.7860875129699707,1.1539000272750854
1772541312761507000,2.206507080078125,3.889324903488159,0.5497249960899353,0.9219374656677246
1772541312771417300,2.216417236328125,4.083062648773193,-0.050462499260902405,0.6367624998092651
1772541312781327400,2.226327392578125,3.6095125675201416,-0.49953749775886536,0.47066250443458557
1772541312791237400,2.2362373046875,2.859174966812134,-0.8028625249862671,0.40892499685287476
1772541312801147600,2.246147705078125,2.113100051879883,-0.8124874830245972,0.36643749475479126
1772541312811057700,2.2560576171875,1.6246999502182007,-0.6868125200271606,0.3451249897480011
1772541312820967700,2.2659677734375,1.1978999376296997,-0.99013751745224,0.3217499852180481
1772541312830877700,2.275877685546875,0.895675003528595,-1.5626875162124634,0.29397499561309814
1772541312840788000,2.2857880859375,0.5422999858856201,-1.9458999633789062,0.07699999958276749
1772541312850698000,2.295697998046875,0.19016249477863312,-2.3449249267578125,-0.1050499975681305
1772541312860608300,2.305608154296875,-0.2186249941587448,-2.8833749294281006,-0.08689999580383301
1772541312870518300,2.315518310546875,-0.6654999852180481,-3.322962522506714,0.08538749814033508
1772541312880428300,2.32542822265625,-1.195562481880188,-3.2026500701904297,0.19401249289512634
1772541312890338600,2.335338623046875,-1.6765375137329102,-2.830162525177002,0.37070000171661377
1772541312900248600,2.34524853515625,-2.0043375492095947,-2.2374000549316406,0.6538124680519104
1772541312910158600,2.35515869140625,-1.9309124946594238,-1.5159374475479126,0.9517750144004822
1772541312920068900,2.36506884765625,-1.6744749546051025,-0.9721249938011169,1.1060500144958496
1772541312929979000,2.374978759765625,-1.379675030708313,-0.20363749563694,1.0793750286102295
1772541312939889000,2.384888916015625,-1.2445124387741089,0.2539624869823456,1.0240999460220337
1772541312949799200,2.394799072265625,-1.2944250106811523,0.44866248965263367,1.0272624492645264
1772541312959709200,2.404709228515625,-1.6264874935150146,0.46777498722076416,1.1603624820709229
1772541312969619700,2.41461962890625,-2.0256500244140625,0.47850000858306885,1.2369500398635864
1772541312979529500,2.424529541015625,-2.4193124771118164,0.737137496471405,1.0591624975204468
1772541312989439500,2.434439453125,-2.842949867248535,1.396862506866455,0.6419875025749207
1772541312999349800,2.444349853515625,-3.215437412261963,1.496962547302246,0.34622499346733093
1772541313009259800,2.454259765625,-3.218600034713745,1.1808500289916992,0.3078624904155731
1772541313019170000,2.464170166015625,-2.9121124744415283,0.932937502861023,0.089649997651577
1772541313029080000,2.474080078125,-2.33956241607666,0.07411249727010727,-0.20721249282360077
1772541313038990300,2.483990234375,-1.6264874935150146,-0.8657000064849854,-0.39765000343322754
1772541313048900400,2.493900390625,-0.5505499839782715,-1.4658875465393066,-0.39765000343322754
1772541313058810400,2.503810302734375,-0.08772499859333038,-1.6457375288009644,-0.5520625114440918
1772541313068720600,2.513720703125,0.16664999723434448,-0.8091874718666077,-1.0267125368118286
1772541313078630700,2.523630615234375,0.6572499871253967,0.7775624990463257,-1.3576749563217163
1772541313088541000,2.533541015625,0.7849875092506409,1.4565374851226807,-1.3289375305175781
1772541313098451000,2.543450927734375,0.5743374824523926,1.3171124458312988,-1.1820875406265259
1772541313108361200,2.553361328125,0.06984999775886536,0.9924749732017517,-1.1416624784469604
1772541313118271200,2.563271240234375,-0.38142499327659607,0.5167250037193298,-1.0276750326156616
1772541313128181500,2.573181396484375,-0.8848124742507935,-0.08882500231266022,-0.8936125040054321
1772541313138091500,2.583091552734375,-1.1263999938964844,-0.5516499876976013,-0.8064374923706055
1772541313148001800,2.593001708984375,-1.0795124769210815,-0.8859124779701233,-0.6892874836921692
1772541313157911600,2.60291162109375,-0.9241374731063843,-1.0507750511169434,-0.5828624963760376
1772541313167821800,2.61282177734375,-0.7698624730110168,-0.9869750142097473,-0.5530250072479248
1772541313177732000,2.622732177734375,-0.7442874908447266,-0.6740249991416931,-0.6212249994277954
1772541313187642000,2.63264208984375,-0.8251374959945679,-0.2750000059604645,-0.7723374962806702
1772541313197552400,2.642552490234375,-0.8709250092506409,-0.06104999780654907,-0.9596124887466431
1772541313207462700,2.652462646484375,-0.8581374883651733,0.1358499974012375,-1.1394624710083008
1772541313217372700,2.66237255859375,-0.8538749814033508,0.47203749418258667,-1.293737530708313
1772541313227283000,2.672282958984375,-0.880549967288971,0.7625749707221985,-1.4279375076293945
1772541313237193000,2.68219287109375,-0.7655999660491943,1.1063250303268433,-1.5023249387741089
1772541313247103000,2.69210302734375,-0.6017000079154968,1.572450041770935,-1.5481125116348267
1772541313257013200,2.70201318359375,-0.533637523651123,1.9269249439239502,-1.5694249868392944
1772541313276833500,2.72183349609375,-0.6133875250816345,2.240837574005127,-1.4459500312805176
1772541313286743600,2.73174365234375,-0.6527125239372253,2.324850082397461,-1.3554749488830566
1772541313296653800,2.74165380859375,-0.7548750042915344,2.2323124408721924,-1.3651000261306763
1772541313306564000,2.751564208984375,-0.9369249939918518,1.8438749313354492,-1.4203749895095825
1772541313316474000,2.76147412109375,-1.2434124946594238,1.22017502784729,-1.4299999475479126
1772541313326384000,2.771384033203125,-1.723425030708313,0.597712516784668,-1.3374625444412231
1772541313336294100,2.781294189453125,-2.1778624057769775,0.11563749611377716,-1.1585749387741089
1772541313346204700,2.79120458984375,-2.3523499965667725,-0.32615000009536743,-0.9373375177383423
1772541313356114400,2.801114501953125,-2.150087594985962,-0.7453874945640564,-0.6786999702453613
1772541313366025000,2.81102490234375,-1.8851250410079956,-0.9081875085830688,-0.47437500953674316
1772541313375934700,2.820934814453125,-1.614799976348877,-0.907087504863739,-0.3647874891757965
1772541313385845000,2.830844970703125,-1.3743125200271606,-0.8868749737739563,-0.3455374836921692
1772541313395755300,2.84075537109375,-1.128462553024292,-0.8273375034332275,-0.4296875
1772541313405665300,2.850665283203125,-0.9124500155448914,-0.7006999850273132,-0.5733749866485596
1772541313415575300,2.8605751953125,-1.028499960899353,-0.6676999926567078,-0.6637125015258789
1772541313425485600,2.870485595703125,-1.4158375263214111,-0.8210124969482422,-0.6722375154495239
1772541313435395600,2.8803955078125,-1.7458374500274658,-0.9347249865531921,-0.6298875212669373
1772541313445305900,2.890305908203125,-2.0076375007629395,-0.9549375176429749,-0.6330500245094299
1772541313455215900,2.9002158203125,-2.343825101852417,-0.8826124668121338,-0.7500625252723694
1772541313465126100,2.910126220703125,-2.55887508392334,-0.7526749968528748,-1.022587537765503
1772541313475036400,2.920036376953125,-2.6078250408172607,-0.8218374848365784,-1.3928749561309814
1772541313484946400,2.929946533203125,-2.55887508392334,-1.0847375392913818,-1.8623000383377075
1772541313494856700,2.939856689453125,-2.325812578201294,-1.0784125328063965,-2.4795374870300293
1772541313504766700,2.9497666015625,-2.0501248836517334,-0.6675624847412109,-3.112725019454956
1772541313514677000,2.959677001953125,-1.9223874807357788,-0.852774977684021,-3.7470123767852783
1772541313524587000,2.9695869140625,-1.8266874551773071,-1.0921624898910522,-4.320662498474121
1772541313534497300,2.979497314453125,-1.7256250381469727,-1.1379499435424805,-4.793112277984619
1772541313544407300,2.9894072265625,-1.630887508392334,-0.9879375100135803,-5.133699893951416
1772541313554317600,2.999317626953125,-1.528725028038025,-0.12484999746084213,-4.994275093078613
1772541313564227600,3.0092275390625,-1.5254249572753906,1.8588625192642212,-3.485212564468384
1772541313574137900,3.019137939453125,-2.8770499229431152,2.691149950027466,-2.188999891281128
1772541313584048000,3.029048095703125,-5.241775035858154,1.9089125394821167,-1.4078625440597534
1772541313593958400,3.03895849609375,-2.9365875720977783,-4.921262264251709,0.6184750199317932
1772541313603868400,3.048868408203125,-0.8295375108718872,-6.792224884033203,1.6497249603271484
1772541313613778700,3.05877880859375,-1.1901999711990356,-3.010974884033203,1.363450050354004
1772541313623688700,3.068688720703125,-1.529687523841858,0.36258751153945923,1.1005499362945557
1772541313633599000,3.078598876953125,-1.4807374477386475,1.7524374723434448,1.198449969291687
1772541313643509200,3.08850927734375,-0.9986624717712402,1.96322500705719,1.7402000427246094
1772541313653419300,3.098419189453125,-0.5985375046730042,1.9621249437332153,2.4021248817443848
1772541313663329500,3.10832958984375,-0.582587480545044,2.13881254196167,2.9757750034332275
1772541313673239600,3.118239501953125,-0.8540124893188477,2.318662405014038,3.5248124599456787
1772541313683149800,3.12814990234375,-1.1519750356674194,2.393049955368042,4.142187595367432
1772541313693059800,3.138059814453125,-1.3668874502182007,2.5165250301361084,4.793387413024902
1772541313702970000,3.14797021484375,-1.36166250705719,3.055112600326538,5.4245123863220215
1772541313712880400,3.15788037109375,-0.9359624981880188,4.049099922180176,6.057700157165527
1772541313722790400,3.167790283203125,-0.1153625026345253,4.8003997802734375,6.25570011138916
1772541313732700700,3.17770068359375,0.6891499757766724,5.204787254333496,5.401137351989746
1772541313742610700,3.187610595703125,1.3149124383926392,6.661737442016602,3.8600375652313232
1772541313752521000,3.19752099609375,1.882099986076355,7.89511251449585,1.9636374711990356
1772541313762431000,3.207430908203125,2.2152624130249023,7.862112522125244,0.06407500058412552
1772541313772341500,3.217341552734375,2.197112560272217,6.902225017547607,-1.4535125494003296
1772541313782251300,3.227251220703125,2.20989990234375,5.185675144195557,-2.3293874263763428
1772541313792161800,3.237161865234375,2.421649932861328,2.8837873935699463,-2.317699909210205
1772541313802071800,3.24707177734375,2.6111249923706055,0.4573250114917755,-1.6057250499725342
1772541313811982000,3.256982177734375,2.627074956893921,-1.6849249601364136,-0.5010499954223633
1772541313821892400,3.266892333984375,2.601637601852417,-2.7279999256134033,0.723800003528595
1772541313831802400,3.27680224609375,2.6824874877929688,-2.35441255569458,1.8827874660491943
1772541313841712600,3.286712646484375,2.9570748805999756,-0.8410875201225281,3.13004994392395
1772541313851622700,3.29662255859375,3.0314624309539795,0.18273749947547913,3.821812391281128
1772541313861533000,3.306532958984375,2.5035998821258545,-0.19717499613761902,3.80792498588562
1772541313871443200,3.316443115234375,1.788462519645691,-1.3327875137329102,3.593975067138672
1772541313881353500,3.326353515625,1.2798500061035156,-2.211824893951416,3.6909124851226807
1772541313891263700,3.336263671875,1.0115875005722046,-2.2596750259399414,4.086774826049805
1772541313901173800,3.346173828125,0.9307374954223633,-1.9797250032424927,4.403850078582764
1772541313911084000,3.356083984375,0.9668999910354614,-1.7457000017166138,4.409212589263916
1772541313920994000,3.365994140625,1.019012451171875,-1.7019749879837036,4.021874904632568
1772541313930904300,3.375904296875,1.084049940109253,-1.8530875444412231,3.3226873874664307
1772541313940814600,3.385814697265625,1.0881749391555786,-1.79135000705719,2.645775079727173
1772541313950724600,3.395724609375,0.9690999984741211,-1.3615249395370483,2.2616000175476074
1772541313960635100,3.40563525390625,0.8104249835014343,-0.9708874821662903,2.037062406539917
1772541313970545200,3.415545166015625,0.6572499871253967,-0.7602375149726868,1.8816875219345093
1772541313980455400,3.425455322265625,0.49334999918937683,-0.6452875137329102,1.6816250085830688
1772541313990365400,3.435365478515625,0.25286251306533813,-0.45374998450279236,1.4081374406814575
1772541314000275700,3.445275634765625,-0.037675000727176666,-0.040699999779462814,1.0590250492095947
1772541314010185700,3.455185791015625,-0.3016749918460846,0.28806251287460327,0.6887375116348267
1772541314020096000,3.465095947265625,-0.5273125171661377,0.35612499713897705,0.3470500111579895
1772541314030006300,3.47500634765625,-0.6986374855041504,0.3497999906539917,0.008662499487400055
1772541314039916300,3.484916259765625,-0.8369625210762024,0.3125374913215637,-0.33934998512268066
1772541314049826800,3.494826904296875,-0.980650007724762,0.11990000307559967,-0.6936874985694885
1772541314059736800,3.50473681640625,-1.01791250705719,-0.1428624987602234,-1.0001749992370605
1772541314069647000,3.514647216796875,-0.8529124855995178,-0.37386250495910645,-1.2354375123977661
1772541314079557400,3.524557373046875,-0.4006749987602234,-0.6015625,-1.3961750268936157
1772541314089467400,3.53446728515625,0.28049999475479126,-0.8303624987602234,-1.5131875276565552
1772541314099377700,3.544377685546875,0.9477875232696533,-0.7389249801635742,-1.7824125289916992
1772541314109288000,3.554287841796875,1.3905375003814697,-0.12058749794960022,-2.446537494659424
1772541314119198200,3.5641982421875,1.4415500164031982,0.5860249996185303,-3.317049980163574
1772541314129108200,3.574108154296875,1.085012435913086,1.0053999423980713,-3.805449962615967
1772541314139018500,3.5840185546875,0.40603750944137573,0.6711375117301941,-3.3925375938415527
1772541314148928800,3.5939287109375,-0.5655375123023987,-0.5813499689102173,-0.80121248960495
1772541314158838800,3.6038388671875,-1.289199948310852,-1.8775625228881836,2.322237491607666
1772541314168749300,3.613749267578125,-0.99013751745224,-0.38554999232292175,0.2864125072956085
1772541314178659300,3.623659423828125,-1.5190999507904053,2.072812557220459,-4.366312503814697
1772541314188569600,3.633569580078125,-2.6493499279022217,2.8348374366760254,-5.147449970245361
1772541314198479600,3.643479736328125,-2.571662425994873,1.9769749641418457,-2.2464749813079834
1772541314208390000,3.653389892578125,-1.3073500394821167,0.7063375115394592,-1.1406999826431274
1772541314218300400,3.663300537109375,-0.052662499248981476,0.42006251215934753,-0.6575250029563904
1772541314228210400,3.67321044921875,0.7136250138282776,0.7126625180244446,-0.3638249933719635
1772541314238120700,3.68312060546875,0.56045001745224,0.7860875129699707,-1.5982999801635742
1772541314248030700,3.69303076171875,-0.20047499239444733,1.0404624938964844,-2.606174945831299
1772541314257941000,3.70294091796875,-0.860337495803833,1.143725037574768,-2.765812397003174
1772541314267851300,3.712851318359375,-1.177549958229065,1.3661999702453613,-2.5720748901367188
1772541314277761500,3.722761474609375,-1.3392499685287476,1.6576999425888062,-2.115575075149536
1772541314287671600,3.732671630859375,-1.3286625146865845,1.5586999654769897,-1.5994000434875488
1772541314297581800,3.742581787109375,-1.19350004196167,1.4852750301361084,-1.2641749382019043
1772541314307492400,3.752492431640625,-1.0604000091552734,1.536424994468689,-1.1842875480651855
1772541314317402400,3.76240234375,-1.0678249597549438,1.7694875001907349,-1.3407624959945679
1772541314327312600,3.772312744140625,-1.1998250484466553,2.0674500465393066,-1.637624979019165
1772541314337223000,3.782222900390625,-1.3392499685287476,2.319624900817871,-1.9687249660491943
1772541314347133000,3.7921328125,-1.4265625476837158,2.5400373935699463,-2.19958758354187
1772541314357043200,3.802043212890625,-1.4755125045776367,2.7208499908447266,-2.3720123767852783
1772541314366953500,3.811953369140625,-1.5202000141143799,2.881587505340576,-2.52628755569458
1772541314376863700,3.82186376953125,-1.5467374324798584,2.9220125675201416,-2.699812412261963
1772541314386774000,3.83177392578125,-1.5520999431610107,2.7400999069213867,-2.874300003051758
1772541314396684300,3.841684326171875,-1.5626875162124634,2.517625093460083,-2.963675022125244
1772541314406594600,3.851594482421875,-1.5424749851226807,2.361150026321411,-2.970137596130371
1772541314416504600,3.861504638671875,-1.4999874830245972,2.211137533187866,-2.8967125415802
1772541314426414800,3.871414794921875,-1.3668874502182007,2.002549886703491,-2.6646125316619873
1772541314436324900,3.881324951171875,-1.0720875263214111,1.5395874977111816,-2.2422125339508057
1772541314446235400,3.8912353515625,-0.6496874690055847,0.6786999702453613,-1.6984000205993652
1772541314456145400,3.9011455078125,-0.2069374918937683,-0.1237500011920929,-1.1768624782562256
1772541314466055700,3.9110556640625,0.16128750145435333,-0.2737624943256378,-0.8640499711036682
1772541314475966000,3.920966064453125,0.4731374979019165,0.45938751101493835,-0.6543624997138977
1772541314485876200,3.930876220703125,0.6837875247001648,1.4693249464035034,-0.4553999900817871
1772541314495786500,3.940786376953125,0.738099992275238,2.0333499908447266,-0.32120001316070557
1772541314505696800,3.95069677734375,0.6976749897003174,2.1312499046325684,-0.27761250734329224
1772541314515606800,3.960606689453125,0.544362485408783,2.1408751010894775,-0.22866250574588776
1772541314525517300,3.970517333984375,0.3581874966621399,2.0781750679016113,-0.19030000269412994
1772541314535427300,3.98042724609375,0.1527625024318695,1.9514000415802002,-0.22123749554157257
1772541314545337600,3.990337646484375,-0.10477499663829803,1.7822749614715576,-0.4105750024318695
1772541314555247900,4.000247802734375,-0.43037500977516174,1.4331624507904053,-0.7235249876976013
1772541314565158000,4.010157958984375,-0.7815499901771545,0.8457624912261963,-0.9426999688148499
1772541314575068400,4.020068359375,-1.0019625425338745,0.1358499974012375,-0.9257875084877014
1772541314584978400,4.029978515625,-1.1243374347686768,-0.5026999711990356,-0.7585874795913696
1772541314594888700,4.039888671875,-1.2083499431610107,-0.936787486076355,-0.6000499725341797
1772541314604799000,4.049799072265625,-1.1998250484466553,-1.1444125175476074,-0.5075125098228455
1772541314614709200,4.059709228515625,-1.0646624565124512,-1.1592625379562378,-0.5064125061035156
1772541314624619300,4.069619384765625,-0.8252750039100647,-0.9475125074386597,-0.5852000117301941
1772541314634529500,4.079529541015625,-0.5517874956130981,-0.5153499841690063,-0.6947875022888184
1772541314644440000,4.089440185546875,-0.22068749368190765,-0.12911249697208405,-0.7160999774932861
1772541314654350000,4.09935009765625,0.14643749594688416,0.06462500244379044,-0.5181000232696533
1772541314664260400,4.10926025390625,0.4624125063419342,0.1391499936580658,-0.1839749962091446
1772541314674171000,4.1191708984375,0.6743000149726868,0.3998500108718872,0.13420000672340393
1772541314684081000,4.129080810546875,0.7402999997138977,0.9937124848365784,0.31831249594688416
1772541314693991000,4.138990966796875,0.6487249732017517,1.5651625394821167,0.34072500467300415
1772541314703901200,4.148901123046875,0.5380374789237976,1.6524749994277954,0.2917749881744385
1772541314713811700,4.158811767578125,0.5295125246047974,1.2469874620437622,0.296037495136261
1772541314723721700,4.1687216796875,0.6018375158309937,0.6084374785423279,0.3737249970436096
1772541314733632000,4.178632080078125,0.7284749746322632,0.05073750019073486,0.47052499651908875
1772541314743542300,4.188542236328125,0.8711999654769897,-0.13763749599456787,0.5641624927520752
1772541314753452500,4.19845263671875,1.0733250379562378,0.07095000147819519,0.6269999742507935
1772541314763362800,4.20836279296875,1.1999624967575073,0.7169250249862671,0.7345250248908997
1772541314773272800,4.21827294921875,1.2553750276565552,1.5097500085830688,1.020799994468689
1772541314783183400,4.228183349609375,1.251112461090088,1.8247624635696411,1.5773999691009521
1772541314793093400,4.23809326171875,1.2542749643325806,1.4161125421524048,2.147749900817871
1772541314803003600,4.248003662109375,1.3745875358581543,0.453062504529953,2.419174909591675
1772541314812914200,4.2579140625,1.5107125043869019,-0.5377625226974487,2.4340250492095947
1772541314822824200,4.26782421875,1.4606624841690063,-1.0049874782562256,2.6841375827789307
1772541314832734500,4.277734375,1.3149124383926392,-0.7580375075340271,3.289687395095825
1772541314842645000,4.28764501953125,1.3330625295639038,-0.18975000083446503,3.7026000022888184
1772541314852555000,4.297554931640625,1.4660249948501587,0.37537500262260437,3.7376625537872314
1772541314862465300,4.30746533203125,1.5746500492095947,0.6872249841690063,3.4897499084472656
1772541314872375300,4.317375244140625,1.4990249872207642,0.9564499855041504,3.141737461090088
1772541314882285800,4.327285888671875,1.1882749795913696,1.5290000438690186,2.79372501373291
1772541314892195800,4.33719580078125,0.6040375232696533,2.4217875003814697,2.4904000759124756
1772541314902106000,4.347106201171875,-0.11426249891519547,3.413712501525879,2.262700080871582
1772541314912016600,4.3570166015625,-0.6326375007629395,4.140537261962891,2.1212124824523926
1772541314921926700,4.3669267578125,-0.7006999850273132,4.3109002113342285,1.9988374710083008
1772541314931837000,4.3768369140625,-0.24736249446868896,3.868149995803833,1.79135000705719
1772541314941747200,4.386747314453125,0.6316750049591064,3.227400064468384,1.5849624872207642
1772541314951657500,4.396657470703125,1.6895999908447266,2.591049909591675,1.4518624544143677
1772541314961567700,4.406567626953125,2.6963748931884766,1.7342875003814697,1.5210249423980713
1772541314971478000,4.41647802734375,3.4018874168395996,0.8105624914169312,1.7455624341964722
1772541314981388300,4.42638818359375,3.5072124004364014,-0.1652749925851822,1.9828875064849854
1772541314991298800,4.436298828125,3.1508123874664307,-1.0847375392913818,2.2415249347686768
1772541315001209000,4.446208984375,2.633537530899048,-1.6572874784469604,2.511849880218506
1772541315011118800,4.456118896484375,2.0971500873565674,-1.7648124694824219,2.791800022125244
1772541315021029400,4.466029296875,1.6491750478744507,-1.4062124490737915,2.96628737449646
1772541315030939400,4.475939453125,1.360700011253357,-0.9708874821662903,3.0046498775482178
1772541315040850000,4.485849853515625,1.1787874698638916,-0.5781875252723694,2.8982250690460205
1772541315050760000,4.495760009765625,1.0510499477386475,-0.35791251063346863,2.6692874431610107
1772541315060670200,4.505670166015625,0.9829875230789185,-0.37070000171661377,2.3458874225616455
1772541315070580500,4.51558056640625,0.978725016117096,-0.3217499852180481,2.040362596511841
1772541315080490800,4.52549072265625,1.0148874521255493,-0.20363749563694,1.8062000274658203
1772541315090401000,4.535401123046875,1.034000039100647,-0.05142499879002571,1.61576247215271
1772541315100311300,4.545311279296875,1.0202499628067017,0.10078749805688858,1.4220249652862549
1772541315110221600,4.5552216796875,0.9552124738693237,0.1859000027179718,1.2082124948501587
1772541315120131800,4.5651318359375,0.829675018787384,0.20074999332427979,0.9612625241279602
1772541315130042000,4.5750419921875,0.6136624813079834,0.09542500227689743,0.7079874873161316
1772541315139952400,4.584952392578125,0.3806000053882599,-0.014162499457597733,0.4643374979496002
1772541315149862700,4.594862548828125,0.1825999915599823,-0.01732499897480011,0.22055000066757202
1772541315159773000,4.60477294921875,-0.004674999974668026,0.09652499854564667,-0.003987499978393316
1772541315169683200,4.61468310546875,-0.21642500162124634,0.23058749735355377,-0.20624999701976776
1772541315179593200,4.62459326171875,-0.33880001306533813,0.3540624976158142,-0.39668750762939453
1772541315189503500,4.63450341796875,-0.31652501225471497,0.44123750925064087,-0.5457375049591064
1772541315199413800,4.644413818359375,-0.2303124964237213,0.5392749905586243,-0.6786999702453613
1772541315209324000,4.654323974609375,-0.12815000116825104,0.7148625254631042,-0.8511250019073486
1772541315219234300,4.664234375,-0.08552499860525131,0.865975022315979,-1.0650750398635864
1772541315229144300,4.674144287109375,-0.1685750037431717,0.9946749806404114,-1.294837474822998
1772541315239054800,4.684054931640625,-0.46543750166893005,1.0096625089645386,-1.5386250019073486
1772541315248965000,4.693965087890625,-0.9795500040054321,0.7584499716758728,-1.8482749462127686
1772541315258875400,4.70387548828125,-1.549899935722351,0.3051125109195709,-2.1781375408172607
1772541315268785700,4.71378564453125,-2.0703375339508057,0.08689999580383301,-2.0674500465393066
1772541315278695700,4.72369580078125,-2.5088250637054443,0.13048750162124634,-1.032075047492981
1772541315288606000,4.73360595703125,-2.6577374935150146,0.7478625178337097,-0.6115999817848206
1772541315298516200,4.74351611328125,-2.2001373767852783,2.2046749591827393,-1.9771125316619873
1772541315308426500,4.753426513671875,-1.9394375085830688,3.569087505340576,-3.4051873683929443
1772541315318336800,4.763336669921875,-2.5460875034332275,4.802462577819824,-2.634774923324585
1772541315328247000,4.7732470703125,-3.4058749675750732,4.52581262588501,-0.9436625242233276
1772541315338157300,4.7831572265625,-3.3070125579833984,2.1058125495910645,-1.0522874593734741
1772541315348067300,4.7930673828125,-2.0501248836517334,0.49665001034736633,-0.9926124811172485
1772541315357977900,4.802977783203125,-0.9389874935150146,0.5148000121116638,-0.38183748722076416
1772541315367888100,4.81288818359375,-0.5803874731063843,0.8733999729156494,-0.30937498807907104
1772541315377798100,4.822798095703125,-0.8646000027656555,1.024512529373169,-0.7052375078201294
1772541315387708700,4.832708740234375,-1.5595250129699707,0.9638749957084656,-1.1895124912261963
1772541315397618700,4.84261865234375,-2.257612466812134,1.0586124658584595,-1.4055249691009521
1772541315407529000,4.852529052734375,-2.69073748588562,1.3714250326156616,-1.471524953842163
1772541315417439500,4.862439453125,-2.8557374477386475,1.6715874671936035,-1.4917374849319458
1772541315427349500,4.872349609375,-2.836625099182129,1.815274953842163,-1.3938374519348145
1772541315437259800,4.882259765625,-2.7109498977661133,1.6736500263214111,-1.228837490081787
1772541315447170000,4.892170166015625,-2.4726624488830566,1.2223750352859497,-1.015025019645691
1772541315457080300,4.902080322265625,-2.034174919128418,0.8500249981880188,-0.7766000032424927
1772541315466990600,4.911990478515625,-1.6754374504089355,0.829675018787384,-0.6234250068664551
1772541315476900600,4.921900634765625,-1.5350500345230103,0.9926124811172485,-0.6084374785423279
1772541315486811100,4.93181103515625,-1.5541625022888184,0.9851874709129333,-0.6755374670028687
1772541315496721400,4.941721435546875,-1.6031124591827393,0.7126625180244446,-0.7797625064849854
1772541315506631700,4.951631591796875,-1.5871624946594238,0.3817000091075897,-0.8915500044822693
1772541315516542000,4.9615419921875,-1.454200029373169,0.3008500039577484,-0.9735000133514404
1772541315526452000,4.971451904296875,-1.2263624668121338,0.5561875104904175,-1.0139249563217163
1772541315536362200,4.9813623046875,-0.9550749659538269,0.9605749845504761,-1.0745625495910645
1772541315546272300,4.991272216796875,-0.693274974822998,1.193774938583374,-1.1863499879837036
1772541315556182800,5.001182861328125,-0.44632500410079956,1.3085875511169434,-1.2438249588012695
1772541315566093000,5.011093017578125,-0.2143625020980835,1.3725249767303467,-1.2171499729156494
1772541315576003300,5.02100341796875,-0.050462499260902405,1.302262544631958,-1.1735625267028809
1772541315585913600,5.03091357421875,-0.018562499433755875,1.0905125141143799,-1.135200023651123
1772541315595823600,5.04082373046875,-0.08978749811649323,0.8595125079154968,-1.0884499549865723
1772541315605734000,5.05073388671875,-0.22921249270439148,0.6850249767303467,-1.0224499702453613
1772541315615644200,5.06064404296875,-0.3452624976634979,0.5999125242233276,-0.9362375140190125
1772541315625554400,5.070554443359375,-0.4090625047683716,0.6136624813079834,-0.8414999842643738
1772541315635464700,5.080464599609375,-0.4622749984264374,0.6807624697685242,-0.7159624695777893
1772541315645375000,5.090375,-0.5016000270843506,0.7712374925613403,-0.5819000005722046
1772541315655285200,5.10028515625,-0.5368000268936157,0.9690999984741211,-0.504212498664856
1772541315665195300,5.1101953125,-0.5154874920845032,1.2905750274658203,-0.4721750020980835
1772541315675105500,5.12010546875,-0.41222500801086426,1.388474941253662,-0.39668750762939453
1772541315685015800,5.130015869140625,-0.2952125072479248,1.202162504196167,-0.2615250051021576
1772541315694926000,5.139926025390625,-0.19731250405311584,0.8999375104904175,-0.14231249690055847
1772541315704836400,5.14983642578125,-0.0387750007212162,0.634975016117096,-0.08483749628067017
1772541315714746600,5.15974658203125,0.1933249980211258,0.6115999817848206,-0.0859375
1772541315724657000,5.169656982421875,0.48276248574256897,1.0500874519348145,-0.09019999951124191
1772541315734567200,5.179567138671875,0.8009374737739563,1.6226375102996826,-0.1508374959230423
1772541315744477200,5.189477294921875,1.0414249897003174,1.9226624965667725,-0.28600001335144043
1772541315754387700,5.1993876953125,0.9542499780654907,1.796025037765503,-0.2125750035047531
1772541315764297700,5.209297607421875,0.7710999846458435,1.4917374849319458,0.17476250231266022
1772541315774208000,5.2192080078125,0.7466250061988831,1.4544750452041626,0.7558375000953674
1772541315784118300,5.2291181640625,0.7732999920845032,1.7652249336242676,1.0879000425338745
1772541315794028500,5.239028564453125,0.6774625182151794,2.4824249744415283,0.6175125241279602
1772541315803938800,5.248938720703125,0.6199874877929688,2.486687421798706,-0.19236250221729279
1772541315813848800,5.258848876953125,0.9594749808311462,0.9840874671936035,-0.2763749957084656
1772541315823759400,5.26875927734375,1.353274941444397,-1.0507750511169434,0.14602500200271606
1772541315833669400,5.27866943359375,1.4320625066757202,-2.626800060272217,0.5696625113487244
1772541315843579600,5.28857958984375,1.1873124837875366,-3.451662540435791,0.8984249830245972
1772541315853490200,5.298490234375,0.7764624953269958,-3.479300022125244,1.2751749753952026
1772541315863400400,5.308400390625,0.3049750030040741,-2.7599000930786133,1.6658124923706055
1772541315873310500,5.318310546875,-0.05472499877214432,-1.5424749851226807,1.9446624517440796
1772541315883220700,5.328220703125,-0.24310000240802765,-0.48028749227523804,2.174424886703491
1772541315893131000,5.338131103515625,-0.32711249589920044,0.3583250045776367,2.384112596511841
1772541315903041000,5.348041015625,-0.3686375021934509,1.1639374494552612,2.543750047683716
1772541315912951300,5.357951416015625,-0.3217499852180481,2.1067750453948975,2.706549882888794
1772541315922861800,5.36786181640625,-0.1153625026345253,3.1519124507904053,2.765125036239624
1772541315932771800,5.377771728515625,0.3198249936103821,4.204474925994873,2.6617250442504883
1772541315942682000,5.38768212890625,0.9733625054359436,5.145249843597412,2.1499500274658203
1772541315952592400,5.39759228515625,1.4107500314712524,5.477174758911133,1.0675499439239502
1772541315962502700,5.407502685546875,1.6202999353408813,5.11541223526001,-0.013612499460577965
1772541315972413000,5.417412841796875,1.8490999937057495,3.871312379837036,-0.4745124876499176
1772541315982323200,5.4273232421875,2.032249927520752,2.111037492752075,-0.27871251106262207
1772541315992233200,5.437233154296875,2.101412534713745,0.1508374959230423,0.16403749585151672
1772541316002143700,5.447143798828125,2.165212392807007,-1.539175033569336,0.6290624737739563
1772541316012053800,5.4570537109375,2.2738375663757324,-2.518312454223633,1.0888625383377075
1772541316021964000,5.466964111328125,2.5174875259399414,-2.4927375316619873,1.7422624826431274
1772541316031874000,5.4768740234375,2.91444993019104,-1.1996874809265137,2.7746124267578125
1772541316041784600,5.48678466796875,3.206087589263916,0.25616249442100525,3.6642374992370605
1772541316051694800,5.49669482421875,2.7388625144958496,-0.09184999763965607,3.7014999389648438
1772541316061604900,5.50660498046875,1.9800000190734863,-1.893512487411499,3.0736749172210693
1772541316071515400,5.516515380859375,1.444712519645691,-3.046175003051758,2.336124897003174
1772541316081425400,5.52642529296875,1.1712249517440796,-2.5480124950408936,2.002000093460083
1772541316091335700,5.536335693359375,1.0733250379562378,-1.6275874376296997,1.9838500022888184
1772541316101246000,5.546245849609375,1.0328999757766724,-1.038949966430664,2.0350000858306885
1772541316111156000,5.556156005859375,1.0115875005722046,-0.9486125111579895,2.0327999591827393
1772541316121066500,5.56606640625,1.0126874446868896,-1.1816749572753906,1.9221124649047852
1772541316130976500,5.5759765625,1.0414249897003174,-1.4019500017166138,1.7124249935150146
1772541316140886800,5.58588671875,1.0010000467300415,-1.3285249471664429,1.4687750339508057
1772541316150797000,5.595797119140625,0.905162513256073,-0.7867749929428101,1.179337501525879
1772541316160707300,5.605707275390625,0.7158250212669373,0.0635249987244606,0.7908999919891357
1772541316170617600,5.61561767578125,0.4071374833583832,0.7137625217437744,0.2886124849319458
1772541316180527600,5.625527587890625,0.03891250118613243,0.9702000021934509,-0.2690874934196472
1772541316190438000,5.63543798828125,-0.36973750591278076,0.6956124901771545,-0.7246249914169312
1772541316200348200,5.64534814453125,-0.6730625033378601,0.3870624899864197,-1.0289125442504883
1772541316210258400,5.655258544921875,-0.8178499937057495,0.3114374876022339,-1.2736624479293823
1772541316220168700,5.665168701171875,-0.9114875197410583,0.2784374952316284,-1.5280375480651855
1772541316230079000,5.675078857421875,-1.0518749952316284,-0.08758749812841415,-1.8005625009536743
1772541316239989200,5.6849892578125,-1.2678874731063843,-0.6580749750137329,-1.9921000003814697
1772541316249899300,5.694899169921875,-1.5808374881744385,-0.9453125,-1.8537750244140625
1772541316259809500,5.7048095703125,-1.908637523651123,-0.6857125163078308,-1.6333625316619873
1772541316269719800,5.7147197265625,-2.2416625022888184,0.2498375028371811,-1.5472874641418457
1772541316279630000,5.724630126953125,-2.496037483215332,1.3001999855041504,-2.036787509918213
1772541316289540400,5.734540283203125,-2.6493499279022217,1.117050051689148,-3.2734625339508057
1772541316299450600,5.74445068359375,-3.0569000244140625,1.5779500007629395,-3.4649999141693115
1772541316309360600,5.754360595703125,-3.6880249977111816,2.637937545776367,-2.741337537765503
1772541316319270700,5.764270751953125,-4.261674880981445,2.5090999603271484,-2.435812473297119
1772541316329181200,5.77418115234375,-3.9455623626708984,1.4055249691009521,-2.1389498710632324
1772541316339091500,5.784091552734375,-2.242762565612793,0.3147374987602234,-1.0746999979019165
1772541316349001500,5.79400146484375,-0.43779999017715454,-0.3152875006198883,-0.30098751187324524
1772541316358911700,5.803911865234375,0.19222499430179596,-0.8294000029563904,-0.27018749713897705
1772541316368822000,5.813822021484375,-0.11962500214576721,-0.9378874897956848,-0.4637874960899353
1772541316378732300,5.823732177734375,-0.8944374918937683,-0.6547750234603882,-0.7490999698638916
1772541316388642600,5.833642578125,-1.7043124437332153,-0.15895000100135803,-1.041700005531311
1772541316398552600,5.843552490234375,-2.262974977493286,0.14973749220371246,-1.217287540435791
1772541316408462800,5.853462890625,-2.3034000396728516,-0.06311249732971191,-0.9970124959945679
1772541316418373000,5.863373046875,-1.8244874477386475,-0.4355999827384949,-0.4105750024318695
1772541316428283400,5.873283447265625,-1.2913999557495117,-0.41222500801086426,-0.009487500414252281
1772541316438193700,5.883193603515625,-1.0976624488830566,-0.033275000751018524,-0.07644999772310257
1772541316448104000,5.89310400390625,-1.0433499813079834,0.23594999313354492,-0.31693750619888306
1772541316458014000,5.903013916015625,-0.952875018119812,0.30717501044273376,-0.6065124869346619
1772541316467924200,5.91292431640625,-0.805062472820282,0.2508000135421753,-0.8533250093460083
1772541316477834500,5.92283447265625,-0.6155874729156494,0.20611250400543213,-1.0363374948501587
1772541316487744500,5.93274462890625,-0.40700000524520874,0.21463750302791595,-1.1790624856948853
1772541316497655000,5.942655029296875,-0.21546250581741333,0.21889999508857727,-1.2716000080108643
1772541316507565000,5.95256494140625,-0.09624999761581421,0.18383750319480896,-1.2471250295639038
1772541316517475300,5.962475341796875,-0.08978749811649323,0.062424998730421066,-1.1449625492095947
1772541316527385600,5.972385498046875,-0.15056249499320984,-0.0705375000834465,-1.0363374948501587
1772541316537295600,5.982295654296875,-0.2579500079154968,-0.14506250619888306,-0.9831249713897705
1772541316547206100,5.9922060546875,-0.3793624937534332,-0.18232500553131104,-1.006637454032898
1772541316557116200,6.0021162109375,-0.49431249499320984,-0.2535499930381775,-1.0566874742507935
1772541316567026400,6.0120263671875,-0.5805249810218811,-0.3536500036716461,-1.0778625011444092
1772541316576936700,6.021936767578125,-0.5953750014305115,-0.4174500107765198,-1.0459624528884888
1772541316586846700,6.0318466796875,-0.5794249773025513,-0.5121874809265137,-0.977899968624115
1772541316596757000,6.041757080078125,-0.5644375085830688,-0.6654999852180481,-0.9235875010490417
1772541316606667300,6.051667236328125,-0.5549499988555908,-0.768762469291687,-0.9054374694824219
1772541316616577500,6.06157763671875,-0.5475249886512756,-0.7229750156402588,-0.9257875084877014
1772541316626487600,6.071487548828125,-0.508062481880188,-0.4834499955177307,-0.9448999762535095
1772541316636397800,6.081397705078125,-0.4101625084877014,-0.3078624904155731,-0.8342124819755554
1772541316646308000,6.09130810546875,-0.28888750076293945,-0.1652749925851822,-0.7096375226974487
1772541316656218400,6.10121826171875,-0.17077499628067017,-0.11426249891519547,-0.7702749967575073
1772541316666128600,6.111128662109375,-0.010037500411272049,0.09542500227689743,-0.8481000065803528
1772541316676038700,6.12103857421875,0.09844999760389328,0.5157625079154968,-0.8650124669075012
1772541316685949000,6.130948974609375,0.1069749966263771,0.7936499714851379,-0.7830625176429749
1772541316695859200,6.140859130859375,0.17201249301433563,0.6190249919891357,-0.5479375123977661
1772541316705769500,6.15076953125,0.3772999942302704,0.20074999332427979,-0.24777500331401825
1772541316715679500,6.160679443359375,0.5784624814987183,-0.09501250088214874,0.0789249986410141
1772541316725589800,6.17058984375,0.7338374853134155,-0.13337500393390656,0.4067249894142151
1772541316735500000,6.1805,0.8328375220298767,0.04221250116825104,0.6802124977111816
1772541316745410000,6.19041015625,0.8775249719619751,0.25189998745918274,0.8430125117301941
1772541316755320300,6.2003203125,0.8083624839782715,0.4955500066280365,0.8216999769210815
1772541316765230600,6.210230712890625,0.7039999961853027,0.7052375078201294,0.5035250186920166
1772541316775140900,6.220140869140625,0.7935125231742859,0.4945875108242035,0.13750000298023224
1772541316785051100,6.230051025390625,1.0627374649047852,-0.2993375062942505,0.008662499487400055
1772541316794961200,6.239961181640625,1.1786500215530396,-1.203950047492981,0.08318749815225601
1772541316804871400,6.249871337890625,1.0063624382019043,-1.9084999561309814,0.26840001344680786
1772541316814781400,6.259781494140625,0.6763625144958496,-2.2873125076293945,0.4961000084877014
1772541316824691700,6.269691650390625,0.3656125068664551,-2.27878737449646,0.7621625065803528
1772541316834602000,6.27960205078125,0.14327499270439148,-1.9617124795913696,1.0527000427246094
1772541316844512300,6.28951220703125,-0.02488750033080578,-1.5849624872207642,1.3410375118255615
1772541316854422500,6.299422607421875,-0.1835625022649765,-1.2252625226974487,1.6571500301361084
1772541316864332500,6.30933251953125,-0.2983750104904175,-0.7548750042915344,2.0114874839782715
1772541316874242800,6.319242919921875,-0.26647499203681946,-0.06943749636411667,2.439387559890747
1772541316884152800,6.32915283203125,-0.05472499877214432,0.8680375218391418,2.9310874938964844
1772541316894063400,6.3390634765625,0.3348124921321869,2.0642874240875244,3.252424955368042
1772541316903973400,6.348973388671875,0.9190499782562256,3.4157750606536865,3.329012393951416
1772541316913883600,6.358883544921875,1.6278624534606934,5.018612384796143,3.0076749324798584
1772541316923794000,6.3687939453125,2.150362491607666,6.051925182342529,2.0327999591827393
1772541316933704000,6.378703857421875,2.24399995803833,5.7389750480651855,0.4162124991416931
1772541316943614200,6.3886142578125,2.000349998474121,4.185225009918213,-0.8607500195503235
1772541316953524200,6.398524169921875,1.7608250379562378,2.3346123695373535,-0.9374749660491943
1772541316963434500,6.4084345703125,1.7704499959945679,0.5424374938011169,-0.1200374960899353
1772541316973344800,6.4183447265625,1.7991875410079956,-1.095462441444397,0.7430499792098999
1772541316983255000,6.428255126953125,1.806612491607666,-2.5161125659942627,1.399612545967102
1772541316993165000,6.4381650390625,1.9130375385284424,-3.396250009536743,2.015749931335449
1772541317003075300,6.448075439453125,2.2812623977661133,-3.1461374759674072,2.8788375854492188
1772541317012985600,6.457985595703125,2.7835500240325928,-1.7850250005722046,3.9931373596191406
1772541317022895600,6.4678955078125,2.776124954223633,-0.9145125150680542,4.573112487792969
1772541317032806000,6.477805908203125,2.354687452316284,-1.5710749626159668,3.9951999187469482
1772541317042716000,6.4877158203125,1.9428750276565552,-3.1611249446868896,2.4861373901367188
1772541317052626400,6.49762646484375,1.5299625396728516,-3.518625020980835,1.5273499488830566
1772541317062536400,6.507536376953125,1.2489124536514282,-2.840749979019165,1.3304499387741089
1772541317072446700,6.51744677734375,1.1254374980926514,-1.8871874809265137,1.616724967956543
1772541317082357000,6.52735693359375,1.128737449645996,-1.1900625228881836,2.063737392425537
1772541317092267000,6.53726708984375,1.1797499656677246,-0.9868375062942505,2.3787500858306885
1772541317102177500,6.547177490234375,1.1862125396728516,-1.0602624416351318,2.3787500858306885
1772541317112087300,6.55708740234375,1.1638000011444092,-1.1911624670028687,2.0424249172210693
1772541317121997800,6.566997802734375,1.0658999681472778,-1.1092125177383423,1.5538874864578247
1772541317131907800,6.576907958984375,0.9435250163078308,-0.7474499940872192,1.1378124952316284
1772541317141818000,6.586818115234375,0.8137249946594238,-0.28558748960494995,0.817437469959259
1772541317151728400,6.596728271484375,0.5784624814987183,0.02199999988079071,0.4758875072002411
1772541317161638400,6.606638427734375,0.2964499890804291,0.03698749840259552,0.06407500058412552
1772541317171548700,6.616548583984375,-0.03987500071525574,-0.050324998795986176,-0.3988874852657318
1772541317181458700,6.626458740234375,-0.3558500111103058,-0.03973750025033951,-0.8447999954223633
1772541317191369000,6.636368896484375,-0.6294749975204468,0.18383750319480896,-1.266237497329712
1772541317201279000,6.646279052734375,-0.813587486743927,0.6892874836921692,-1.6739250421524048
1772541317211189500,6.656189453125,-0.9337624907493591,1.3895750045776367,-2.1528375148773193
1772541317221099300,6.666099365234375,-1.0678249597549438,1.8397499322891235,-2.779562473297119
1772541317231009800,6.676009765625,-1.289199948310852,1.8365875482559204,-3.1807875633239746
1772541317240919800,6.685919921875,-1.521299958229065,2.068549871444702,-2.876499891281128
1772541317250830000,6.695830078125,-1.5956875085830688,2.649625062942505,-1.8856749534606934
1772541317260740400,6.705740234375,-1.6021499633789062,2.2834625244140625,-1.6057250499725342
1772541317270650400,6.715650390625,-1.9958125352859497,0.9169874787330627,-2.0091500282287598
1772541317280560600,6.725560546875,-2.7993624210357666,0.27953749895095825,-2.3432750701904297
1772541317290470700,6.735470703125,-3.7273499965667725,1.1576124429702759,-2.2719125747680664
1772541317300381200,6.745381103515625,-4.45101261138916,1.797124981880188,-2.432650089263916
1772541317310291200,6.755291259765625,-4.024350166320801,1.6268999576568604,-2.171950101852417
1772541317320201500,6.765201416015625,-2.3651375770568848,0.4402749836444855,-1.375825047492981
1772541317330111500,6.775111572265625,-0.84232497215271,-0.6984999775886536,-0.7149999737739563
1772541317340021800,6.785021728515625,-0.22398750483989716,-0.9751499891281128,-0.4138749837875366
1772541317349932000,6.79493212890625,-0.38788750767707825,-0.8101499676704407,-0.4904625117778778
1772541317359842000,6.804842041015625,-1.019974946975708,-0.5271750092506409,-0.7341125011444092
1772541317369752300,6.81475244140625,-1.808537483215332,-0.13227500021457672,-1.098075032234192
1772541317379662600,6.82466259765625,-2.4012999534606934,0.15606249868869781,-1.450350046157837
1772541317389572600,6.834572509765625,-2.54182505607605,0.09336250275373459,-1.6174124479293823
1772541317399483000,6.84448291015625,-2.1927125453948975,-0.04922499880194664,-1.350387454032898
1772541317409393000,6.854392822265625,-1.5159374475479126,-0.15674999356269836,-0.7331500053405762
1772541317419303200,6.86430322265625,-1.0136499404907227,0.08910000324249268,-0.3606624901294708
1772541317429213200,6.874213134765625,-0.7741249799728394,0.35199999809265137,-0.32766249775886536
1772541317439123700,6.884123779296875,-0.7134875059127808,0.3232625126838684,-0.3712500035762787
1772541317449033700,6.89403369140625,-0.7837499976158142,0.15399999916553497,-0.49678748846054077
1772541317458944000,6.903944091796875,-0.8922374844551086,-0.03231250122189522,-0.706475019454956
1772541317468854300,6.913854248046875,-0.9114875197410583,-0.1120624989271164,-0.940637469291687
1772541317478764300,6.923764404296875,-0.8188124895095825,-0.04922499880194664,-1.1236499547958374
1772541317488674600,6.933674560546875,-0.6294749975204468,0.03698749840259552,-1.2226500511169434
1772541317498584600,6.94358447265625,-0.39957499504089355,-0.050324998795986176,-1.265275001525879
1772541317508494800,6.953494873046875,-0.20473749935626984,-0.22481249272823334,-1.2204500436782837
1772541317518404900,6.96340478515625,-0.08978749811649323,-0.3844499886035919,-1.165174961090088
1772541317528315100,6.973315185546875,-0.06641250103712082,-0.41538751125335693,-1.1588499546051025
1772541317538225400,6.983225341796875,-0.13461250066757202,-0.34622499346733093,-1.2066999673843384
1772541317548135400,6.993135498046875,-0.26221248507499695,-0.28984999656677246,-1.2897499799728394
1772541317558045700,7.003045654296875,-0.3760625123977661,-0.15468749403953552,-1.3311375379562378
1772541317567955700,7.012955810546875,-0.4175874888896942,-0.013062499463558197,-1.301437497138977
1772541317577866000,7.022865966796875,-0.4548499882221222,-0.059950001537799835,-1.1885499954223633
1772541317587776000,7.03277587890625,-0.4474250078201294,-0.3536500036716461,-1.0715374946594238
1772541317597686300,7.042686279296875,-0.4292750060558319,-0.7378249764442444,-1.006637454032898
1772541317607596300,7.05259619140625,-0.46447500586509705,-0.9814749956130981,-0.9810624718666077
1772541317617506600,7.062506591796875,-0.49211248755455017,-0.9933000206947327,-0.9565874934196472
1772541317627416800,7.072416748046875,-0.5091624855995178,-0.8294000029563904,-0.8970500230789185
1772541317637327000,7.0823271484375,-0.5282750129699707,-0.6282374858856201,-0.7852625250816345
1772541317647236900,7.09223681640625,-0.5091624855995178,-0.45471251010894775,-0.6681125164031982
1772541317657147400,7.1021474609375,-0.4059000015258789,-0.19717499613761902,-0.5926250219345093
1772541317667057400,7.112057373046875,-0.1685750037431717,0.2498375028371811,-0.5405125021934509
1772541317676967700,7.1219677734375,0.09212499856948853,0.6340125203132629,-0.4255625009536743
1772541317686877700,7.131877685546875,0.31349998712539673,0.6275500059127808,-0.23182499408721924
1772541317696788000,7.1417880859375,0.5975750088691711,0.45416250824928284,0.004399999976158142
1772541317706698000,7.151697998046875,0.8914124965667725,0.29122498631477356,0.2864125072956085
1772541317716608300,7.161608154296875,1.0861124992370605,0.16788749396800995,0.5439500212669373
1772541317726518500,7.1715185546875,1.0861124992370605,0.1966249942779541,0.6599999666213989
1772541317736428500,7.181428466796875,0.9116249680519104,0.28600001335144043,0.5046250224113464
1772541317746338800,7.1913388671875,0.7605124711990356,0.11137499660253525,0.24172499775886536
1772541317756248800,7.201248779296875,0.895675003528595,-0.4068624973297119,0.07039999961853027
1772541317766159000,7.2111591796875,1.1169124841690063,-0.9677249789237976,0.031075000762939453
1772541317776069000,7.221069091796875,1.1712249517440796,-1.4498000144958496,0.10766249895095825
1772541317785979400,7.2309794921875,1.019012451171875,-1.7232874631881714,0.272662490606308
1772541317795889400,7.240889404296875,0.7477250099182129,-1.641337513923645,0.5003625154495239
1772541317805799700,7.250799560546875,0.4092000126838684,-1.290162444114685,0.8100125193595886
1772541317815709700,7.260709716796875,0.08470000326633453,-0.8633624911308289,1.1995500326156616
1772541317825620000,7.270619873046875,-0.2143625020980835,-0.4973374903202057,1.6454625129699707
1772541317835530200,7.2805302734375,-0.5154874920845032,-0.19717499613761902,2.1221749782562256
1772541317845440300,7.290440185546875,-0.7475875020027161,0.10078749805688858,2.5458123683929443
1772541317855350500,7.3003505859375,-0.7646374702453613,0.49348750710487366,2.804450035095215
1772541317865260500,7.310260498046875,-0.5475249886512756,0.8307750225067139,2.8617875576019287
1772541317875170800,7.3201708984375,-0.2186249941587448,1.051187515258789,2.700087547302246
1772541317885080800,7.330080810546875,0.24543750286102295,1.395900011062622,2.579775094985962
1772541317894991000,7.3399912109375,0.8934749960899353,2.412299871444702,2.5777125358581543
1772541317904901000,7.349901123046875,1.4085500240325928,3.625462532043457,2.390437602996826
1772541317914811400,7.359811279296875,1.639549970626831,4.067112445831299,1.859412431716919
1772541317924721400,7.369721435546875,1.5670875310897827,3.6297249794006348,1.0729124546051025
1772541317934631700,7.379631591796875,1.211650013923645,3.0742249488830566,0.4492124915122986
1772541317944542000,7.3895419921875,0.9605749845504761,2.3079373836517334,0.5120499730110168
1772541317954452000,7.399451904296875,0.9370625019073486,1.6608624458312988,1.0654875040054321
1772541317964362200,7.4093623046875,1.0881749391555786,1.1235125064849854,1.7859874963760376
1772541317974272300,7.419272216796875,1.4064874649047852,0.17957499623298645,2.520237445831299
1772541317984182500,7.4291826171875,1.8183000087738037,-1.2529000043869019,3.029949903488159
1772541317994092500,7.439092529296875,2.25362491607666,-2.2841498851776123,3.1673123836517334
1772541318004002800,7.4490029296875,2.6324374675750732,-2.3436875343322754,3.183262586593628
1772541318013913000,7.4589130859375,2.691012382507324,-1.8436000347137451,3.072575092315674
1772541318023823000,7.468822998046875,2.3237500190734863,-1.9467250108718872,2.4851748943328857
1772541318033733000,7.478733154296875,1.8959875106811523,-2.510887384414673,1.7294750213623047
1772541318043643400,7.488643310546875,1.5841374397277832,-2.435262441635132,1.366612434387207
1772541318053553700,7.4985537109375,1.3681249618530273,-1.790387511253357,1.441137433052063
1772541318063463700,7.508463623046875,1.2383249998092651,-1.179474949836731,1.784887433052063
1772541318073374000,7.5183740234375,1.154175043106079,-0.9592000246047974,2.1850125789642334
1772541318083284000,7.528283935546875,1.0722249746322632,-1.0528374910354614,2.431962490081787
1772541318093194200,7.5381943359375,1.0308375358581543,-1.1401499509811401,2.383012533187866
1772541318103104300,7.548104248046875,0.9882124662399292,-1.0422500371932983,2.0381624698638916
1772541318113014500,7.5580146484375,0.9062625169754028,-0.7804499864578247,1.5443999767303467
1772541318122924500,7.567924560546875,0.8137249946594238,-0.43876248598098755,1.1463375091552734
1772541318132834800,7.577834716796875,0.7115625143051147,-0.20996250212192535,0.8557999730110168
1772541318142745000,7.5877451171875,0.5933125019073486,-0.06201250106096268,0.5598999857902527
1772541318152655000,7.597655029296875,0.4624125063419342,-0.0705375000834465,0.1821874976158142
1772541318162565000,7.607565185546875,0.23471249639987946,-0.2685374915599823,-0.23828749358654022
1772541318172475400,7.617475341796875,-0.004674999974668026,-0.3632749915122986,-0.6947875022888184
1772541318182385400,7.627385498046875,-0.18136249482631683,-0.3217499852180481,-1.0683749914169312
1772541318192295700,7.637295654296875,-0.27719998359680176,-0.029012499377131462,-1.366337537765503
1772541318202206000,7.6472060546875,-0.30057498812675476,0.5370749831199646,-1.6696624755859375
1772541318212116200,7.6571162109375,-0.32615000009536743,1.2234749794006348,-2.0601625442504883
1772541318222026200,7.667026123046875,-0.44852501153945923,1.5757499933242798,-2.5464999675750732
1772541318231936500,7.6769365234375,-0.645425021648407,1.5290000438690186,-2.87223744392395
1772541318241846500,7.686846435546875,-0.9103875160217285,1.6428500413894653,-2.339012384414673
1772541318251756500,7.696756591796875,-1.1977624893188477,1.9866000413894653,-1.2258124351501465
1772541318261666800,7.706666748046875,-1.5094749927520752,1.394937515258789,-1.8728874921798706
1772541318271576800,7.716576904296875,-2.1161251068115234,0.2125750035047531,-3.2638375759124756
1772541318281487000,7.726487060546875,-3.013312578201294,0.6041749715805054,-3.387312412261963
1772541318291396900,7.73639697265625,-3.8231875896453857,1.8471750020980835,-2.7391374111175537
1772541318301307400,7.746307373046875,-4.339362621307373,2.5432000160217285,-2.4752750396728516
1772541318311217400,7.756217529296875,-3.826349973678589,2.2537624835968018,-1.8834749460220337
1772541318321127700,7.766127685546875,-2.092750072479248,0.9574124813079834,-1.292912483215332
1772541318331037700,7.77603759765625,-0.21546250581741333,-0.4068624973297119,-0.8214250206947327
1772541318340948000,7.785947998046875,0.6103624701499939,-1.170949935913086,-0.5405125021934509
1772541318350858200,7.795858154296875,0.39118748903274536,-1.1933624744415283,-0.5872625112533569
1772541318360768300,7.805768310546875,-0.40383750200271606,-0.7825124859809875,-0.7841625213623047
1772541318370678500,7.815678466796875,-1.3275624513626099,-0.1769624948501587,-1.0023750066757202
1772541318380588300,7.82558837890625,-2.031012535095215,0.421162486076355,-1.2790249586105347
1772541318390498600,7.83549853515625,-2.3810875415802,0.6956124901771545,-1.5131875276565552
1772541318400408600,7.84540869140625,-2.368299961090088,0.6297500133514404,-1.611087441444397
1772541318410318800,7.85531884765625,-2.023587465286255,0.30195000767707825,-1.5163500308990479
1772541318420228900,7.865228759765625,-1.5244624614715576,-0.0013749999925494194,-1.2694000005722046
1772541318430139100,7.87513916015625,-1.1679250001907349,-0.06201250106096268,-0.9927499890327454
1772541318440049200,7.885049072265625,-0.9923374652862549,0.03368749842047691,-0.8310499787330627
1772541318449959400,7.89495947265625,-0.9539750218391418,0.1975875049829483,-0.8438374996185303
1772541318459869400,7.904869384765625,-0.9402250051498413,0.3156999945640564,-1.0109000205993652
1772541318469779700,7.91477978515625,-0.8762875199317932,0.40094998478889465,-1.2630749940872192
1772541318479689700,7.924689697265625,-0.7475875020027161,0.4838624894618988,-1.5291374921798706
1772541318489600000,7.93460009765625,-0.5836874842643738,0.5040749907493591,-1.7388249635696411
1772541318499510000,7.944510009765625,-0.3964124917984009,0.3657499849796295,-1.813349962234497
1772541318509420300,7.954420166015625,-0.2069374918937683,0.18700000643730164,-1.7642624378204346
1772541318519330300,7.964330322265625,-0.08882500231266022,0.116737499833107,-1.6654000282287598
1772541318529240300,7.974240234375,-0.08236250281333923,0.052937500178813934,-1.551550030708313
1772541318539150600,7.984150634765625,-0.15578749775886536,-0.0471624992787838,-1.4280749559402466
1772541318549060600,7.994060546875,-0.28146249055862427,-0.1387374997138977,-1.2897499799728394
1772541318558971000,8.003970947265625,-0.41552498936653137,-0.20143750309944153,-1.1588499546051025
1772541318568881000,8.013880859375,-0.49431249499320984,-0.28654998540878296,-1.0800625085830688
1772541318578791200,8.023791259765625,-0.49004998803138733,-0.3951750099658966,-1.0203875303268433
1772541318588701200,8.033701171875,-0.4772624969482422,-0.5355625152587891,-0.949162483215332
1772541318598611500,8.043611572265625,-0.5006374716758728,-0.7176125049591064,-0.8777999877929688
1772541318608521500,8.053521484375,-0.5389999747276306,-0.8016250133514404,-0.8438374996185303
1772541318618431700,8.063431640625,-0.5549499988555908,-0.8464499711990356,-0.8160625100135803
1772541318628341800,8.073341796875,-0.5421624779701233,-0.8474124670028687,-0.7607874870300293
1772541318638252000,8.083251953125,-0.4867500066757202,-0.7378249764442444,-0.7288874983787537
1772541318648162000,8.093162109375,-0.4166249930858612,-0.4856500029563904,-0.7309499979019165
1772541318658072000,8.103072021484374,-0.32394999265670776,-0.24296249449253082,-0.7778375148773193
1772541318667982000,8.112982177734375,-0.11110000312328339,-0.08332499861717224,-0.8245875239372253
1772541318677892400,8.122892333984375,0.1634874939918518,0.1551000028848648,-0.7958499789237976
1772541318687802400,8.13280224609375,0.3443000018596649,0.5242875218391418,-0.7192624807357788
1772541318697712600,8.142712646484375,0.4230875074863434,0.744700014591217,-0.5607249736785889
1772541318707622700,8.15262255859375,0.506137490272522,0.6978124976158142,-0.3531000018119812
1772541318717533000,8.162532958984375,0.5838249921798706,0.5530250072479248,-0.11371249705553055
1772541318727443000,8.17244287109375,0.6136624813079834,0.45512500405311584,0.16087499260902405
1772541318737353200,8.182353271484375,0.608299970626831,0.45938751101493835,0.4045250117778778
1772541318747263200,8.19226318359375,0.5816249847412109,0.5424374938011169,0.5791500210762024
1772541318757173500,8.202173583984376,0.5688375234603882,0.5924875140190125,0.668524980545044
1772541318767083500,8.21208349609375,0.6157249808311462,0.5296499729156494,0.6802124977111816
1772541318776993500,8.22199365234375,0.7402999997138977,0.3156999945640564,0.6535375118255615
1772541318786903800,8.23190380859375,0.9179499745368958,-0.02694999985396862,0.6045874953269958
1772541318796813800,8.241813720703124,1.0041625499725342,-0.40796250104904175,0.6280999779701233
1772541318806724000,8.25172412109375,0.9435250163078308,-0.7335624694824219,0.7408499717712402
1772541318816634400,8.26163427734375,0.7732999920845032,-0.8846749663352966,0.9218000173568726
1772541318826544400,8.27154443359375,0.5209875106811523,-0.7463499903678894,1.1728750467300415
1772541318836454400,8.281454345703125,0.2932874858379364,-0.39627498388290405,1.4719375371932983
1772541318846364700,8.29136474609375,0.1060125008225441,0.0006874999962747097,1.7965749502182007
1772541318856274700,8.301274658203125,-0.08566249907016754,0.39668750762939453,2.189275026321411
1772541318866184700,8.311184814453124,-0.23567499220371246,0.865975022315979,2.6362874507904053
1772541318876095000,8.321094970703125,-0.26551249623298645,1.4108874797821045,3.0012125968933105
1772541318886005000,8.3310048828125,-0.15152500569820404,2.0494375228881836,3.206637382507324
1772541318895915000,8.3409150390625,0.2730749845504761,2.9251749515533447,3.4100000858306885
1772541318905825300,8.3508251953125,0.8999375104904175,4.289587497711182,3.3929500579833984
1772541318915735300,8.3607353515625,1.3755500316619873,5.8561248779296875,2.901249885559082
1772541318925645600,8.3706455078125,1.4649250507354736,6.591475009918213,1.8433250188827515
1772541318935555300,8.380555419921874,1.3213750123977661,5.995550155639648,0.4716250002384186
1772541318945465900,8.3904658203125,1.1563750505447388,4.307600021362305,-0.595787525177002
1772541318955375600,8.400375732421875,1.2318625450134277,2.4462625980377197,-0.8438374996185303
1772541318965286000,8.410285888671876,1.565024971961975,0.7319124937057495,-0.23608750104904175
1772541318975196000,8.42019580078125,1.8651875257492065,-0.526075005531311,0.8025875091552734
1772541318985106200,8.430106201171874,2.059887409210205,-1.2209999561309814,1.7209500074386597
1772541318995016200,8.44001611328125,2.1811625957489014,-1.5860625505447388,2.345750093460083
1772541319004926500,8.449926513671874,2.3504250049591064,-1.6956499814987183,2.7990875244140625
1772541319014836500,8.45983642578125,2.6068625450134277,-1.2263624668121338,3.3024749755859375
1772541319024746800,8.469746826171875,2.800600051879883,-0.4632374942302704,3.655712366104126
1772541319034656800,8.47965673828125,2.627074956893921,-0.647350013256073,3.252424955368042
1772541319044566800,8.48956689453125,2.2673749923706055,-1.9042375087738037,2.1668624877929688
1772541319054476800,8.499476806640626,1.872612476348877,-2.6140124797821045,1.4783999919891357
1772541319064387000,8.509386962890625,1.5416499376296997,-2.2895123958587646,1.3400750160217285
1772541319074297000,8.519297119140624,1.3479125499725342,-1.448699951171875,1.5208874940872192
1772541319084207400,8.529207275390625,1.2883750200271606,-0.8069875240325928,1.8264124393463135
1772541319094117400,8.539117431640625,1.2670625448226929,-0.6718249917030334,2.0913748741149902
1772541319104027600,8.549027587890626,1.2798500061035156,-0.9666249752044678,2.218012571334839
1772541319113937400,8.5589375,1.3404874801635742,-1.2593624591827393,2.206325054168701
1772541319123847700,8.56884765625,1.387237548828125,-1.2517999410629272,2.0828499794006348
1772541319133757700,8.5787578125,1.3351249694824219,-1.0773124694824219,1.9083625078201294
1772541319143668000,8.58866796875,1.1478500366210938,-0.8846749663352966,1.7157249450683594
1772541319153578000,8.598577880859375,0.8817874789237976,-0.7420874834060669,1.5081000328063965
1772541319163488300,8.60848828125,0.6061000227928162,-0.6399250030517578,1.298550009727478
1772541319173398300,8.618398193359376,0.2901250123977661,-0.4675000011920929,1.0749750137329102
1772541319183308300,8.628308349609375,-0.013199999928474426,-0.2387000024318695,0.8079500198364258
1772541319193218600,8.638218505859374,-0.25905001163482666,-0.10037499666213989,0.5268999934196472
1772541319203128600,8.648128662109375,-0.4133250117301941,-0.007837500423192978,0.2778874933719635
1772541319213038800,8.658038818359374,-0.5134249925613403,0.22948749363422394,0.022549999877810478
1772541319222948900,8.667948974609375,-0.6294749975204468,0.3423750102519989,-0.2116124927997589
1772541319232859000,8.67785888671875,-0.7698624730110168,0.1434125006198883,-0.4127750098705292
1772541319242769200,8.68776904296875,-0.9613999724388123,-0.05142499879002571,-0.6191624999046326
1772541319252679200,8.69767919921875,-1.1274999380111694,-0.10779999941587448,-0.8373749852180481
1772541319262589200,8.707589111328126,-1.0976624488830566,-0.1163249984383583,-1.0087000131607056
1772541319272499500,8.71749951171875,-0.7986000180244446,0.045375000685453415,-1.142762541770935
1772541319282409500,8.727409423828124,-0.1909874975681305,0.18479999899864197,-1.2630749940872192
1772541319292319500,8.737319580078125,0.3806000053882599,-0.025849999859929085,-1.378024935722351
1772541319302229800,8.747229736328125,0.6103624701499939,-0.571862518787384,-1.5302374362945557
1772541319312139800,8.757139892578126,0.4879874885082245,-1.1251624822616577,-1.7419874668121338
1772541319322049800,8.7670498046875,0.2167000025510788,-1.3752750158309937,-1.98989999294281
1772541319331960000,8.7769599609375,-0.007974999956786633,-1.1071499586105347,-2.290062427520752
1772541319341870000,8.7868701171875,-0.1835625022649765,-0.4930749833583832,-2.5103375911712646
1772541319351780400,8.7967802734375,-0.6571124792098999,-0.22481249272823334,-1.896262526512146
1772541319361690400,8.8066904296875,-1.3466750383377075,-0.8623999953269958,0.07356250286102295
1772541319371600600,8.8166005859375,-1.0529749393463135,-1.2412124872207642,1.2123374938964844
1772541319381510400,8.826510498046876,-0.720912516117096,-1.1082500219345093,-0.38513749837875366
1772541319391420700,8.836420654296875,-1.3743125200271606,-0.00989999994635582,-2.282637596130371
1772541319401330700,8.84633056640625,-1.9362750053405762,1.7194374799728394,-1.9101499319076538
1772541319411241000,8.856240966796875,-1.2678874731063843,1.4118499755859375,-1.5142874717712402
1772541319421151000,8.86615087890625,-0.15908749401569366,0.46158748865127563,-2.2197999954223633
1772541319431061200,8.876061279296875,0.4188250005245209,0.9212499856948853,-2.383699893951416
1772541319440971300,8.88597119140625,0.3891249895095825,1.443750023841858,-2.063187599182129
1772541319450881300,8.89588134765625,-0.04193750023841858,1.4224375486373901,-1.630062460899353
1772541319460791300,8.905791259765625,-0.7261375188827515,1.204224944114685,-1.3289375305175781
1772541319470701600,8.91570166015625,-1.3956249952316284,1.0041625499725342,-1.2703624963760376
1772541319480611600,8.925611572265625,-1.7883249521255493,1.0223125219345093,-1.2788875102996826
1772541319490521900,8.93552197265625,-1.8776999711990356,1.2064249515533447,-1.226775050163269
1772541319500432000,8.945431884765625,-1.6839624643325806,1.3384250402450562,-1.2586749792099
1772541319510342000,8.955341796875,-1.3466750383377075,1.4235374927520752,-1.3341624736785889
1772541319520252000,8.965251953125,-1.0891374349594116,1.547012448310852,-1.4140499830245972
1772541319530162200,8.975162109375,-1.0911999940872192,1.6810749769210815,-1.5343624353408813
1772541319540072200,8.985072265625,-1.2328250408172607,1.898187518119812,-1.5938999652862549
1772541319549982500,8.994982421875,-1.4360499382019043,2.142937421798706,-1.570525050163269
1772541319559892200,9.004892333984374,-1.622225046157837,2.3324124813079834,-1.5907374620437622
1772541319569802500,9.014802490234375,-1.7627500295639038,2.5069000720977783,-1.6183749437332153
1772541319579712800,9.024712646484375,-1.8467625379562378,2.681387424468994,-1.6524749994277954
1772541319589622800,9.034622802734376,-1.8873250484466553,2.7846500873565674,-1.7663249969482422
1772541319599532800,9.04453271484375,-1.8424999713897705,2.796337366104126,-1.973812460899353
1772541319609442800,9.05444287109375,-1.7127000093460083,2.715487480163574,-2.211137533187866
1772541319619352800,9.064352783203125,-1.548799991607666,2.619649887084961,-2.367612600326538
1772541319629263000,9.07426318359375,-1.4328874349594116,2.5984749794006348,-2.4186248779296875
1772541319639173400,9.08417333984375,-1.4221625328063965,2.6867499351501465,-2.426187515258789
1772541319649083400,9.09408349609375,-1.4403125047683716,2.737762451171875,-2.3281500339508057
1772541319658993400,9.103993408203126,-1.3349875211715698,2.5367374420166016,-2.055762529373169
1772541319668903400,9.1139033203125,-0.9975624680519104,1.847037434577942,-1.546049952507019
1772541319678813700,9.123813720703126,-0.5357000231742859,0.8711999654769897,-0.8361374735832214
1772541319688723700,9.1337236328125,-0.19827499985694885,0.5721374750137329,-0.3870624899864197
1772541319698633700,9.1436337890625,0.014437500387430191,1.0872124433517456,-0.11467500030994415
1772541319708544000,9.1535439453125,0.17943750321865082,1.90767502784729,0.089649997651577
1772541319718454000,9.1634541015625,0.26028749346733093,2.503737449645996,0.13859999179840088
1772541319728364000,9.173364013671875,0.21986250579357147,2.6548500061035156,-0.00494999997317791
1772541319738274000,9.183274169921875,0.07947500050067902,2.4409000873565674,-0.3455374836921692
1772541319748184300,9.193184326171876,-0.09404999762773514,2.108837604522705,-0.7244874835014343
1772541319758094300,9.20309423828125,-0.2079000025987625,1.7949249744415283,-0.8967750072479248
1772541319768004600,9.213004638671874,-0.18878750503063202,1.5160750150680542,-0.8127624988555908
1772541319777914400,9.222914306640625,-0.06531249731779099,1.3223375082015991,-0.6180624961853027
1772541319787824600,9.23282470703125,0.04743750020861626,1.3458499908447266,-0.44247499108314514
1772541319797734700,9.242734619140625,0.06558749824762344,1.3479125499725342,-0.3242250084877014
1772541319807645000,9.25264501953125,-0.02488750033080578,0.8051999807357788,-0.15716250240802765
1772541319817554700,9.2625546875,-0.11646249890327454,-0.1993750035762787,0.02474999986588955
1772541319827465000,9.27246484375,-0.14300000667572021,-0.7954375147819519,0.08442500233650208
1772541319837375000,9.282375,0.024062499403953552,-0.582587480545044,0.14396250247955322
1772541319847285200,9.29228515625,0.2582249939441681,0.5763999819755554,-0.047575000673532486
1772541319857195300,9.3021953125,0.41786250472068787,2.1802000999450684,-0.6158624887466431
1772541319867105500,9.31210546875,0.24117499589920044,2.6452250480651855,-0.7552874684333801
1772541319877015300,9.322015380859375,-0.13021250069141388,2.361150026321411,-0.5392749905586243
1772541319886925600,9.331925537109376,-0.33137500286102295,1.5001250505447388,-0.32532501220703125
1772541319896835600,9.341835693359375,-0.3100624978542328,0.608299970626831,-0.26468750834465027
1772541319906745900,9.351745849609374,-0.2303124964237213,0.10807500034570694,-0.31790000200271606
1772541319916655900,9.36165576171875,-0.2824249863624573,0.06338749825954437,-0.3796375095844269
1772541319926566100,9.371566162109374,-0.4068624973297119,0.1985500007867813,-0.36684998869895935
1772541319936476200,9.38147607421875,-0.4867500066757202,0.36781248450279236,-0.28283751010894775
1772541319946386200,9.39138623046875,-0.46543750166893005,0.5274500250816345,-0.2040500044822693
1772541319956296000,9.4012958984375,-0.3749625086784363,0.6561499834060669,-0.1443749964237213
1772541319966206500,9.41120654296875,-0.2642749845981598,0.7414000034332275,-0.11357499659061432
1772541319976116200,9.4211162109375,-0.15358750522136688,0.8190875053405762,-0.12526249885559082
1772541319986026500,9.431026611328125,0.0006874999962747097,0.8445249795913696,-0.13062499463558197
1772541319995936300,9.440936279296874,0.15289999544620514,0.8370999693870544,-0.07741250097751617
1772541320005846800,9.4508466796875,0.20281249284744263,0.8690000176429749,0.01732499897480011
1772541320015756800,9.4607568359375,0.16664999723434448,0.8882499933242798,0.02694999985396862
1772541320025666800,9.470666748046876,0.11343749612569809,0.7594124674797058,-0.0028874999843537807
1772541320035576800,9.480576904296875,0.18796250224113464,0.5178250074386597,0.08442500233650208
1772541320045487000,9.490487060546876,0.4423374831676483,0.3242250084877014,0.26317501068115234
1772541320055396900,9.50039697265625,0.7009750008583069,0.29961249232292175,0.4376625120639801
1772541320065307100,9.51030712890625,0.8009374737739563,0.5710374712944031,0.6197124719619751
1772541320075217200,9.520217041015625,0.8648750185966492,1.0627374649047852,0.8793125152587891
1772541320085127400,9.53012744140625,0.9350000023841858,1.472487449645996,1.2347500324249268
1772541320095037200,9.540037109375,1.007462501525879,1.620437502861023,1.5860625505447388
1772541320104947500,9.549947509765625,1.1074249744415283,1.603387475013733,1.9062999486923218
1772541320114857500,9.559857421875,1.3107874393463135,1.436324954032898,2.188312530517578
1772541320124767700,9.569767822265625,1.4958624839782715,1.2309000492095947,2.3735249042510986
1772541320134677800,9.579677734375,1.5746500492095947,1.0510499477386475,2.4224750995635986
1772541320144587800,9.589587890625,1.5746500492095947,0.9009000062942505,2.309725046157837
1772541320154497800,9.599497802734374,1.5236375331878662,0.8806874752044678,2.160675048828125
1772541320164407800,9.60940771484375,1.3979624509811401,1.0371625423431396,2.01066255569458
1772541320174317800,9.61931787109375,1.193637490272522,1.1222749948501587,1.7520250082015991
1772541320184228000,9.62922802734375,0.9713000059127808,1.2138500213623047,1.565850019454956
1772541320194138000,9.63913818359375,0.6796625256538391,1.3510749340057373,1.547700047492981
1772541320204048100,9.649048095703124,0.32202500104904175,1.452275037765503,1.5860625505447388
1772541320213958100,9.658958251953125,0.017737500369548798,1.4320625066757202,1.6370749473571777
1772541320223868200,9.6688681640625,-0.0812624990940094,1.0818500518798828,1.8276499509811401
1772541320233778400,9.6787783203125,0.1933249980211258,1.2351624965667725,1.977662444114685
1772541320243688400,9.6886884765625,0.4731374979019165,2.046137571334839,1.9893499612808228
1772541320253598700,9.6985986328125,0.7084000110626221,2.6719000339508057,1.9989750385284424
1772541320263508500,9.708508544921875,1.0872124433517456,2.6452250480651855,1.98618745803833
1772541320273418800,9.718418701171874,1.6267625093460083,1.9992499351501465,1.9446624517440796
1772541320283328800,9.728328857421875,2.1514625549316406,1.018049955368042,1.927612543106079
1772541320293239000,9.738239013671874,2.5643749237060547,-0.014299999922513962,1.9733999967575073
1772541320303148800,9.748148681640625,2.8367624282836914,-0.8251374959945679,2.138400077819824
1772541320313059000,9.75805908203125,2.9155499935150146,-1.261562466621399,2.32251238822937
1772541320322969000,9.767968994140626,2.8187499046325684,-1.0774500370025635,2.4096875190734863
1772541320332879000,9.777879150390625,2.60479998588562,-0.6452875137329102,2.4778873920440674
1772541320342789400,9.787789306640626,2.331312417984009,-0.5761250257492065,2.496999979019165
1772541320352699400,9.797699462890625,2.0481998920440674,-0.951912522315979,2.3777875900268555
1772541320362609400,9.807609375,1.7726500034332275,-1.4019500017166138,2.222412586212158
1772541320372519400,9.81751953125,1.547012448310852,-1.5467374324798584,2.0935750007629395
1772541320382429700,9.8274296875,1.3404874801635742,-1.3648250102996826,1.9765625
1772541320392339700,9.837339599609376,1.1596750020980835,-1.0869375467300415,1.8627125024795532
1772541320402249700,9.847249755859375,0.9318374991416931,-0.8167499899864197,1.707337498664856
1772541320412160000,9.857159912109376,0.6615124940872192,-0.49211248755455017,1.4700125455856323
1772541320422070000,9.867070068359375,0.3550249934196472,-0.1611499935388565,1.1826374530792236
1772541320431980000,9.87697998046875,0.030524998903274536,0.11563749611377716,0.890037477016449
1772541320441890000,9.88689013671875,-0.227012500166893,0.4465999901294708,0.5941374897956848
1772541320451800000,9.896800048828124,-0.317487508058548,0.7093625068664551,0.256850004196167
1772541320461710300,9.90671044921875,-0.4016374945640564,0.7030375003814697,-0.12952500581741333
1772541320471620400,9.916620361328125,-0.5282750129699707,0.5359749794006348,-0.5478000044822693
1772541320481530400,9.9265302734375,-0.6879125237464905,0.3698749840259552,-0.9351375102996826
1772541320491440400,9.9364404296875,-0.8996624946594238,0.3305499851703644,-1.2597750425338745
1772541320501350700,9.9463505859375,-1.1178749799728394,0.17407499253749847,-1.6035250425338745
1772541320511260700,9.9562607421875,-1.3466750383377075,-0.3708375096321106,-1.9333875179290771
1772541320521170700,9.966170654296874,-1.6084749698638916,-0.9923374652862549,-2.1482999324798584
1772541320531080700,9.976080810546875,-1.9607499837875366,-1.0592999458312988,-2.149399995803833
1772541320540990700,9.98599072265625,-2.35441255569458,-0.3133625090122223,-2.239875078201294
1772541320550901000,9.99590087890625,-2.680150032043457,1.5427500009536743,-2.1845998764038086
1772541320560811000,10.00581103515625,-2.781212568283081,3.1273000240325928,-2.3197624683380127
1772541320570721000,10.015720947265624,-2.6960999965667725,2.3046374320983887,-3.4711875915527344
1772541320580631300,10.02563134765625,-3.177074909210205,2.164249897003174,-3.735187530517578
1772541320590541300,10.035541259765624,-3.7794625759124756,3.331624984741211,-3.416874885559082
1772541320600451300,10.045451416015625,-2.9951624870300293,1.5129125118255615,-2.527250051498413
1772541320610361300,10.055361328125,-0.7027624845504761,0.3049750030040741,-0.6520249843597412
1772541320620271400,10.065271240234376,0.5988125205039978,-0.7997000217437744,-0.2817375063896179
1772541320630181600,10.075181640625,0.6104999780654907,-1.5956875085830688,-0.46584999561309814
1772541320640091400,10.08509130859375,0.07727500051259995,-1.2945624589920044,-0.7159624695777893
1772541320650001700,10.095001708984375,-0.6719624996185303,-0.7517125010490417,-1.0287749767303467
1772541320659911700,10.10491162109375,-1.439212441444397,-0.255887508392334,-1.1511499881744385
1772541320669821700,10.11482177734375,-2.0564498901367188,-0.0057749999687075615,-0.9946749806404114
1772541320679731700,10.124731689453125,-2.472524881362915,-0.02708750031888485,-0.7126625180244446
1772541320689642000,10.13464208984375,-2.492875099182129,-0.18136249482631683,-0.1816374957561493
1772541320699552000,10.144552001953125,-1.9969124794006348,-0.21642500162124634,0.3482874929904938
1772541320709462000,10.1544619140625,-1.4073125123977661,0.010174999944865704,0.3377000093460083
1772541320719372000,10.1643720703125,-1.222100019454956,0.21133749186992645,0.008799999952316284
1772541320729282300,10.1742822265625,-1.1433124542236328,0.2283875048160553,-0.370012491941452
1772541320739192300,10.1841923828125,-0.9944000244140625,0.40603750944137573,-0.690387487411499
1772541320749102300,10.194102294921874,-0.7357624769210815,0.7402999997138977,-0.9297749996185303
1772541320759012400,10.204012451171875,-0.46970000863075256,0.8914124965667725,-1.091612458229065
1772541320768922400,10.21392236328125,-0.33137500286102295,0.8190875053405762,-1.1053625345230103
1772541320778832400,10.223832275390626,-0.29727500677108765,0.6136624813079834,-1.0107624530792236
1772541320788742700,10.23374267578125,-0.33880001306533813,0.45086249709129333,-0.9149249792098999
1772541320798652700,10.243652587890624,-0.3877499997615814,0.39544999599456787,-0.8958125114440918
1772541320808562700,10.253562744140625,-0.4516874849796295,0.43697500228881836,-0.9607124924659729
1772541320818472700,10.26347265625,-0.5154874920845032,0.4188250005245209,-1.0894124507904053
1772541320828382700,10.2733828125,-0.571862518787384,0.2358125001192093,-1.209725022315979
1772541320838293000,10.28329296875,-0.6358000040054321,-0.08978749811649323,-1.26829993724823
1772541320848203000,10.293203125,-0.7261375188827515,-0.4474250078201294,-1.2501499652862549
1772541320858113000,10.303113037109375,-0.7954375147819519,-0.7559750080108643,-1.1459250450134277
1772541320868023000,10.31302294921875,-0.7954375147819519,-1.0422500371932983,-1.0096625089645386
1772541320877933000,10.32293310546875,-0.694237470626831,-1.3116124868392944,-0.8798624873161316
1772541320887843000,10.332843017578124,-0.5473874807357788,-1.439212441444397,-0.7903500199317932
1772541320897753300,10.34275341796875,-0.3760625123977661,-1.2465749979019165,-0.7808625102043152
1772541320907663000,10.3526630859375,-0.24089999496936798,-0.9241374731063843,-0.7701374888420105
1772541320917573400,10.362573486328126,-0.2536875009536743,-0.7730249762535095,-0.6861249804496765
1772541320927483400,10.3724833984375,-0.3068999946117401,-0.5325375199317932,-0.6392375230789185
1772541320937393400,10.382393310546876,-0.3345375061035156,-0.1802625060081482,-0.6796625256538391
1772541320947303700,10.3923037109375,-0.3302749991416931,0.18369999527931213,-0.7691749930381775
1772541320957213700,10.402213623046874,-0.32394999265670776,0.5242875218391418,-0.8702374696731567
1772541320967123700,10.412123779296875,-0.2525874972343445,0.8817874789237976,-0.8542875051498413
1772541320977033500,10.422033447265624,-0.06421250104904175,1.0191500186920166,-0.6659125089645386
1772541320986943700,10.43194384765625,0.23485000431537628,0.9201499819755554,-0.42432498931884766
1772541320996853800,10.441853759765625,0.5902875065803528,0.6583499908447266,-0.18479999899864197
1772541321006763800,10.451763671875,0.88714998960495,0.44123750925064087,0.11316250264644623
1772541321016673800,10.461673828125,1.0680999755859375,0.3891249895095825,0.5196124911308289
1772541321026584000,10.471583984375,1.0797874927520752,0.5838249921798706,0.7995625138282776
1772541321036494000,10.481494140625,0.9425625205039978,1.210687518119812,0.534600019454956
1772541321046404000,10.491404052734374,0.812624990940094,1.5618624687194824,-0.06462500244379044
1772541321056314000,10.501314208984375,0.849887490272522,0.8967750072479248,-0.2923249900341034
1772541321066224000,10.51122412109375,1.0319374799728394,-0.34952500462532043,-0.08689999580383301
1772541321076134100,10.521134033203126,1.1808500289916992,-1.5190999507904053,0.24296249449253082
1772541321086044200,10.531044189453125,1.0478874444961548,-2.325812578201294,0.5249750018119812
1772541321095954200,10.5409541015625,0.6859874725341797,-2.7248375415802,0.7899374961853027
1772541321105864400,10.550864501953125,0.3007124960422516,-2.6503124237060547,1.119937539100647
1772541321115774500,10.5607744140625,0.1251250058412552,-1.9894875288009644,1.5083750486373901
1772541321125684500,10.5706845703125,0.16032500565052032,-1.0422500371932983,1.8552874326705933
1772541321135594500,10.580594482421875,0.2391124963760376,-0.2579500079154968,2.1276750564575195
1772541321145504500,10.59050439453125,0.3125374913215637,0.3667125105857849,2.378887414932251
1772541321155414800,10.600414794921875,0.4241875112056732,1.1298375129699707,2.6375250816345215
1772541321165324500,10.610324462890626,0.6147624850273132,2.2291500568389893,2.8248000144958496
1772541321175234600,10.620234619140625,0.9989374876022339,3.218874931335449,2.858762502670288
1772541321185144600,10.63014453125,1.4022250175476074,3.9892873764038086,2.69073748588562
1772541321195054800,10.640054931640625,1.705549955368042,4.485249996185303,2.177725076675415
1772541321204964900,10.64996484375,1.7331874370574951,4.1702375411987305,1.2517999410629272
1772541321214875000,10.659875,1.5894999504089355,3.414674997329712,0.592074990272522
1772541321224785000,10.669784912109375,1.3384250402450562,2.545262575149536,0.7005624771118164
1772541321234695000,10.67969482421875,1.1511499881744385,1.572450041770935,1.1251624822616577
1772541321244605200,10.689605224609375,1.1031625270843506,0.22192500531673431,1.6040749549865723
1772541321254515000,10.699514892578126,1.2128875255584717,-1.4914624691009521,2.052187442779541
1772541321264425200,10.70942529296875,1.5598000288009644,-2.7227749824523926,2.4745874404907227
1772541321274335200,10.719335205078124,2.171674966812134,-2.3725624084472656,3.1003499031066895
1772541321284245200,10.729245361328125,2.8315374851226807,-0.5388625264167786,3.6910500526428223
1772541321294155300,10.7391552734375,2.8560125827789307,-0.02488750033080578,3.2345499992370605
1772541321304065300,10.749065185546876,2.428112506866455,-1.5839999914169312,1.9830249547958374
1772541321313975300,10.758975341796875,1.9886624813079834,-2.736525058746338,1.314637541770935
1772541321323885300,10.76888525390625,1.7098125219345093,-2.2885499000549316,1.4210624694824219
1772541321333795300,10.77879541015625,1.535325050354004,-1.1646250486373901,1.891450047492981
1772541321343705600,10.78870556640625,1.4309624433517456,-0.5037999749183655,2.32773756980896
1772541321353615600,10.79861572265625,1.388474941253662,-0.5814874768257141,2.5757875442504883
1772541321363525600,10.808525634765624,1.3990625143051147,-0.9624999761581421,2.6332623958587646
1772541321373435600,10.818435546875,1.4607999324798584,-1.2817749977111816,2.570425033569336
1772541321383345700,10.828345703125,1.562962532043457,-1.2934625148773193,2.440624952316284
1772541321393256000,10.838255859375,1.6193374395370483,-1.0837750434875488,2.2660000324249268
1772541321403165700,10.848165771484375,1.528862476348877,-0.8953999876976013,2.049987554550171
1772541321413076000,10.858075927734374,1.2809499502182007,-0.7741249799728394,1.7935500144958496
1772541321422986000,10.867986083984375,0.9542499780654907,-0.6335999965667725,1.4998500347137451
1772541321432896000,10.87789599609375,0.6168249845504761,-0.5410624742507935,1.1848374605178833
1772541321442806000,10.887805908203125,0.32848748564720154,-0.5026999711990356,0.8463125228881836
1772541321452716000,10.897716064453125,0.1284250020980835,-0.44632500410079956,0.46639999747276306
1772541321462626000,10.9076259765625,-0.055687498301267624,-0.32711249589920044,0.055687498301267624
1772541321472536300,10.917536376953125,-0.3334375023841858,-0.22384999692440033,-0.3306874930858612
1772541321482446300,10.9274462890625,-0.6219124794006348,-0.0919874981045723,-0.7084000110626221
1772541321492356400,10.9373564453125,-0.83160001039505,-0.028049999848008156,-1.0788249969482422
1772541321502266400,10.947266357421874,-0.9145125150680542,0.08689999580383301,-1.4374250173568726
1772541321512176400,10.95717626953125,-0.8709250092506409,0.46997499465942383,-1.696062445640564
1772541321522086400,10.96708642578125,-0.6474875211715698,1.1298375129699707,-1.9313249588012695
1772541321531996700,10.97699658203125,-0.2718375027179718,1.3851749897003174,-2.3281500339508057
1772541321541906400,10.986906494140625,-0.1153625026345253,0.8626750111579895,-2.9253125190734863
1772541321551816400,10.99681640625,-0.38458749651908875,0.43697500228881836,-3.1997625827789307
1772541321561726700,11.006726806640625,-0.9656624794006348,0.408237487077713,-2.6507248878479004
1772541321571636700,11.01663671875,-1.81802499294281,0.9158874750137329,0.20996250212192535
1772541321581546800,11.026546630859375,-1.6956499814987183,0.5774999856948853,1.47427499294281
1772541321591456800,11.036456787109374,-1.2167375087738037,-0.14300000667572021,-1.7023874521255493
1772541321601366800,11.04636669921875,-2.221450090408325,1.8598250150680542,-3.146549940109253
1772541321611276800,11.05627685546875,-2.926962375640869,3.935112476348877,-1.9621249437332153
1772541321621186800,11.066186767578126,-2.2054998874664307,2.196150064468384,-1.8770124912261963
1772541321631096800,11.076096923828125,-0.823074996471405,0.8806874752044678,-1.905750036239624
1772541321641007000,11.086007080078126,0.052799999713897705,0.7998374700546265,-1.7184749841690063
1772541321650917000,11.095917236328125,0.16775000095367432,1.211787462234497,-1.3725249767303467
1772541321660827000,11.105826904296874,-0.3877499997615814,1.3447500467300415,-1.0649374723434448
1772541321670737200,11.115737060546875,-1.1753499507904053,0.866937518119812,-1.043762445449829
1772541321680647200,11.125647216796875,-1.6819000244140625,0.6136624813079834,-1.0575125217437744
1772541321690557200,11.13555712890625,-1.8521250486373901,0.8094624876976013,-0.9840874671936035
1772541321700467200,11.14546728515625,-1.9064375162124634,1.0658999681472778,-0.8967750072479248
1772541321710377200,11.155377197265626,-1.8585875034332275,1.109487533569336,-1.0267125368118286
1772541321720287200,11.165287353515625,-1.5723124742507935,1.312849998474121,-1.1852500438690186
1772541321730197500,11.175197509765624,-1.296625018119812,1.620437502861023,-1.284250020980835
1772541321740107300,11.185107177734375,-1.253037452697754,1.7001874446868896,-1.4077249765396118
1772541321750017500,11.195017578125,-1.3274250030517578,1.6853375434875488,-1.4928375482559204
1772541321759927300,11.20492724609375,-1.4488375186920166,1.6671874523162842,-1.5885374546051025
1772541321769837600,11.214837646484375,-1.5680500268936157,1.6660875082015991,-1.720537543296814
1772541321779747600,11.22474755859375,-1.6361124515533447,1.697024941444397,-1.8280625343322754
1772541321789657600,11.23465771484375,-1.680799961090088,1.7448749542236328,-1.899287462234497
1772541321799567600,11.244567626953126,-1.716962456703186,1.816237449645996,-1.9450750350952148
1772541321809477400,11.254477294921875,-1.834112524986267,1.9716124534606934,-1.9270625114440918
1772541321819387600,11.2643876953125,-1.8287500143051147,1.8662874698638916,-1.7683874368667603
1772541321829297700,11.274297607421875,-1.650962471961975,1.5809749364852905,-1.4502124786376953
1772541321839207700,11.284207763671875,-1.4286249876022339,1.0766249895095825,-1.0352375507354736
1772541321849117700,11.29411767578125,-1.2412124872207642,0.654087483882904,-0.6510624885559082
1772541321859028000,11.304028076171875,-1.0965625047683716,0.3741374909877777,-0.3807374835014343
1772541321868937700,11.313937744140626,-0.9602999687194824,0.18576249480247498,-0.22852499783039093
1772541321878848000,11.323847900390625,-0.8017625212669373,0.07411249727010727,-0.11563749611377716
1772541321888757800,11.3337578125,-0.6474875211715698,0.020899999886751175,-0.010312499478459358
1772541321898668000,11.34366796875,-0.5091624855995178,-0.05678749829530716,0.048262499272823334
1772541321908578000,11.353578125,-0.42294999957084656,-0.06751249730587006,0.013062499463558197
1772541321918488000,11.363488037109375,-0.3984749913215637,-0.07699999958276749,-0.20721249282360077
1772541321928398000,11.373398193359375,-0.3899500072002411,-0.1313125044107437,-0.5552250146865845
1772541321938308000,11.38330810546875,-0.35791251063346863,-0.18136249482631683,-0.8372374773025513
1772541321948218000,11.393218017578125,-0.29727500677108765,-0.2441999912261963,-0.9627749919891357
1772541321958128000,11.403128173828126,-0.20679999887943268,-0.40053749084472656,-0.988349974155426
1772541321968038100,11.4130380859375,-0.11316250264644623,-0.6059625148773193,-0.9532874822616577
1772541321977948200,11.4229482421875,-0.06737499684095383,-0.8421875238418579,-0.8893499970436096
1772541321987858400,11.4328583984375,-0.08662500232458115,-1.0700249671936035,-0.8329749703407288
1772541321997768200,11.442768310546874,-0.16747500002384186,-1.2604625225067139,-0.8073999881744385
1772541322007678500,11.452678466796876,-0.27816250920295715,-1.3530000448226929,-0.8127624988555908
1772541322017588200,11.462588134765625,-0.3984749913215637,-1.3307249546051025,-0.828712522983551
1772541322027498500,11.47249853515625,-0.5293750166893005,-1.184975028038025,-0.865975022315979
1772541322037408500,11.482408447265625,-0.6560124754905701,-0.9635999798774719,-0.9277125000953674
1772541322047318500,11.492318603515624,-0.7932375073432922,-0.7433249950408936,-0.9926124811172485
1772541322057228500,11.502228515625,-0.8857749700546265,-0.608162522315979,-1.0213500261306763
1772541322067138600,11.512138671875,-0.8751875162124634,-0.5803874731063843,-0.9553499817848206
1772541322077048600,11.522048583984375,-0.7932375073432922,-0.6133875250816345,-0.7777000069618225
1772541322086958600,11.53195849609375,-0.6239749789237976,-0.6208124756813049,-0.559487521648407
1772541322096868600,11.54186865234375,-0.3558500111103058,-0.5154874920845032,-0.39668750762939453
1772541322106778600,11.551778564453125,-0.01952499896287918,-0.31226250529289246,-0.3125374913215637
1772541322116689000,11.56168896484375,0.3273875117301941,-0.24089999496936798,-0.28283751010894775
1772541322126599000,11.571598876953125,0.5391374826431274,-0.3718000054359436,-0.2657875120639801
1772541322136509000,11.581509033203124,0.5306124687194824,-0.4516874849796295,-0.2008875012397766
1772541322146418700,11.591418701171875,0.3774375021457672,-0.08662500232458115,-0.017737500369548798
1772541322156328700,11.60132861328125,0.27101248502731323,0.6754000186920166,0.19181250035762787
1772541322166239000,11.611239013671875,0.3997125029563904,1.295799970626831,0.303600013256073
1772541322176149000,11.62114892578125,0.6796625256538391,1.5299625396728516,0.303600013256073
1772541322186059000,11.63105908203125,0.9457250237464905,1.5129125118255615,0.31212499737739563
1772541322195969000,11.640968994140625,1.1638000011444092,1.427799940109253,0.40892499685287476
1772541322205879000,11.650879150390624,1.2095874547958374,1.3202749490737915,0.5952374935150146
1772541322215789000,11.6607890625,1.069200038909912,0.9904124736785889,0.7761874794960022
1772541322225699000,11.670698974609374,0.9297749996185303,0.4763000011444092,0.8931999802589417
1772541322235609000,11.680609130859375,0.9659374952316284,-0.16967499256134033,1.0102125406265259
1772541322245519000,11.69051904296875,1.1022000312805176,-1.0422500371932983,1.1826374530792236
1772541322255429000,11.70042919921875,1.2170125246047974,-1.7777374982833862,1.381737470626831
1772541322265339100,11.710339111328125,1.1745250225067139,-2.0107998847961426,1.6168625354766846
1772541322275249200,11.720249267578126,1.084049940109253,-1.6084749698638916,2.0169875621795654
1772541322285159200,11.7301591796875,1.0946375131607056,-0.9231749773025513,2.5938000679016113
1772541322295069200,11.740069091796874,1.128737449645996,-0.6665999889373779,3.049337387084961
1772541322304979200,11.749979248046875,1.1596750020980835,-1.0848749876022339,3.157824993133545
1772541322314889200,11.75988916015625,1.109624981880188,-1.6105375289916992,3.0291249752044678
1772541322324799200,11.76979931640625,0.8936125040054321,-1.6116374731063843,2.7439498901367188
1772541322334709500,11.77970947265625,0.49334999918937683,-1.0976624488830566,2.281949996948242
1772541322344619300,11.789619384765626,-0.07809999585151672,-0.16967499256134033,1.9787625074386597
1772541322354529500,11.799529541015625,-0.7463499903678894,1.0297374725341797,2.1905124187469482
1772541322364439300,11.809439208984376,-1.2561999559402466,2.25362491607666,2.6204750537872314
1772541322374349600,11.819349609375,-1.529687523841858,3.1688249111175537,2.9024875164031982
1772541322384259600,11.829259521484374,-1.539312481880188,3.730787515640259,2.9013874530792236
1772541322394169600,11.839169677734375,-1.3392499685287476,3.9892873764038086,2.5991625785827637
1772541322404079600,11.84907958984375,-0.9571374654769897,3.765850067138672,2.1308374404907227
1772541322413989600,11.85898974609375,-0.47712498903274536,3.117812395095825,1.5817999839782715
1772541322423899600,11.868899658203125,0.025162499397993088,2.0333499908447266,0.9953625202178955
1772541322433809700,11.8788095703125,0.514662504196167,1.1213124990463257,0.6143500208854675
1772541322443719700,11.8887197265625,0.9882124662399292,0.9381625056266785,0.554812490940094
1772541322453629700,11.898629638671874,1.4064874649047852,1.0616375207901,0.6282374858856201
1772541322463539700,11.908539794921875,1.646975040435791,1.117050051689148,0.778249979019165
1772541322473449700,11.91844970703125,1.7439124584197998,0.8988375067710876,0.9985250234603882
1772541322483360000,11.928360107421875,1.7268625497817993,0.5092999935150146,1.2263624668121338
1772541322493269800,11.938269775390625,1.6341874599456787,0.17943750321865082,1.3838000297546387
1772541322503179800,11.9481796875,1.5054874420166016,-0.006874999962747097,1.463687539100647
1772541322513089800,11.95808984375,1.3447500467300415,-0.05156249925494194,1.465749979019165
1772541322522999800,11.967999755859376,1.108525037765503,-0.03231250122189522,1.363587498664856
1772541322532909800,11.977909912109375,0.8190875053405762,0.035750001668930054,1.1464749574661255
1772541322542819800,11.98781982421875,0.5636125206947327,0.2092749923467636,0.7836124897003174
1772541322552730000,11.997730224609375,0.3880249857902527,0.3422375023365021,0.3100624978542328
1772541322562640000,12.007639892578124,0.24543750286102295,0.34113749861717224,-0.2092749923467636
1772541322572550000,12.0175498046875,0.11453749984502792,0.26138749718666077,-0.6670125126838684
1772541322582460000,12.0274599609375,-0.015262499451637268,0.20391249656677246,-0.9937124848365784
1772541322592370200,12.0373701171875,-0.1578499972820282,0.13901250064373016,-1.2139874696731567
1772541322602280200,12.0472802734375,-0.3291749954223633,0.01759999990463257,-1.3981000185012817
1772541322612190200,12.057190185546874,-0.5058624744415283,-0.2217874974012375,-1.5694249868392944
1772541322622100200,12.067100341796875,-0.694237470626831,-0.5006374716758728,-1.7577999830245972
1772541322632010000,12.077010009765624,-0.9007624983787537,-0.6335999965667725,-1.956762433052063
1772541322641920300,12.086920166015625,-1.1273624897003174,-0.6176499724388123,-2.017400026321411
1772541322651830000,12.096830078125,-1.280674934387207,-0.8071249723434448,-1.731124997138977
1772541322661740300,12.106740234375,-1.3019875288009644,-1.119937539100647,-1.0927125215530396
1772541322671650000,12.116650146484375,-0.9592000246047974,-0.9890375137329102,-0.37853750586509705
1772541322681560000,12.12656005859375,-0.4388999938964844,-0.16967499256134033,-0.15606249868869781
1772541322691470000,12.136469970703125,0.06668750196695328,1.0755250453948975,-0.13695000112056732
1772541322701380400,12.14638037109375,0.5945500135421753,2.0609874725341797,0.07273750007152557
1772541322711290400,12.156290283203125,1.1031625270843506,2.4781625270843506,0.42707499861717224
1772541322721200400,12.166200439453124,1.4246374368667603,2.3504250049591064,0.8835750222206116
1772541322731110400,12.1761103515625,1.228837490081787,2.0928874015808105,1.2273249626159668
1772541322741020400,12.1860205078125,0.7935125231742859,1.9449374675750732,1.0016875267028809
1772541322750930400,12.195930419921876,0.32628750801086426,1.7682499885559082,0.28022500872612
1772541322760840400,12.20584033203125,-0.17806249856948853,1.8225624561309814,-0.4147000014781952
1772541322770750500,12.21575048828125,-0.6995999813079834,1.8662874698638916,-1.0936750173568726
1772541322780660200,12.22566015625,-1.2721500396728516,1.6256624460220337,-1.4832124710083008
1772541322790570500,12.235570556640624,-1.975600004196167,1.0573749542236328,-1.404425024986267
1772541322800480500,12.24548046875,-2.294874906539917,0.1518000066280365,-1.377887487411499
1772541322810390500,12.255390625,-1.4616249799728394,-1.6383124589920044,-1.4598374366760254
1772541322820300500,12.265300537109376,0.05816249921917915,-1.5882624387741089,-0.6679750084877014
1772541322830210600,12.27521044921875,1.3799500465393066,2.785749912261963,1.5061750411987305
1772541322840120600,12.28512060546875,1.721500039100647,4.931162357330322,2.0861499309539795
1772541322850030600,12.295030517578125,0.6934124827384949,2.4260499477386475,0.9772124886512756
1772541322859940600,12.304940673828124,-0.6964374780654907,0.05706249922513962,1.0911999940872192
1772541322869850600,12.3148505859375,-1.7393749952316284,-0.6219124794006348,0.8166124820709229
1772541322879760600,12.3247607421875,-2.1608123779296875,-1.044450044631958,-0.4263874888420105
1772541322889670700,12.334670654296875,-2.142662525177002,-1.464787483215332,-0.9138249754905701
1772541322899580700,12.34458056640625,-1.8222874402999878,-1.6553624868392944,-0.6690750122070312
1772541322909490700,12.35449072265625,-1.314774990081787,-1.6446374654769897,-0.4147000014781952
1772541322919400700,12.364400634765625,-0.7964000105857849,-1.296625018119812,-0.392425000667572
1772541322929310700,12.374310791015626,-0.47189998626708984,-0.28462499380111694,-0.513700008392334
1772541322939220500,12.384220458984375,-0.24736249446868896,1.3160125017166138,-0.644599974155426
1772541322949130800,12.394130859375,-0.09721250087022781,2.712325096130371,-0.8138625025749207
1772541322959040800,12.404040771484375,-0.010999999940395355,3.3455123901367188,-0.9659374952316284
1772541322968950800,12.41395068359375,-0.0004124999977648258,3.2667250633239746,-1.0202499628067017
1772541322978860800,12.42386083984375,-0.11219999939203262,2.8048624992370605,-1.0202499628067017
1772541322988770800,12.433770751953125,-0.3749625086784363,2.1077375411987305,-1.0234124660491943
1772541322998680800,12.443680908203126,-0.6452875137329102,1.3213750123977661,-1.0745625495910645
1772541323008590800,12.4535908203125,-0.7975000143051147,0.5593500137329102,-1.175624966621399
1772541323018500900,12.4635009765625,-0.7932375073432922,0.06764999777078629,-1.2501499652862549
1772541323028410600,12.47341064453125,-0.675125002861023,0.04427500069141388,-1.2310374975204468
1772541323038321000,12.48332080078125,-0.5123249888420105,0.4338124990463257,-1.1500500440597534
1772541323048230700,12.493230712890625,-0.3526875078678131,0.9722625017166138,-1.0756624937057495
1772541323058141000,12.503140869140625,-0.23980000615119934,1.3501124382019043,-1.0107624530792236
1772541323068051000,12.513051025390626,-0.18988749384880066,1.538487434387207,-0.9010375142097473
1772541323077960700,12.522960693359375,-0.2079000025987625,1.6501375436782837,-0.7254499793052673
1772541323087871000,12.53287109375,-0.25905001163482666,1.7459750175476074,-0.5148000121116638
1772541323097780700,12.54278076171875,-0.30153748393058777,1.840712547302246,-0.370012491941452
1772541323107691000,12.55269091796875,-0.31968748569488525,1.9619874954223633,-0.32106250524520874
1772541323117601000,12.56260107421875,-0.3282124996185303,2.0960500240325928,-0.31790000200271606
1772541323127511000,12.572510986328124,-0.31968748569488525,2.160949945449829,-0.32106250524520874
1772541323137420800,12.5824208984375,-0.2877874970436096,2.047100067138672,-0.3040125072002411
1772541323147331000,12.5923310546875,-0.24626250565052032,1.806612491607666,-0.26468750834465027
1772541323157240800,12.60224072265625,-0.210099995136261,1.5926624536514282,-0.18809999525547028
1772541323167150800,12.61215087890625,-0.1993750035762787,1.5225374698638916,-0.07204999774694443
1772541323177060900,12.622060791015626,-0.19511249661445618,1.5522375106811523,0.03863750025629997
1772541323186971000,12.631970947265625,-0.19827499985694885,1.5852375030517578,0.09927500039339066
1772541323196881000,12.641880859375,-0.20679999887943268,1.5522375106811523,0.1120624989271164
1772541323206791000,12.651791015625,-0.21752500534057617,1.4320625066757202,0.12911249697208405
