time,seconds_elapsed,z,y,x
1772698643973712000,0.0747119140625,0.7483093738555908,0.13958260416984558,-0.3695732057094574
1772698643991058400,0.092058349609375,1.2418880462646484,0.6429351568222046,-0.3121519088745117
1772698644008405000,0.109405029296875,1.3713914155960083,0.7107411623001099,-0.16310089826583862
1772698644025751600,0.12675146484375,1.0934479236602783,0.33078327775001526,0.05925388261675835
1772698644043098400,0.144098388671875,1.1502584218978882,-0.18417572975158691,0.35246896743774414
1772698644060445000,0.16144482421875,1.4031563997268677,-0.7400626540184021,0.546113133430481
1772698644077791500,0.17879150390625,1.3054180145263672,-0.9379828572273254,0.4557051360607147
1772698644095138000,0.196137939453125,0.9596685767173767,-0.6911935210227966,0.16737695038318634
1772698644112484600,0.213484619140625,0.8949168920516968,-0.6820304989814758,-0.2205221801996231
1772698644129831200,0.2308310546875,1.3408482074737549,-0.702799916267395,-0.5143481492996216
1772698644147177700,0.248177734375,1.833205223083496,-0.0204639695584774,-0.8405499458312988
1772698644164524300,0.265524169921875,2.098320484161377,0.012522728182375431,-0.9291253089904785
1772698644181870800,0.282870849609375,1.8869613409042358,-0.4529562294483185,-0.8026763200759888
1772698644199217400,0.300217529296875,1.6126830577850342,-1.027169108390808,-0.6774490475654602
1772698644216564000,0.31756396484375,1.7482949495315552,-1.6129884719848633,-0.6243038177490234
1772698644233910800,0.334910888671875,2.3347251415252686,-1.6704097986221313,-0.6194168925285339
1772698644251257300,0.35225732421875,2.883281707763672,-1.4840959310531616,-0.7165443897247314
1772698644268604000,0.36960400390625,3.3884668350219727,-1.968511700630188,-0.9755510687828064
1772698644285950500,0.386950439453125,3.8062984943389893,-2.687499523162842,-1.0793980360031128
1772698644303297000,0.404297119140625,3.833787441253662,-3.2311692237854004,-1.0665699243545532
1772698644320643600,0.4216435546875,4.34324836730957,-3.4749042987823486,-0.9957095980644226
1772698644337990100,0.438990234375,4.838659763336182,-2.450484037399292,-1.747684121131897
1772698644355336700,0.456336669921875,5.189907073974609,-1.5842777490615845,-2.802647590637207
1772698644372683300,0.473683349609375,5.300473690032959,-1.1725549697875977,-3.6706864833831787
1772698644390029800,0.49102978515625,5.484954833984375,-1.5573997497558594,-4.11234188079834
1772698644407376400,0.50837646484375,5.983420372009277,-1.7388266324996948,-4.395782947540283
1772698644424723000,0.525722900390625,6.437903881072998,-1.6777400970458984,-4.969995975494385
1772698644442069800,0.54306982421875,6.706684589385986,-1.5433498620986938,-5.083616733551025
1772698644459416300,0.560416259765625,6.7353949546813965,-1.2049307823181152,-4.148382663726807
1772698644476763000,0.577762939453125,6.415912628173828,-0.7809906005859375,-2.9382596015930176
1772698644494109400,0.595109375,6.292518138885498,-0.4419606626033783,-2.6969680786132812
1772698644511456000,0.6124560546875,6.492881774902344,-0.2922987937927246,-2.718959093093872
1772698644528802600,0.629802490234375,6.722567081451416,-0.674700140953064,-2.2430953979492188
1772698644546149000,0.647149169921875,6.28213357925415,-0.31062474846839905,-1.1594213247299194
1772698644563495700,0.66449560546875,5.561923980712891,0.9648609161376953,-0.1545487940311432
1772698644580842200,0.68184228515625,5.025584697723389,1.7241657972335815,0.6908880472183228
1772698644598188800,0.699188720703125,4.575988292694092,1.306334376335144,1.2363903522491455
1772698644615535600,0.71653564453125,4.277275085449219,0.9123265743255615,1.5332705974578857
1772698644632882200,0.733882080078125,3.9748971462249756,1.1279618740081787,1.7617340087890625
1772698644650228700,0.751228759765625,3.5497353076934814,1.8909319639205933,2.008523464202881
1772698644667575300,0.7685751953125,3.176496744155884,2.4999639987945557,2.1948370933532715
1772698644684921900,0.785921875,2.73850679397583,2.419940710067749,2.338390350341797
1772698644702268400,0.803268310546875,2.1704025268554688,1.7791436910629272,2.302960157394409
1772698644719615000,0.820614990234375,1.6725478172302246,1.0735948085784912,2.0934336185455322
1772698644736961500,0.83796142578125,1.2498292922973633,0.7486147880554199,1.5748094320297241
1772698644754308000,0.85530810546875,0.8576541543006897,1.130405306816101,0.749531090259552
1772698644771654700,0.872654541015625,0.4105011224746704,1.5879429578781128,-0.2516762912273407
1772698644789001200,0.890001220703125,0.023823726922273636,1.5012001991271973,-0.7538071274757385
1772698644806348000,0.90734814453125,-0.20158538222312927,1.0906990766525269,-1.0293071269989014
1772698644823694600,0.924694580078125,-0.27427828311920166,0.5403099060058594,-1.1875211000442505
1772698644841041200,0.942041259765625,-0.2877173125743866,-0.054672397673130035,-1.0781763792037964
1772698644858387700,0.9593876953125,-0.26022839546203613,-0.30085089802742004,-0.8930842876434326
1772698644875734300,0.976734375,-0.4098902642726898,-0.05039634555578232,-0.8472694754600525
1772698644893080800,0.994080810546875,-0.8503237962722778,0.39186975359916687,-1.0952805280685425
1772698644910427400,1.011427490234375,-1.6688826084136963,0.19394956529140472,-1.6328415870666504
1772698644927774000,1.02877392578125,-1.1307107210159302,1.2721259593963623,-0.430659681558609
1772698644945120500,1.04612060546875,-0.9517273306846619,1.1823288202285767,-1.8906265497207642
1772698644962467300,1.06346728515625,-0.6243038177490234,0.776103675365448,-1.4477494955062866
1772698644979814000,1.08081396484375,-0.6401863098144531,0.3442223072052002,-1.0189224481582642
1772698644997160400,1.098160400390625,-0.6530144214630127,0.4828886091709137,-0.7476984858512878
1772698645014507000,1.115507080078125,-0.6542361974716187,0.4224129915237427,-0.40805765986442566
1772698645031853600,1.132853515625,-0.8258891701698303,0.38209593296051025,-0.2669478952884674
1772698645049200000,1.1502001953125,-0.9804379940032959,0.18112140893936157,-0.268169641494751
1772698645066546700,1.167546630859375,-1.387273907661438,-0.3295615613460541,-0.29138249158859253
1772698645083893200,1.184893310546875,-1.9547673463821411,-0.8451313972473145,-0.7244856357574463
1772698645101239800,1.20223974609375,-1.813657522201538,-1.2904518842697144,-0.9120211005210876
1772698645118586400,1.21958642578125,-1.3322961330413818,-1.408348798751831,-1.321911334991455
1772698645135933000,1.236932861328125,-3.598604440689087,-1.035110354423523,-0.9731075763702393
1772698645153279700,1.25427978515625,-3.174053430557251,-1.6117666959762573,0.009773836471140385
1772698645170626300,1.271626220703125,-1.8179335594177246,-1.4645483493804932,-0.1484401375055313
1772698645187972900,1.288972900390625,-1.2479966878890991,-1.802356481552124,-0.36163195967674255
1772698645205319400,1.3063193359375,-1.3255765438079834,-1.6807944774627686,-0.49052441120147705
1772698645222666000,1.323666015625,-1.7544035911560059,-1.0919208526611328,-0.4526508152484894
1772698645240012500,1.341012451171875,-1.5485422611236572,-0.2666424810886383,-0.25900667905807495
1772698645257359000,1.358359130859375,-1.201570987701416,0.189673513174057,-0.07941242307424545
1772698645274705700,1.37570556640625,-0.9486730098724365,0.6551524996757507,0.3390299379825592
1772698645292052500,1.393052490234375,-1.0519092082977295,0.1389717310667038,0.3500255048274994
1772698645309399000,1.41039892578125,-1.1875211000442505,-0.1792888194322586,0.16249002516269684
1772698645326745600,1.42774560546875,-1.1398736238479614,-0.04062250629067421,0.4825831651687622
1772698645344092200,1.445092041015625,-0.7525854110717773,0.2922987937927246,0.6047561168670654
1772698645361438700,1.462438720703125,-0.2730565667152405,1.4963133335113525,0.14477495849132538
1772698645378785300,1.479785400390625,-0.45875945687294006,1.3112212419509888,-0.18264856934547424
1772698645396131800,1.4971318359375,-0.6102539300918579,0.8384119272232056,-0.3964512348175049
1772698645413478400,1.514478515625,-0.5583304166793823,0.9734130501747131,-0.4068359434604645
1772698645430825000,1.531824951171875,-0.4361574649810791,0.6496546864509583,-0.14782927930355072
1772698645448171800,1.549171875,-0.1233946830034256,0.4828886091709137,0.08307760953903198
1772698645465518300,1.566518310546875,0.14721840620040894,0.29901832342147827,0.1081230640411377
1772698645482865000,1.583864990234375,1.654221773147583,-0.518318772315979,0.0030543238390237093
1772698645500211500,1.60121142578125,2.0525057315826416,-1.334434151649475,-0.10567960888147354
1772698645517558000,1.61855810546875,2.3463315963745117,-1.83839750289917,0.1802051067352295
1772698645534904600,1.635904541015625,1.85092031955719,-1.3087778091430664,0.4007273018360138
1772698645552251100,1.653251220703125,-0.049480047076940536,1.4657700061798096,0.21685700118541718
1772698645569597700,1.67059765625,-0.6933315396308899,1.9721769094467163,-0.3445277214050293
1772698645586944300,1.6879443359375,-0.3023780584335327,1.3613121509552002,-0.389120876789093
1772698645604290800,1.705290771484375,-0.11606431007385254,0.2556469142436981,0.021380268037319183
1772698645621637600,1.7226376953125,-0.08613193035125732,-0.22999058663845062,0.11911863088607788
1772698645638984200,1.739984130859375,0.020158538594841957,-0.3961458206176758,-0.014660755172371864
1772698645656330800,1.757330810546875,0.04581485688686371,0.07605266571044922,-0.49541133642196655
1772698645673677300,1.77467724609375,0.07574722915887833,-0.061391908675432205,-0.36774060130119324
1772698645691024000,1.79202392578125,0.08796452730894089,-0.14752385020256042,-0.02871064469218254
1772698645708370400,1.809370361328125,0.29993459582328796,-0.9795216917991638,-0.21685700118541718
1772698645725717000,1.826717041015625,0.3995055556297302,-0.3136790692806244,0.13255766034126282
1772698645743063600,1.8440634765625,0.1282816082239151,0.8952223062515259,0.5174024701118469
1772698645760410400,1.861410400390625,0.20647229254245758,0.5574141144752502,0.36712974309921265
1772698645777757000,1.8787568359375,-0.024434590712189674,-0.054672397673130035,-0.2412915825843811
1772698645795103500,1.896103515625,0.017715077847242355,-0.40958482027053833,-0.5607738494873047
1772698645812450000,1.913449951171875,0.06414080411195755,-0.10537417232990265,-0.28405213356018066
1772698645829796600,1.930796630859375,0.010995565913617611,-0.08765909820795059,-0.235793799161911
1772698645847143200,1.94814306640625,-0.007330377586185932,-0.09865466505289078,-0.29565855860710144
1772698645864489700,1.96548974609375,-0.014049889519810677,-0.04306596517562866,-0.2675587832927704
1772698645881836300,1.982836181640625,-0.04825831577181816,-0.03329212963581085,-0.15210533142089844
1772698645899182800,2.000182861328125,-0.06902772188186646,-0.0925460159778595,-0.10567960888147354
1772698645916529400,2.017529296875,-0.04764745384454727,-0.08765909820795059,-0.12217295914888382
1772698645933876000,2.0348759765625,0.025045456364750862,-0.024740023538470268,-0.16065743565559387
1772698645951222800,2.052222900390625,0.14538581669330597,-0.013744457624852657,-0.2003636509180069
1772698645968569300,2.0695693359375,0.2761108875274658,-0.015577051788568497,-0.2364046722650528
1772698645985916000,2.086916015625,0.3811796307563782,0.035124726593494415,-0.2608392536640167
1772698646003262500,2.104262451171875,0.4453204274177551,0.1340848207473755,-0.2620609998703003
1772698646020609000,2.121609130859375,0.4508182108402252,0.27091851830482483,-0.24312418699264526
1772698646037955600,2.13895556640625,0.4257727563381195,0.40775224566459656,-0.21685700118541718
1772698646055302100,2.15630224609375,0.39339691400527954,0.47983428835868835,-0.22907429933547974
1772698646072648700,2.173648681640625,0.37201663851737976,0.5109884142875671,-0.2510654330253601
1772698646089995500,2.19099560546875,0.3549124300479889,0.5513054728507996,-0.2516762912273407
1772698646107342000,2.208342041015625,0.3347539007663727,0.6081159114837646,-0.185092031955719
1772698646124688600,2.225688720703125,0.28527384996414185,0.5506945848464966,-0.10079269111156464
1772698646142035200,2.24303515625,0.16249002516269684,0.5079340934753418,-0.02260199747979641
1772698646159381800,2.2603818359375,0.01893680728971958,0.6368265151977539,0.17592905461788177
1772698646176728300,2.277728271484375,-0.05253437161445618,0.9159917235374451,0.47036588191986084
1772698646194075000,2.295074951171875,-0.11362084746360779,0.9819651246070862,0.5772672295570374
1772698646211421400,2.31242138671875,-0.7629700899124146,1.028390884399414,1.0580178499221802
1772698646228768000,2.32976806640625,-1.4190388917922974,0.8634573817253113,1.4227041006088257
1772698646246114800,2.34711474609375,-1.4734058380126953,0.5531380772590637,0.7232639193534851
1772698646263461400,2.36446142578125,-1.0787872076034546,0.10659590363502502,-0.08491020649671555
1772698646280808000,2.381807861328125,-0.8741474747657776,0.27030766010284424,0.20463970303535461
1772698646298154500,2.399154541015625,-0.9706641435623169,0.16218459606170654,0.934623122215271
1772698646315501000,2.4165009765625,-0.7391464114189148,0.5946768522262573,1.1337649822235107
1772698646332847600,2.43384765625,-0.38179048895835876,-0.28496840596199036,0.6071996092796326
1772698646350194200,2.451194091796875,-0.03481929376721382,-0.7095194458961487,-0.001221729558892548
1772698646367540700,2.468540771484375,0.1496618688106537,-0.18356487154960632,-0.6236929297447205
1772698646384887600,2.485887451171875,0.3555232882499695,-0.26358816027641296,-0.9132428169250488
1772698646402234000,2.503234130859375,0.49480047821998596,-0.34116798639297485,-0.7415898442268372
1772698646419580700,2.52058056640625,0.39767298102378845,-0.0461202897131443,-0.4868592321872711
1772698646436927200,2.53792724609375,0.277332603931427,0.27397283911705017,-0.3836230933666229
1772698646454273800,2.555273681640625,0.3451386094093323,0.5561923980712891,-0.4153880476951599
1772698646471620400,2.572620361328125,0.5338957905769348,0.5574141144752502,-0.36651885509490967
1772698646488967000,2.589966796875,0.6805033683776855,0.2525925934314728,-0.18631376326084137
1772698646506313500,2.6073134765625,0.6890554428100586,-0.09926552325487137,-0.029932374134659767
1772698646523660000,2.624659912109375,0.5852084755897522,-0.2910770773887634,-0.007330377586185932
1772698646541006800,2.6420068359375,0.4312705397605896,-0.23365578055381775,-0.1484401375055313
1772698646558353400,2.659353515625,0.23396120965480804,-0.13225223124027252,-0.31520622968673706
1772698646575700000,2.676699951171875,0.05803215503692627,-0.09498947113752365,-0.3695732057094574
1772698646593046500,2.694046630859375,-0.04764745384454727,-0.1438586562871933,-0.3194822669029236
1772698646610393000,2.71139306640625,-0.09468404203653336,-0.22754712402820587,-0.20647229254245758
1772698646627739600,2.72873974609375,-0.09346231073141098,-0.2977965772151947,-0.11117739230394363
1772698646645086200,2.746086181640625,-0.10506874322891235,-0.3283398151397705,-0.06352993845939636
1772698646662433000,2.76343310546875,-0.22357651591300964,-0.31184646487236023,-0.05497783049941063
1772698646679779600,2.780779541015625,-0.4007273018360138,-0.23915356397628784,-0.050090912729501724
1772698646697126100,2.798126220703125,-0.5100721120834351,-0.2623664140701294,0.0054977829568088055
1772698646714472700,2.81547265625,-0.4465421438217163,-0.37171122431755066,0.11362084746360779
1772698646731819300,2.8328193359375,-0.2675587832927704,-0.6233875155448914,0.1533270627260208
1772698646749165800,2.850165771484375,-0.16187916696071625,-1.0687079429626465,0.09529490768909454
1772698646766512400,2.867512451171875,-0.29016077518463135,-1.3045017719268799,-0.11484257876873016
1772698646783859000,2.88485888671875,-0.43371400237083435,-1.2458586692810059,-0.29443681240081787
1772698646801205500,2.90220556640625,-0.3585776388645172,-1.1432334184646606,-0.20647229254245758
1772698646818552300,2.91955224609375,-0.3390299379825592,-1.0772600173950195,0.021380268037319183
1772698646835899000,2.93689892578125,-0.2706131041049957,-0.8549052476882935,0.2926042377948761
1772698646853245400,2.954245361328125,-0.22907429933547974,-0.27519458532333374,0.5332849621772766
1772698646870592000,2.971592041015625,-0.12705987691879272,0.4321868419647217,0.861319363117218
1772698646887938600,2.9889384765625,0.23518294095993042,0.499381959438324,1.4960078001022339
1772698646905285000,3.00628515625,0.7037162184715271,-0.250149130821228,2.1832306385040283
1772698646922631700,3.023631591796875,0.7391464114189148,-0.8103121519088745,2.480721950531006
1772698646939978200,3.040978271484375,0.0616973415017128,-0.8420770764350891,2.3090689182281494
1772698646957325000,3.058324951171875,-0.39339691400527954,-0.3704894781112671,1.8924590349197388
1772698646974671600,3.075671630859375,-0.19425499439239502,-0.23426663875579834,1.2143992185592651
1772698646992018200,3.09301806640625,-0.21258094906806946,-0.5995637774467468,0.3078758418560028
1772698647009364700,3.11036474609375,-0.5418370366096497,-0.416304349899292,-0.2162461280822754
1772698647026711300,3.127711181640625,-0.5876519083976746,-0.46028661727905273,-0.22907429933547974
1772698647044057900,3.145057861328125,-0.35124725103378296,-0.5549706816673279,-0.037262752652168274
1772698647061404400,3.162404296875,-0.2101374864578247,-0.5451968312263489,0.07635809481143951
1772698647078751200,3.179751220703125,-0.143553227186203,-0.7571669220924377,0.017715077847242355
1772698647096097800,3.197097900390625,-0.053145237267017365,-0.9312633275985718,-0.2614501118659973
1772698647113444400,3.2144443359375,-0.007941242307424545,-0.9453132748603821,-0.5332849621772766
1772698647130791000,3.231791015625,0.015271619893610477,-0.7504473924636841,-0.6536253094673157
1772698647148137500,3.249137451171875,0.11178825795650482,-0.4932733178138733,-0.6890554428100586
1772698647165484000,3.266484130859375,0.26939135789871216,-0.26908594369888306,-0.6688969135284424
1772698647182830600,3.28383056640625,0.45448338985443115,-0.09621120244264603,-0.6175842881202698
1772698647200177400,3.301177490234375,0.5864301919937134,0.03329212963581085,-0.565049946308136
1772698647217524000,3.31852392578125,0.6731730103492737,0.16523891687393188,-0.49052441120147705
1772698647234870500,3.33587060546875,0.6963858604431152,0.33139413595199585,-0.4098902642726898
1772698647252217000,3.353217041015625,0.6365211009979248,0.5421425104141235,-0.3591884970664978
1772698647269563600,3.370563720703125,0.5528326034545898,0.7052434086799622,-0.337808221578598
1772698647286910200,3.38791015625,0.4935787320137024,0.8200859427452087,-0.36835145950317383
1772698647304256800,3.4052568359375,0.4923570156097412,0.9288198947906494,-0.43860089778900146
1772698647321603600,3.422603515625,0.4923570156097412,0.9795216917991638,-0.5106829404830933
1772698647338950100,3.4399501953125,0.47097674012184143,0.980132520198822,-0.5491674542427063
1772698647356296700,3.457296630859375,0.4251618981361389,0.907439649105072,-0.45326167345046997
1772698647373643300,3.474643310546875,0.3445277214050293,0.8561269640922546,-0.20463970303535461
1772698647390989800,3.49198974609375,0.1844811588525772,0.898276686668396,0.053145237267017365
1772698647408336400,3.50933642578125,-0.0360410213470459,0.8573487401008606,0.08307760953903198
1772698647425683000,3.526682861328125,-0.24006985127925873,0.5720748901367188,-0.06414080411195755
1772698647443029800,3.54402978515625,-0.24251331388950348,0.282524973154068,-0.1441640853881836
1772698647460376300,3.561376220703125,-0.09834922850131989,0.025350889191031456,-0.04581485688686371
1772698647477723000,3.578722900390625,0.034208428114652634,-0.007024944759905338,0.16676609218120575
1772698647495069400,3.5960693359375,0.043371398001909256,0.13041962683200836,0.30604326725006104
1772698647512416000,3.613416015625,-0.05864302068948746,0.27091851830482483,0.34147340059280396
1772698647529762800,3.6307626953125,-0.11484257876873016,0.2562577724456787,0.1899789422750473
1772698647547109400,3.648109375,-0.1533270627260208,0.42302384972572327,-0.143553227186203
1772698647564456000,3.6654560546875,-0.8717040419578552,0.39736753702163696,-0.034208428114652634
1772698647581802500,3.682802490234375,-1.2021819353103638,0.8659008145332336,-0.036651886999607086
1772698647599149000,3.700149169921875,-1.1087195873260498,0.4376846253871918,-0.8655954003334045
1772698647616495600,3.71749560546875,-1.0030399560928345,-0.05100720748305321,-1.1050543785095215
1772698647633842200,3.73484228515625,-0.8063415288925171,0.5354229807853699,-0.4563159942626953
1772698647651188700,3.752188720703125,-0.4269944727420807,0.5140427350997925,0.32131487131118774
1772698647668535600,3.76953564453125,-0.3292561173439026,0.42913252115249634,0.9095776677131653
1772698647685882000,3.786882080078125,-0.07024945318698883,1.0314451456069946,0.6707295179367065
1772698647703228700,3.804228759765625,0.18203771114349365,1.0021237134933472,-0.017104214057326317
1772698647720575200,3.8215751953125,0.24495677649974823,1.2483022212982178,-0.21807873249053955
1772698647737921800,3.838921875,0.19242240488529205,1.497534990310669,-0.35063639283180237
1772698647755268400,3.856268310546875,0.20952661335468292,1.4059052467346191,-0.33597561717033386
1772698647772615000,3.873614990234375,0.2883281707763672,1.2794562578201294,-0.31154105067253113
1772698647789961500,3.89096142578125,0.24862197041511536,1.1768310070037842,-0.3402516841888428
1772698647807308300,3.908308349609375,0.14477495849132538,1.1676679849624634,-0.36651885509490967
1772698647824654800,3.92565478515625,0.04886918142437935,1.2000439167022705,-0.43004879355430603
1772698647842001400,3.94300146484375,-0.05070177838206291,1.2085959911346436,-0.4874700903892517
1772698647859348000,3.960347900390625,-0.0977383628487587,0.942258894443512,-0.4819723069667816
1772698647876694500,3.977694580078125,-0.07513637095689774,0.7180715203285217,-0.4105011224746704
1772698647894041000,3.995041015625,-0.12034036219120026,0.5158752799034119,-0.31459537148475647
1772698647911387600,4.0123876953125,-0.2205221801996231,0.323452889919281,-0.24740023910999298
1772698647928734500,4.029734375,-0.347582072019577,0.20738859474658966,-0.21868959069252014
1772698647946081000,4.0470810546875,-0.47525280714035034,0.15729768574237823,-0.1637117564678192
1772698647963427600,4.064427490234375,-0.5839866995811462,0.21288637816905975,-0.07757982611656189
1772698647980774100,4.081774169921875,-0.6212494969367981,0.16218459606170654,-0.033597562462091446
1772698647998120700,4.09912060546875,-0.5479456782341003,-0.2409861534833908,-0.024434590712189674
1772698648015467300,4.11646728515625,-0.26389357447624207,-0.6520981788635254,-0.02626718580722809
1772698648032813800,4.133813720703125,0.10629047453403473,-0.9269872903823853,-0.025045456364750862
1772698648050160600,4.15116064453125,0.38667741417884827,-1.1542290449142456,-0.07819069176912308
1772698648067507200,4.168507080078125,0.4612029194831848,-1.17194402217865,-0.1740964651107788
1772698648084853800,4.185853759765625,0.19914191961288452,-0.9159917235374451,-0.08429934084415436
1772698648102200300,4.203200439453125,-0.07757982611656189,-0.6191114783287048,0.0409279391169548
1772698648119547000,4.220546875,-0.23029601573944092,-0.5720748901367188,0.10201441496610641
1772698648136893700,4.237893798828125,-0.2009745091199875,-0.4260781705379486,0.04825831577181816
1772698648154240300,4.255240234375,-0.07391463965177536,-0.14813470840454102,-0.05253437161445618
1772698648171586800,4.2725869140625,0.03298669680953026,-0.07788526266813278,0.036651886999607086
1772698648188933400,4.289933349609375,0.10751219838857651,-0.09071341902017593,0.22785256803035736
1772698648206280000,4.307280029296875,0.10384701192378998,0.10048725455999374,0.5216785073280334
1772698648223626500,4.32462646484375,0.2205221801996231,0.24770566821098328,0.9767727851867676
1772698648240973000,4.34197314453125,0.6126973628997803,-0.18661919236183167,1.544877052307129
1772698648258320000,4.35931982421875,1.0983349084854126,-0.5775726437568665,1.8930699825286865
1772698648275666400,4.37666650390625,1.1435388326644897,-0.7919861674308777,1.943160891532898
1772698648293013000,4.394012939453125,0.6004800796508789,-0.8964440822601318,1.8851287364959717
1772698648310359600,4.411359619140625,-0.04276053607463837,-0.6716458201408386,1.6071852445602417
1772698648327706000,4.4287060546875,-0.1905898153781891,-0.4205803871154785,1.1221586465835571
1772698648345052700,4.446052734375,-0.08979712426662445,-0.6734784245491028,0.6743947267532349
1772698648362399500,4.4633994140625,-0.13622283935546875,-1.0314451456069946,0.5051851868629456
1772698648379746000,4.48074609375,-0.31642794609069824,-0.5861247777938843,0.27366742491722107
1772698648397092600,4.498092529296875,-0.38301220536231995,-0.16707152128219604,-0.059864748269319534
1772698648414439200,4.515439208984375,-0.33597561717033386,-0.18417572975158691,-0.29565855860710144
1772698648431785700,4.53278564453125,-0.2883281707763672,-0.5238165259361267,-0.34147340059280396
1772698648449132300,4.55013232421875,-0.14538581669330597,-0.7895427346229553,-0.40317076444625854
1772698648466479000,4.56747900390625,0.06230820715427399,-0.5409207344055176,-0.6194168925285339
1772698648483825700,4.58482568359375,0.1844811588525772,-0.4370737373828888,-0.6236929297447205
1772698648501172200,4.602172119140625,0.23823726177215576,-0.3271180987358093,-0.48441576957702637
1772698648518518800,4.619518798828125,0.25350889563560486,-0.15790854394435883,-0.41294458508491516
1772698648535865300,4.636865234375,0.25900667905807495,0.023518294095993042,-0.4007273018360138
1772698648553212000,4.6542119140625,0.26878049969673157,0.20127993822097778,-0.4514290690422058
1772698648570558700,4.671558837890625,0.3017672002315521,0.36254823207855225,-0.5577195286750793
1772698648587905300,4.6889052734375,0.3347539007663727,0.5170970559120178,-0.6621774435043335
1772698648605251800,4.706251953125,0.3787361681461334,0.6062833070755005,-0.6798924803733826
1772698648622598400,4.723598388671875,0.4373791813850403,0.6527090072631836,-0.6151408553123474
1772698648639945000,4.740945068359375,0.4575377106666565,0.7199041247367859,-0.5320632457733154
1772698648657291800,4.758291748046875,0.3970620930194855,0.8164207935333252,-0.4673115611076355
1772698648674638300,4.775638427734375,0.32070401310920715,0.8634573817253113,-0.42882707715034485
1772698648691985000,4.79298486328125,0.2211330533027649,0.8872811198234558,-0.3530798554420471
1772698648709331500,4.81033154296875,0.12095122784376144,0.8005383014678955,-0.20708316564559937
1772698648726678000,4.827677978515625,0.024434590712189674,0.5855138897895813,0.06047561392188072
1772698648744024600,4.845024658203125,-0.056810423731803894,0.4517345130443573,0.20708316564559937
1772698648761371400,4.862371337890625,-0.1130099818110466,0.2263254076242447,0.04886918142437935
1772698648778718000,4.879718017578125,-0.11239911615848541,-0.07910698652267456,-0.1899789422750473
1772698648796064500,4.897064453125,0.01649334840476513,-0.3906480371952057,-0.29504770040512085
1772698648813411000,4.9144111328125,0.13255766034126282,-0.2409861534833908,-0.12461641430854797
1772698648830757600,4.931757568359375,0.09346231073141098,0.0766635313630104,0.19181154668331146
1772698648848104200,4.949104248046875,0.10079269111156464,0.21349723637104034,0.2730565667152405
1772698648865451000,4.966450927734375,-0.01588248461484909,0.39736753702163696,-0.056810423731803894
1772698648882797600,4.983797607421875,-0.21135921776294708,0.4370737373828888,-0.3194822669029236
1772698648900144000,5.00114404296875,-0.3182605504989624,0.41263917088508606,-0.3194822669029236
1772698648917490700,5.01849072265625,-0.45387253165245056,0.5256491303443909,-0.3597993552684784
1772698648934837200,5.035837158203125,-0.9486730098724365,0.8842267394065857,0.1288924664258957
1772698648952184000,5.05318408203125,-1.4080432653427124,1.0583232641220093,0.5387827157974243
1772698648969530600,5.070530517578125,-1.9425499439239502,1.0931425094604492,0.32681265473365784
1772698648986877200,5.087877197265625,-1.7079778909683228,0.3020726442337036,-0.09162971377372742
1772698649004223700,5.1052236328125,-1.0476330518722534,0.09682206809520721,0.03237583488225937
1772698649021570300,5.1225703125,-0.36163195967674255,0.16340632736682892,0.6102539300918579
1772698649038916900,5.139916748046875,0.12034036219120026,0.7492256760597229,0.9950987100601196
1772698649056263700,5.157263671875,0.37323838472366333,0.3430005609989166,0.748920202255249
1772698649073610200,5.1746103515625,0.3481929302215576,0.04673115536570549,0.36712974309921265
1772698649090956800,5.191956787109375,0.06108647957444191,0.3393353819847107,-0.12278381735086441
1772698649108303400,5.209303466796875,0.003665188793092966,0.44318240880966187,-0.5180133581161499
1772698649125650000,5.22664990234375,0.09834922850131989,0.3399462401866913,-0.574212908744812
1772698649142996500,5.24399658203125,0.23212862014770508,0.42424559593200684,-0.4508182108402252
1772698649160343300,5.26134326171875,0.2730565667152405,0.5653553605079651,-0.43004879355430603
1772698649177689900,5.27868994140625,0.26022839546203613,0.7296779751777649,-0.4929678738117218
1772698649195036400,5.296036376953125,0.1899789422750473,0.7797688841819763,-0.5174024701118469
1772698649212383000,5.313383056640625,0.13011419773101807,0.6429351568222046,-0.5033525824546814
1772698649229729500,5.3307294921875,0.10629047453403473,0.43829548358917236,-0.46425724029541016
1772698649247076000,5.348076171875,0.06475166976451874,0.2263254076242447,-0.4581485986709595
1772698649264423000,5.3654228515625,0,0.09865466505289078,-0.5015199780464172
1772698649281769500,5.38276953125,-0.0616973415017128,0.06566796451807022,-0.5155698657035828
1772698649299116000,5.400115966796875,-0.13988803327083588,0.09926552325487137,-0.4453204274177551
1772698649316462600,5.417462646484375,-0.22296564280986786,0.12064579129219055,-0.28405213356018066
1772698649333809200,5.43480908203125,-0.2608392536640167,0.07299833744764328,-0.10018182545900345
1772698649351156000,5.452156005859375,-0.2657261788845062,-0.08826996386051178,0.0030543238390237093
1772698649368502500,5.46950244140625,-0.30054548382759094,-0.31673339009284973,0.01649334840476513
1772698649385849000,5.48684912109375,-0.23823726177215576,-0.49021899700164795,0.021991131827235222
1772698649403195600,5.504195556640625,-0.07147117704153061,-0.5940660238265991,0.07452550530433655
1772698649420542200,5.521542236328125,0.14782927930355072,-0.7205150127410889,0.1533270627260208
1772698649437888800,5.538888671875,0.3237583339214325,-0.9007201194763184,0.22968515753746033
1772698649455235600,5.556235595703125,0.318871408700943,-1.0021237134933472,0.22174391150474548
1772698649472582100,5.57358203125,0.1637117564678192,-0.9495893120765686,0.12217295914888382
1772698649489928700,5.5909287109375,-0.023823726922273636,-0.8255837559700012,0.006719512399286032
1772698649507275300,5.608275146484375,-0.2101374864578247,-0.5983420610427856,-0.07086031138896942
1772698649524621800,5.625621826171875,-0.3280344009399414,-0.3692677617073059,-0.1337793916463852
1772698649541968600,5.64296875,-0.3915643095970154,-0.2153298407793045,-0.08857539296150208
1772698649559315200,5.660315185546875,-0.30604326725006104,-0.08765909820795059,0.09040798991918564
1772698649576661800,5.677661865234375,-0.1233946830034256,-0.08521563559770584,0.31031930446624756
1772698649594008300,5.69500830078125,0.021991131827235222,-0.1853974610567093,0.49968740344047546
1772698649611355000,5.71235498046875,0.13133592903614044,-0.2409861534833908,0.7244856357574463
1772698649628701400,5.729701416015625,0.1496618688106537,-0.2623664140701294,0.9822705388069153
1772698649646048300,5.74704833984375,0.24312418699264526,-0.20372340083122253,1.1850776672363281
1772698649663394800,5.764394775390625,0.6829468011856079,-0.2788597643375397,1.3988803625106812
1772698649680741400,5.781741455078125,0.9810488224029541,-0.8701768517494202,1.6249003410339355
1772698649698088000,5.799087890625,0.5222893953323364,-1.2495238780975342,1.4227041006088257
1772698649715434500,5.8164345703125,0.13500112295150757,-1.0668753385543823,1.0030399560928345
1772698649732781000,5.833781005859375,0.143553227186203,-0.7583886384963989,0.676227331161499
1772698649750127900,5.8511279296875,0.3610210716724396,-0.49082985520362854,0.42882707715034485
1772698649767474400,5.868474365234375,0.26389357447624207,-0.7388409376144409,0.45448338985443115
1772698649784821000,5.885821044921875,-0.004276053514331579,-0.7742711305618286,0.49418962001800537
1772698649802167600,5.90316748046875,-0.16187916696071625,-0.767551600933075,0.24740023910999298
1772698649819514400,5.920514404296875,-0.17226386070251465,-0.887891948223114,-0.0665842592716217
1772698649836861000,5.93786083984375,-0.08796452730894089,-1.010064959526062,-0.20463970303535461
1772698649854207500,5.95520751953125,0.05436696484684944,-1.1053597927093506,-0.23884813487529755
1772698649871554000,5.972553955078125,0.14721840620040894,-0.8872811198234558,-0.28588470816612244
1772698649888900600,5.989900634765625,0.15638138353824615,-0.7205150127410889,-0.26450446248054504
1772698649906247400,6.007247314453125,0.10934479534626007,-0.674700140953064,-0.10018182545900345
1772698649923594000,6.024593994140625,0.11423171311616898,-0.5751292109489441,-0.013439024798572063
1772698649940940500,6.0419404296875,0.1948658674955368,-0.4615083336830139,-0.06841685622930527
1772698649958287000,6.059287109375,0.3194822669029236,-0.3185659945011139,-0.19364413619041443
1772698649975633700,6.076633544921875,0.44409868121147156,-0.20922118425369263,-0.3072649836540222
1772698649992980200,6.093980224609375,0.5479456782341003,-0.1902843713760376,-0.37323838472366333
1772698650010327000,6.1113271484375,0.6346884965896606,-0.23976442217826843,-0.37690356373786926
1772698650027673600,6.128673583984375,0.7171552777290344,-0.3032943606376648,-0.35063639283180237
1772698650045020200,6.146020263671875,0.7880155444145203,-0.26542073488235474,-0.3249800503253937
1772698650062366700,6.16336669921875,0.833219587802887,-0.15485422313213348,-0.3536907136440277
1772698650079713500,6.180713623046875,0.8014546036720276,-0.03634645417332649,-0.39767298102378845
1772698650097060000,6.19806005859375,0.6444623470306396,0.24770566821098328,-0.38179048895835876
1772698650114406700,6.21540673828125,0.46425724029541016,0.5910117030143738,-0.3298669755458832
1772698650131753200,6.232753173828125,0.21197007596492767,0.7718276381492615,-0.235793799161911
1772698650149099800,6.250099853515625,-0.12461641430854797,0.5952877402305603,-0.12034036219120026
1772698650166446600,6.267446533203125,-0.4471530318260193,0.3851502537727356,0.05253437161445618
1772698650183793200,6.284793212890625,-0.7428115606307983,0.282524973154068,0.15088360011577606
1772698650201139700,6.3021396484375,-0.9578359723091125,0.1383608728647232,0.17776164412498474
1772698650218486300,6.319486328125,-0.8081740736961365,0.11759147047996521,0.25534147024154663
1772698650235832800,6.336832763671875,-0.2461785078048706,0.14141519367694855,0.28588470816612244
1772698650253179400,6.354179443359375,0.10934479534626007,0.13103049993515015,0.1698204129934311
1772698650270526200,6.371526123046875,0.1496618688106537,0.21960589289665222,-0.004276053514331579
1772698650287872800,6.388872802734375,0.08063415437936783,0.15607595443725586,-0.12522727251052856
1772698650305219300,6.40621923828125,0.007330377586185932,0.03695731982588768,-0.2761108875274658
1772698650322566000,6.42356591796875,-0.4068359434604645,0.4016436040401459,-0.66645348072052
1772698650339912700,6.44091259765625,-1.380554437637329,0.1340848207473755,-0.24862197041511536
1772698650357259300,6.45825927734375,-1.7916663885116577,1.4914263486862183,-0.5222893953323364
1772698650374605800,6.475605712890625,-1.7134757041931152,0.3637699782848358,-0.8161153197288513
1772698650391952400,6.492952392578125,-1.4740166664123535,-0.7082977294921875,-0.8106175661087036
1772698650409299000,6.510298828125,-0.8662062287330627,-1.0992511510849,-0.12034036219120026
1772698650426645800,6.527645751953125,-0.1899789422750473,-1.3099994659423828,0.8643736839294434
1772698650443992300,6.544992431640625,0.30604326725006104,-0.562911868095398,1.0378592014312744
1772698650461339000,6.5623388671875,0.6023126840591431,-0.016798781231045723,0.3384190797805786
1772698650478685400,6.579685546875,0.6994401812553406,0.509155809879303,-0.10445787757635117
1772698650496032000,6.597031982421875,0.5112938284873962,0.8823941946029663,-0.19181154668331146
1772698650513378600,6.614378662109375,0.16676609218120575,0.7333431839942932,-0.1484401375055313
1772698650530725400,6.631725341796875,-0.06047561392188072,0.7040216326713562,-0.22968515753746033
1772698650548072000,6.649072021484375,-0.15088360011577606,0.8652899861335754,-0.4734202027320862
1772698650565418500,6.66641845703125,0.009773836471140385,1.1511746644973755,-0.5784889459609985
1772698650582765000,6.68376513671875,0.28954991698265076,1.4144574403762817,-0.526565432548523
1772698650600111900,6.70111181640625,0.46059203147888184,1.278234601020813,-0.3946186602115631
1772698650617458400,6.71845849609375,0.5186241865158081,0.8060360550880432,-0.277332603931427
1772698650634805000,6.735804931640625,0.5595521330833435,0.3222311735153198,-0.2211330533027649
1772698650652151600,6.753151611328125,0.5174024701118469,0.06200277432799339,-0.20952661335468292
1772698650669498000,6.770498046875,0.34636032581329346,0.05222893878817558,-0.21380266547203064
1772698650686844700,6.7878447265625,0.14538581669330597,0.11881320178508759,-0.24312418699264526
1772698650704191500,6.80519140625,0.015271619893610477,0.05589412897825241,-0.23029601573944092
1772698650721538000,6.8225380859375,-0.04459312930703163,-0.14141519367694855,-0.13988803327083588
1772698650738884600,6.839884521484375,-0.16676609218120575,-0.34666576981544495,-0.02260199747979641
1772698650756231200,6.857231201171875,-0.27427828311920166,-0.45539969205856323,-0.027488915249705315
1772698650773578000,6.874577880859375,-0.2626718580722809,-0.5354229807853699,-0.12400554865598679
1772698650790924500,6.891924560546875,-0.07941242307424545,-0.8084795475006104,-0.26022839546203613
1772698650808271000,6.90927099609375,0.18875721096992493,-1.1505638360977173,-0.3078758418560028
1772698650825617700,6.92661767578125,0.38240134716033936,-1.5567889213562012,-0.2254091054201126
1772698650842964200,6.943964111328125,0.4685332775115967,-1.590997338294983,-0.07391463965177536
1772698650860311000,6.96131103515625,0.4062250852584839,-1.481041669845581,0.039706211537122726
1772698650877657600,6.97865771484375,0.18142683804035187,-1.2910627126693726,0.0824667438864708
1772698650895004200,6.996004150390625,-0.09040798991918564,-0.9599739909172058,0.05070177838206291
1772698650912350700,7.013350830078125,-0.2730565667152405,-0.5403099060058594,-0.10506874322891235
1772698650929697500,7.030697509765625,-0.25961753726005554,-0.18234314024448395,-0.19608759880065918
1772698650947044000,7.048044189453125,-0.10690133273601532,0.13958260416984558,0.06780599057674408
1772698650964390700,7.065390625,0.18325942754745483,0.37659814953804016,0.6517927050590515
1772698650981737200,7.0827373046875,0.6743947267532349,0.16157373785972595,1.3286309242248535
1772698650999083800,7.100083740234375,1.237612009048462,-0.2776380479335785,1.913839340209961
1772698651016430600,7.1174306640625,1.191797137260437,-0.1230892539024353,2.0781619548797607
1772698651033777200,7.134777099609375,0.618806004524231,-0.37659814953804016,1.933387041091919
1772698651051123700,7.152123779296875,-0.09712749719619751,-0.7302888631820679,1.4123194217681885
1772698651068470300,7.16947021484375,-0.41844236850738525,-0.6520981788635254,0.5522217750549316
1772698651085817000,7.186817138671875,-0.4153880476951599,-0.5103775262832642,-0.28588470816612244
1772698651103163600,7.20416357421875,-0.2730565667152405,-0.6801979541778564,-0.6395754218101501
1772698651120510200,7.22151025390625,0.04825831577181816,-0.8842267394065857,-0.3384190797805786
1772698651137856800,7.238856689453125,0.10079269111156464,-0.8713986277580261,0.009162971749901772
1772698651155203300,7.256203369140625,-0.08674279600381851,-0.9257655739784241,-0.08063415437936783
1772698651172550100,7.273550048828125,-0.2107483446598053,-1.237917423248291,-0.47036588191986084
1772698651189896700,7.290896728515625,-0.17592905461788177,-1.8237367868423462,-0.749531090259552
1772698651207243300,7.3082431640625,-0.15821397304534912,-1.5195261240005493,-0.8222240209579468
1772698651224589800,7.32558984375,-0.06230820715427399,-0.7730493545532227,-0.6780598759651184
1772698651241936400,7.342936279296875,0.1282816082239151,-0.23426663875579834,-0.41294458508491516
1772698651259283200,7.360283203125,0.3035998046398163,-0.1805105358362198,-0.21135921776294708
1772698651276629800,7.377629638671875,0.40378162264823914,-0.2611446976661682,-0.1740964651107788
1772698651293976300,7.394976318359375,0.5057960152626038,-0.23487751185894012,-0.25045454502105713
1772698651311323000,7.412322998046875,0.5674933791160583,-0.09682206809520721,-0.3384190797805786
1772698651328669700,7.429669677734375,0.6035344004631042,0.051618073135614395,-0.3610210716724396
1772698651346016300,7.447016357421875,0.6243038177490234,0.16096286475658417,-0.36224281787872314
1772698651363362800,7.46436279296875,0.627968966960907,0.2562577724456787,-0.38789913058280945
1772698651380709400,7.48170947265625,0.6414080262184143,0.30451610684394836,-0.44470956921577454
1772698651398056000,7.499055908203125,0.648127555847168,0.27091851830482483,-0.5253437161445618
1772698651415402800,7.51640283203125,0.6304124593734741,0.09621120244264603,-0.48013970255851746
1772698651432749300,7.533749267578125,0.5601630210876465,-0.057726722210645676,-0.3402516841888428
1772698651450095900,7.551095947265625,0.5204567909240723,-0.1182023361325264,-0.21380266547203064
1772698651467442400,7.5684423828125,0.41233372688293457,-0.024740023538470268,0.03848448023200035
1772698651484789200,7.585789306640625,0.13255766034126282,-0.054672397673130035,0.27488914132118225
1772698651502135800,7.6031357421875,-0.15088360011577606,-0.47555822134017944,0.16310089826583862
1772698651519482400,7.620482421875,-0.24862197041511536,-0.7284562587738037,-0.18570289015769958
1772698651536829000,7.637828857421875,-0.12950333952903748,-0.4663952589035034,-0.5015199780464172
1772698651554175500,7.655175537109375,-0.043371398001909256,0.17256930470466614,-0.46059203147888184
1772698651571522300,7.672522216796875,0.039706211537122726,0.3393353819847107,-0.31031930446624756
1772698651588868900,7.689868896484375,-0.11911863088607788,0.05711585655808449,-0.1899789422750473
1772698651606215400,7.70721533203125,-0.6298015713691711,-0.28985533118247986,-0.143553227186203
1772698651623562200,7.724562255859375,-1.425147533416748,-0.07360920310020447,-0.5039634704589844
1772698651640908800,7.74190869140625,-1.68354332447052,0.1127045527100563,-1.0409135818481445
1772698651658255400,7.75925537109375,-1.158199667930603,-0.22266021370887756,-1.174692988395691
1772698651675602000,7.776601806640625,-0.41844236850738525,-0.5751292109489441,-1.1655299663543701
1772698651692948500,7.793948486328125,0.05864302068948746,-0.6985238790512085,-0.7672461867332458
1772698651710295300,7.81129541015625,0.1802051067352295,-0.6386591196060181,-0.2767217457294464
1772698651727641900,7.828641845703125,0.2981020212173462,-0.5354229807853699,0.040317077189683914
1772698651744988400,7.845988525390625,0.3707949221134186,-0.3130682110786438,-0.029932374134659767
1772698651762335000,7.8633349609375,0.35246896743774414,0.28557929396629333,-0.19853104650974274
1772698651779681800,7.880681884765625,0.06963858753442764,0.6985238790512085,-0.01893680728971958
1772698651797028400,7.8980283203125,-0.15149445831775665,1.2122611999511719,0.17776164412498474
1772698651814375000,7.915375,-0.14233149588108063,1.6215405464172363,0.17287473380565643
1772698651831721500,7.932721435546875,0.06352993845939636,1.5940515995025635,0.07269290834665298
1772698651849068000,7.950068115234375,0.2528980076313019,1.3747512102127075,0.08063415437936783
1772698651866414800,7.967414794921875,0.32620179653167725,1.368031620979309,0.12278381735086441
1772698651883761400,7.984761474609375,0.268169641494751,1.4254529476165771,0.1081230640411377
1772698651901108000,8.00210791015625,0.17837251722812653,1.4853177070617676,0.039706211537122726
1772698651918454500,8.01945458984375,0.09346231073141098,1.5329651832580566,-0.09101885557174683
1772698651935801300,8.03680126953125,0.04520399495959282,1.432172417640686,-0.18325942754745483
1772698651953148000,8.05414794921875,0.053145237267017365,1.3106104135513306,-0.19914191961288452
1772698651970494500,8.071494384765625,0.06047561392188072,1.1884374618530273,-0.2162461280822754
1772698651987841000,8.088841064453124,0.05925388261675835,1.0864230394363403,-0.2779434621334076
1772698652005187600,8.1061875,0.03909534588456154,1.0143409967422485,-0.33231043815612793
1772698652022534400,8.123534423828126,-0.009162971749901772,0.9459241032600403,-0.3439168632030487
1772698652039881000,8.140880859375,-0.09590577334165573,0.8762855529785156,-0.29626941680908203
1772698652057227500,8.1582275390625,-0.1997527778148651,0.8408553600311279,-0.19730933010578156
1772698652074574000,8.175573974609375,-0.3090975880622864,0.8255837559700012,-0.12522727251052856
1772698652091921000,8.1929208984375,-0.35674503445625305,0.7932079434394836,-0.15760311484336853
1772698652109267500,8.210267333984374,-0.32681265473365784,0.7308996915817261,-0.23945899307727814
1772698652126614000,8.227614013671875,-0.2516762912273407,0.703410804271698,-0.2712239623069763
1772698652143960600,8.244960693359374,-0.14782927930355072,0.6979129910469055,-0.24495677649974823
1772698652161307400,8.262307373046875,0.030543239787220955,0.610559344291687,-0.1747073233127594
1772698652178654000,8.279654052734376,0.17165300250053406,0.5720748901367188,-0.10140355676412582
1772698652196000500,8.29700048828125,0.1692095398902893,0.6307178735733032,-0.05742128938436508
1772698652213347000,8.31434716796875,0.0818558782339096,0.7596103549003601,-0.023212861269712448
1772698652230693600,8.331693603515625,0.014660755172371864,0.8066469430923462,-0.04276053607463837
1772698652248040400,8.34904052734375,0.03481929376721382,0.8701768517494202,-0.12705987691879272
1772698652265387000,8.366386962890624,0.11362084746360779,0.6484329700469971,-0.07330377399921417
1772698652282733600,8.383733642578125,0.3121519088745117,0.5702422857284546,0.17592905461788177
1772698652300080000,8.401080078125,0.573602020740509,0.4169152081012726,0.5057960152626038
1772698652317427000,8.418427001953125,0.8148936033248901,0.34055712819099426,0.8350521326065063
1772698652334773500,8.4357734375,0.9547816514968872,0.4718930423259735,1.0793980360031128
1772698652352120000,8.4531201171875,0.794124186038971,0.7095194458961487,1.2516618967056274
1772698652369466600,8.470466552734376,0.44837474822998047,0.8384119272232056,1.4086542129516602
1772698652386813400,8.4878134765625,0.07513637095689774,0.9092722535133362,1.4935643672943115
1772698652404160000,8.505159912109375,-0.20463970303535461,0.6911935210227966,1.388495683670044
1772698652421506600,8.522506591796875,-0.2522871494293213,0.3081812858581543,1.0989457368850708
1772698652438853000,8.53985302734375,-0.20158538222312927,-0.04428769648075104,0.7751874327659607
1772698652456200000,8.557199951171874,-0.17348559200763702,-0.08521563559770584,0.8112284541130066
1772698652473546500,8.57454638671875,-0.1288924664258957,0.06811141967773438,0.998153030872345
1772698652490893000,8.59189306640625,-0.31581708788871765,0.5751292109489441,0.8020654320716858
1772698652508239600,8.609239501953125,-0.7183769941329956,0.9172134399414062,0.3549124300479889
1772698652525586400,8.62658642578125,-0.8790343999862671,0.7449495792388916,-0.039706211537122726
1772698652542933000,8.64393310546875,-0.8368847370147705,0.37781986594200134,-0.15638138353824615
1772698652560279600,8.661279541015626,-0.6914989352226257,-0.01740964688360691,-0.13622283935546875
1772698652577626000,8.678626220703125,-0.5803215503692627,-0.11148282140493393,-0.11117739230394363
1772698652594973000,8.695972900390625,-0.4404335021972656,-0.11698060482740402,-0.09834922850131989
1772698652612319500,8.713319580078124,-0.3396408259868622,-0.04428769648075104,-0.1337793916463852
1772698652629666000,8.730666015625,-0.2993237376213074,0.07422006875276566,-0.2260199636220932
1772698652647012600,8.7480126953125,-0.2761108875274658,0.18295399844646454,-0.32559093832969666
1772698652664359400,8.765359375,-0.18753549456596375,0.2098320573568344,-0.3958403766155243
1772698652681706000,8.7827060546875,-0.07819069176912308,0.11636973917484283,-0.4416552484035492
1772698652699052500,8.800052490234375,0.01893680728971958,0.015577051788568497,-0.4831940531730652
1772698652716399000,8.817399169921876,0.09712749719619751,-0.0027488914784044027,-0.4685332775115967
1772698652733746000,8.834745849609375,0.11239911615848541,0.13225223124027252,-0.39828383922576904
1772698652751092500,8.852092529296876,0.021991131827235222,0.30451610684394836,-0.2864955961704254
1772698652768439000,8.86943896484375,-0.11484257876873016,0.4321868419647217,0.006108647678047419
1772698652785785600,8.88678564453125,-0.3194822669029236,0.39186975359916687,0.46914416551589966
1772698652803132400,8.90413232421875,-0.5797106623649597,0.22204934060573578,0.8674280047416687
1772698652820479000,8.92147900390625,-0.6554579138755798,0.22754712402820587,0.7556397318840027
1772698652837825500,8.938825439453124,-0.6017017960548401,0.14813470840454102,0.23396120965480804
1772698652855172000,8.956172119140625,-0.2932150959968567,-0.19883649051189423,0.20647229254245758
1772698652872519000,8.973518798828126,-0.08674279600381851,-0.364991694688797,0.5681042671203613
1772698652889865500,8.990865478515625,0.04886918142437935,-0.5287034511566162,0.870482325553894
1772698652907212000,9.0082119140625,0.08857539296150208,-0.43401941657066345,0.8686497211456299
1772698652924558800,9.025558837890625,-0.05925388261675835,-0.34666576981544495,0.5338957905769348
1772698652941905400,9.042905517578125,-0.18081597983837128,-0.5115992426872253,0.16676609218120575
1772698652959252000,9.060251953125,-0.16737695038318634,-0.7333431839942932,-0.09285144507884979
1772698652976598500,9.0775986328125,-0.04886918142437935,-0.785877525806427,-0.2730565667152405
1772698652993945300,9.0949453125,0.10995566099882126,-0.7535017132759094,-0.21746785938739777
1772698653011292000,9.1122919921875,0.19669845700263977,-0.7247910499572754,-0.06536252796649933
1772698653028638500,9.129638427734376,0.2706131041049957,-0.7040216326713562,-0.05436696484684944
1772698653045985000,9.146985107421875,0.347582072019577,-0.7272345423698425,-0.2009745091199875
1772698653063331800,9.164331787109376,0.4166097939014435,-0.7260127663612366,-0.38179048895835876
1772698653080678400,9.181678466796875,0.5106829404830933,-0.6563742160797119,-0.44898560643196106
1772698653098025000,9.19902490234375,0.5839866995811462,-0.5238165259361267,-0.38667741417884827
1772698653115371800,9.216371826171875,0.6255255341529846,-0.3943132162094116,-0.2822195291519165
1772698653132718300,9.23371826171875,0.6701186895370483,-0.2880227565765381,-0.22479823231697083
1772698653150065000,9.25106494140625,0.7611374855041504,-0.2666424810886383,-0.2528980076313019
1772698653167411500,9.268411376953125,0.8246674537658691,-0.31001389026641846,-0.34147340059280396
1772698653184758300,9.28575830078125,0.8582650423049927,-0.39675667881965637,-0.4001164436340332
1772698653202104800,9.303104736328125,0.8313869833946228,-0.448069304227829,-0.3689623177051544
1772698653219451400,9.320451416015626,0.7134900689125061,-0.3436114490032196,-0.27977606654167175
1772698653236798000,9.3377978515625,0.5797106623649597,-0.2568686306476593,-0.21441353857517242
1772698653254144800,9.355144775390626,0.5057960152626038,-0.25870123505592346,-0.24006985127925873
1772698653271491300,9.3724912109375,0.535728394985199,-0.25870123505592346,-0.3090975880622864
1772698653288838000,9.389837890625,0.6530144214630127,-0.18784092366695404,-0.3231474757194519
1772698653306184400,9.407184326171874,0.8246674537658691,-0.1646280586719513,-0.2156352698802948
1772698653323531300,9.42453125,0.9425643682479858,-0.14263692498207092,-0.0818558782339096
1772698653340877800,9.4418779296875,0.8405499458312988,-0.03940077871084213,0.04520399495959282
1772698653358224400,9.459224365234375,0.5613847374916077,0.1389717310667038,0.21197007596492767
1772698653375571200,9.4765712890625,0.1496618688106537,0.29535311460494995,0.37201663851737976
1772698653392917800,9.493917724609375,-0.20708316564559937,0.4676169753074646,0.4789179861545563
1772698653410264300,9.511264404296876,-0.39889469742774963,0.46028661727905273,0.4269944727420807
1772698653427611000,9.52861083984375,-0.36285367608070374,0.2922987937927246,0.11239911615848541
1772698653444957700,9.545957763671876,-0.39828383922576904,-0.01740964688360691,-0.24251331388950348
1772698653462304300,9.56330419921875,-0.3652971386909485,-0.3436114490032196,0.6004800796508789
1772698653479650800,9.58065087890625,-0.8112284541130066,-0.3753764033317566,0.6133082509040833
1772698653496997400,9.597997314453124,-1.7263038158416748,-0.5409207344055176,-0.205861434340477
1772698653514344200,9.61534423828125,-2.1221442222595215,-0.2715294063091278,-0.8118392825126648
1772698653531690800,9.632690673828124,-1.9999712705612183,0.5378664135932922,-0.7324268817901611
1772698653549037300,9.650037353515625,-1.4013237953186035,0.8213077187538147,-0.21685700118541718
1772698653566383900,9.6673837890625,-0.4783071279525757,0.05589412897825241,0.07147117704153061
1772698653583730700,9.684730712890625,0.40317076444625854,-0.22754712402820587,0.06780599057674408
1772698653601077200,9.7020771484375,0.7385355234146118,-0.34177884459495544,-0.14599667489528656
1772698653618423800,9.719423828125,0.6084213256835938,-0.24220788478851318,-0.2822195291519165
1772698653635770600,9.7367705078125,0.24006985127925873,0.23976442217826843,-0.22846342623233795
1772698653653117200,9.7541171875,-0.07147117704153061,0.6093376278877258,-0.12767073512077332
1772698653670463700,9.771463623046875,-0.07452550530433655,0.8255837559700012,-0.1747073233127594
1772698653687810300,9.788810302734374,0.22968515753746033,0.9233221411705017,-0.34086254239082336
1772698653705157000,9.8061572265625,0.4361574649810791,0.9135482907295227,-0.38789913058280945
1772698653722503700,9.823503662109376,0.41905322670936584,0.8402445316314697,-0.3799578845500946
1772698653739850200,9.840850341796875,0.2156352698802948,0.7443387508392334,-0.3335321843624115
1772698653757196800,9.85819677734375,-0.0720820426940918,0.6637045741081238,-0.2828303873538971
1772698653774543600,9.875543701171875,-0.3396408259868622,0.582459568977356,-0.32620179653167725
1772698653791890200,9.89289013671875,-0.46914416551589966,0.48655378818511963,-0.39217519760131836
1772698653809236700,9.91023681640625,-0.4196641147136688,0.4150826036930084,-0.4367683231830597
1772698653826583300,9.927583251953125,-0.3445277214050293,0.24342961609363556,-0.40378162264823914
1772698653843930000,9.94493017578125,-0.39828383922576904,-0.06811141967773438,-0.3133736252784729
1772698653861276700,9.962276611328125,-0.5271763205528259,-0.3393353819847107,-0.28954991698265076
1772698653878623200,9.979623291015624,-0.6017017960548401,-0.619722306728363,-0.36774060130119324
1772698653895970000,9.996969970703125,-0.48441576957702637,-0.9752455949783325,-0.44470956921577454
1772698653913316600,10.014316650390626,-0.23762640357017517,-1.2617411613464355,-0.40378162264823914
1772698653930663200,10.0316630859375,0.018325943499803543,-1.2275327444076538,-0.3836230933666229
1772698653948010000,10.049010009765626,0.22418737411499023,-1.2073742151260376,-0.4318813979625702
1772698653965356500,10.0663564453125,0.1899789422750473,-1.3637555837631226,-0.4166097939014435
1772698653982703000,10.083703125,0.001832594396546483,-1.332601547241211,-0.2932150959968567
1772698654000049700,10.101049560546874,-0.10995566099882126,-1.1829396486282349,-0.15149445831775665
1772698654017396500,10.118396484375,-0.21258094906806946,-1.211039423942566,-0.11239911615848541
1772698654034743000,10.135742919921874,-0.3029889166355133,-1.092531681060791,-0.1747073233127594
1772698654052089600,10.153089599609375,-0.37812530994415283,-0.7082977294921875,-0.2003636509180069
1772698654069436200,10.170436279296876,-0.2981020212173462,-0.49144071340560913,-0.03787361457943916
1772698654086783000,10.187782958984375,-0.15210533142089844,-0.3326158821582794,0.19242240488529205
1772698654104129500,10.205129638671876,-0.07452550530433655,-0.21655155718326569,0.39278605580329895
1772698654121476000,10.22247607421875,-0.04153880476951599,-0.00946840364485979,0.6811142563819885
1772698654138823000,10.239822998046876,0.09040798991918564,0.13041962683200836,0.916297197341919
1772698654156169500,10.25716943359375,0.40866854786872864,0.12431098520755768,1.109330415725708
1772698654173516000,10.27451611328125,0.7550288438796997,-0.16829325258731842,1.4404191970825195
1772698654190862600,10.291862548828124,0.778241753578186,-0.4822777509689331,1.7238603830337524
1772698654208209400,10.30920947265625,0.5436696410179138,-0.6356047987937927,1.8228205442428589
1772698654225556000,10.326555908203124,0.2614501118659973,-0.4816668927669525,1.6908737421035767
1772698654242902500,10.343902587890625,0.13988803327083588,-0.4676169753074646,1.362228512763977
1772698654260249300,10.361249267578126,0.04825831577181816,-0.6740893125534058,0.9608902931213379
1772698654277596000,10.378595947265625,-0.13439024984836578,-0.7797688841819763,0.5528326034545898
1772698654294942500,10.3959423828125,-0.24006985127925873,-0.9178243279457092,0.3695732057094574
1772698654312289000,10.4132890625,-0.27427828311920166,-0.6533198952674866,0.3707949221134186
1772698654329635800,10.4306357421875,-0.18325942754745483,-0.3539961278438568,0.3543015718460083
1772698654346982400,10.447982421875,0.017715077847242355,-0.282524973154068,0.2608392536640167
1772698654364329200,10.4653291015625,0.3017672002315521,-0.4053087830543518,0.20647229254245758
1772698654381675800,10.48267578125,0.4373791813850403,-0.5042688846588135,0.1337793916463852
1772698654399022300,10.500022216796875,0.3909534513950348,-0.4608974754810333,0.08002328872680664
1772698654416369000,10.517368896484374,0.2632827162742615,-0.3295615613460541,0.06108647957444191
1772698654433715700,10.5347158203125,0.1997527778148651,-0.23304490745067596,0.002443459117785096
1772698654451062300,10.552062255859376,0.24495677649974823,-0.168904110789299,-0.05070177838206291
1772698654468408800,10.569408935546875,0.370184063911438,-0.03451386094093323,-0.036651886999607086
1772698654485755600,10.586755615234376,0.5229002237319946,0.15668681263923645,0.06902772188186646
1772698654503102200,10.604102294921875,0.6579013466835022,0.35766133666038513,0.24862197041511536
1772698654520448800,10.62144873046875,0.7464767694473267,0.5537489056587219,0.40744680166244507
1772698654537795300,10.63879541015625,0.7544180154800415,0.6777544617652893,0.5137372612953186
1772698654555142100,10.65614208984375,0.7605266571044922,0.6820304989814758,0.4789179861545563
1772698654572488700,10.67348876953125,0.7605266571044922,0.6178897023200989,0.277332603931427
1772698654589835500,10.69083544921875,0.7568614482879639,0.5592467188835144,-0.05864302068948746
1772698654607182000,10.70818212890625,0.7024945020675659,0.5225948095321655,-0.3249800503253937
1772698654624528600,10.725528564453125,0.5748237371444702,0.5103775262832642,-0.37629270553588867
1772698654641875200,10.742875244140626,0.34636032581329346,0.47067132592201233,-0.2883281707763672
1772698654659222000,10.760221923828125,0.16004657745361328,0.28435754776000977,-0.2663370370864868
1772698654676568600,10.777568603515626,0.0977383628487587,0.1737910360097885,-0.38789913058280945
1772698654693915100,10.7949150390625,0.0769689604640007,0.14508038759231567,-0.536339282989502
1772698654711262000,10.812261962890625,0.04581485688686371,0.16340632736682892,-0.5571087002754211
1772698654728608500,10.8296083984375,-0.012217295356094837,0.13713914155960083,-0.37140578031539917
1772698654745955000,10.846955078125,-0.08063415437936783,0.05894844979047775,-0.06963858753442764
1772698654763301600,10.864301513671874,-0.16737695038318634,-0.09132428467273712,0.08368847519159317
1772698654780648400,10.8816484375,-0.33047783374786377,0.07483093440532684,-0.10445787757635117
1772698654797995000,10.8989951171875,-0.5601630210876465,0.21777328848838806,0.10384701192378998
1772698654815341800,10.916341796875,-0.9847140312194824,0.1285870373249054,0.21258094906806946
1772698654832688400,10.9336884765625,-1.618180751800537,0.06383536756038666,-0.2761108875274658
1772698654850035000,10.951034912109375,-1.4850122928619385,-0.3484983444213867,-0.6450732350349426
1772698654867381800,10.9683818359375,-1.1227694749832153,-0.08399390429258347,-0.6328558921813965
1772698654884728300,10.985728271484374,-0.7464767694473267,0.19394956529140472,-0.33108872175216675
1772698654902075000,11.003074951171875,-0.721431314945221,0.3906480371952057,0.3249800503253937
1772698654919421400,11.02042138671875,-0.8491020202636719,0.6679806113243103,0.47464191913604736
1772698654936768300,11.037768310546875,-0.6450732350349426,0.36254823207855225,-0.0054977829568088055
1772698654954114800,11.05511474609375,-0.32192572951316833,0.5012145638465881,-0.48013970255851746
1772698654971461400,11.07246142578125,-0.03298669680953026,0.6734784245491028,-0.7745765447616577
1772698654988808200,11.08980810546875,0.15210533142089844,0.5305360555648804,-0.7141009569168091
1772698655006154800,11.10715478515625,0.16798780858516693,0.2684750556945801,-0.4819723069667816
1772698655023501300,11.124501220703126,0.12400554865598679,0.06322450190782547,-0.38240134716033936
1772698655040848100,11.14184814453125,0.04153880476951599,0.05345066636800766,-0.44959646463394165
1772698655058194700,11.159194580078125,-0.09285144507884979,0.19883649051189423,-0.565049946308136
1772698655075541200,11.176541259765624,-0.20219624042510986,0.1847866028547287,-0.5870410799980164
1772698655092887800,11.1938876953125,-0.2712239623069763,-0.03451386094093323,-0.5326740741729736
1772698655110234600,11.211234619140624,-0.2938259541988373,-0.3381136655807495,-0.48563748598098755
1772698655127581200,11.228581298828125,-0.28954991698265076,-0.5855138897895813,-0.47586366534233093
1772698655144927700,11.245927734375,-0.3023780584335327,-0.7162389755249023,-0.4825831651687622
1772698655162274600,11.263274658203125,-0.3384190797805786,-0.7736602425575256,-0.4917461574077606
1772698655179621000,11.28062109375,-0.38179048895835876,-0.7589994668960571,-0.4410443603992462
1772698655196967700,11.2979677734375,-0.4062250852584839,-0.7144063711166382,-0.3433060050010681
1772698655214314500,11.315314453125,-0.360410213470459,-0.6221657991409302,-0.2767217457294464
1772698655231661000,11.3326611328125,-0.2571740746498108,-0.47555822134017944,-0.20830489695072174
1772698655249007600,11.350007568359375,-0.18325942754745483,-0.44929105043411255,-0.05436696484684944
1772698655266354400,11.3673544921875,-0.07330377399921417,-0.5378664135932922,0.09346231073141098
1772698655283701000,11.384700927734375,-0.020769402384757996,-0.6447677612304688,0.1337793916463852
1772698655301047600,11.402047607421874,-0.043982263654470444,-0.609948456287384,0.07086031138896942
1772698655318394400,11.419394287109375,-0.11362084746360779,-0.4523453712463379,0.0054977829568088055
1772698655335741000,11.436740966796876,-0.18387030065059662,-0.23976442217826843,-0.003665188793092966
1772698655353087500,11.45408740234375,-0.08491020649671555,-0.39736753702163696,0.07880155742168427
1772698655370434300,11.471434326171876,0.021991131827235222,-0.6514872908592224,0.17776164412498474
1772698655387780900,11.48878076171875,0.043982263654470444,-0.7003564834594727,0.2205221801996231
1772698655405127400,11.50612744140625,0.046425722539424896,-0.47922343015670776,0.1496618688106537
1772698655422474000,11.523473876953124,0.12278381735086441,-0.1646280586719513,0.08552107214927673
1772698655439820800,11.54082080078125,0.19242240488529205,-0.010079269297420979,0.09957095980644226
1772698655457167400,11.55816748046875,0.20158538222312927,0.21960589289665222,0.3237583339214325
1772698655474514000,11.575513916015625,0.4050033390522003,0.3497200906276703,0.80389803647995
1772698655491860700,11.59286083984375,0.7812960743904114,0.3992001414299011,1.32985258102417
1772698655509207300,11.610207275390625,1.303585410118103,0.16646064817905426,1.839924693107605
1772698655526554000,11.62755419921875,1.619402527809143,-0.48533207178115845,2.1893393993377686
1772698655543900700,11.644900634765625,1.4123194217681885,-0.6643154621124268,2.369544506072998
1772698655561247200,11.662247314453126,0.7721330523490906,-0.1279761642217636,2.2339324951171875
1772698655578594000,11.679593994140625,0.4379900395870209,-0.07971785217523575,1.75623619556427
1772698655595940600,11.696940673828125,0.05803215503692627,-0.29535311460494995,0.758694052696228
1772698655613287200,11.714287109375,-0.2981020212173462,-0.5354229807853699,-0.0873536616563797
1772698655630634000,11.731634033203125,-0.48441576957702637,-0.8628464937210083,-0.2528980076313019
1772698655647980500,11.74898046875,-0.5271763205528259,-0.6539307236671448,-0.20891575515270233
1772698655665327000,11.7663271484375,-0.3842339515686035,-0.5006036758422852,-0.06536252796649933
1772698655682674000,11.783673828125,-0.1533270627260208,-0.8365793228149414,0.08491020649671555
1772698655700020500,11.8010205078125,0.13011419773101807,-1.1065815687179565,0.01649334840476513
1772698655717367000,11.818366943359376,0.3298669755458832,-1.1352921724319458,-0.0513126403093338
1772698655734713900,11.8357138671875,0.38789913058280945,-0.9831868410110474,-0.017715077847242355
1772698655752060400,11.853060302734375,0.35246896743774414,-0.7211259007453918,-0.012217295356094837
1772698655769407000,11.870406982421875,0.3139844834804535,-0.46517354249954224,-0.009773836471140385
1772698655786753800,11.88775390625,0.3121519088745117,-0.20922118425369263,0.029932374134659767
1772698655804100400,11.905100341796874,0.32559093832969666,0.028405211865901947,0.06230820715427399
1772698655821447000,11.922447021484375,0.3488037884235382,0.2159406989812851,0.012217295356094837
1772698655838793700,11.939793701171874,0.3750709891319275,0.41325002908706665,-0.0824667438864708
1772698655856140300,11.957140380859375,0.4098902642726898,0.45051276683807373,-0.2107483446598053
1772698655873486800,11.97448681640625,0.4251618981361389,0.3857611119747162,-0.3347539007663727
1772698655890833700,11.991833740234375,0.39767298102378845,0.3130682110786438,-0.411722868680954
1772698655908180200,12.00918017578125,0.3384190797805786,0.4608974754810333,-0.43982264399528503
1772698655925526800,12.02652685546875,0.3090975880622864,0.7565560340881348,-0.46425724029541016
1772698655942873600,12.04387353515625,0.2883281707763672,1.0259474515914917,-0.49968740344047546
1772698655960220200,12.06122021484375,0.33719736337661743,1.0607666969299316,-0.4874700903892517
1772698655977567000,12.07856689453125,0.4679224193096161,0.8542944192886353,-0.4251618981361389
1772698655994913500,12.09591357421875,0.5271763205528259,0.41325002908706665,-0.2669478952884674
1772698656012260000,12.113260009765625,0.3029889166355133,0.2159406989812851,-0.07574722915887833
1772698656029607000,12.13060693359375,0.009773836471140385,0.43279770016670227,0.12400554865598679
1772698656046953500,12.147953369140625,-0.2938259541988373,0.5696313977241516,0.24923282861709595
1772698656064300000,12.165300048828126,-0.6096430420875549,0.6722567081451416,0.3121519088745117
1772698656081646800,12.182646728515625,-0.8210022449493408,0.8310815095901489,0.32559093832969666
1772698656098993400,12.199993408203126,-0.7819069027900696,0.8750637769699097,0.4056142270565033
1772698656116340000,12.217340087890625,-0.7696896195411682,0.9019418358802795,0.2822195291519165
1772698656133686800,12.234686767578125,-1.2431098222732544,0.9282090067863464,0.4557051360607147
1772698656151033300,12.252033447265624,-1.5137228965759277,0.8640682101249695,0.7977893948554993
1772698656168380000,12.2693798828125,-1.5748094320297241,0.3136790692806244,-0.12156209349632263
1772698656185726700,12.286726806640624,-1.7977750301361084,-0.22999058663845062,-0.9731075763702393
1772698656203073300,12.3040732421875,-2.212552309036255,-0.1285870373249054,-0.9144645929336548
1772698656220419800,12.321419921875,-2.0024147033691406,0.2965748608112335,0.37751442193984985
1772698656237766700,12.3387666015625,-1.3750566244125366,-0.39309149980545044,0.9578359723091125
1772698656255113200,12.35611328125,-0.2632827162742615,-0.869566023349762,0.4917461574077606
1772698656272459800,12.373459716796875,0.7104357481002808,-0.30024003982543945,-0.1698204129934311
1772698656289806600,12.390806640625,0.9541707634925842,0.36743515729904175,-0.23823726177215576
1772698656307153200,12.408153076171875,0.8148936033248901,0.5225948095321655,0.20769402384757996
1772698656324499700,12.425499755859375,0.5345066785812378,0.30085089802742004,0.2981020212173462
1772698656341846500,12.442846435546874,0.20708316564559937,0.4059196412563324,-0.08857539296150208
1772698656359193000,12.460193115234375,0.050090912729501724,0.804814338684082,-0.48441576957702637
1772698656376539600,12.47753955078125,0.21685700118541718,1.219591498374939,-0.7165443897247314
1772698656393886500,12.494886474609375,0.3689623177051544,1.2470804452896118,-0.7092140316963196
1772698656411233000,12.51223291015625,0.379347026348114,0.9495893120765686,-0.5723803043365479
1772698656428579800,12.529579833984375,0.3744601011276245,0.6221657991409302,-0.46425724029541016
1772698656445926400,12.546926513671876,0.31642794609069824,0.43890634179115295,-0.5033525824546814
1772698656463273000,12.56427294921875,0.19425499439239502,0.34727662801742554,-0.6224712133407593
1772698656480619800,12.581619873046876,0.06536252796649933,0.2922987937927246,-0.6719512343406677
1772698656497966300,12.59896630859375,-0.026878049597144127,0.2153298407793045,-0.6542361974716187
1772698656515313000,12.61631298828125,-0.07635809481143951,0.05283980444073677,-0.6120865345001221
1772698656532659700,12.63365966796875,-0.14660754799842834,-0.18784092366695404,-0.5632173418998718
1772698656550006300,12.65100634765625,-0.26511532068252563,-0.39736753702163696,-0.5589412450790405
1772698656567352800,12.668352783203124,-0.41783151030540466,-0.6618719696998596,-0.6249146461486816
1772698656584699600,12.68569970703125,-0.5393936038017273,-0.9630283117294312,-0.7507528066635132
1772698656602046200,12.703046142578126,-0.5338957905769348,-1.130405306816101,-0.8826996088027954
1772698656619393000,12.72039306640625,-0.30543237924575806,-1.2018764019012451,-0.9401208758354187
1772698656636739600,12.737739501953126,-0.05070177838206291,-1.34237539768219,-0.9260709881782532
1772698656654086100,12.755086181640625,-0.001221729558892548,-1.6661336421966553,-0.8625410795211792
1772698656671433000,12.772432861328125,-0.1533270627260208,-1.6392556428909302,-0.730594277381897
1772698656688779500,12.789779541015625,-0.4172206521034241,-1.1609485149383545,-0.5161807537078857
1772698656706126000,12.8071259765625,-0.6334667801856995,-0.7229584455490112,-0.35613417625427246
1772698656723473000,12.824472900390624,-0.8124501705169678,-0.23304490745067596,-0.29565855860710144
1772698656740819500,12.8418193359375,-0.7721330523490906,0.281914085149765,-0.20830489695072174
1772698656758166300,12.859166259765624,-0.4685332775115967,0.281914085149765,-0.04276053607463837
1772698656775512800,12.876512939453125,-0.12400554865598679,0.16768237948417664,0.05742128938436508
1772698656792859400,12.893859375,0.047036588191986084,0.1078176349401474,0.08063415437936783
1772698656810206200,12.911206298828125,0.1178968995809555,0.14630211889743805,0.07880155742168427
1772698656827552800,12.928552734375,0.15088360011577606,0.1536324918270111,0.14110976457595825
1772698656844899300,12.9458994140625,0.3390299379825592,0.09132428467273712,0.30115634202957153
1772698656862246100,12.96324609375,0.6462949514389038,0.012522728182375431,0.5907062292098999
1772698656879592700,12.9805927734375,1.1252129077911377,-0.15729768574237823,0.972496747970581
1772698656896939500,12.997939453125,1.626121997833252,-0.547029435634613,1.4288127422332764
1772698656914286000,13.0152861328125,1.7690644264221191,-0.8237511515617371,1.821598768234253
1772698656931632600,13.032632568359375,1.3732240200042725,-0.7632755637168884,2.0744967460632324
1772698656948979500,13.0499794921875,0.6432406306266785,-0.38331764936447144,2.0995421409606934
1772698656966326000,13.067325927734375,-0.1594357043504715,0.03023780696094036,1.775783896446228
1772698656983672600,13.084672607421876,-0.6243038177490234,0.10231985151767731,1.2699878215789795
1772698657001019400,13.102019287109375,-0.7147117853164673,-0.09193515032529831,0.7794634699821472
1772698657018366000,13.119365966796876,-0.573602020740509,-0.5458076596260071,0.6798924803733826
1772698657035712800,13.136712646484375,-0.2412915825843811,-0.8005383014678955,0.7959567904472351
1772698657053059300,13.154059326171875,0.024434590712189674,-0.6924152374267578,0.8765909671783447
1772698657070406000,13.171406005859374,0.09529490768909454,-0.4205803871154785,0.8998038172721863
1772698657087752700,13.188752685546875,0.05803215503692627,-0.16218459606170654,0.8448259830474854
1772698657105099300,13.206099365234374,-0.027488915249705315,0.0204639695584774,0.6994401812553406
1772698657122446000,13.223446044921875,-0.10751219838857651,-0.011300998739898205,0.5247328281402588
1772698657139792600,13.240792724609374,-0.10934479534626007,-0.129197895526886,0.37629270553588867
1772698657157139200,13.25813916015625,-0.05192350596189499,-0.17195843160152435,0.24923282861709595
1772698657174486000,13.275486083984376,0.03237583488225937,-0.05283980444073677,0.13439024984836578
1772698657191832600,13.29283251953125,0.11606431007385254,0.19944734871387482,0.049480047076940536
1772698657209179400,13.310179443359376,0.19914191961288452,0.4773908257484436,0.01282816007733345
1772698657226526000,13.32752587890625,0.24556763470172882,0.7058542370796204,-0.010384701192378998
1772698657243872500,13.34487255859375,0.24556763470172882,0.8457422852516174,-0.07880155742168427
1772698657261219300,13.36221923828125,0.26389357447624207,0.8830050230026245,-0.19853104650974274
1772698657278566000,13.37956591796875,0.3707949221134186,0.8463531732559204,-0.34208428859710693
1772698657295912700,13.39691259765625,0.5479456782341003,0.7840449213981628,-0.5009090900421143
1772698657313259300,13.41425927734375,0.7275399565696716,0.7388409376144409,-0.6591231226921082
1772698657330605800,13.431605712890626,0.8436042666435242,0.7938187718391418,-0.7800742983818054
1772698657347952600,13.44895263671875,0.8662062287330627,0.9062178730964661,-0.7617483735084534
1772698657365299200,13.46629931640625,0.7513636946678162,0.8866702318191528,-0.5577195286750793
1772698657382646000,13.48364599609375,0.43921178579330444,0.7412844300270081,-0.19425499439239502
1772698657399992600,13.50099267578125,-0.14599667489528656,0.8927788734436035,0.164322629570961
1772698657417339100,13.518339111328125,-0.675616443157196,1.1151336431503296,0.3500255048274994
1772698657434686000,13.53568603515625,-1.0793980360031128,0.6533198952674866,0.37629270553588867
1772698657452032500,13.553032470703124,-1.1148282289505005,-0.38331764936447144,0.3555232882499695
1772698657469379300,13.57037939453125,-0.6023126840591431,-0.9233221411705017,0.16737695038318634
1772698657486726000,13.587725830078124,0.2718348205089569,-0.5287034511566162,-0.13927717506885529
1772698657504072400,13.605072509765625,0.6701186895370483,0.4272999167442322,-0.5839866995811462
1772698657521419300,13.622419189453124,0.4251618981361389,0.3851502537727356,-1.0470222234725952
1772698657538765800,13.639765869140625,-0.813671886920929,-0.3448331654071808,-0.5039634704589844
1772698657556112600,13.657112548828126,-1.9565998315811157,0.06933315098285675,-0.411722868680954
1772698657573459200,13.674459228515625,-1.9761475324630737,-0.17684535682201385,-1.4666863679885864
1772698657590805800,13.6918056640625,-1.592524528503418,-1.3008365631103516,-1.5968005657196045
1772698657608152600,13.709152587890625,-0.6945532560348511,-1.248913049697876,-0.9053016304969788
1772698657625499100,13.7264990234375,0.17287473380565643,-0.6789761781692505,0.11362084746360779
1772698657642846000,13.743845947265624,0.6676751971244812,-0.22999058663845062,0.46364638209342957
1772698657660192500,13.761192626953125,0.9676098227500916,0.4456258714199066,0.06230820715427399
1772698657677539000,13.7785390625,0.7660244107246399,1.120631456375122,-0.164322629570961
1772698657694886000,13.795885986328125,0.4159989058971405,1.6899573802947998,0.04214967042207718
1772698657712232400,13.813232421875,0.2864955961704254,1.9801181554794312,0.12461641430854797
1772698657729579300,13.830579345703125,0.28405213356018066,2.00577449798584,-0.1178968995809555
1772698657746925800,13.84792578125,0.24495677649974823,1.9837833642959595,-0.35735589265823364
1772698657764272400,13.8652724609375,0.07819069176912308,1.9410228729248047,-0.5082395076751709
1772698657781619200,13.882619140625,-0.10201441496610641,1.8719950914382935,-0.6389645338058472
1772698657798965800,13.8999658203125,-0.2730565667152405,1.8255693912506104,-0.7141009569168091
1772698657816312600,13.9173125,-0.35063639283180237,1.637423038482666,-0.7018836140632629
1772698657833659100,13.9346591796875,-0.34208428859710693,1.3271037340164185,-0.6548470258712769
1772698657851005700,13.952005615234375,-0.25411975383758545,1.0094540119171143,-0.6352993845939636
1772698657868352500,13.9693525390625,-0.015271619893610477,0.6178897023200989,-0.6536253094673157
1772698657885699000,13.986698974609375,0.1698204129934311,0.32039856910705566,-0.6585122346878052
1772698657903046000,14.0040458984375,0.21868959069252014,0.22327107191085815,-0.5711585879325867
1772698657920392400,14.021392333984375,0.1545487940311432,0.22266021370887756,-0.42455101013183594
1772698657937739000,14.038739013671876,-0.01954767294228077,0.31490078568458557,-0.25045454502105713
1772698657955085800,14.0560859375,-0.2364046722650528,0.35705047845840454,-0.1386663019657135
1772698657972432400,14.073432373046876,-0.3488037884235382,0.29413139820098877,-0.1233946830034256
1772698657989779200,14.090779296875,-0.2712239623069763,0.19150610268115997,-0.1844811588525772
1772698658007125800,14.108125732421875,-0.07452550530433655,0.0461202897131443,-0.3066541254520416
1772698658024472300,14.125472412109374,0.11911863088607788,-0.008857538923621178,-0.3805687427520752
1772698658041819100,14.142819091796875,0.21380266547203064,0.03634645417332649,-0.3915643095970154
1772698658059165700,14.160165771484374,0.21930044889450073,0.15790854394435883,-0.3329212963581085
1772698658076512500,14.177512451171875,0.21135921776294708,0.48960810899734497,-0.14049890637397766
1772698658093859000,14.194859130859374,0.16065743565559387,0.45051276683807373,-0.2156352698802948
1772698658111206000,14.212205810546875,0.10567960888147354,0.29901832342147827,-0.38850998878479004
1772698658128552400,14.229552490234376,0.08491020649671555,0.2153298407793045,-0.37629270553588867
1772698658145899000,14.24689892578125,0.13988803327083588,-0.005192350596189499,-0.35063639283180237
1772698658163245800,14.264245849609376,0.22846342623233795,-0.12675444781780243,-0.3023780584335327
1772698658180592400,14.28159228515625,0.3652971386909485,-0.20189081132411957,-0.07269290834665298
1772698658197939200,14.298939208984375,0.6133082509040833,-0.619722306728363,0.15699224174022675
1772698658215285800,14.31628564453125,0.9144645929336548,-1.0693187713623047,0.4361574649810791
1772698658232632300,14.33363232421875,0.9847140312194824,-1.1102467775344849,0.8466585874557495
1772698658249979100,14.350979248046874,0.720820426940918,-0.9844086170196533,1.278540015220642
1772698658267325700,14.36832568359375,0.38301220536231995,-0.9031635522842407,1.5833615064620972
1772698658284672500,14.385672607421874,0.18387030065059662,-0.7565560340881348,1.5711442232131958
1772698658302019000,14.40301904296875,0.09590577334165573,-0.6062833070755005,1.4037672281265259
1772698658319366000,14.420365966796876,0.02871064469218254,-0.4321868419647217,1.1294889450073242
1772698658336712400,14.43771240234375,0.14233149588108063,-0.6117810606956482,1.1123847961425781
1772698658354059000,14.45505908203125,0.20402882993221283,-1.4731004238128662,1.1771364212036133
1772698658371405800,14.47240576171875,-0.11056652665138245,-1.942244529724121,0.9950987100601196
1772698658388752400,14.48975244140625,-0.5338957905769348,-1.3820815086364746,0.6505709886550903
1772698658406099200,14.50709912109375,-0.758694052696228,-0.7620537877082825,0.3176496922969818
1772698658423445800,14.52444580078125,-0.7641918659210205,-0.562911868095398,0.16004657745361328
1772698658440792600,14.54179248046875,-0.5882627964019775,-0.7504473924636841,0.17837251722812653
1772698658458139100,14.55913916015625,-0.4471530318260193,-1.1633919477462769,0.2657261788845062
1772698658475485700,14.576485595703126,-0.389120876789093,-1.4474440813064575,0.2779434621334076
1772698658492832500,14.59383251953125,-0.31581708788871765,-1.5696170330047607,0.17104214429855347
1772698658510179000,14.611178955078126,-0.21380266547203064,-1.4737112522125244,-0.037262752652168274
1772698658527526000,14.62852587890625,-0.14233149588108063,-1.127350926399231,-0.19181154668331146
1772698658544872400,14.64587255859375,-0.05070177838206291,-0.7247910499572754,-0.22296564280986786
1772698658562219300,14.66321923828125,0.07513637095689774,-0.47006043791770935,-0.20647229254245758
1772698658579565800,14.68056591796875,0.2412915825843811,-0.41447174549102783,-0.21868959069252014
1772698658596912600,14.69791259765625,0.43310311436653137,-0.40897396206855774,-0.2987128794193268
1772698658614259200,14.71525927734375,0.5772672295570374,-0.3484983444213867,-0.40744680166244507
1772698658631605800,14.732605712890624,0.5962040424346924,-0.1536324918270111,-0.46608981490135193
1772698658648952600,14.74995263671875,0.4581485986709595,0.08643736690282822,-0.4251618981361389
1772698658666299100,14.767299072265626,0.25473061203956604,0.2513708472251892,-0.3249800503253937
1772698658692319200,14.7933193359375,0.001832594396546483,0.04978547990322113,-0.19303326308727264
1772698658709665800,14.810665771484375,-0.0665842592716217,0.05711585655808449,-0.10018182545900345
1772698658727012600,14.8280126953125,0.05497783049941063,0.28008151054382324,0.17043127119541168
1772698658744359200,14.845359130859375,0.11911863088607788,0.14691297709941864,0.4153880476951599
1772698658761706000,14.8627060546875,0.029932374134659767,-0.47372564673423767,0.39889469742774963
1772698658779052500,14.880052490234375,-0.0977383628487587,-0.8182533979415894,-0.06475166976451874
1772698658796399400,14.8973994140625,-0.17104214429855347,-0.6808087825775146,-0.5528326034545898
1772698658813746000,14.914745849609375,-0.05558869615197182,-0.33322674036026,-0.7281508445739746
1772698658831092700,14.9320927734375,-0.23335035145282745,-0.22815799713134766,-0.6108647584915161
1772698658848439300,14.949439208984375,-1.0231984853744507,-0.09071341902017593,-0.5009090900421143
1772698658865785900,14.966785888671875,-1.7073670625686646,-0.19700388610363007,-0.841160774230957
1772698658883132700,14.984132568359374,-1.674991250038147,-1.2281436920166016,-1.2901464700698853
1772698658900479200,15.001479248046875,-1.0488548278808594,-1.7180571556091309,-1.4434734582901
1772698658917826000,15.018825927734374,-0.2162461280822754,-1.3191624879837036,-0.8710931539535522
1772698658935172600,15.036172607421875,0.40805765986442566,-1.0595449209213257,-0.12034036219120026
1772698658952519400,15.05351953125,0.7599157691001892,-0.8164207935333252,0.08613193035125732
1772698658969866000,15.070865966796875,0.8374956250190735,-0.48533207178115845,-0.15149445831775665
1772698658987212800,15.088212890625,0.14660754799842834,0.08765909820795059,-0.23945899307727814
1772698659004559400,15.105559326171875,-0.6878337264060974,0.6386591196060181,-0.03237583488225937
1772698659021906000,15.122906005859376,-0.8765909671783447,1.10230553150177,0.2626718580722809
1772698659039252700,15.140252685546875,-0.46486809849739075,1.0974185466766357,0.33169957995414734
1772698659056599300,15.157599365234375,0.1588248461484909,0.6918043494224548,0.21930044889450073
1772698659073946000,15.174946044921874,0.47952884435653687,0.34605491161346436,0.2822195291519165
1772698659091292700,15.192292724609375,0.4770853817462921,0.2672533392906189,0.39278605580329895
1772698659108639500,15.209639404296874,0.37140578031539917,0.40958482027053833,0.39828383922576904
1772698659125986000,15.226986083984375,0.3023780584335327,0.591622531414032,0.2657261788845062
1772698659143332900,15.244332763671874,0.15760311484336853,0.5946768522262573,0.15577052533626556
1772698659160679400,15.261679443359375,-0.009162971749901772,0.4621191918849945,0.1081230640411377
1772698659178026200,15.279026123046876,-0.11606431007385254,0.3436114490032196,0.11911863088607788
1772698659195372800,15.296372802734375,-0.19364413619041443,0.37171122431755066,0.16249002516269684
1772698659212719600,15.3137197265625,-0.26878049969673157,0.4114174246788025,0.17287473380565643
1772698659230066200,15.331066162109375,-0.3799578845500946,0.3442223072052002,0.14110976457595825
1772698659247412700,15.348412841796875,-0.4477638900279999,0.13652828335762024,0.13011419773101807
1772698659264759600,15.365759521484375,-0.3952295184135437,-0.06566796451807022,0.1747073233127594
1772698659282106000,15.383106201171875,-0.17287473380565643,0.03023780696094036,0.15271618962287903
1772698659299453000,15.400452880859374,0.04825831577181816,-0.04734202101826668,0.027488915249705315
1772698659316799500,15.417799560546875,0.13561198115348816,-0.5054906010627747,-0.08979712426662445
1772698659334146300,15.435146240234374,0.05192350596189499,-0.805425226688385,-0.02626718580722809
1772698659351492900,15.452492919921875,-0.07757982611656189,-0.5842921733856201,0.1588248461484909
1772698659368839700,15.469839599609376,-0.14721840620040894,-0.025961752980947495,0.18753549456596375
1772698659386186200,15.487186279296875,-0.18387030065059662,0.005803215317428112,0.05192350596189499
1772698659403533000,15.504532958984376,-0.08429934084415436,-0.16279546916484833,0.033597562462091446
1772698659420879600,15.521879638671875,0.017715077847242355,-0.28557929396629333,0.11667517572641373
1772698659438226400,15.539226318359376,0.13683371245861053,-0.31184646487236023,0.20830489695072174
1772698659455573000,15.556572998046875,0.21930044889450073,-0.2562577724456787,0.24556763470172882
1772698659472919600,15.57391943359375,0.35185810923576355,-0.20799945294857025,0.23457208275794983
1772698659490266400,15.591266357421874,0.5393936038017273,-0.35643959045410156,0.18631376326084137
1772698659507613000,15.608613037109375,0.6615665555000305,-0.5757400393486023,0.17592905461788177
1772698659524959700,15.625959716796874,0.667064368724823,-0.5519163012504578,0.45875945687294006
1772698659542306300,15.643306396484375,0.8093958497047424,-0.33505934476852417,0.9498947262763977
1772698659559653000,15.660653076171876,1.3402373790740967,-0.4218021333217621,1.6352850198745728
1772698659576999700,15.677999755859375,1.7470732927322388,-0.28924447298049927,2.434296131134033
1772698659594346500,15.695346435546876,1.1954623460769653,0.4841103255748749,3.358534574508667
1772698659611693000,15.712693115234375,-0.03787361457943916,1.0503820180892944,3.5827219486236572
1772698659629039900,15.730039794921876,-0.3341430425643921,-0.6832522749900818,1.4660754203796387
1772698659646386400,15.747386474609375,0.43371400237083435,-2.162766695022583,-1.293811559677124
1772698659663733200,15.764733154296875,1.1893537044525146,-1.7553199529647827,-1.0684025287628174
1772698659681079800,15.782079833984374,0.2107483446598053,0.03756818547844887,0.8191696405410767
1772698659698426600,15.799426513671875,-0.7257073521614075,0.8103121519088745,1.018311619758606
1772698659715773200,15.816773193359374,-0.8674280047416687,0.3643808364868164,-0.05742128938436508
1772698659733120000,15.8341201171875,-0.7336485981941223,-0.4523453712463379,-0.842382550239563
1772698659750466600,15.851466552734376,-0.6389645338058472,-0.8726203441619873,-0.9731075763702393
1772698659767813400,15.8688134765625,-0.593149721622467,-0.9123265743255615,-0.7971785664558411
1772698659785160000,15.886159912109376,-0.39889469742774963,-0.324063777923584,-0.5241219997406006
1772698659802506800,15.9035068359375,-0.06414080411195755,0.1591302752494812,-0.328645259141922
1772698659819853300,15.920853271484376,0.29565855860710144,0.3094030022621155,-0.19425499439239502
1772698659837200100,15.9382001953125,0.6493492722511292,0.2831358313560486,-0.2211330533027649
1772698659854546700,15.955546630859375,0.9382883310317993,0.17134757339954376,-0.37751442193984985
1772698659871893500,15.9728935546875,1.1227694749832153,0.1230892539024353,-0.5326740741729736
1772698659889240000,15.990239990234375,1.176525592803955,0.2574795186519623,-0.6737838387489319
1772698659906587000,16.0075869140625,1.0983349084854126,0.6117810606956482,-0.7134900689125061
1772698659923933400,16.024933349609373,1.0091485977172852,0.8744529485702515,-0.5974257588386536
1772698659941280300,16.0422802734375,0.934623122215271,0.7449495792388916,-0.462424635887146
1772698659958626800,16.059626708984375,0.7318159937858582,0.5244274139404297,-0.4373791813850403
1772698659975973400,16.076973388671874,0.36651885509490967,0.4059196412563324,-0.49052441120147705
1772698659993320200,16.0943203125,0.05497783049941063,0.33628106117248535,-0.5186241865158081
1772698660010667000,16.1116669921875,-0.03543015569448471,0.07116574794054031,-0.42271843552589417
1772698660028013600,16.129013671875,-0.13500112295150757,0.0027488914784044027,-0.28466299176216125
1772698660045360400,16.1463603515625,-0.20280711352825165,0.11392628401517868,-0.1026252806186676
1772698660062707000,16.16370703125,-0.2577849328517914,0.3387245237827301,0.09162971377372742
1772698660080053500,16.181053466796875,-0.3787361681461334,0.4321868419647217,0.07635809481143951
1772698660097400300,16.198400390625,-0.4001164436340332,0.2562577724456787,-0.009773836471140385
1772698660114747100,16.2157470703125,-0.5424479246139526,-0.04550942778587341,-0.21746785938739777
1772698660132093700,16.23309375,-1.1728603839874268,-0.1487455666065216,-0.14660754799842834
1772698660149440500,16.2504404296875,-1.524107575416565,0.6282744407653809,0.5754346251487732
1772698660166787000,16.267787109375,-1.4465278387069702,1.0412189960479736,0.025045456364750862
1772698660184133600,16.285133544921877,-1.6071852445602417,0.13591741025447845,-0.8747583627700806
1772698660201480400,16.30248046875,-1.50028395652771,-0.24037529528141022,-1.0500766038894653
1772698660218827000,16.319826904296875,-1.479514479637146,0.20922118425369263,-0.40744680166244507
1772698660236173800,16.337173828125,-1.6267329454421997,0.4413498044013977,0.06352993845939636
1772698660253520400,16.354520263671876,-1.0109812021255493,0.6032289862632751,0.1997527778148651
1772698660270867200,16.3718671875,0.03787361457943916,1.324660301208496,-0.3744601011276245
1772698660288213800,16.3892138671875,0.7452550530433655,1.702785611152649,-0.8790343999862671
1772698660305560600,16.406560546875,0.9712749719619751,1.3099994659423828,-0.500298261642456
1772698660322907100,16.4239072265625,0.6487383842468262,0.7058542370796204,-0.17165300250053406
1772698660340254000,16.44125390625,0.2767217457294464,0.7101303339004517,-0.13988803327083588
1772698660357600500,16.4586005859375,0.12217295914888382,1.3209950923919678,-0.26389357447624207
1772698660374947300,16.475947265625,0.06047561392188072,1.887266755104065,-0.6065887212753296
1772698660392294000,16.4932939453125,-0.024434590712189674,2.283107042312622,-0.7519745230674744
1772698660409640700,16.510640625,-0.16004657745361328,2.0082180500030518,-0.6298015713691711
1772698660426987300,16.5279873046875,-0.1130099818110466,1.3765838146209717,-0.4196641147136688
1772698660444334000,16.545333984375,0.043371398001909256,0.4969384968280792,-0.20463970303535461
1772698660461680600,16.5626806640625,-0.008552107028663158,-0.05100720748305321,-0.08124501258134842
1772698660479027500,16.58002734375,-0.25473061203956604,-0.1737910360097885,-0.07819069176912308
1772698660496374000,16.5973740234375,-0.5308414697647095,-0.005803215317428112,-0.05558869615197182
1772698660513720800,16.614720947265624,-0.6957749724388123,0.36254823207855225,0.014660755172371864
1772698660531067400,16.6320673828125,-0.7696896195411682,0.572685718536377,0.12644900381565094
1772698660548414200,16.649414306640626,-0.657290518283844,0.323452889919281,0.12034036219120026
1772698660565760800,16.6667607421875,-0.36774060130119324,-0.4169152081012726,0.1185077652335167
1772698660583107600,16.684107666015624,0.0616973415017128,-1.2104285955429077,0.0769689604640007
1772698660600454100,16.7014541015625,0.4978547990322113,-1.543960690498352,-0.13927717506885529
1772698660617801000,16.718801025390626,0.8246674537658691,-1.2928953170776367,-0.1545487940311432
1772698660635147500,16.7361474609375,0.5436696410179138,-0.9251546859741211,0.1533270627260208
1772698660652494300,16.753494384765624,0.2467893660068512,-0.8891136646270752,0.49541133642196655
1772698660669841000,16.7708408203125,0.07024945318698883,-0.8078686594963074,0.637742817401886
1772698660687187700,16.788187744140625,-0.08429934084415436,-0.24465134739875793,0.7006618976593018
1772698660704534500,16.805534423828124,-0.17837251722812653,0.1701258420944214,0.9804379940032959
1772698660721881000,16.822881103515623,0.11423171311616898,0.2929096519947052,1.5552617311477661
1772698660739228000,16.840227783203126,0.7574723362922668,0.0021380267571657896,2.349385976791382
1772698660756574500,16.857574462890625,1.156977891921997,-0.5170970559120178,2.7849326133728027
1772698660773921300,16.87492138671875,0.7947350740432739,-0.572685718536377,2.517984628677368
1772698660791267800,16.892267822265627,0.43310311436653137,-0.31612253189086914,1.99936044216156
1772698660808614700,16.90961474609375,0.3127627670764923,-0.291687935590744,1.1270455121994019
1772698660825961200,16.926961181640625,-0.13133592903614044,-0.7785471677780151,0.04276053607463837
1772698660843308000,16.94430810546875,-0.5045742988586426,-0.8090903759002686,-0.7379246354103088
1772698660860654600,16.961654541015626,-0.7635809779167175,-0.7693842053413391,-0.8765909671783447
1772698660878001400,16.97900146484375,-0.6640099883079529,-0.8518509268760681,-0.33597561717033386
1772698660895348000,16.996347900390624,-0.43493571877479553,-0.5189296007156372,0.19730933010578156
1772698660912694800,17.01369482421875,-0.258395791053772,-0.5225948095321655,0.33047783374786377
1772698660930041300,17.031041259765626,-0.028099779039621353,-0.6349939107894897,0.01282816007733345
1772698660947388200,17.04838818359375,0.13072505593299866,-0.6349939107894897,-0.4098902642726898
1772698660964734700,17.065734619140624,0.15638138353824615,-0.4981602132320404,-0.5418370366096497
1772698660982081500,17.08308154296875,0.1533270627260208,-0.31490078568458557,-0.4276053309440613
1772698660999428000,17.100427978515626,0.2254091054201126,-0.14569124579429626,-0.3585776388645172
1772698661016775000,17.11777490234375,0.37201663851737976,-0.08093958348035812,-0.40927940607070923
1772698661034121500,17.13512158203125,0.5699368119239807,-0.0772743970155716,-0.5235111117362976
1772698661051468300,17.15246826171875,0.7422007322311401,-0.04245510324835777,-0.656679630279541
1772698661068815000,17.169815185546874,0.8570432662963867,0.0717766135931015,-0.7513636946678162
1772698661086161700,17.18716162109375,0.924849271774292,0.21288637816905975,-0.7696896195411682
1772698661103508500,17.204508544921875,0.9920443892478943,0.2874118685722351,-0.8045089244842529
1772698661120855000,17.22185498046875,0.9926552772521973,0.3075704276561737,-0.8552106618881226
1772698661138201900,17.239201904296873,0.9382883310317993,0.34727662801742554,-0.8924734592437744
1772698661155548400,17.25654833984375,0.8197805285453796,0.5109884142875671,-0.8747583627700806
1772698661172895200,17.273895263671875,0.5968148708343506,0.7822123765945435,-0.6982184648513794
1772698661190241800,17.29124169921875,0.39217519760131836,0.8720094561576843,-0.43493571877479553
1772698661207588600,17.308588623046877,0.1698204129934311,0.795651376247406,-0.17104214429855347
1772698661224935200,17.32593505859375,-0.09101885557174683,0.6435460448265076,0.020158538594841957
1772698661242282000,17.343281982421875,-0.4404335021972656,0.3741546869277954,0.10018182545900345
1772698661259628500,17.360628662109374,-0.6866120100021362,0.28557929396629333,0.17165300250053406
1772698661276975400,17.377975341796876,-0.4508182108402252,0.3271180987358093,0.19730933010578156
1772698661294322200,17.395322265625,-0.19364413619041443,0.2782489061355591,0.1997527778148651
1772698661311668700,17.412668701171874,-0.0769689604640007,0.0668896958231926,0.3274235129356384
1772698661329015300,17.430015380859373,0.03481929376721382,-0.14996729791164398,0.43371400237083435
1772698661346362000,17.447362060546876,-0.4312705397605896,-0.035735588520765305,0.7910698652267456
1772698661363709000,17.464708984375,-1.2107340097427368,-0.022907428443431854,1.0867284536361694
1772698661381055500,17.482055419921874,-1.6249003410339355,0.4529562294483185,-0.56382817029953
1772698661398402300,17.49940234375,-1.2919789552688599,-0.09926552325487137,-1.6346741914749146
1772698661415748900,17.516748779296876,-0.8100066781044006,0.4046979248523712,-1.3194679021835327
1772698661433095700,17.534095703125,-0.6994401812553406,0.5360338687896729,-0.15210533142089844
1772698661450442200,17.551442138671874,-0.7324268817901611,0.282524973154068,0.4917461574077606
1772698661467789000,17.5687890625,0.17592905461788177,0.3228420317173004,0.3176496922969818
1772698661485135600,17.586135498046875,0.8491020202636719,0.5048797130584717,-0.2919933497905731
1772698661502482400,17.603482421875,0.9272927641868591,0.6551524996757507,-0.5015199780464172
1772698661519829000,17.6208291015625,0.7483093738555908,0.17073670029640198,-0.13683371245861053
1772698661537175800,17.63817578125,0.5497782826423645,0.013744457624852657,0.0665842592716217
1772698661554522400,17.6555224609375,0.47952884435653687,0.15118902921676636,-0.08124501258134842
1772698661571869200,17.672869140625,0.500298261642456,0.41813695430755615,-0.47586366534233093
1772698661589216000,17.690216064453125,0.4056142270565033,0.7779362797737122,-0.6230821013450623
1772698661606562600,17.7075625,0.185092031955719,0.8512400984764099,-0.5094612240791321
1772698661623909400,17.724909423828127,-0.11545344442129135,0.6466003656387329,-0.31031930446624756
1772698661641256000,17.742255859375,-0.5241219997406006,0.30085089802742004,-0.17592905461788177
1772698661658602800,17.759602783203125,-1.0470222234725952,-0.022907428443431854,-0.03909534588456154
1772698661675949300,17.77694921875,-1.4654645919799805,-0.05955931544303894,0.1337793916463852
1772698661693296000,17.794296142578126,-1.5381574630737305,0.168904110789299,0.15638138353824615
1772698661710642700,17.811642578125,-1.2748748064041138,0.2415970265865326,0.000610864779446274
1772698661727989500,17.828989501953124,-0.8350521326065063,-0.15607595443725586,-0.1795942485332489
1772698661745336000,17.846336181640623,-0.2522871494293213,-1.000291109085083,-0.12400554865598679
1772698661762683000,17.863682861328126,0.3860665261745453,-1.7205007076263428,0.24006985127925873
1772698661780029400,17.881029541015625,0.9370665550231934,-1.9196425676345825,0.5332849621772766
1772698661797376300,17.898376220703124,1.0427461862564087,-1.6453642845153809,0.5839866995811462
1772698661814723000,17.91572314453125,0.665842592716217,-1.1310161352157593,0.535728394985199
1772698661832069600,17.933069580078126,0.15149445831775665,-0.7535017132759094,0.3805687427520752
1772698661849416400,17.95041650390625,-0.15271618962287903,-0.6832522749900818,0.1539379209280014
1772698661866763000,17.967762939453124,-0.27000224590301514,-0.6991347670555115,0.023823726922273636
1772698661884109800,17.98510986328125,-0.25411975383758545,-0.6514872908592224,-0.010384701192378998
1772698661901456400,18.002456298828125,-0.16126830875873566,-0.4676169753074646,0.09040798991918564
1772698661918803200,18.01980322265625,0.03848448023200035,-0.1182023361325264,0.430659681558609
1772698661936149800,18.037149658203123,0.42455101013183594,0.010690134018659592,0.851545512676239
1772698661953496600,18.05449658203125,0.9932661056518555,-0.5012145638465881,1.3475676774978638
1772698661970843400,18.071843505859373,1.3103049993515015,-0.795040488243103,1.711643099784851
1772698661988190000,18.08918994140625,1.12765634059906,-0.785877525806427,1.9016220569610596
1772698662005536800,18.106536865234375,0.5436696410179138,-0.868955135345459,1.8081597089767456
1772698662022883300,18.12388330078125,-0.15088360011577606,-0.7547234296798706,1.3115266561508179
1772698662040230100,18.141230224609377,-0.26389357447624207,-0.5409207344055176,0.7031053900718689
1772698662057576700,18.15857666015625,-0.07391463965177536,-0.7925970554351807,0.07635809481143951
1772698662074923500,18.175923583984375,-0.1948658674955368,-1.0961968898773193,-0.06475166976451874
1772698662092270300,18.193270263671874,-0.318871408700943,-1.2275327444076538,0.20708316564559937
1772698662109617000,18.210616943359376,-0.2993237376213074,-0.9275981783866882,0.22357651591300964
1772698662126963700,18.227963623046875,-0.2926042377948761,-0.96180659532547,-0.09712749719619751
1772698662144310300,18.245310302734374,-0.16187916696071625,-1.4059052467346191,-0.6994401812553406
1772698662161657000,18.262656982421873,0.35246896743774414,-1.795026183128357,-1.7910555601119995
1772698662179003600,18.280003662109376,0.5888736248016357,-1.3222168684005737,-1.4190388917922974
1772698662196350500,18.2973505859375,0.6927206516265869,-0.9184352159500122,-0.8405499458312988
1772698662213697300,18.314697265625,0.7843503952026367,-0.34788748621940613,-0.47097674012184143
1772698662231043800,18.3320439453125,0.9334014058113098,-0.1432477980852127,0.020158538594841957
1772698662248390700,18.349390625,1.0134246349334717,-0.09560033679008484,-0.012217295356094837
1772698662265737200,18.3667373046875,1.063515543937683,-0.07849612087011337,-0.3903425931930542
1772698662283084000,18.384083984375,1.0286962985992432,-0.03390299528837204,-0.8283326625823975
1772698662300430600,18.4014306640625,0.8839213252067566,0.15668681263923645,-1.0971131324768066
1772698662317777400,18.41877734375,0.6792816519737244,0.40836310386657715,-1.0030399560928345
1772698662335124200,18.436124267578126,0.6059778332710266,0.5623010396957397,-0.8533781170845032
1772698662352470800,18.453470703125,0.34697118401527405,1.1346813440322876,-0.29077163338661194
1772698662369817600,18.470817626953124,0.21135921776294708,1.5592323541641235,0.749531090259552
1772698662387164200,18.4881640625,0.34147340059280396,0.8164207935333252,0.5827649831771851
1772698662404511000,18.505510986328126,0.3915643095970154,0.6484329700469971,0.11423171311616898
1772698662421857500,18.522857421875,0.41416633129119873,0.7260127663612366,0
1772698662439204400,18.540204345703124,0.0665842592716217,0.4773908257484436,0.17531819641590118
1772698662456551000,18.557551025390627,-0.205861434340477,0.22815799713134766,0.4520399272441864
1772698662473897700,18.574897705078126,-0.2577849328517914,0.31551164388656616,0.7476984858512878
1772698662491244500,18.59224462890625,-0.6236929297447205,0.20677772164344788,0.8778126835823059
1772698662508591000,18.609591064453124,-1.258992314338684,0.21349723637104034,0.9615011811256409
1772698662525938000,18.62693798828125,-1.5687007904052734,0.2611446976661682,0.4685332775115967
1772698662543284500,18.644284423828125,-1.4850122928619385,-0.5103775262832642,-0.8387173414230347
1772698662560631300,18.66163134765625,-1.211344838142395,-0.4731147587299347,-0.9370665550231934
1772698662577977900,18.678977783203123,-0.8888082504272461,-0.24220788478851318,-0.17104214429855347
1772698662595324700,18.69632470703125,-0.7250964641571045,-0.2733619809150696,0.6432406306266785
1772698662612671500,18.71367138671875,-0.39767298102378845,-0.3949240744113922,0.6633991599082947
1772698662630018000,18.73101806640625,-0.01282816007733345,-0.05222893878817558,-0.029932374134659767
1772698662647364900,18.74836474609375,0.34636032581329346,0.20799945294857025,-0.646905779838562
1772698662664711400,18.76571142578125,0.5430588126182556,0.41447174549102783,-0.8240565657615662
1772698662682058200,18.783058349609377,0.5436696410179138,0.5061014890670776,-0.7104357481002808
1772698662699405000,18.800405029296876,0.47036588191986084,0.7272345423698425,-0.5064069032669067
1772698662716751600,18.817751708984375,0.41294458508491516,0.9373720288276672,-0.38179048895835876
1772698662734098400,18.835098388671874,0.3799578845500946,0.8866702318191528,-0.4257727563381195
1772698662751445000,18.852445068359376,0.3035998046398163,0.8426879644393921,-0.5302306413650513
1772698662768791800,18.869791748046875,0.16187916696071625,0.7925970554351807,-0.5790998339653015
1772698662786138400,18.887138427734374,-0.008552107028663158,0.6618719696998596,-0.56382817029953
1772698662803485200,18.904485107421873,-0.13439024984836578,0.383928507566452,-0.500298261642456
1772698662820831700,18.921831787109376,-0.21135921776294708,0.08521563559770584,-0.39767298102378845
1772698662838178600,18.939178466796875,-0.2370155304670334,-0.1737910360097885,-0.2706131041049957
1772698662855525400,18.956525390625,-0.27977606654167175,-0.3491092324256897,-0.12705987691879272
1772698662872872000,18.973871826171877,-0.4013381600379944,-0.3692677617073059,0.09896009415388107
1772698662890218800,18.99121875,-0.535728394985199,-0.22266021370887756,0.2620609998703003
1772698662907565300,19.0085654296875,-0.5161807537078857,0.03940077871084213,0.12217295914888382
1772698662924912000,19.025912109375,-0.22785256803035736,-0.2055560052394867,0.004886918235570192
1772698662942259000,19.043259033203125,0.16187916696071625,-0.43340855836868286,0.039706211537122726
1772698662959605500,19.06060546875,0.47097674012184143,-0.6612611413002014,0.21441353857517242
1772698662976952300,19.077952392578126,0.6298015713691711,-0.6606502532958984,0.29443681240081787
1772698662994299000,19.095298828125,0.4251618981361389,-0.5421425104141235,0.22479823231697083
1772698663011645700,19.112645751953124,0.007941242307424545,-0.3295615613460541,0.07452550530433655
1772698663028992500,19.129992431640623,-0.14538581669330597,-0.18295399844646454,-0.031154103577136993
1772698663046339000,19.147339111328126,-0.02260199747979641,-0.3790415823459625,0.4196641147136688
1772698663063686000,19.164685791015625,0.29504770040512085,-0.5097666382789612,0.9395100474357605
1772698663081032400,19.182032470703124,0.7507528066635132,-0.5335903763771057,1.2919789552688599
1772698663098379300,19.199379150390627,0.9376774430274963,-0.28069236874580383,1.4844014644622803
1772698663115726000,19.21672607421875,0.5858193039894104,-0.10537417232990265,1.442862629890442
1772698663133072600,19.23407275390625,0.13561198115348816,-0.3759872615337372,1.1966841220855713
1772698663150419500,19.25141943359375,0.014049889519810677,-0.5146535634994507,0.9834923148155212
1772698663167766000,19.26876611328125,-0.06780599057674408,-0.42302384972572327,0.7837395071983337
1772698663185112800,19.28611279296875,-0.5070177912712097,-0.189673513174057,0.4153880476951599
1772698663202459400,19.30345947265625,-0.8313869833946228,-0.057726722210645676,0.18203771114349365
1772698663219806200,19.32080615234375,-0.6817250847816467,-0.33200499415397644,-0.023212861269712448
1772698663237153000,19.338153076171874,-0.36712974309921265,-0.5891790986061096,-0.20341797173023224
1772698663254499600,19.35549951171875,0.029932374134659767,-0.6423243284225464,-0.16615521907806396
1772698663271846400,19.372846435546876,0.3536907136440277,-0.5287034511566162,-0.08124501258134842
1772698663289193200,19.390193115234375,0.3995055556297302,-0.3643808364868164,-0.07757982611656189
1772698663306539800,19.407539794921874,0.31520622968673706,-0.24892739951610565,-0.12095122784376144
1772698663323886600,19.424886474609377,0.37690356373786926,-0.2519817352294922,-0.18631376326084137
1772698663341233200,19.442233154296876,0.49663305282592773,-0.13225223124027252,-0.1331685185432434
1772698663358580000,19.459580078125,0.7128791809082031,-0.1029307171702385,0.08552107214927673
1772698663375926800,19.4769267578125,0.8765909671783447,-0.1493564397096634,0.29077163338661194
1772698663393273300,19.4942734375,1.1362085342407227,-0.2782489061355591,0.5106829404830933
1772698663410620200,19.5116201171875,1.3267983198165894,-0.09682206809520721,0.4153880476951599
1772698663427966700,19.528966796875,1.729358196258545,-0.6569850444793701,0.45387253165245056
1772698663445313500,19.5463134765625,2.3286166191101074,-1.3167190551757812,1.007315993309021
1772698663462660400,19.563660400390624,2.626718521118164,-1.1145228147506714,1.6627739667892456
1772698663480007000,19.5810068359375,2.797149896621704,-1.2794562578201294,2.891833782196045
1772698663497353700,19.598353759765626,2.679863691329956,-1.0442733764648438,2.771493434906006
1772698663514700300,19.6157001953125,2.483776092529297,-0.45967575907707214,1.4379756450653076
1772698663532047000,19.633047119140624,0.8179479241371155,-0.8487966060638428,1.6053526401519775
1772698663549394000,19.650393798828127,-1.4043781757354736,-3.115104913711548,3.450164318084717
1772698663566740500,19.667740478515626,-3.143510103225708,-3.693593978881836,3.219257354736328
1772698663584087300,19.68508740234375,-4.6676177978515625,-3.5188865661621094,1.2620465755462646
1772698663601434000,19.70243408203125,-6.440958023071289,-3.838979721069336,-0.004276053514331579
1772698663618780700,19.71978076171875,-7.588162422180176,-4.86095666885376,0.6090322136878967
1772698663636127500,19.73712744140625,-7.49836540222168,-5.79619026184082,2.572962522506714
1772698663653474300,19.754474365234376,-6.931482791900635,-5.4754862785339355,4.117839336395264
1772698663670820900,19.77182080078125,-7.324268817901611,-3.6422812938690186,4.743975639343262
1772698663688167700,19.789167724609374,-8.427490234375,-1.6936225891113281,4.728704452514648
1772698663705514200,19.80651416015625,-9.155641555786133,0.4718930423259735,4.647459030151367
1772698663722861000,19.823861083984376,-8.60464096069336,2.087019443511963,4.544834136962891
1772698663740207900,19.841207763671875,-7.228363037109375,3.327685832977295,4.208858489990234
1772698663757554400,19.858554443359374,-6.057335376739502,3.705200433731079,3.810574531555176
1772698663774901200,19.8759013671875,-5.411651134490967,3.719250202178955,4.067748546600342
1772698663792248000,19.893248046875,-5.418981552124023,3.6282312870025635,4.23573637008667
1772698663809594600,19.9105947265625,-5.720748424530029,3.9098401069641113,3.7867507934570312
1772698663826941400,19.92794140625,-5.373777389526367,3.878075122833252,3.026224136352539
1772698663844288300,19.945288330078125,-4.499629974365234,3.831038475036621,2.3591597080230713
1772698663861634800,19.962634765625,-3.472766160964966,3.989863395690918,2.2870776653289795
1772698663878981600,19.979981689453126,-2.52042818069458,3.246440887451172,2.207665205001831
1772698663896328200,19.997328125,-2.1783437728881836,2.6777257919311523,1.7910555601119995
1772698663913675000,20.014675048828124,-2.3353359699249268,2.1389429569244385,1.2822052240371704
1772698663931021800,20.032021728515623,-2.2510366439819336,1.395520567893982,0.9388991594314575
1772698663948368400,20.049368408203126,-1.8851287364959717,0.314289927482605,0.7031053900718689
1772698663965715200,20.066715087890625,-1.6077960729599,-0.17867794632911682,0.7147117853164673
1772698663983061800,20.084061767578124,-1.6145156621932983,1.5854995250701904,0.7556397318840027
1772698664000408600,20.10140869140625,-1.4385865926742554,3.548207998275757,0.7024945020675659
1772698664017755400,20.11875537109375,-0.5748237371444702,-0.5775726437568665,-0.6554579138755798
1772698664035102000,20.13610205078125,0.6010909676551819,-2.258061647415161,-0.5601630210876465
1772698664052448800,20.15344873046875,1.0262528657913208,-3.132209062576294,-0.5790998339653015
1772698664069795600,20.170795654296874,1.2229512929916382,-2.7736315727233887,-0.5247328281402588
1772698664087142100,20.18814208984375,1.073289394378662,-2.305098295211792,-0.09285144507884979
1772698664104489000,20.205489013671876,0.8588758707046509,-0.9019418358802795,0.2510654330253601
1772698664121835800,20.222835693359375,0.695164144039154,0.23426663875579834,0.24556763470172882
1772698664139182300,20.240182373046874,0.3848448097705841,0.383928507566452,0.1130099818110466
1772698664156529200,20.257529052734377,0.15088360011577606,0.22999058663845062,0.3237583339214325
1772698664173875700,20.274875732421876,0.29504770040512085,0.1389717310667038,0.730594277381897
1772698664191222500,20.292222412109375,0.45875945687294006,0.08826996386051178,0.7513636946678162
1772698664208569300,20.3095693359375,0.27000224590301514,0.1542433500289917,0.6236929297447205
1772698664225916000,20.326916015625,-0.11606431007385254,0.10903936624526978,0.4679224193096161
1772698664243262700,20.3442626953125,-0.36163195967674255,0.1847866028547287,0.47036588191986084
1772698664260609500,20.361609619140626,-0.37323838472366333,0.13164135813713074,0.39217519760131836
1772698664277956000,20.3789560546875,-0.19181154668331146,0.008246674202382565,0.1893680840730667
1772698664295303000,20.396302978515624,0.1026252806186676,0.10476330667734146,0.16187916696071625
1772698664312649700,20.413649658203123,0.20708316564559937,-0.4010327160358429,0.18264856934547424
1772698664329996300,20.430996337890626,0.16676609218120575,-0.6185005903244019,0.25534147024154663
1772698664347343000,20.448343017578125,-0.053756099194288254,-0.40225446224212646,0.3451386094093323
1772698664364690000,20.46568994140625,-0.22907429933547974,-0.4053087830543518,0.45509424805641174
