time,seconds_elapsed,z,y,x
1772698733025621000,0.08162109375,6.63949728012085,6.968116760253906,1.8795762062072754
1772698733035621000,0.09162109375,6.478844165802002,7.16921854019165,1.6725008487701416
1772698733045621000,0.10162109375,6.356828689575195,7.322691440582275,1.4626381397247314
1772698733055621000,0.11162109375,6.3176960945129395,7.424088478088379,1.0677119493484497
1772698733065621000,0.12162109375,6.265964031219482,7.519403457641602,0.605506420135498
1772698733075621000,0.13162109375,6.1876444816589355,7.604742527008057,0.22657530009746552
1772698733085621000,0.14162109375,6.08986234664917,7.686581611633301,0.020776215940713882
1772698733095621000,0.15162109375,6.015022277832031,7.7453107833862305,-0.007796809077262878
1772698733105621000,0.16162109375,5.959043502807617,7.787712097167969,0.10827355831861496
1772698733115621000,0.17162109375,5.901458740234375,7.827427864074707,0.27303147315979004
1772698733125621000,0.18162109375,5.816459655761719,7.886600494384766,0.3751436471939087
1772698733135621000,0.19162109375,5.551546096801758,8.083799362182617,0.053918737918138504
1772698733145621000,0.20162109375,5.380447864532471,8.179511070251465,-0.5628204941749573
1772698733155621000,0.21162109375,5.403387069702148,8.134079933166504,-0.9003002643585205
1772698733165621000,0.22162109375,5.479613780975342,8.05539608001709,-1.1201839447021484
1772698733175621000,0.23162109375,5.580716609954834,7.962727069854736,-1.273166298866272
1772698733185621000,0.24162109375,5.7088623046875,7.8686089515686035,-1.2900688648223877
1772698733195621000,0.25162109375,5.878881931304932,7.758418560028076,-1.1899888515472412
1772698733205621000,0.26162109375,6.075771331787109,7.628390312194824,-1.0310455560684204
1772698733215621000,0.27162109375,6.284912109375,7.482842922210693,-0.8229994773864746
1772698733225621000,0.28162109375,6.477685451507568,7.339067459106445,-0.589971661567688
1772698733235621000,0.29162109375,6.648281574249268,7.201817989349365,-0.32335513830184937
1772698733245621000,0.30162109375,6.79445219039917,7.0714640617370605,-0.014648104086518288
1772698733255621000,0.31162109375,6.915128707885742,6.944671630859375,0.3505813479423523
1772698733265621000,0.32162109375,7.02507209777832,6.796590328216553,0.7906481027603149
1772698733275621000,0.33162109375,7.135043621063232,6.605662822723389,1.275443434715271
1772698733285621000,0.34162109375,7.267358303070068,6.339592456817627,1.7791714668273926
1772698733295621000,0.35162109375,7.429373741149902,5.950927257537842,2.358232259750366
1772698733305621000,0.36162109375,7.611077308654785,5.42274808883667,2.972489833831787
1772698733315621000,0.37162109375,7.785467624664307,4.745551586151123,3.6106271743774414
1772698733325621000,0.38162109375,7.926213264465332,3.9154512882232666,4.244380950927734
1772698733335621000,0.39162109375,7.999942302703857,2.9564566612243652,4.8405256271362305
1772698733345621000,0.40162109375,7.971538543701172,1.8642678260803223,5.399024963378906
1772698733355621000,0.41162109375,7.8251237869262695,0.6402561664581299,5.876044273376465
1772698733365621000,0.42162109375,7.5708513259887695,-0.6240268349647522,6.201869487762451
1772698733375621000,0.43162109375,7.24583625793457,-1.8264453411102295,6.350775241851807
1772698733385621000,0.44162109375,6.866715431213379,-2.9302408695220947,6.358639240264893
1772698733395621000,0.45162109375,6.475497722625732,-3.8783950805664062,6.26069974899292
1772698733405621000,0.46162109375,6.100803375244141,-4.689823150634766,6.079156398773193
1772698733415621000,0.47162109375,5.7765302658081055,-5.382064342498779,5.816826343536377
1772698733425621000,0.48162109375,5.510689735412598,-5.984089374542236,5.476619720458984
1772698733435621000,0.49162109375,5.279650688171387,-6.516526699066162,5.0823774337768555
1772698733445621000,0.50162109375,5.07679557800293,-6.972939491271973,4.666332244873047
1772698733455621000,0.51162109375,4.870288848876953,-7.379519939422607,4.241858959197998
1772698733465621000,0.52162109375,4.669159412384033,-7.740138530731201,3.8025777339935303
1772698733475621000,0.53162109375,4.463951110839844,-8.069110870361328,3.336609125137329
1772698733485621000,0.54162109375,4.279305934906006,-8.348139762878418,2.857706308364868
1772698733495621000,0.55162109375,4.120083808898926,-8.581684112548828,2.3558435440063477
1772698733505621000,0.56162109375,4.010375499725342,-8.758158683776855,1.8389965295791626
1772698733515621000,0.57162109375,3.95627760887146,-8.87558650970459,1.3199347257614136
1772698733525621000,0.58162109375,3.94130277633667,-8.943883895874023,0.8021674156188965
1772698733535621000,0.59162109375,3.9354331493377686,-8.977982521057129,0.280314564704895
1772698733545621000,0.60162109375,3.9287400245666504,-8.981915473937988,-0.2461269199848175
1772698733555621000,0.61162109375,3.9183170795440674,-8.957715034484863,-0.7592938542366028
1772698733565621000,0.62162109375,3.910207748413086,-8.906075477600098,-1.2499926090240479
1772698733575621000,0.63162109375,3.9212286472320557,-8.822683334350586,-1.7189018726348877
1772698733585621000,0.64162109375,3.973177909851074,-8.708016395568848,-2.1341731548309326
1772698733595621000,0.65162109375,4.087737560272217,-8.566082954406738,-2.466376304626465
1772698733605621000,0.66162109375,4.2535271644592285,-8.408413887023926,-2.7159645557403564
1772698733615621000,0.67162109375,4.448849678039551,-8.24094295501709,-2.909466028213501
1772698733625621000,0.68162109375,4.632501602172852,-8.073165893554688,-3.0877673625946045
1772698733635621000,0.69162109375,4.778125762939453,-7.917275428771973,-3.2644550800323486
1772698733645621000,0.70162109375,4.888400554656982,-7.773738861083984,-3.441351890563965
1772698733655621000,0.71162109375,4.9765214920043945,-7.647119045257568,-3.595302104949951
1772698733665621000,0.72162109375,5.062867164611816,-7.534424304962158,-3.7108256816864014
1772698733675621000,0.73162109375,5.165578365325928,-7.42495584487915,-3.789092779159546
1772698733685621000,0.74162109375,5.281007766723633,-7.315174102783203,-3.8431203365325928
1772698733695621000,0.75162109375,5.3973236083984375,-7.20925235748291,-3.8814921379089355
1772698733705621000,0.76162109375,5.50349760055542,-7.112890243530273,-3.9100754261016846
1772698733715621000,0.77162109375,5.590469837188721,-7.033016681671143,-3.9311201572418213
1772698733725621000,0.78162109375,5.64849328994751,-6.976967811584473,-3.9480152130126953
1772698733735621000,0.79162109375,5.673559188842773,-6.94784688949585,-3.9633986949920654
1772698733745621000,0.80162109375,5.675424098968506,-6.938721656799316,-3.9766921997070312
1772698733755621000,0.81162109375,5.665348529815674,-6.943957328796387,-3.981919288635254
1772698733765621000,0.82162109375,5.6549224853515625,-6.959415435791016,-3.969733715057373
1772698733775621000,0.83162109375,5.644999027252197,-6.990321159362793,-3.929348945617676
1772698733785621000,0.84162109375,5.635286808013916,-7.0385966300964355,-3.8564341068267822
1772698733795621000,0.85162109375,5.608913898468018,-7.110818862915039,-3.761214256286621
1772698733805621000,0.86162109375,5.514868259429932,-7.219820499420166,-3.6919937133789062
1772698733815621000,0.87162109375,5.381215572357178,-7.338014125823975,-3.656017303466797
1772698733825621000,0.88162109375,5.201270580291748,-7.437424182891846,-3.7150895595550537
1772698733835621000,0.89162109375,5.037080764770508,-7.501748561859131,-3.8107693195343018
1772698733845621000,0.90162109375,4.902402400970459,-7.556195259094238,-3.8782389163970947
1772698733855621000,0.91162109375,4.777858734130859,-7.616324424743652,-3.91587233543396
1772698733865621000,0.92162109375,4.646130084991455,-7.687294006347656,-3.9356539249420166
1772698733875621000,0.93162109375,4.5026021003723145,-7.775025844573975,-3.930131673812866
1772698733885621000,0.94162109375,4.351572513580322,-7.883230209350586,-3.884441375732422
1772698733895621000,0.95162109375,4.179596424102783,-8.01107120513916,-3.811047077178955
1772698733905621000,0.96162109375,3.959040641784668,-8.15400505065918,-3.742804765701294
1772698733915621000,0.97162109375,3.740370988845825,-8.291903495788574,-3.663926839828491
1772698733925621000,0.98162109375,3.569410800933838,-8.412215232849121,-3.558697462081909
1772698733935621000,0.99162109375,3.4230496883392334,-8.526337623596191,-3.4285101890563965
1772698733945621000,1.00162109375,3.314776659011841,-8.642376899719238,-3.239131450653076
1772698733955621000,1.01162109375,3.232835531234741,-8.753442764282227,-3.016023635864258
1772698733965621000,1.02162109375,3.1386020183563232,-8.852433204650879,-2.8202807903289795
1772698733975621000,1.03162109375,3.0151686668395996,-8.958940505981445,-2.6108527183532715
1772698733985621000,1.04162109375,2.935670852661133,-9.058748245239258,-2.343352794647217
1772698733995621000,1.05162109375,3.0119335651397705,-9.0871000289917,-2.1267929077148438
1772698734005621000,1.06162109375,3.2007105350494385,-9.056472778320312,-1.9763946533203125
1772698734015621000,1.07162109375,3.374889373779297,-9.00084400177002,-1.9404399394989014
1772698734025621000,1.08162109375,3.4312691688537598,-8.952546119689941,-2.0612339973449707
1772698734035621000,1.09162109375,3.3725779056549072,-8.944177627563477,-2.1903834342956543
1772698734045621000,1.10162109375,3.2869601249694824,-8.94655704498291,-2.307680368423462
1772698734055621000,1.11162109375,3.2100093364715576,-8.94652271270752,-2.413700819015503
1772698734065621000,1.12162109375,3.151519775390625,-8.950506210327148,-2.475226879119873
1772698734075621000,1.13162109375,3.0910887718200684,-8.968178749084473,-2.487433671951294
1772698734085621000,1.14162109375,3.002713441848755,-9.006760597229004,-2.4560863971710205
1772698734095621000,1.15162109375,2.8785219192504883,-9.051220893859863,-2.4412875175476074
1772698734105621000,1.16162109375,2.7512290477752686,-9.093755722045898,-2.429964303970337
1772698734115621000,1.17162109375,2.6310675144195557,-9.133620262145996,-2.4134700298309326
1772698734125621000,1.18162109375,2.5236430168151855,-9.166111946105957,-2.404994487762451
1772698734135621000,1.19162109375,2.413189172744751,-9.20750617980957,-2.359816074371338
1772698734145621000,1.20162109375,2.3022892475128174,-9.257691383361816,-2.27266001701355
1772698734155621000,1.21162109375,2.19024920463562,-9.306920051574707,-2.18046498298645
1772698734165621000,1.22162109375,2.100179433822632,-9.351428985595703,-2.0761518478393555
1772698734175621000,1.23162109375,2.0187060832977295,-9.401703834533691,-1.9243651628494263
1772698734185621000,1.24162109375,1.9627599716186523,-9.451130867004395,-1.7303475141525269
1772698734195621000,1.25162109375,1.9518948793411255,-9.488675117492676,-1.5249664783477783
1772698734205621000,1.26162109375,1.9611384868621826,-9.516512870788574,-1.326765537261963
1772698734215621000,1.27162109375,1.9822134971618652,-9.537692070007324,-1.1285622119903564
1772698734225621000,1.28162109375,2.0102338790893555,-9.554577827453613,-0.9161806106567383
1772698734235621000,1.29162109375,2.04410719871521,-9.567439079284668,-0.6753626465797424
1772698734245621000,1.30162109375,2.0772111415863037,-9.575806617736816,-0.39940014481544495
1772698734255621000,1.31162109375,2.1116549968719482,-9.576031684875488,-0.10449080914258957
1772698734265621000,1.32162109375,2.130742311477661,-9.570462226867676,0.19123506546020508
1772698734275621000,1.33162109375,2.1378180980682373,-9.558513641357422,0.48470407724380493
1772698734285621000,1.34162109375,2.13517427444458,-9.540718078613281,0.7655799388885498
1772698734295621000,1.35162109375,2.1253583431243896,-9.518539428710938,1.0250086784362793
1772698734305621000,1.36162109375,2.1093103885650635,-9.49246597290039,1.2705453634262085
1772698734315621000,1.37162109375,2.092947483062744,-9.460660934448242,1.5119074583053589
1772698734325621000,1.38162109375,2.1146888732910156,-9.41102123260498,1.7695103883743286
1772698734335621000,1.39162109375,2.1489105224609375,-9.361841201782227,1.9769926071166992
1772698734345621000,1.40162109375,2.1727237701416016,-9.314563751220703,2.1653079986572266
1772698734355621000,1.41162109375,2.1984379291534424,-9.26674747467041,2.337658405303955
1772698734365621000,1.42162109375,2.238257884979248,-9.219001770019531,2.4840664863586426
1772698734375621000,1.43162109375,2.2909443378448486,-9.196402549743652,2.5195536613464355
1772698734385621000,1.44162109375,2.36643648147583,-9.18928337097168,2.4753658771514893
1772698734395621000,1.45162109375,2.418987512588501,-9.195952415466309,2.3986165523529053
1772698734405621000,1.46162109375,2.440523862838745,-9.211682319641113,2.3149826526641846
1772698734415621000,1.47162109375,2.436185598373413,-9.230371475219727,2.2440171241760254
1772698734425621000,1.48162109375,2.4155032634735107,-9.25217342376709,2.1755504608154297
1772698734435621000,1.49162109375,2.3841025829315186,-9.269646644592285,2.1354379653930664
1772698734445621000,1.50162109375,2.3486666679382324,-9.276631355285645,2.1443545818328857
1772698734455621000,1.51162109375,2.3060591220855713,-9.283855438232422,2.1592843532562256
1772698734465621000,1.52162109375,2.2597761154174805,-9.304931640625,2.1170852184295654
1772698734475621000,1.53162109375,2.261939287185669,-9.31670093536377,2.062305450439453
1772698734485621000,1.54162109375,2.274703025817871,-9.323220252990723,2.0183374881744385
1772698734495621000,1.55162109375,2.298433542251587,-9.326194763183594,1.9772896766662598
1772698734505621000,1.56162109375,2.334920883178711,-9.326279640197754,1.933658480644226
1772698734515621000,1.57162109375,2.3777384757995605,-9.324058532714844,1.8917419910430908
1772698734525621000,1.58162109375,2.4266746044158936,-9.319116592407227,1.8535633087158203
1772698734535621000,1.59162109375,2.4800446033477783,-9.31151008605957,1.8208636045455933
1772698734545621000,1.60162109375,2.5334725379943848,-9.302836418151855,1.7914077043533325
1772698734555621000,1.61162109375,2.5794310569763184,-9.295194625854492,1.765299916267395
1772698734565621000,1.62162109375,2.617666244506836,-9.287079811096191,1.7516777515411377
1772698734575621000,1.63162109375,2.643946886062622,-9.277408599853516,1.7634117603302002
1772698734585621000,1.64162109375,2.651620388031006,-9.26901626586914,1.7957303524017334
1772698734595621000,1.65162109375,2.6372382640838623,-9.265198707580566,1.8361566066741943
1772698734605621000,1.66162109375,2.6115264892578125,-9.263928413391113,1.878815770149231
1772698734615621000,1.67162109375,2.5647120475769043,-9.267918586730957,1.9231022596359253
1772698734625621000,1.68162109375,2.474761962890625,-9.282333374023438,1.9708423614501953
1772698734635621000,1.69162109375,2.3482353687286377,-9.302888870239258,2.0279133319854736
1772698734645621000,1.70162109375,2.2066073417663574,-9.323230743408203,2.092517614364624
1772698734655621000,1.71162109375,2.0651044845581055,-9.338757514953613,2.1664116382598877
1772698734665621000,1.72162109375,1.9242159128189087,-9.349843978881836,2.2468175888061523
1772698734675621000,1.73162109375,1.7777397632598877,-9.359443664550781,2.326117753982544
1772698734685621000,1.74162109375,1.6571924686431885,-9.364398956298828,2.3941891193389893
1772698734695621000,1.75162109375,1.5595835447311401,-9.366689682006836,2.4501476287841797
1772698734705621000,1.76162109375,1.4666292667388916,-9.37167739868164,2.488180637359619
1772698734715621000,1.77162109375,1.3642504215240479,-9.381332397460938,2.5099403858184814
1772698734725621000,1.78162109375,1.242257833480835,-9.398782730102539,2.508000612258911
1772698734735621000,1.79162109375,1.1142914295196533,-9.42615795135498,2.465012311935425
1772698734745621000,1.80162109375,1.0077157020568848,-9.458404541015625,2.386101245880127
1772698734755621000,1.81162109375,0.9330580830574036,-9.492575645446777,2.2783329486846924
1772698734765621000,1.82162109375,0.8893030881881714,-9.527212142944336,2.1474969387054443
1772698734775621000,1.83162109375,0.8587709069252014,-9.562994956970215,1.9955024719238281
1772698734785621000,1.84162109375,0.8237652778625488,-9.59534740447998,1.849626898765564
1772698734795621000,1.85162109375,0.7916655540466309,-9.616164207458496,1.7530080080032349
1772698734805621000,1.86162109375,0.7561497688293457,-9.629947662353516,1.691965937614441
1772698734815621000,1.87162109375,0.7211889624595642,-9.641290664672852,1.6418795585632324
1772698734825621000,1.88162109375,0.6889384984970093,-9.651180267333984,1.5970208644866943
1772698734835621000,1.89162109375,0.6550617814064026,-9.660331726074219,1.5553948879241943
1772698734845621000,1.90162109375,0.6236882209777832,-9.665964126586914,1.5331463813781738
1772698734855621000,1.91162109375,0.5910740494728088,-9.668981552124023,1.5270276069641113
1772698734865621000,1.92162109375,0.5586175322532654,-9.670453071594238,1.529927134513855
1772698734875621000,1.93162109375,0.5267899036407471,-9.670641899108887,1.5399824380874634
1772698734885621000,1.94162109375,0.5070062875747681,-9.668790817260742,1.5581477880477905
1772698734895621000,1.95162109375,0.49160897731781006,-9.667040824890137,1.5738555192947388
1772698734905621000,1.96162109375,0.47601422667503357,-9.666153907775879,1.5840721130371094
1772698734915621000,1.97162109375,0.4560464024543762,-9.66622257232666,1.5895099639892578
1772698734925621000,1.98162109375,0.43194955587387085,-9.666961669921875,1.5917460918426514
1772698734935621000,1.99162109375,0.4016420543193817,-9.667789459228516,1.594655990600586
1772698734945621000,2.00162109375,0.3637208640575409,-9.668168067932129,1.6014453172683716
1772698734955621000,2.01162109375,0.32140472531318665,-9.667916297912598,1.6119815111160278
1772698734965621000,2.02162109375,0.27767103910446167,-9.667211532592773,1.6242859363555908
1772698734975621000,2.03162109375,0.2338590770959854,-9.666254997253418,1.6368321180343628
1772698734985621000,2.04162109375,0.18935850262641907,-9.665117263793945,1.6492582559585571
1772698734995621000,2.05162109375,0.14112959802150726,-9.663809776306152,1.6617045402526855
1772698735005621000,2.06162109375,0.08924244344234467,-9.661959648132324,1.6760002374649048
1772698735015621000,2.07162109375,0.0335359126329422,-9.659575462341309,1.6917048692703247
1772698735025621000,2.08162109375,-0.02183765172958374,-9.656827926635742,1.7075058221817017
1772698735035621000,2.09162109375,-0.06919322907924652,-9.653886795043945,1.7228095531463623
1772698735045621000,2.10162109375,-0.09668087959289551,-9.650859832763672,1.738375186920166
1772698735055621000,2.11162109375,-0.09732166677713394,-9.648085594177246,1.7536674737930298
1772698735065621000,2.12162109375,-0.07107415795326233,-9.646930694580078,1.761274814605713
1772698735075621000,2.13162109375,-0.026411917060613632,-9.648192405700684,1.7555791139602661
1772698735085621000,2.14162109375,0.01898796670138836,-9.65138053894043,1.7380690574645996
1772698735095621000,2.15162109375,0.04495619609951973,-9.656051635742188,1.711443305015564
1772698735105621000,2.16162109375,0.04399094358086586,-9.662178993225098,1.6765291690826416
1772698735115621000,2.17162109375,0.02849401906132698,-9.667741775512695,1.644489049911499
1772698735125621000,2.18162109375,0.013383175246417522,-9.669713973999023,1.6330512762069702
1772698735135621000,2.19162109375,0.009957208298146725,-9.666878700256348,1.6497730016708374
1772698735145621000,2.20162109375,0.023147646337747574,-9.660447120666504,1.6868878602981567
1772698735155621000,2.21162109375,0.05890583246946335,-9.65328598022461,1.7265536785125732
1772698735165621000,2.22162109375,0.12023423612117767,-9.647191047668457,1.7571686506271362
1772698735175621000,2.23162109375,0.2007128745317459,-9.642230987548828,1.7769267559051514
1772698735185621000,2.24162109375,0.2792694568634033,-9.638716697692871,1.785365104675293
1772698735195621000,2.25162109375,0.3460060656070709,-9.63736343383789,1.7809782028198242
1772698735205621000,2.26162109375,0.3951970040798187,-9.638401985168457,1.7650574445724487
1772698735215621000,2.27162109375,0.42440637946128845,-9.641403198242188,1.7417298555374146
1772698735225621000,2.28162109375,0.43962234258651733,-9.647053718566895,1.7063066959381104
1772698735235621000,2.29162109375,0.45614972710609436,-9.654143333435059,1.66127610206604
1772698735245621000,2.30162109375,0.47747284173965454,-9.660452842712402,1.6180380582809448
1772698735255621000,2.31162109375,0.4962870478630066,-9.665428161621094,1.5822689533233643
1772698735265621000,2.32162109375,0.5117360353469849,-9.670238494873047,1.5475833415985107
1772698735275621000,2.33162109375,0.5337130427360535,-9.67638874053955,1.5010124444961548
1772698735285621000,2.34162109375,0.5756370425224304,-9.684497833251953,1.43162202835083
1772698735295621000,2.35162109375,0.6448782086372375,-9.693405151367188,1.3388150930404663
1772698735305621000,2.36162109375,0.7329953908920288,-9.702123641967773,1.2255208492279053
1772698735315621000,2.37162109375,0.832690954208374,-9.70898723602295,1.10117769241333
1772698735325621000,2.38162109375,0.9289151430130005,-9.712958335876465,0.9828317165374756
1772698735335621000,2.39162109375,1.0007740259170532,-9.715219497680664,0.8850680589675903
1772698735345621000,2.40162109375,1.0424365997314453,-9.71726131439209,0.8115082383155823
1772698735355621000,2.41162109375,1.0597014427185059,-9.719127655029297,0.7654882669448853
1772698735365621000,2.42162109375,1.0749701261520386,-9.718490600585938,0.7521841526031494
1772698735375621000,2.43162109375,1.1279881000518799,-9.711026191711426,0.7707201242446899
1772698735385621000,2.44162109375,1.2248460054397583,-9.694616317749023,0.8273830413818359
1772698735395621000,2.45162109375,1.3335427045822144,-9.669665336608887,0.9431984424591064
1772698735405621000,2.46162109375,1.4220905303955078,-9.638785362243652,1.1143898963928223
1772698735415621000,2.47162109375,1.4798707962036133,-9.606608390808105,1.3013197183609009
1772698735425621000,2.48162109375,1.5123605728149414,-9.577879905700684,1.4653939008712769
1772698735435621000,2.49162109375,1.5328127145767212,-9.555182456970215,1.587249517440796
1772698735445621000,2.50162109375,1.5535839796066284,-9.537969589233398,1.6685034036636353
1772698735455621000,2.51162109375,1.5771799087524414,-9.525297164916992,1.7180306911468506
1772698735465621000,2.52162109375,1.611603856086731,-9.513476371765137,1.7512506246566772
1772698735475621000,2.53162109375,1.6564466953277588,-9.499715805053711,1.7838119268417358
1772698735485621000,2.54162109375,1.7049224376678467,-9.4827880859375,1.827662706375122
1772698735495621000,2.55162109375,1.7461365461349487,-9.463441848754883,1.888026475906372
1772698735505621000,2.56162109375,1.7694871425628662,-9.443992614746094,1.9622184038162231
1772698735515621000,2.57162109375,1.7708067893981934,-9.427210807800293,2.0401792526245117
1772698735525621000,2.58162109375,1.7557692527770996,-9.414536476135254,2.1104891300201416
1772698735535621000,2.59162109375,1.7373390197753906,-9.40552806854248,2.1652019023895264
1772698735545621000,2.60162109375,1.7284374237060547,-9.39870548248291,2.2016406059265137
1772698735555621000,2.61162109375,1.735458493232727,-9.393473625183105,2.218381404876709
1772698735565621000,2.62162109375,1.7575229406356812,-9.390205383300781,2.21484112739563
1772698735575621000,2.63162109375,1.7851190567016602,-9.389945030212402,2.1937830448150635
1772698735585621000,2.64162109375,1.8078374862670898,-9.392107009887695,2.165745973587036
1772698735595621000,2.65162109375,1.8187412023544312,-9.396903038024902,2.1355974674224854
1772698735605621000,2.66162109375,1.8186211585998535,-9.404509544372559,2.1019551753997803
1772698735615621000,2.67162109375,1.8092917203903198,-9.414973258972168,2.062795639038086
1772698735625621000,2.68162109375,1.7936233282089233,-9.426724433898926,2.0224196910858154
1772698735635621000,2.69162109375,1.7724189758300781,-9.43896198272705,1.9836634397506714
1772698735645621000,2.70162109375,1.7439582347869873,-9.45157241821289,1.9485301971435547
1772698735655621000,2.71162109375,1.7073101997375488,-9.463810920715332,1.9213950634002686
1772698735665621000,2.72162109375,1.661960482597351,-9.474839210510254,1.9067524671554565
1772698735675621000,2.73162109375,1.6129666566848755,-9.483559608459473,1.9054758548736572
1772698735685621000,2.74162109375,1.573081374168396,-9.488454818725586,1.9144270420074463
1772698735695621000,2.75162109375,1.5561838150024414,-9.487481117248535,1.9329750537872314
1772698735705621000,2.76162109375,1.564948558807373,-9.479823112487793,1.9632303714752197
1772698735715621000,2.77162109375,1.589537501335144,-9.467920303344727,2.0005595684051514
1772698735725621000,2.78162109375,1.6128442287445068,-9.45677375793457,2.0343427658081055
1772698735735621000,2.79162109375,1.624160885810852,-9.45105266571045,2.0518503189086914
1772698735745621000,2.80162109375,1.6259806156158447,-9.452342987060547,2.044451951980591
1772698735755621000,2.81162109375,1.6307015419006348,-9.458208084106445,2.01332688331604
1772698735765621000,2.82162109375,1.6418179273605347,-9.465700149536133,1.9685872793197632
1772698735775621000,2.83162109375,1.6509344577789307,-9.473760604858398,1.921631932258606
1772698735785621000,2.84162109375,1.6459287405014038,-9.482014656066895,1.8848596811294556
1772698735795621000,2.85162109375,1.622530460357666,-9.489474296569824,1.867526650428772
1772698735805621000,2.86162109375,1.5859923362731934,-9.494878768920898,1.8714388608932495
1772698735815621000,2.87162109375,1.5518184900283813,-9.49771499633789,1.8856399059295654
1772698735825621000,2.88162109375,1.5218966007232666,-9.49731731414795,1.9118518829345703
1772698735835621000,2.89162109375,1.4759165048599243,-9.493317604064941,1.966973900794983
1772698735845621000,2.90162109375,1.403527855873108,-9.486077308654785,2.053006887435913
1772698735855621000,2.91162109375,1.3110630512237549,-9.471409797668457,2.178044080734253
1772698735865621000,2.92162109375,1.222975254058838,-9.448663711547852,2.3232457637786865
1772698735875621000,2.93162109375,1.1510823965072632,-9.422914505004883,2.460505723953247
1772698735885621000,2.94162109375,1.0715785026550293,-9.39970588684082,2.582176923751831
1772698735895621000,2.95162109375,0.9726026058197021,-9.38425064086914,2.6758666038513184
1772698735905621000,2.96162109375,0.8631098866462708,-9.380990982055664,2.724414825439453
1772698735915621000,2.97162109375,0.7556543946266174,-9.39095687866211,2.7220051288604736
1772698735925621000,2.98162109375,0.6644929647445679,-9.41276741027832,2.6699514389038086
1772698735935621000,2.99162109375,0.6036837100982666,-9.442082405090332,2.57934832572937
1772698735945621000,3.00162109375,0.570146381855011,-9.474040031433105,2.46736216545105
1772698735955621000,3.01162109375,0.5452002286911011,-9.505701065063477,2.348360776901245
1772698735965621000,3.02162109375,0.5179206132888794,-9.534284591674805,2.235966444015503
1772698735975621000,3.03162109375,0.4942515790462494,-9.556884765625,2.142909049987793
1772698735985621000,3.04162109375,0.4844651520252228,-9.572736740112305,2.073256492614746
1772698735995621000,3.05162109375,0.48464348912239075,-9.584491729736328,2.01816987991333
1772698736005621000,3.06162109375,0.4817712604999542,-9.593655586242676,1.9748570919036865
1772698736015621000,3.07162109375,0.4704977869987488,-9.600846290588379,1.9423600435256958
1772698736025621000,3.08162109375,0.45265546441078186,-9.607192993164062,1.9150310754776
1772698736035621000,3.09162109375,0.4311983287334442,-9.613956451416016,1.885812759399414
1772698736045621000,3.10162109375,0.4077226221561432,-9.621686935424805,1.8512930870056152
1772698736055621000,3.11162109375,0.3834958076477051,-9.63000774383545,1.8128044605255127
1772698736065621000,3.12162109375,0.3621734082698822,-9.638372421264648,1.7722878456115723
1772698736075621000,3.13162109375,0.3500063717365265,-9.646465301513672,1.7301981449127197
1772698736085621000,3.14162109375,0.3474475145339966,-9.6537446975708,1.6896418333053589
1772698736095621000,3.15162109375,0.3518523871898651,-9.659658432006836,1.6545652151107788
1772698736105621000,3.16162109375,0.3533191680908203,-9.664063453674316,1.6283249855041504
1772698736115621000,3.17162109375,0.34115853905677795,-9.667420387268066,1.6108957529067993
1772698736125621000,3.18162109375,0.3135746121406555,-9.669675827026367,1.6029410362243652
1772698736135621000,3.19162109375,0.2758729159832001,-9.670536994934082,1.604677677154541
1772698736145621000,3.20162109375,0.23418143391609192,-9.670239448547363,1.6130764484405518
1772698736155621000,3.21162109375,0.18979044258594513,-9.669347763061523,1.6242179870605469
1772698736165621000,3.22162109375,0.1397470384836197,-9.668145179748535,1.636406421661377
1772698736175621000,3.23162109375,0.08163873106241226,-9.666501998901367,1.6499894857406616
1772698736185621000,3.24162109375,0.017457688227295876,-9.664040565490723,1.666256308555603
1772698736195621000,3.25162109375,-0.044909197837114334,-9.660290718078613,1.6873517036437988
1772698736205621000,3.26162109375,-0.09473598003387451,-9.654807090759277,1.716425895690918
1772698736215621000,3.27162109375,-0.11823523044586182,-9.647310256958008,1.7566444873809814
1772698736225621000,3.28162109375,-0.10053037852048874,-9.638035774230957,1.8079140186309814
1772698736235621000,3.29162109375,-0.03716496378183365,-9.627750396728516,1.8642520904541016
1772698736245621000,3.30162109375,0.059339310973882675,-9.617753028869629,1.9146013259887695
1772698736255621000,3.31162109375,0.15894575417041779,-9.610539436340332,1.9449061155319214
1772698736265621000,3.32162109375,0.23002776503562927,-9.60876178741455,1.9465768337249756
1772698736275621000,3.33162109375,0.25599437952041626,-9.612497329711914,1.9247748851776123
1772698736285621000,3.34162109375,0.2365124523639679,-9.618640899658203,1.896362543106079
1772698736295621000,3.35162109375,0.18366335332393646,-9.62503719329834,1.8695791959762573
1772698736305621000,3.36162109375,0.12133466452360153,-9.63188362121582,1.839150309562683
1772698736315621000,3.37162109375,0.08486641943454742,-9.638140678405762,1.8081508874893188
1772698736325621000,3.38162109375,0.09857577085494995,-9.642380714416504,1.7847024202346802
1772698736335621000,3.39162109375,0.15698930621147156,-9.643146514892578,1.7763662338256836
1772698736345621000,3.40162109375,0.22464589774608612,-9.64080810546875,1.7817821502685547
1772698736355621000,3.41162109375,0.25990286469459534,-9.637834548950195,1.7930355072021484
1772698736365621000,3.42162109375,0.2412506341934204,-9.636683464050293,1.8018053770065308
1772698736375621000,3.43162109375,0.17920152842998505,-9.638688087463379,1.7983229160308838
1772698736385621000,3.44162109375,0.10215134918689728,-9.643937110900879,1.7760727405548096
1772698736395621000,3.45162109375,0.029940592125058174,-9.652517318725586,1.7315917015075684
1772698736405621000,3.46162109375,-0.0265834741294384,-9.664977073669434,1.66069757938385
1772698736415621000,3.47162109375,-0.05451318249106407,-9.681967735290527,1.5578538179397583
1772698736425621000,3.48162109375,-0.03475339710712433,-9.702836036682129,1.4227317571640015
1772698736435621000,3.49162109375,0.04157279431819916,-9.724896430969238,1.2629504203796387
1772698736445621000,3.50162109375,0.1664138287305832,-9.744355201721191,1.0909830331802368
1772698736455621000,3.51162109375,0.3296394944190979,-9.757750511169434,0.920884907245636
1772698736465621000,3.52162109375,0.5168358683586121,-9.762983322143555,0.7664425373077393
1772698736475621000,3.53162109375,0.7090742588043213,-9.759909629821777,0.6416957974433899
1772698736485621000,3.54162109375,0.8864871859550476,-9.750631332397461,0.5565162897109985
1772698736495621000,3.55162109375,1.0324410200119019,-9.738654136657715,0.5129035115242004
1772698736505621000,3.56162109375,1.1415342092514038,-9.727018356323242,0.5023952126502991
1772698736515621000,3.57162109375,1.2256407737731934,-9.716341018676758,0.5107924938201904
1772698736525621000,3.58162109375,1.2990833520889282,-9.705554962158203,0.5338312983512878
1772698736535621000,3.59162109375,1.3728114366531372,-9.693130493164062,0.5735796689987183
1772698736545621000,3.60162109375,1.4521913528442383,-9.677544593811035,0.6376915574073792
1772698736555621000,3.61162109375,1.5314645767211914,-9.658169746398926,0.7380713820457458
1772698736565621000,3.62162109375,1.6017184257507324,-9.635891914367676,0.868598222732544
1772698736575621000,3.63162109375,1.6602927446365356,-9.612299919128418,1.0087159872055054
1772698736585621000,3.64162109375,1.7078114748001099,-9.589332580566406,1.139498233795166
1772698736595621000,3.65162109375,1.7470107078552246,-9.568453788757324,1.250211477279663
1772698736605621000,3.66162109375,1.7812000513076782,-9.550477981567383,1.3364454507827759
1772698736615621000,3.67162109375,1.814054012298584,-9.53542709350586,1.39829421043396
1772698736625621000,3.68162109375,1.8497025966644287,-9.521208763122559,1.447608470916748
1772698736635621000,3.69162109375,1.8944355249404907,-9.503893852233887,1.5024975538253784
1772698736645621000,3.70162109375,1.9448800086975098,-9.482462882995605,1.5718516111373901
1772698736655621000,3.71162109375,1.9918241500854492,-9.458333015441895,1.6561932563781738
1772698736665621000,3.72162109375,2.0283353328704834,-9.434097290039062,1.7475826740264893
1772698736675621000,3.73162109375,2.051804304122925,-9.413551330566406,1.8290817737579346
1772698736685621000,3.74162109375,2.0650534629821777,-9.39828872680664,1.891585350036621
1772698736695621000,3.75162109375,2.076305389404297,-9.387345314025879,1.9331578016281128
1772698736705621000,3.76162109375,2.0918190479278564,-9.379876136779785,1.9525889158248901
1772698736715621000,3.77162109375,2.1115143299102783,-9.374865531921387,1.9554537534713745
1772698736725621000,3.78162109375,2.132122755050659,-9.372213363647461,1.9457803964614868
1772698736735621000,3.79162109375,2.1488568782806396,-9.372505187988281,1.925866961479187
1772698736745621000,3.80162109375,2.1578381061553955,-9.375913619995117,1.899041771888733
1772698736755621000,3.81162109375,2.156980276107788,-9.382781028747559,1.8658103942871094
1772698736765621000,3.82162109375,2.1462743282318115,-9.393017768859863,1.8262271881103516
1772698736775621000,3.83162109375,2.1270992755889893,-9.405852317810059,1.7820711135864258
1772698736785621000,3.84162109375,2.101670742034912,-9.420400619506836,1.734774112701416
1772698736795621000,3.85162109375,2.0713372230529785,-9.436184883117676,1.6847450733184814
1772698736805621000,3.86162109375,2.0355892181396484,-9.45317268371582,1.6322638988494873
1772698736815621000,3.87162109375,1.9922165870666504,-9.471329689025879,1.5796794891357422
1772698736825621000,3.88162109375,1.940200686454773,-9.489995956420898,1.531661033630371
1772698736835621000,3.89162109375,1.8867919445037842,-9.506688117980957,1.4944216012954712
1772698736845621000,3.90162109375,1.8439834117889404,-9.518712997436523,1.4711285829544067
1772698736855621000,3.91162109375,1.8177539110183716,-9.524999618530273,1.463063359260559
1772698736865621000,3.92162109375,1.8097152709960938,-9.525734901428223,1.4682329893112183
1772698736875621000,3.93162109375,1.8207800388336182,-9.521162033081055,1.4841184616088867
1772698736885621000,3.94162109375,1.8493428230285645,-9.512334823608398,1.5052615404129028
1772698736895621000,3.95162109375,1.8897736072540283,-9.501479148864746,1.5234956741333008
1772698736905621000,3.96162109375,1.9314570426940918,-9.49173355102539,1.531941533088684
1772698736915621000,3.97162109375,1.9653183221817017,-9.484857559204102,1.5314713716506958
1772698736925621000,3.98162109375,1.9869331121444702,-9.481236457824707,1.5259900093078613
1772698736935621000,3.99162109375,1.9892679452896118,-9.482294082641602,1.5163451433181763
1772698736945621000,4.00162109375,1.953370213508606,-9.49185562133789,1.5031341314315796
1772698736955621000,4.01162109375,1.8699580430984497,-9.510174751281738,1.493393063545227
1772698736965621000,4.02162109375,1.7812491655349731,-9.525940895080566,1.501328468322754
1772698736975621000,4.03162109375,1.7203638553619385,-9.532259941101074,1.531911015510559
1772698736985621000,4.04162109375,1.6654279232025146,-9.532214164733887,1.5917396545410156
1772698736995621000,4.05162109375,1.589354395866394,-9.529754638671875,1.681702971458435
1772698737005621000,4.06162109375,1.5042532682418823,-9.52353572845459,1.7916089296340942
1772698737015621000,4.07162109375,1.4243314266204834,-9.512367248535156,1.91221022605896
1772698737025621000,4.08162109375,1.3460814952850342,-9.497071266174316,2.0406055450439453
1772698737035621000,4.09162109375,1.272585153579712,-9.477564811706543,2.1740970611572266
1772698737045621000,4.10162109375,1.1939228773117065,-9.457557678222656,2.3020689487457275
1772698737055621000,4.11162109375,1.10413658618927,-9.441542625427246,2.4100897312164307
1772698737065621000,4.12162109375,1.0044801235198975,-9.434098243713379,2.4817709922790527
1772698737075621000,4.13162109375,0.8977932333946228,-9.43735408782959,2.510120153427124
1772698737085621000,4.14162109375,0.7939358949661255,-9.448974609375,2.501386880874634
1772698737095621000,4.15162109375,0.7099643349647522,-9.465840339660645,2.4625604152679443
1772698737105621000,4.16162109375,0.6550018787384033,-9.485553741455078,2.401174545288086
1772698737115621000,4.17162109375,0.6255489587783813,-9.506718635559082,2.3240842819213867
1772698737125621000,4.18162109375,0.605470597743988,-9.528093338012695,2.2403671741485596
1772698737135621000,4.19162109375,0.5793247818946838,-9.547170639038086,2.1647861003875732
1772698737145621000,4.20162109375,0.5502345561981201,-9.562349319458008,2.1045427322387695
1772698737155621000,4.21162109375,0.5273241400718689,-9.575642585754395,2.0492401123046875
1772698737165621000,4.22162109375,0.5103004574775696,-9.58791446685791,1.9954657554626465
1772698737175621000,4.23162109375,0.494663804769516,-9.598471641540527,1.948081612586975
1772698737185621000,4.24162109375,0.47880688309669495,-9.606581687927246,1.9117286205291748
1772698737195621000,4.25162109375,0.4645446240901947,-9.612980842590332,1.8828651905059814
1772698737205621000,4.26162109375,0.45535144209861755,-9.618973731994629,1.8542897701263428
1772698737215621000,4.27162109375,0.45375147461891174,-9.624733924865723,1.8245497941970825
1772698737225621000,4.28162109375,0.4613897502422333,-9.629219055175781,1.7987921237945557
1772698737235621000,4.29162109375,0.47394514083862305,-9.63187026977539,1.781246304512024
1772698737245621000,4.30162109375,0.49113771319389343,-9.632841110229492,1.7713128328323364
1772698737255621000,4.31162109375,0.5095962285995483,-9.633037567138672,1.7650176286697388
1772698737265621000,4.32162109375,0.5249208211898804,-9.63298225402832,1.7608228921890259
1772698737275621000,4.33162109375,0.5311532020568848,-9.633513450622559,1.7560458183288574
1772698737285621000,4.34162109375,0.5239942669868469,-9.635344505310059,1.7481292486190796
1772698737295621000,4.35162109375,0.5024777054786682,-9.638136863708496,1.7390280961990356
1772698737305621000,4.36162109375,0.4695475101470947,-9.640722274780273,1.7338905334472656
1772698737315621000,4.37162109375,0.4293004870414734,-9.642464637756348,1.734635591506958
1772698737325621000,4.38162109375,0.38480043411254883,-9.643205642700195,1.7409441471099854
1772698737335621000,4.39162109375,0.3383127748966217,-9.643213272094727,1.7505320310592651
1772698737345621000,4.40162109375,0.2912870943546295,-9.642877578735352,1.760802984237671
1772698737355621000,4.41162109375,0.24483118951320648,-9.642767906188965,1.768464207649231
1772698737365621000,4.42162109375,0.20115607976913452,-9.64309024810791,1.7722089290618896
1772698737375621000,4.43162109375,0.16321100294589996,-9.643527030944824,1.7737361192703247
1772698737385621000,4.44162109375,0.1343252807855606,-9.643301963806152,1.7773799896240234
1772698737395621000,4.45162109375,0.11898059397935867,-9.641563415527344,1.7878702878952026
1772698737405621000,4.46162109375,0.11772722005844116,-9.637723922729492,1.808536171913147
1772698737415621000,4.47162109375,0.12452185899019241,-9.631916046142578,1.8387751579284668
1772698737425621000,4.48162109375,0.1275569051504135,-9.625273704528809,1.8730274438858032
1772698737435621000,4.49162109375,0.11687982082366943,-9.619576454162598,1.9027546644210815
1772698737445621000,4.50162109375,0.08860786259174347,-9.61640453338623,1.9202345609664917
1772698737455621000,4.51162109375,0.044978272169828415,-9.616227149963379,1.9226367473602295
1772698737465621000,4.52162109375,-0.008626334369182587,-9.618680953979492,1.910834550857544
1772698737475621000,4.53162109375,-0.06657002866268158,-9.62354564666748,1.8850293159484863
1772698737485621000,4.54162109375,-0.12251158058643341,-9.631147384643555,1.8429278135299683
1772698737495621000,4.55162109375,-0.16655191779136658,-9.641256332397461,1.7857307195663452
1772698737505621000,4.56162109375,-0.18927836418151855,-9.6524658203125,1.7217648029327393
1772698737515621000,4.57162109375,-0.1890070140361786,-9.662755012512207,1.663077473640442
1772698737525621000,4.58162109375,-0.17350918054580688,-9.670522689819336,1.6190308332443237
1772698737535621000,4.59162109375,-0.15605923533439636,-9.675129890441895,1.5930800437927246
1772698737545621000,4.60162109375,-0.1521194726228714,-9.676719665527344,1.5837770700454712
1772698737555621000,4.61162109375,-0.1737605631351471,-9.676351547241211,1.583795189857483
1772698737565621000,4.62162109375,-0.21661376953125,-9.675826072692871,1.5817261934280396
1772698737575621000,4.63162109375,-0.26600202918052673,-9.677242279052734,1.5654428005218506
1772698737585621000,4.64162109375,-0.3041960597038269,-9.682514190673828,1.525375485420227
1772698737595621000,4.65162109375,-0.3096774220466614,-9.693245887756348,1.454467535018921
1772698737605621000,4.66162109375,-0.2644733190536499,-9.709315299987793,1.35263991355896
1772698737615621000,4.67162109375,-0.15786223113536835,-9.727742195129395,1.2314609289169312
1772698737625621000,4.68162109375,-0.006260804366320372,-9.7443265914917,1.103840708732605
1772698737635621000,4.69162109375,0.17131562530994415,-9.75676155090332,0.9729620218276978
1772698737645621000,4.70162109375,0.36896759271621704,-9.763436317443848,0.8423616886138916
1772698737655621000,4.71162109375,0.5690420866012573,-9.763761520385742,0.7180172204971313
1772698737665621000,4.72162109375,0.7495648264884949,-9.758414268493652,0.6179779171943665
1772698737675621000,4.73162109375,0.8964225649833679,-9.749536514282227,0.5597801208496094
1772698737685621000,4.74162109375,1.011353850364685,-9.739229202270508,0.5431098341941833
1772698737695621000,4.75162109375,1.1071845293045044,-9.728086471557617,0.5557671189308167
1772698737705621000,4.76162109375,1.1948084831237793,-9.71568775177002,0.5901085734367371
1772698737715621000,4.77162109375,1.2779196500778198,-9.701910018920898,0.6405086517333984
1772698737725621000,4.78162109375,1.355200171470642,-9.686511993408203,0.7108414769172668
1772698737735621000,4.79162109375,1.421101450920105,-9.668856620788574,0.8149017691612244
1772698737745621000,4.80162109375,1.47028648853302,-9.649089813232422,0.9506461024284363
1772698737755621000,4.81162109375,1.5037775039672852,-9.62864875793457,1.0946098566055298
1772698737765621000,4.82162109375,1.5286544561386108,-9.608561515808105,1.2284742593765259
1772698737775621000,4.83162109375,1.5492002964019775,-9.589903831481934,1.3431739807128906
1772698737785621000,4.84162109375,1.5715810060501099,-9.572856903076172,1.4355897903442383
1772698737795621000,4.85162109375,1.6029913425445557,-9.556147575378418,1.5102472305297852
1772698737805621000,4.86162109375,1.649802803993225,-9.53759479522705,1.575700044631958
1772698737815621000,4.87162109375,1.7124676704406738,-9.51511001586914,1.6433299779891968
1772698737825621000,4.88162109375,1.778916597366333,-9.489392280578613,1.7196768522262573
1772698737835621000,4.89162109375,1.8354976177215576,-9.462281227111816,1.8073666095733643
1772698737845621000,4.90162109375,1.8757368326187134,-9.435949325561523,1.901280164718628
1772698737855621000,4.91162109375,1.8989040851593018,-9.41345500946045,1.9878183603286743
1772698737865621000,4.92162109375,1.9077839851379395,-9.396299362182617,2.059199571609497
1772698737875621000,4.93162109375,1.9100565910339355,-9.383880615234375,2.1130170822143555
1772698737885621000,4.94162109375,1.9145851135253906,-9.375185012817383,2.147249460220337
1772698737895621000,4.95162109375,1.923830509185791,-9.370004653930664,2.16154408454895
1772698737905621000,4.96162109375,1.936946988105774,-9.367976188659668,2.1586201190948486
1772698737915621000,4.97162109375,1.9513051509857178,-9.36868667602539,2.1425487995147705
1772698737925621000,4.98162109375,1.9639174938201904,-9.371923446655273,2.116712808609009
1772698737935621000,4.99162109375,1.9736343622207642,-9.377518653869629,2.0826172828674316
1772698737945621000,5.00162109375,1.9795820713043213,-9.385391235351562,2.0411007404327393
1772698737955621000,5.01162109375,1.9809508323669434,-9.395295143127441,1.9936482906341553
1772698737965621000,5.02162109375,1.9762240648269653,-9.406797409057617,1.9434702396392822
1772698737975621000,5.03162109375,1.9630693197250366,-9.419465065002441,1.894842267036438
1772698737985621000,5.04162109375,1.9395829439163208,-9.432694435119629,1.8527499437332153
1772698737995621000,5.05162109375,1.9057285785675049,-9.44575023651123,1.8210901021957397
1772698738005621000,5.06162109375,1.8635560274124146,-9.458294868469238,1.7994998693466187
1772698738015621000,5.07162109375,1.8225818872451782,-9.4688720703125,1.7857918739318848
1772698738025621000,5.08162109375,1.793649673461914,-9.475247383117676,1.7812608480453491
1772698738035621000,5.09162109375,1.7825000286102295,-9.47590446472168,1.788947343826294
1772698738045621000,5.10162109375,1.7897967100143433,-9.47105884552002,1.8072199821472168
1772698738055621000,5.11162109375,1.8107538223266602,-9.463459014892578,1.8260626792907715
1772698738065621000,5.12162109375,1.838853359222412,-9.455671310424805,1.8382834196090698
1772698738075621000,5.13162109375,1.8710569143295288,-9.448738098144531,1.841435194015503
1772698738085621000,5.14162109375,1.9038465023040771,-9.443187713623047,1.8362925052642822
1772698738095621000,5.15162109375,1.9280325174331665,-9.4403715133667,1.8255093097686768
1772698738105621000,5.16162109375,1.9364160299301147,-9.441277503967285,1.811896562576294
1772698738115621000,5.17162109375,1.918848991394043,-9.448325157165527,1.7937533855438232
1772698738125621000,5.18162109375,1.8654698133468628,-9.462573051452637,1.774857521057129
1772698738135621000,5.19162109375,1.7841558456420898,-9.479690551757812,1.7670972347259521
1772698738145621000,5.20162109375,1.7050848007202148,-9.492120742797852,1.778403401374817
1772698738155621000,5.21162109375,1.6404634714126587,-9.499217987060547,1.801143765449524
1772698738165621000,5.22162109375,1.5622462034225464,-9.505373001098633,1.8378428220748901
1772698738175621000,5.23162109375,1.458823561668396,-9.510612487792969,1.8948544263839722
1772698738185621000,5.24162109375,1.3496508598327637,-9.51015567779541,1.9763014316558838
1772698738195621000,5.25162109375,1.2452561855316162,-9.501799583435059,2.082193613052368
1772698738205621000,5.26162109375,1.1496100425720215,-9.48606014251709,2.2053210735321045
1772698738215621000,5.27162109375,1.0623546838760376,-9.465819358825684,2.3323917388916016
1772698738225621000,5.28162109375,0.9673948884010315,-9.445707321166992,2.452169895172119
1772698738235621000,5.29162109375,0.857472836971283,-9.429122924804688,2.554755687713623
1772698738245621000,5.30162109375,0.7376939654350281,-9.41996955871582,2.6249513626098633
1772698738255621000,5.31162109375,0.6148561239242554,-9.422014236450195,2.649148941040039
1772698738265621000,5.32162109375,0.5030325055122375,-9.43519401550293,2.625729560852051
1772698738275621000,5.33162109375,0.4198768138885498,-9.455267906188965,2.5674872398376465
1772698738285621000,5.34162109375,0.3732350766658783,-9.478922843933105,2.486182928085327
1772698738295621000,5.35162109375,0.35518792271614075,-9.504938125610352,2.3875489234924316
1772698738305621000,5.36162109375,0.343742311000824,-9.530962944030762,2.2831902503967285
1772698738315621000,5.37162109375,0.320002019405365,-9.552896499633789,2.193206787109375
1772698738325621000,5.38162109375,0.2847273349761963,-9.568781852722168,2.127849578857422
1772698738335621000,5.39162109375,0.24831363558769226,-9.581808090209961,2.073087453842163
1772698738345621000,5.40162109375,0.2129978984594345,-9.594022750854492,2.0198397636413574
1772698738355621000,5.41162109375,0.17401352524757385,-9.60443115234375,1.9735826253890991
1772698738365621000,5.42162109375,0.13058097660541534,-9.612607955932617,1.9367767572402954
1772698738375621000,5.43162109375,0.08666935563087463,-9.619503021240234,1.9047428369522095
1772698738385621000,5.44162109375,0.04757149517536163,-9.626325607299805,1.8713594675064087
1772698738395621000,5.45162109375,0.014966685324907303,-9.633254051208496,1.835911750793457
1772698738405621000,5.46162109375,-0.0112267741933465,-9.639749526977539,1.801524043083191
1772698738415621000,5.47162109375,-0.03193135932087898,-9.645748138427734,1.7688679695129395
1772698738425621000,5.48162109375,-0.04597902670502663,-9.650975227355957,1.739816427230835
1772698738435621000,5.49162109375,-0.05447501316666603,-9.655292510986328,1.7154442071914673
1772698738445621000,5.50162109375,-0.06213051453232765,-9.65865421295166,1.6961499452590942
1772698738455621000,5.51162109375,-0.07461436092853546,-9.661416053771973,1.6798423528671265
1772698738465621000,5.52162109375,-0.09692711383104324,-9.663609504699707,1.666028618812561
1772698738475621000,5.53162109375,-0.12940135598182678,-9.665009498596191,1.6556689739227295
1772698738485621000,5.54162109375,-0.1687290370464325,-9.665518760681152,1.6491436958312988
1772698738495621000,5.55162109375,-0.21142901480197906,-9.665522575378418,1.6441960334777832
1772698738505621000,5.56162109375,-0.25479307770729065,-9.665399551391602,1.6387557983398438
1772698738515621000,5.57162109375,-0.29609405994415283,-9.665205955505371,1.6329408884048462
1772698738525621000,5.58162109375,-0.33102041482925415,-9.665178298950195,1.6263904571533203
1772698738535621000,5.59162109375,-0.3561246991157532,-9.665545463562012,1.6188905239105225
1772698738545621000,5.60162109375,-0.36850860714912415,-9.666543006896973,1.610134482383728
1772698738555621000,5.61162109375,-0.36757326126098633,-9.667455673217773,1.604864478111267
1772698738565621000,5.62162109375,-0.35528039932250977,-9.666851043701172,1.611258625984192
1772698738575621000,5.63162109375,-0.33544063568115234,-9.663066864013672,1.6379886865615845
1772698738585621000,5.64162109375,-0.3129420280456543,-9.655016899108887,1.6891165971755981
1772698738595621000,5.65162109375,-0.2918264865875244,-9.642677307128906,1.761818289756775
1772698738605621000,5.66162109375,-0.27242520451545715,-9.62752914428711,1.8457666635513306
1772698738615621000,5.67162109375,-0.2532464265823364,-9.612421989440918,1.9255096912384033
1772698738625621000,5.68162109375,-0.23734335601329803,-9.600099563598633,1.9879956245422363
1772698738635621000,5.69162109375,-0.23185934126377106,-9.592245101928711,2.0261929035186768
1772698738645621000,5.70162109375,-0.2416624277830124,-9.589351654052734,2.038703441619873
1772698738655621000,5.71162109375,-0.25997015833854675,-9.59122371673584,2.0276145935058594
1772698738665621000,5.72162109375,-0.2704175114631653,-9.597384452819824,1.9968613386154175
1772698738675621000,5.73162109375,-0.2608370780944824,-9.606751441955566,1.9526100158691406
1772698738685621000,5.74162109375,-0.23909525573253632,-9.616872787475586,1.9049872159957886
1772698738695621000,5.75162109375,-0.22514575719833374,-9.625563621520996,1.8623154163360596
1772698738705621000,5.76162109375,-0.23488669097423553,-9.631758689880371,1.8287771940231323
1772698738715621000,5.77162109375,-0.26932087540626526,-9.636136054992676,1.8007581233978271
1772698738725621000,5.78162109375,-0.3132428526878357,-9.640876770019531,1.7679805755615234
1772698738735621000,5.79162109375,-0.34664514660835266,-9.64854621887207,1.719239592552185
1772698738745621000,5.80162109375,-0.36042195558547974,-9.660621643066406,1.647078275680542
1772698738755621000,5.81162109375,-0.3549688160419464,-9.677082061767578,1.5486974716186523
1772698738765621000,5.82162109375,-0.33115750551223755,-9.696931838989258,1.424858570098877
1772698738775621000,5.83162109375,-0.28973186016082764,-9.718106269836426,1.2825180292129517
1772698738785621000,5.84162109375,-0.23019865155220032,-9.738438606262207,1.1314667463302612
1772698738795621000,5.85162109375,-0.14890630543231964,-9.756616592407227,0.9780782461166382
1772698738805621000,5.86162109375,-0.040185391902923584,-9.771800994873047,0.8250300884246826
1772698738815621000,5.87162109375,0.1075984463095665,-9.782917022705078,0.6733116507530212
1772698738825621000,5.88162109375,0.2878122627735138,-9.787957191467285,0.5323950052261353
1772698738835621000,5.89162109375,0.47940683364868164,-9.785978317260742,0.4185656011104584
1772698738845621000,5.90162109375,0.6665508151054382,-9.77785873413086,0.34580332040786743
1772698738855621000,5.91162109375,0.8363655805587769,-9.765941619873047,0.3118869364261627
1772698738865621000,5.92162109375,0.9802058339118958,-9.752800941467285,0.3040795624256134
1772698738875621000,5.93162109375,1.099891185760498,-9.739896774291992,0.3082585036754608
1772698738885621000,5.94162109375,1.2014350891113281,-9.727346420288086,0.32504987716674805
1772698738895621000,5.95162109375,1.2895596027374268,-9.714666366577148,0.36424797773361206
1772698738905621000,5.96162109375,1.367913007736206,-9.700929641723633,0.43720048666000366
1772698738915621000,5.97162109375,1.4367642402648926,-9.685489654541016,0.5453345775604248
1772698738925621000,5.98162109375,1.4958398342132568,-9.668479919433594,0.6733179688453674
1772698738935621000,5.99162109375,1.5470634698867798,-9.650425910949707,0.8039008975028992
1772698738945621000,6.00162109375,1.5903633832931519,-9.632553100585938,0.9246936440467834
1772698738955621000,6.01162109375,1.629531741142273,-9.615219116210938,1.0308045148849487
1772698738965621000,6.02162109375,1.669331431388855,-9.598002433776855,1.1234204769134521
1772698738975621000,6.03162109375,1.7142760753631592,-9.579941749572754,1.2067967653274536
1772698738985621000,6.04162109375,1.7645909786224365,-9.560369491577148,1.2868348360061646
1772698738995621000,6.05162109375,1.819268822669983,-9.538022994995117,1.3735988140106201
1772698739005621000,6.06162109375,1.8726682662963867,-9.512991905212402,1.4719027280807495
1772698739015621000,6.07162109375,1.9169648885726929,-9.487229347229004,1.5773706436157227
1772698739025621000,6.08162109375,1.9454078674316406,-9.463741302490234,1.6802932024002075
1772698739035621000,6.09162109375,1.9580751657485962,-9.444809913635254,1.7697129249572754
1772698739045621000,6.10162109375,1.962015151977539,-9.430654525756836,1.8394699096679688
1772698739055621000,6.11162109375,1.9655166864395142,-9.42048454284668,1.8872191905975342
1772698739065621000,6.12162109375,1.972766637802124,-9.413566589355469,1.9139875173568726
1772698739075621000,6.13162109375,1.9835398197174072,-9.409505844116211,1.9227995872497559
1772698739085621000,6.14162109375,1.9956340789794922,-9.408138275146484,1.9169670343399048
1772698739095621000,6.15162109375,2.004786968231201,-9.409829139709473,1.8990341424942017
1772698739105621000,6.16162109375,2.0078182220458984,-9.414825439453125,1.8708575963974
1772698739115621000,6.17162109375,2.002974510192871,-9.422966957092285,1.8347148895263672
1772698739125621000,6.18162109375,1.989969253540039,-9.433500289916992,1.79429030418396
1772698739135621000,6.19162109375,1.9682295322418213,-9.445719718933105,1.753525733947754
1772698739145621000,6.20162109375,1.9357563257217407,-9.459505081176758,1.7149344682693481
1772698739155621000,6.21162109375,1.8920965194702148,-9.47461223602295,1.6799063682556152
1772698739165621000,6.22162109375,1.8405112028121948,-9.490160942077637,1.649168848991394
1772698739175621000,6.23162109375,1.7867156267166138,-9.50478744506836,1.6238998174667358
1772698739185621000,6.24162109375,1.7370887994766235,-9.516672134399414,1.60806143283844
1772698739195621000,6.25162109375,1.6974626779556274,-9.52476692199707,1.6024422645568848
1772698739205621000,6.26162109375,1.6728990077972412,-9.528584480285645,1.6055798530578613
1772698739215621000,6.27162109375,1.6685340404510498,-9.52736759185791,1.6172986030578613
1772698739225621000,6.28162109375,1.6895101070404053,-9.520236015319824,1.6373887062072754
1772698739235621000,6.29162109375,1.7325412034988403,-9.507807731628418,1.6644153594970703
1772698739245621000,6.30162109375,1.7836605310440063,-9.493011474609375,1.6946029663085938
1772698739255621000,6.31162109375,1.8251248598098755,-9.479251861572266,1.727163314819336
1772698739265621000,6.32162109375,1.8457285165786743,-9.469490051269531,1.7585303783416748
1772698739275621000,6.33162109375,1.8378766775131226,-9.466525077819824,1.782555341720581
1772698739285621000,6.34162109375,1.7962090969085693,-9.471911430358887,1.7963603734970093
1772698739295621000,6.35162109375,1.7278368473052979,-9.482161521911621,1.809300422668457
1772698739305621000,6.36162109375,1.6544066667556763,-9.491196632385254,1.830442190170288
1772698739315621000,6.37162109375,1.595247745513916,-9.496966361999512,1.8528889417648315
1772698739325621000,6.38162109375,1.5405261516571045,-9.50163459777832,1.8751277923583984
1772698739335621000,6.39162109375,1.4688154458999634,-9.50720500946045,1.9042072296142578
1772698739345621000,6.40162109375,1.3799388408660889,-9.511100769042969,1.9506720304489136
1772698739355621000,6.41162109375,1.2959295511245728,-9.506855964660645,2.0274746417999268
1772698739365621000,6.42162109375,1.2097135782241821,-9.49374771118164,2.139098644256592
1772698739375621000,6.43162109375,1.1211049556732178,-9.474857330322266,2.267287015914917
1772698739385621000,6.44162109375,1.0350801944732666,-9.453635215759277,2.393277168273926
1772698739395621000,6.45162109375,0.9389359951019287,-9.431565284729004,2.516815423965454
1772698739405621000,6.46162109375,0.8240044713020325,-9.41136360168457,2.6301398277282715
1772698739415621000,6.47162109375,0.6975491046905518,-9.39746379852295,2.7150487899780273
1772698739425621000,6.48162109375,0.5757012367248535,-9.394871711730957,2.752335548400879
1772698739435621000,6.49162109375,0.4785008728504181,-9.404182434082031,2.7391209602355957
1772698739445621000,6.50162109375,0.4207187294960022,-9.420806884765625,2.691056966781616
1772698739455621000,6.51162109375,0.3969813287258148,-9.440999031066895,2.6230363845825195
1772698739465621000,6.52162109375,0.38918158411979675,-9.464176177978516,2.539350986480713
1772698739475621000,6.53162109375,0.3782861828804016,-9.488531112670898,2.4484806060791016
1772698739485621000,6.54162109375,0.3550991714000702,-9.510125160217285,2.3668177127838135
1772698739495621000,6.55162109375,0.32457348704338074,-9.525858879089355,2.3071722984313965
1772698739505621000,6.56162109375,0.2927711308002472,-9.5368070602417,2.2658286094665527
1772698739515621000,6.57162109375,0.25918900966644287,-9.545564651489258,2.232801914215088
1772698739525621000,6.58162109375,0.21972863376140594,-9.551706314086914,2.210660219192505
1772698739535621000,6.59162109375,0.17390874028205872,-9.555313110351562,2.199122428894043
1772698739545621000,6.60162109375,0.12705275416374207,-9.557997703552246,2.1906466484069824
1772698739555621000,6.61162109375,0.08665815740823746,-9.561326026916504,2.178056001663208
1772698739565621000,6.62162109375,0.056670304387807846,-9.56605339050293,2.1581902503967285
1772698739575621000,6.63162109375,0.03768695145845413,-9.57210922241211,2.131598472595215
1772698739585621000,6.64162109375,0.026643039658665657,-9.579490661621094,2.0983381271362305
1772698739595621000,6.65162109375,0.020139701664447784,-9.587967872619629,2.0593349933624268
1772698739605621000,6.66162109375,0.015533162280917168,-9.596879005432129,2.0174386501312256
1772698739615621000,6.67162109375,0.009083130396902561,-9.605588912963867,1.9755955934524536
1772698739625621000,6.68162109375,-0.003138897242024541,-9.613582611083984,1.93634033203125
1772698739635621000,6.69162109375,-0.022836610674858093,-9.620266914367676,1.9027154445648193
1772698739645621000,6.70162109375,-0.04892360419034958,-9.625237464904785,1.8769116401672363
1772698739655621000,6.71162109375,-0.07885755598545074,-9.628448486328125,1.8593424558639526
1772698739665621000,6.72162109375,-0.11079982668161392,-9.630290985107422,1.8481369018554688
1772698739675621000,6.73162109375,-0.14365994930267334,-9.63129997253418,1.840596079826355
1772698739685621000,6.74162109375,-0.17523309588432312,-9.632148742675781,1.8334078788757324
1772698739695621000,6.75162109375,-0.20273196697235107,-9.633315086364746,1.8244264125823975
1772698739705621000,6.76162109375,-0.22016100585460663,-9.634888648986816,1.814070224761963
1772698739715621000,6.77162109375,-0.21843573451042175,-9.636530876159668,1.805534839630127
1772698739725621000,6.78162109375,-0.19013507664203644,-9.637465476989746,1.8037464618682861
1772698739735621000,6.79162109375,-0.13521212339401245,-9.636792182922363,1.8122764825820923
1772698739745621000,6.80162109375,-0.06350504606962204,-9.633872032165527,1.8316267728805542
1772698739755621000,6.81162109375,0.005576126277446747,-9.628789901733398,1.859234094619751
1772698739765621000,6.82162109375,0.05399245768785477,-9.622206687927246,1.8922522068023682
1772698739775621000,6.83162109375,0.07654500752687454,-9.614664077758789,1.9294484853744507
1772698739785621000,6.84162109375,0.0819668248295784,-9.606033325195312,1.9717504978179932
1772698739795621000,6.85162109375,0.08098356425762177,-9.596199989318848,2.0191054344177246
1772698739805621000,6.86162109375,0.07735190540552139,-9.585899353027344,2.0675933361053467
1772698739815621000,6.87162109375,0.07239483296871185,-9.577353477478027,2.1069982051849365
1772698739825621000,6.88162109375,0.07163826376199722,-9.573016166687012,2.1266422271728516
1772698739835621000,6.89162109375,0.08042704313993454,-9.574749946594238,2.1185131072998047
1772698739845621000,6.90162109375,0.09296708554029465,-9.582589149475098,2.082240104675293
1772698739855621000,6.91162109375,0.0917416587471962,-9.59441089630127,2.027130126953125
1772698739865621000,6.92162109375,0.06639223545789719,-9.607410430908203,1.9656139612197876
1772698739875621000,6.93162109375,0.02355317212641239,-9.619290351867676,1.907637596130371
1772698739885621000,6.94162109375,-0.01968957856297493,-9.629683494567871,1.854506254196167
1772698739895621000,6.95162109375,-0.050909705460071564,-9.639108657836914,1.8042633533477783
1772698739905621000,6.96162109375,-0.06628774851560593,-9.648453712463379,1.7530992031097412
1772698739915621000,6.97162109375,-0.06876396387815475,-9.6587553024292,1.6953134536743164
1772698739925621000,6.98162109375,-0.06202436611056328,-9.670808792114258,1.6254260540008545
1772698739935621000,6.99162109375,-0.04262879863381386,-9.685386657714844,1.5368313789367676
1772698739945621000,7.00162109375,0.002860708860680461,-9.703103065490723,1.4213249683380127
1772698739955621000,7.01162109375,0.08548074215650558,-9.723184585571289,1.2738792896270752
1772698739965621000,7.02162109375,0.21278461813926697,-9.742758750915527,1.0971667766571045
1772698739975621000,7.03162109375,0.38601839542388916,-9.756999015808105,0.9068431258201599
1772698739985621000,7.04162109375,0.5891242623329163,-9.761630058288574,0.73068767786026
1772698739995621000,7.05162109375,0.800302267074585,-9.755871772766113,0.5940375924110413
1772698740005621000,7.06162109375,0.9974645376205444,-9.742694854736328,0.5053248405456543
1772698740015621000,7.07162109375,1.1656126976013184,-9.72632884979248,0.45854470133781433
1772698740025621000,7.08162109375,1.302344560623169,-9.709671020507812,0.44337040185928345
1772698740035621000,7.09162109375,1.4149030447006226,-9.693501472473145,0.45217958092689514
1772698740045621000,7.10162109375,1.5096499919891357,-9.677631378173828,0.4845627248287201
1772698740055621000,7.11162109375,1.5922532081604004,-9.661205291748047,0.5442700982093811
1772698740065621000,7.12162109375,1.6648019552230835,-9.643380165100098,0.6356470584869385
1772698740075621000,7.13162109375,1.7247217893600464,-9.624089241027832,0.7567225694656372
1772698740085621000,7.14162109375,1.771497130393982,-9.603760719299316,0.8943990468978882
1772698740095621000,7.15162109375,1.8097244501113892,-9.582860946655273,1.031532645225525
1772698740105621000,7.16162109375,1.8407255411148071,-9.563946723937988,1.1458793878555298
1772698740115621000,7.17162109375,1.870215892791748,-9.547426223754883,1.2326068878173828
1772698740125621000,7.18162109375,1.9009766578674316,-9.532344818115234,1.3004151582717896
1772698740135621000,7.19162109375,1.9324917793273926,-9.517558097839355,1.3608675003051758
1772698740145621000,7.20162109375,1.9665666818618774,-9.50120735168457,1.4248113632202148
1772698740155621000,7.21162109375,1.9984080791473389,-9.483108520507812,1.4991360902786255
1772698740165621000,7.22162109375,2.0211925506591797,-9.464395523071289,1.5844186544418335
1772698740175621000,7.23162109375,2.029566764831543,-9.447138786315918,1.674161672592163
1772698740185621000,7.24162109375,2.02234148979187,-9.433637619018555,1.7569851875305176
1772698740195621000,7.25162109375,2.0058226585388184,-9.42507553100586,1.8207154273986816
1772698740205621000,7.26162109375,1.9921001195907593,-9.420184135437012,1.8606600761413574
1772698740215621000,7.27162109375,1.9918450117111206,-9.4161958694458,1.8810137510299683
1772698740225621000,7.28162109375,2.0053536891937256,-9.4115571975708,1.8898544311523438
1772698740235621000,7.29162109375,2.024799346923828,-9.406991004943848,1.8918532133102417
1772698740245621000,7.30162109375,2.039598226547241,-9.404300689697266,1.8893284797668457
1772698740255621000,7.31162109375,2.040512800216675,-9.405065536499023,1.884528636932373
1772698740265621000,7.32162109375,2.0219082832336426,-9.4104585647583,1.877640962600708
1772698740275621000,7.33162109375,1.9842017889022827,-9.420323371887207,1.8683834075927734
1772698740285621000,7.34162109375,1.932266116142273,-9.433466911315918,1.8564573526382446
1772698740295621000,7.35162109375,1.871872067451477,-9.4488525390625,1.8400155305862427
1772698740305621000,7.36162109375,1.8069536685943604,-9.465937614440918,1.8169604539871216
1772698740315621000,7.37162109375,1.7374061346054077,-9.484781265258789,1.7862601280212402
1772698740325621000,7.38162109375,1.661108374595642,-9.505159378051758,1.7501592636108398
1772698740335621000,7.39162109375,1.5795199871063232,-9.5253324508667,1.7156832218170166
1772698740345621000,7.40162109375,1.503677248954773,-9.541861534118652,1.6918091773986816
1772698740355621000,7.41162109375,1.4521584510803223,-9.551328659057617,1.6833748817443848
1772698740365621000,7.42162109375,1.4339357614517212,-9.553444862365723,1.6869771480560303
1772698740375621000,7.43162109375,1.4428446292877197,-9.55024242401123,1.6974842548370361
1772698740385621000,7.44162109375,1.4685664176940918,-9.543842315673828,1.7113624811172485
1772698740395621000,7.45162109375,1.5031273365020752,-9.536563873291016,1.7219057083129883
1772698740405621000,7.46162109375,1.5387595891952515,-9.530721664428711,1.722774624824524
1772698740415621000,7.47162109375,1.567475438117981,-9.527816772460938,1.7129312753677368
1772698740425621000,7.48162109375,1.5906867980957031,-9.526907920837402,1.6965042352676392
1772698740435621000,7.49162109375,1.6167938709259033,-9.525518417358398,1.6795462369918823
1772698740445621000,7.50162109375,1.6420743465423584,-9.523221015930176,1.6680052280426025
1772698740455621000,7.51162109375,1.6439276933670044,-9.523737907409668,1.6632229089736938
1772698740465621000,7.52162109375,1.6074250936508179,-9.529387474060059,1.6665345430374146
1772698740475621000,7.53162109375,1.5513485670089722,-9.53630542755127,1.6800575256347656
1772698740485621000,7.54162109375,1.5019147396087646,-9.540831565856934,1.6991677284240723
1772698740495621000,7.55162109375,1.4516483545303345,-9.54409122467041,1.7243642807006836
1772698740505621000,7.56162109375,1.3843541145324707,-9.545358657836914,1.7720240354537964
1772698740515621000,7.57162109375,1.3088442087173462,-9.539589881896973,1.8583660125732422
1772698740525621000,7.58162109375,1.2174789905548096,-9.525931358337402,1.9861400127410889
1772698740535621000,7.59162109375,1.1241425275802612,-9.504905700683594,2.1362264156341553
1772698740545621000,7.60162109375,1.0500741004943848,-9.47995662689209,2.2799432277679443
1772698740555621000,7.61162109375,0.9756114482879639,-9.454952239990234,2.412975788116455
1772698740565621000,7.62162109375,0.8750342726707458,-9.435132026672363,2.526454210281372
1772698740575621000,7.63162109375,0.7516005039215088,-9.424356460571289,2.60518479347229
1772698740585621000,7.64162109375,0.6246562600135803,-9.425127029418945,2.6357486248016357
1772698740595621000,7.65162109375,0.5208258628845215,-9.438459396362305,2.610482692718506
1772698740605621000,7.66162109375,0.4667850434780121,-9.459593772888184,2.5433425903320312
1772698740615621000,7.67162109375,0.46387460827827454,-9.482799530029297,2.4559531211853027
1772698740625621000,7.68162109375,0.4887513220310211,-9.507210731506348,2.3546676635742188
1772698740635621000,7.69162109375,0.5066726803779602,-9.532625198364258,2.2456047534942627
1772698740645621000,7.70162109375,0.5015925168991089,-9.555440902709961,2.147634983062744
1772698740655621000,7.71162109375,0.48456570506095886,-9.570035934448242,2.085664987564087
1772698740665621000,7.72162109375,0.46821489930152893,-9.575956344604492,2.062091112136841
1772698740675621000,7.73162109375,0.4511733949184418,-9.577359199523926,2.059375286102295
1772698740685621000,7.74162109375,0.4305437505245209,-9.575716972351074,2.071390390396118
1772698740695621000,7.75162109375,0.40882939100265503,-9.572429656982422,2.0908918380737305
1772698740705621000,7.76162109375,0.39121752977371216,-9.569767951965332,2.1063895225524902
1772698740715621000,7.77162109375,0.3781672418117523,-9.569741249084473,2.108891725540161
1772698740725621000,7.78162109375,0.3684239089488983,-9.57310676574707,2.0952978134155273
1772698740735621000,7.79162109375,0.3645820915699005,-9.579154968261719,2.068150758743286
1772698740745621000,7.80162109375,0.3701784014701843,-9.586607933044434,2.0323173999786377
1772698740755621000,7.81162109375,0.38443073630332947,-9.594194412231445,1.993497371673584
1772698740765621000,7.82162109375,0.4009990990161896,-9.601284980773926,1.9557429552078247
1772698740775621000,7.83162109375,0.41472119092941284,-9.607436180114746,1.9223895072937012
1772698740785621000,7.84162109375,0.42315003275871277,-9.612385749816895,1.8956186771392822
1772698740795621000,7.85162109375,0.42498868703842163,-9.615997314453125,1.8767976760864258
1772698740805621000,7.86162109375,0.42061787843704224,-9.617937088012695,1.8678209781646729
1772698740815621000,7.87162109375,0.410507470369339,-9.618191719055176,1.868759036064148
1772698740825621000,7.88162109375,0.39656752347946167,-9.61697006225586,1.8780337572097778
1772698740835621000,7.89162109375,0.37964391708374023,-9.614495277404785,1.8941295146942139
1772698740845621000,7.90162109375,0.35827261209487915,-9.611221313476562,1.914799451828003
1772698740855621000,7.91162109375,0.33320602774620056,-9.607462882995605,1.9380418062210083
1772698740865621000,7.92162109375,0.30566689372062683,-9.603185653686523,1.9636156558990479
1772698740875621000,7.93162109375,0.2780117392539978,-9.598455429077148,1.990664005279541
1772698740885621000,7.94162109375,0.25420239567756653,-9.592991828918457,2.0199718475341797
1772698740895621000,7.95162109375,0.23707789182662964,-9.586074829101562,2.054591417312622
1772698740905621000,7.96162109375,0.22697608172893524,-9.576695442199707,2.098999500274658
1772698740915621000,7.97162109375,0.22182095050811768,-9.563554763793945,2.15861177444458
1772698740925621000,7.98162109375,0.2176196128129959,-9.545888900756836,2.235853672027588
1772698740935621000,7.99162109375,0.20984788239002228,-9.524199485778809,2.3272242546081543
1772698740945621000,8.00162109375,0.19501392543315887,-9.500432014465332,2.423659563064575
1772698740955621000,8.01162109375,0.17208126187324524,-9.477094650268555,2.5150458812713623
1772698740965621000,8.02162109375,0.14468181133270264,-9.455952644348145,2.59507417678833
1772698740975621000,8.03162109375,0.11855070292949677,-9.43811321258545,2.6605145931243896
1772698740985621000,8.04162109375,0.1026545837521553,-9.424994468688965,2.7072737216949463
1772698740995621000,8.05162109375,0.10890141129493713,-9.418269157409668,2.7303359508514404
1772698741005621000,8.06162109375,0.14877694845199585,-9.418766975402832,2.7267379760742188
1772698741015621000,8.07162109375,0.22788269817829132,-9.425593376159668,2.6975255012512207
1772698741025621000,8.08162109375,0.33771073818206787,-9.436240196228027,2.648338556289673
1772698741035621000,8.09162109375,0.4547902047634125,-9.44775104522705,2.589123487472534
1772698741045621000,8.10162109375,0.5458431243896484,-9.457521438598633,2.5352962017059326
1772698741055621000,8.11162109375,0.5807377099990845,-9.465141296386719,2.498845338821411
1772698741065621000,8.12162109375,0.5528676509857178,-9.472640991210938,2.4766509532928467
1772698741075621000,8.13162109375,0.47825488448143005,-9.480603218078613,2.461667776107788
1772698741085621000,8.14162109375,0.376242071390152,-9.488849639892578,2.4475626945495605
1772698741095621000,8.15162109375,0.26795336604118347,-9.500731468200684,2.415511131286621
1772698741105621000,8.16162109375,0.17761410772800446,-9.520885467529297,2.3434126377105713
1772698741115621000,8.17162109375,0.1311160922050476,-9.54988956451416,2.225489616394043
1772698741125621000,8.18162109375,0.14761509001255035,-9.582938194274902,2.077470302581787
1772698741135621000,8.19162109375,0.21371276676654816,-9.613615036010742,1.9243508577346802
1772698741145621000,8.20162109375,0.30961868166923523,-9.637744903564453,1.7856119871139526
1772698741155621000,8.21162109375,0.42976149916648865,-9.653984069824219,1.6692171096801758
1772698741165621000,8.22162109375,0.5704233646392822,-9.661983489990234,1.5783127546310425
1772698741175621000,8.23162109375,0.7285847067832947,-9.66287899017334,1.506097435951233
1772698741185621000,8.24162109375,0.886420726776123,-9.659896850585938,1.4391109943389893
1772698741195621000,8.25162109375,1.0188498497009277,-9.656742095947266,1.3710036277770996
1772698741205621000,8.26162109375,1.1155591011047363,-9.654590606689453,1.3095062971115112
1772698741215621000,8.27162109375,1.1721341609954834,-9.654544830322266,1.2594590187072754
1772698741225621000,8.28162109375,1.1936769485473633,-9.656911849975586,1.2204811573028564
1772698741235621000,8.29162109375,1.2017428874969482,-9.659136772155762,1.194685935974121
1772698741245621000,8.30162109375,1.2215505838394165,-9.657587051391602,1.1871113777160645
1772698741255621000,8.31162109375,1.263801097869873,-9.65009593963623,1.2036837339401245
1772698741265621000,8.32162109375,1.3200533390045166,-9.637218475341797,1.2457337379455566
1772698741275621000,8.33162109375,1.373230218887329,-9.620682716369629,1.3141862154006958
1772698741285621000,8.34162109375,1.4129058122634888,-9.602441787719727,1.402561068534851
1772698741295621000,8.35162109375,1.4395530223846436,-9.58399772644043,1.498356580734253
1772698741305621000,8.36162109375,1.4559699296951294,-9.567031860351562,1.5882184505462646
1772698741315621000,8.37162109375,1.4766088724136353,-9.551219940185547,1.6625959873199463
1772698741325621000,8.38162109375,1.5044233798980713,-9.537040710449219,1.718125343322754
1772698741335621000,8.39162109375,1.5339446067810059,-9.524547576904297,1.7607938051223755
1772698741345621000,8.40162109375,1.565099835395813,-9.5125732421875,1.7977217435836792
1772698741355621000,8.41162109375,1.5931848287582397,-9.501070976257324,1.8335198163986206
1772698741365621000,8.42162109375,1.6136590242385864,-9.490324974060059,1.8708882331848145
1772698741375621000,8.43162109375,1.6261438131332397,-9.480143547058105,1.9112629890441895
1772698741385621000,8.44162109375,1.6328463554382324,-9.470475196838379,1.953027367591858
1772698741395621000,8.45162109375,1.6358602046966553,-9.461578369140625,1.9932092428207397
1772698741405621000,8.46162109375,1.6365209817886353,-9.45404052734375,2.0281245708465576
1772698741415621000,8.47162109375,1.6367944478988647,-9.447726249694824,2.0571250915527344
1772698741425621000,8.48162109375,1.6371760368347168,-9.442582130432129,2.0803110599517822
1772698741435621000,8.49162109375,1.637495994567871,-9.438939094543457,2.0965287685394287
1772698741445621000,8.50162109375,1.6366053819656372,-9.437724113464355,2.1026816368103027
1772698741455621000,8.51162109375,1.6319135427474976,-9.439682960510254,2.0975282192230225
1772698741465621000,8.52162109375,1.6219723224639893,-9.444633483886719,2.0829038619995117
1772698741475621000,8.53162109375,1.6072403192520142,-9.451969146728516,2.0609354972839355
1772698741485621000,8.54162109375,1.5878833532333374,-9.46142292022705,2.0323615074157715
1772698741495621000,8.55162109375,1.5652127265930176,-9.472726821899414,1.9969853162765503
1772698741505621000,8.56162109375,1.5406230688095093,-9.485589027404785,1.9546020030975342
1772698741515621000,8.57162109375,1.5151375532150269,-9.499804496765137,1.904856562614441
1772698741525621000,8.58162109375,1.4887741804122925,-9.515052795410156,1.8487058877944946
1772698741535621000,8.59162109375,1.4605973958969116,-9.530903816223145,1.7885490655899048
1772698741545621000,8.60162109375,1.429591417312622,-9.54674243927002,1.7281079292297363
1772698741555621000,8.61162109375,1.3962626457214355,-9.561589241027832,1.6723766326904297
1772698741565621000,8.62162109375,1.3662316799163818,-9.574018478393555,1.6254165172576904
1772698741575621000,8.63162109375,1.3471885919570923,-9.582588195800781,1.5904335975646973
1772698741585621000,8.64162109375,1.3441801071166992,-9.586177825927734,1.5712233781814575
1772698741595621000,8.65162109375,1.3581469058990479,-9.584695816040039,1.5682532787322998
1772698741605621000,8.66162109375,1.3885550498962402,-9.578743934631348,1.5779664516448975
1772698741615621000,8.67162109375,1.4309191703796387,-9.569523811340332,1.5959489345550537
1772698741625621000,8.68162109375,1.4758796691894531,-9.558847427368164,1.618828535079956
1772698741635621000,8.69162109375,1.5145479440689087,-9.548030853271484,1.6467043161392212
1772698741645621000,8.70162109375,1.5441546440124512,-9.537245750427246,1.6813448667526245
1772698741655621000,8.71162109375,1.559798002243042,-9.528014183044434,1.7188234329223633
1772698741665621000,8.72162109375,1.5579255819320679,-9.522136688232422,1.7527621984481812
1772698741675621000,8.73162109375,1.5348222255706787,-9.520685195922852,1.7808071374893188
1772698741685621000,8.74162109375,1.492568850517273,-9.522133827209473,1.8087530136108398
1772698741695621000,8.75162109375,1.446666955947876,-9.52392864227295,1.836387276649475
1772698741705621000,8.76162109375,1.4022316932678223,-9.52595329284668,1.860206127166748
1772698741715621000,8.77162109375,1.342833399772644,-9.53018856048584,1.8822057247161865
1772698741725621000,8.78162109375,1.2657792568206787,-9.534408569335938,1.9139562845230103
1772698741735621000,8.79162109375,1.1880794763565063,-9.53270149230957,1.9714146852493286
1772698741745621000,8.80162109375,1.115423321723938,-9.524023056030273,2.054067611694336
1772698741755621000,8.81162109375,1.057072401046753,-9.510161399841309,2.1470446586608887
1772698741765621000,8.82162109375,1.0110174417495728,-9.491995811462402,2.2472751140594482
1772698741775621000,8.83162109375,0.95334792137146,-9.474438667297363,2.3444664478302
1772698741785621000,8.84162109375,0.869758129119873,-9.462263107299805,2.4247632026672363
1772698741795621000,8.85162109375,0.7628172636032104,-9.45858097076416,2.474619150161743
1772698741805621000,8.86162109375,0.6466224789619446,-9.462646484375,2.4921045303344727
1772698741815621000,8.87162109375,0.540512204170227,-9.470704078674316,2.4867665767669678
1772698741825621000,8.88162109375,0.4604780077934265,-9.479694366455078,2.468549966812134
1772698741835621000,8.89162109375,0.4033813178539276,-9.489236831665039,2.441734552383423
1772698741845621000,8.90162109375,0.3538201153278351,-9.499918937683105,2.4076454639434814
1772698741855621000,8.91162109375,0.3045169413089752,-9.511876106262207,2.3668253421783447
1772698741865621000,8.92162109375,0.2585202753543854,-9.526007652282715,2.314894914627075
1772698741875621000,8.93162109375,0.21780236065387726,-9.541903495788574,2.252781629562378
1772698741885621000,8.94162109375,0.1829535961151123,-9.558113098144531,2.1861798763275146
1772698741895621000,8.95162109375,0.15391762554645538,-9.573390007019043,2.120589017868042
1772698741905621000,8.96162109375,0.13110961019992828,-9.58708667755127,2.0593574047088623
1772698741915621000,8.97162109375,0.11185624450445175,-9.598609924316406,2.006129741668701
1772698741925621000,8.98162109375,0.09122905880212784,-9.608123779296875,1.9611291885375977
1772698741935621000,8.99162109375,0.06719707697629929,-9.616308212280273,1.9215847253799438
1772698741945621000,9.00162109375,0.04310278967022896,-9.623371124267578,1.8865991830825806
1772698741955621000,9.01162109375,0.02197851613163948,-9.629508972167969,1.8553868532180786
1772698741965621000,9.02162109375,0.004593007732182741,-9.635250091552734,1.8254668712615967
1772698741975621000,9.03162109375,-0.008055061101913452,-9.641133308410645,1.7941175699234009
1772698741985621000,9.04162109375,-0.01567087508738041,-9.6472749710083,1.760741949081421
1772698741995621000,9.05162109375,-0.023285001516342163,-9.653604507446289,1.7256195545196533
1772698742005621000,9.06162109375,-0.03708100691437721,-9.659712791442871,1.6908438205718994
1772698742015621000,9.07162109375,-0.06218782067298889,-9.665088653564453,1.6590931415557861
1772698742025621000,9.08162109375,-0.09864504635334015,-9.668864250183105,1.6351499557495117
1772698742035621000,9.09162109375,-0.14377336204051971,-9.67055892944336,1.6217323541641235
1772698742045621000,9.10162109375,-0.19301484525203705,-9.670178413391113,1.6188865900039673
1772698742055621000,9.11162109375,-0.24371923506259918,-9.668097496032715,1.6244615316390991
1772698742065621000,9.12162109375,-0.2957680821418762,-9.66495418548584,1.6344964504241943
1772698742075621000,9.13162109375,-0.3518856167793274,-9.661437034606934,1.64414644241333
1772698742085621000,9.14162109375,-0.4138775169849396,-9.658435821533203,1.6473360061645508
1772698742095621000,9.15162109375,-0.4805834889411926,-9.656879425048828,1.6383236646652222
1772698742105621000,9.16162109375,-0.547456681728363,-9.65727424621582,1.614850640296936
1772698742115621000,9.17162109375,-0.6079151630401611,-9.65975284576416,1.5779763460159302
1772698742125621000,9.18162109375,-0.6549615859985352,-9.664006233215332,1.5324519872665405
1772698742135621000,9.19162109375,-0.6807695031166077,-9.669722557067871,1.484386682510376
1772698742145621000,9.20162109375,-0.6817554831504822,-9.676591873168945,1.4384607076644897
1772698742155621000,9.21162109375,-0.6616049408912659,-9.683998107910156,1.39744234085083
1772698742165621000,9.22162109375,-0.6318908929824829,-9.691004753112793,1.3621755838394165
1772698742175621000,9.23162109375,-0.6069585084915161,-9.696822166442871,1.3317811489105225
1772698742185621000,9.24162109375,-0.5953570008277893,-9.701261520385742,1.3043993711471558
1772698742195621000,9.25162109375,-0.5987496376037598,-9.703596115112305,1.2853418588638306
1772698742205621000,9.26162109375,-0.6136841773986816,-9.702463150024414,1.2868574857711792
1772698742215621000,9.27162109375,-0.6378121376037598,-9.69774055480957,1.3105010986328125
1772698742225621000,9.28162109375,-0.6709374785423279,-9.690825462341309,1.3446658849716187
1772698742235621000,9.29162109375,-0.7101747393608093,-9.682976722717285,1.3805807828903198
1772698742245621000,9.30162109375,-0.7456610798835754,-9.675427436828613,1.4143791198730469
1772698742255621000,9.31162109375,-0.7705480456352234,-9.669100761413574,1.4439984560012817
1772698742265621000,9.32162109375,-0.7893834114074707,-9.664131164550781,1.4669150114059448
1772698742275621000,9.33162109375,-0.8141162395477295,-9.660037994384766,1.4802947044372559
1772698742285621000,9.34162109375,-0.8472806215286255,-9.657011032104492,1.481428623199463
1772698742295621000,9.35162109375,-0.8737548589706421,-9.656973838806152,1.4662160873413086
1772698742305621000,9.36162109375,-0.8771226406097412,-9.661372184753418,1.4348996877670288
1772698742315621000,9.37162109375,-0.8546878099441528,-9.669318199157715,1.3943428993225098
1772698742325621000,9.38162109375,-0.812163233757019,-9.67941665649414,1.3489536046981812
1772698742335621000,9.39162109375,-0.7545305490493774,-9.691100120544434,1.2975515127182007
1772698742345621000,9.40162109375,-0.6851559281349182,-9.703939437866211,1.2387505769729614
1772698742355621000,9.41162109375,-0.6017630696296692,-9.718101501464844,1.1690826416015625
1772698742365621000,9.42162109375,-0.49709850549697876,-9.734064102172852,1.0822515487670898
1772698742375621000,9.43162109375,-0.3649129867553711,-9.751113891601562,0.9762141108512878
1772698742385621000,9.44162109375,-0.20513112843036652,-9.767011642456055,0.8566150665283203
1772698742395621000,9.45162109375,-0.030029011890292168,-9.778780937194824,0.7382056713104248
1772698742405621000,9.46162109375,0.13833600282669067,-9.7847318649292,0.6405289173126221
1772698742415621000,9.47162109375,0.28950023651123047,-9.785615921020508,0.5729725956916809
1772698742425621000,9.48162109375,0.4268503487110138,-9.782930374145508,0.5314845442771912
1772698742435621000,9.49162109375,0.5554505586624146,-9.777802467346191,0.5063917636871338
1772698742445621000,9.50162109375,0.6746575236320496,-9.770915985107422,0.4943906366825104
1772698742455621000,9.51162109375,0.7822461128234863,-9.762739181518555,0.49740588665008545
1772698742465621000,9.52162109375,0.877796471118927,-9.752938270568848,0.5292060971260071
1772698742475621000,9.53162109375,0.9593133330345154,-9.74124813079834,0.5984895825386047
1772698742485621000,9.54162109375,1.025960087776184,-9.728204727172852,0.6926882266998291
1772698742495621000,9.55162109375,1.07887864112854,-9.715034484863281,0.7902610301971436
1772698742505621000,9.56162109375,1.1223095655441284,-9.702324867248535,0.8807480931282043
1772698742515621000,9.57162109375,1.156546950340271,-9.690382957458496,0.9639819860458374
1772698742525621000,9.58162109375,1.182950735092163,-9.679255485534668,1.0406862497329712
1772698742535621000,9.59162109375,1.2100608348846436,-9.668325424194336,1.1088926792144775
1772698742545621000,9.60162109375,1.2518692016601562,-9.65583610534668,1.1696302890777588
1772698742555621000,9.61162109375,1.317403793334961,-9.639328956604004,1.23214590549469
1772698742565621000,9.62162109375,1.401268720626831,-9.618106842041016,1.3033970594406128
1772698742575621000,9.63162109375,1.4861630201339722,-9.594061851501465,1.3840794563293457
1772698742585621000,9.64162109375,1.557984471321106,-9.570359230041504,1.4667327404022217
1772698742595621000,9.65162109375,1.6099436283111572,-9.549949645996094,1.5417338609695435
1772698742605621000,9.66162109375,1.6407268047332764,-9.534077644348145,1.6061608791351318
1772698742615621000,9.67162109375,1.6569432020187378,-9.522004127502441,1.6602283716201782
1772698742625621000,9.68162109375,1.669623613357544,-9.512621879577637,1.7008135318756104
1772698742635621000,9.69162109375,1.68494713306427,-9.505400657653809,1.7258918285369873
1772698742645621000,9.70162109375,1.7049442529678345,-9.499934196472168,1.7363152503967285
1772698742655621000,9.71162109375,1.7275220155715942,-9.495994567871094,1.7355517148971558
1772698742665621000,9.72162109375,1.7496304512023926,-9.493769645690918,1.7255524396896362
1772698742675621000,9.73162109375,1.7681949138641357,-9.493663787841797,1.7071131467819214
1772698742685621000,9.74162109375,1.7794954776763916,-9.496222496032715,1.6809377670288086
1772698742695621000,9.75162109375,1.7805745601654053,-9.50166130065918,1.6487497091293335
1772698742705621000,9.76162109375,1.7701709270477295,-9.509926795959473,1.6118847131729126
1772698742715621000,9.77162109375,1.7493681907653809,-9.520892143249512,1.56930673122406
1772698742725621000,9.78162109375,1.7205909490585327,-9.533907890319824,1.521364688873291
1772698742735621000,9.79162109375,1.686885118484497,-9.547722816467285,1.4716613292694092
1772698742745621000,9.80162109375,1.6522313356399536,-9.560840606689453,1.425074815750122
1772698742755621000,9.81162109375,1.6206731796264648,-9.571793556213379,1.3872921466827393
1772698742765621000,9.82162109375,1.5967358350753784,-9.579160690307617,1.3639997243881226
1772698742785621000,9.84162109375,1.5959810018539429,-9.577847480773926,1.3740664720535278
1772698742795621000,9.85162109375,1.6137460470199585,-9.570512771606445,1.4041026830673218
1772698742805621000,9.86162109375,1.6313189268112183,-9.562079429626465,1.4407702684402466
1772698742815621000,9.87162109375,1.6476832628250122,-9.553739547729492,1.4770234823226929
1772698742825621000,9.88162109375,1.6661193370819092,-9.546849250793457,1.500705599784851
1772698742835621000,9.89162109375,1.6897304058074951,-9.542235374450684,1.503641963005066
1772698742845621000,9.90162109375,1.7191988229751587,-9.539444923400879,1.487865686416626
1772698742855621000,9.91162109375,1.7531232833862305,-9.537125587463379,1.46294105052948
1772698742865621000,9.92162109375,1.784589171409607,-9.53565502166748,1.434191107749939
1772698742875621000,9.93162109375,1.796676516532898,-9.538741111755371,1.3981297016143799
1772698742885621000,9.94162109375,1.771087408065796,-9.5492525100708,1.35845947265625
1772698742895621000,9.95162109375,1.718239188194275,-9.562264442443848,1.334586262702942
1772698742905621000,9.96162109375,1.6611909866333008,-9.570319175720215,1.3490071296691895
1772698742915621000,9.97162109375,1.5995253324508667,-9.572027206420898,1.410035490989685
1772698742925621000,9.98162109375,1.5203895568847656,-9.570523262023926,1.5046213865280151
1772698742935621000,9.99162109375,1.417128562927246,-9.56602954864502,1.6288652420043945
1772698742945621000,10.00162109375,1.2973941564559937,-9.554832458496094,1.786714792251587
1772698742955621000,10.01162109375,1.2061675786972046,-9.53472900390625,1.9505105018615723
1772698742965621000,10.02162109375,1.1433085203170776,-9.509504318237305,2.1053640842437744
1772698742975621000,10.03162109375,1.073174238204956,-9.48703670501709,2.239380121231079
1772698742985621000,10.04162109375,0.977239191532135,-9.471420288085938,2.3468306064605713
1772698742995621000,10.05162109375,0.8562429547309875,-9.46481704711914,2.4196009635925293
1772698743005621000,10.06162109375,0.7219693064689636,-9.471327781677246,2.437843084335327
1772698743015621000,10.07162109375,0.5979217886924744,-9.489374160766602,2.4009711742401123
1772698743025621000,10.08162109375,0.5098314881324768,-9.511801719665527,2.331540107727051
1772698743035621000,10.09162109375,0.4671182930469513,-9.536044120788574,2.2396507263183594
1772698743045621000,10.10162109375,0.46089106798171997,-9.562695503234863,2.1243441104888916
1772698743055621000,10.11162109375,0.4605797827243805,-9.590611457824707,1.9945988655090332
1772698743065621000,10.12162109375,0.44393765926361084,-9.61695671081543,1.8674744367599487
1772698743075621000,10.13162109375,0.4133996069431305,-9.638553619384766,1.7600488662719727
1772698743085621000,10.14162109375,0.3789219856262207,-9.65496826171875,1.675819993019104
1772698743095621000,10.15162109375,0.34367141127586365,-9.667121887207031,1.6121468544006348
1772698743105621000,10.16162109375,0.3076223134994507,-9.674528121948242,1.5745657682418823
1772698743115621000,10.17162109375,0.27331802248954773,-9.677793502807617,1.5607637166976929
1772698743125621000,10.18162109375,0.24530468881130219,-9.678674697875977,1.5599637031555176
1772698743135621000,10.19162109375,0.22535330057144165,-9.678861618041992,1.5618029832839966
1772698743145621000,10.20162109375,0.21296800673007965,-9.679261207580566,1.561072587966919
1772698743155621000,10.21162109375,0.20538344979286194,-9.680347442626953,1.5553452968597412
1772698743165621000,10.22162109375,0.20047728717327118,-9.682605743408203,1.541866660118103
1772698743175621000,10.23162109375,0.19839657843112946,-9.68615436553955,1.5196858644485474
1772698743185621000,10.24162109375,0.19902372360229492,-9.690805435180664,1.489647626876831
1772698743195621000,10.25162109375,0.19878222048282623,-9.696125030517578,1.4546570777893066
1772698743205621000,10.26162109375,0.19058340787887573,-9.701419830322266,1.4200434684753418
1772698743215621000,10.27162109375,0.17078661918640137,-9.70560073852539,1.393744945526123
1772698743225621000,10.28162109375,0.14276106655597687,-9.70781135559082,1.3814475536346436
1772698743235621000,10.29162109375,0.11148461699485779,-9.707731246948242,1.3848928213119507
1772698743245621000,10.30162109375,0.07952037453651428,-9.705903053283691,1.399826169013977
1772698743255621000,10.31162109375,0.04567034915089607,-9.703255653381348,1.419555425643921
1772698743265621000,10.32162109375,0.00660037063062191,-9.700604438781738,1.4382696151733398
1772698743275621000,10.33162109375,-0.03980642184615135,-9.69861125946045,1.4511165618896484
1772698743285621000,10.34162109375,-0.09398902952671051,-9.697622299194336,1.4552253484725952
1772698743295621000,10.35162109375,-0.15406237542629242,-9.697688102722168,1.449652910232544
1772698743305621000,10.36162109375,-0.21567018330097198,-9.698540687561035,1.4360295534133911
1772698743315621000,10.37162109375,-0.27423861622810364,-9.699459075927734,1.419744610786438
1772698743325621000,10.38162109375,-0.3259076774120331,-9.699528694152832,1.4083071947097778
1772698743335621000,10.39162109375,-0.3685309588909149,-9.697916984558105,1.4088951349258423
1772698743345621000,10.40162109375,-0.39960619807243347,-9.694134712219238,1.4263445138931274
1772698743355621000,10.41162109375,-0.4142787754535675,-9.6887845993042,1.4581518173217773
1772698743365621000,10.42162109375,-0.41022512316703796,-9.683442115783691,1.4943383932113647
1772698743375621000,10.43162109375,-0.3927594721317291,-9.680100440979004,1.5204529762268066
1772698743385621000,10.44162109375,-0.3754740357398987,-9.680375099182129,1.5230720043182373
1772698743395621000,10.45162109375,-0.37386757135391235,-9.684331893920898,1.4981023073196411
1772698743405621000,10.46162109375,-0.39868685603141785,-9.690007209777832,1.4543699026107788
1772698743415621000,10.47162109375,-0.4488467574119568,-9.694605827331543,1.4083821773529053
1772698743425621000,10.48162109375,-0.5089108943939209,-9.69674015045166,1.3728160858154297
1772698743435621000,10.49162109375,-0.5575411319732666,-9.696788787841797,1.3534507751464844
1772698743445621000,10.50162109375,-0.579017698764801,-9.695789337158203,1.351592779159546
1772698743455621000,10.51162109375,-0.5767220258712769,-9.694009780883789,1.3652697801589966
1772698743465621000,10.52162109375,-0.5679978132247925,-9.691064834594727,1.3896201848983765
1772698743475621000,10.53162109375,-0.5662596821784973,-9.68732738494873,1.4161320924758911
1772698743485621000,10.54162109375,-0.577124834060669,-9.684202194213867,1.4330177307128906
1772698743495621000,10.55162109375,-0.6000446677207947,-9.682555198669434,1.4347337484359741
1772698743505621000,10.56162109375,-0.6315749287605286,-9.682991981506348,1.4181510210037231
1772698743515621000,10.57162109375,-0.6626979112625122,-9.686400413513184,1.3801617622375488
1772698743525621000,10.58162109375,-0.680270791053772,-9.693323135375977,1.3217813968658447
1772698743535621000,10.59162109375,-0.6709855794906616,-9.704103469848633,1.2452147006988525
1772698743545621000,10.60162109375,-0.6265857219696045,-9.718240737915039,1.1548056602478027
1772698743555621000,10.61162109375,-0.550035297870636,-9.73389720916748,1.0578709840774536
1772698743565621000,10.62162109375,-0.4510374069213867,-9.749232292175293,0.9588695168495178
1772698743575621000,10.63162109375,-0.33791810274124146,-9.763490676879883,0.8546538949012756
1772698743585621000,10.64162109375,-0.21120399236679077,-9.776839256286621,0.7342971563339233
1772698743595621000,10.65162109375,-0.06376945972442627,-9.788468360900879,0.5934696197509766
1772698743605621000,10.66162109375,0.10784696787595749,-9.79605770111084,0.442714661359787
1772698743615621000,10.67162109375,0.28874796628952026,-9.797651290893555,0.30502256751060486
1772698743625621000,10.68162109375,0.46249303221702576,-9.793719291687012,0.19889581203460693
1772698743635621000,10.69162109375,0.6227105259895325,-9.785943984985352,0.13384787738323212
1772698743645621000,10.70162109375,0.7661069631576538,-9.776015281677246,0.11404471844434738
1772698743655621000,10.71162109375,0.8896806836128235,-9.765162467956543,0.1429896205663681
1772698743665621000,10.72162109375,0.9913760423660278,-9.75394058227539,0.21957093477249146
1772698743675621000,10.73162109375,1.0733686685562134,-9.741762161254883,0.34108030796051025
1772698743685621000,10.74162109375,1.1360082626342773,-9.727470397949219,0.5061551928520203
1772698743695621000,10.75162109375,1.1768286228179932,-9.710993766784668,0.694293200969696
1772698743705621000,10.76162109375,1.2011138200759888,-9.693782806396484,0.8707931637763977
1772698743715621000,10.77162109375,1.2193455696105957,-9.676729202270508,1.0220072269439697
1772698743725621000,10.78162109375,1.241966962814331,-9.659728050231934,1.1478486061096191
1772698743735621000,10.79162109375,1.275938630104065,-9.643106460571289,1.2461401224136353
1772698743745621000,10.80162109375,1.3246331214904785,-9.626917839050293,1.3183997869491577
1772698743755621000,10.81162109375,1.3851335048675537,-9.610383033752441,1.3756160736083984
1772698743765621000,10.82162109375,1.4518275260925293,-9.592525482177734,1.4303977489471436
1772698743775621000,10.83162109375,1.5192264318466187,-9.572813034057617,1.4911699295043945
1772698743785621000,10.84162109375,1.5803428888320923,-9.5516996383667,1.5613908767700195
1772698743795621000,10.85162109375,1.6276304721832275,-9.531256675720215,1.6359601020812988
1772698743805621000,10.86162109375,1.6587127447128296,-9.513708114624023,1.705405831336975
1772698743815621000,10.87162109375,1.6747194528579712,-9.499663352966309,1.7669472694396973
1772698743825621000,10.88162109375,1.6807315349578857,-9.48849868774414,1.8204154968261719
1772698743835621000,10.89162109375,1.6838443279266357,-9.479637145996094,1.8632034063339233
1772698743845621000,10.90162109375,1.6889467239379883,-9.472679138183594,1.8937277793884277
1772698743855621000,10.91162109375,1.694885492324829,-9.468186378479004,1.9108086824417114
1772698743865621000,10.92162109375,1.6985968351364136,-9.466133117675781,1.9176764488220215
1772698743875621000,10.93162109375,1.699243426322937,-9.46626091003418,1.9164705276489258
1772698743885621000,10.94162109375,1.6955311298370361,-9.468707084655762,1.9076600074768066
1772698743895621000,10.95162109375,1.6866320371627808,-9.473438262939453,1.8919932842254639
1772698743905621000,10.96162109375,1.6732232570648193,-9.4801607131958,1.8700973987579346
1772698743915621000,10.97162109375,1.6560989618301392,-9.488459587097168,1.8430601358413696
1772698743925621000,10.98162109375,1.6352754831314087,-9.498080253601074,1.8118301630020142
1772698743935621000,10.99162109375,1.6104962825775146,-9.509210586547852,1.7752760648727417
1772698743945621000,11.00162109375,1.5794717073440552,-9.522074699401855,1.7337114810943604
1772698743955621000,11.01162109375,1.539223074913025,-9.536572456359863,1.6896642446517944
1772698743965621000,11.02162109375,1.48833429813385,-9.552119255065918,1.6468992233276367
1772698743975621000,11.03162109375,1.4325419664382935,-9.56686782836914,1.6103575229644775
1772698743985621000,11.04162109375,1.3832366466522217,-9.578377723693848,1.5848411321640015
1772698743995621000,11.05162109375,1.3509163856506348,-9.584620475769043,1.5749496221542358
1772698744005621000,11.06162109375,1.3385121822357178,-9.585262298583984,1.5816235542297363
1772698744015621000,11.07162109375,1.345076084136963,-9.581207275390625,1.6005107164382935
1772698744025621000,11.08162109375,1.3691864013671875,-9.574052810668945,1.6227232217788696
1772698744035621000,11.09162109375,1.4074280261993408,-9.565732955932617,1.6389884948730469
1772698744045621000,11.10162109375,1.452865719795227,-9.557634353637695,1.6465758085250854
1772698744055621000,11.11162109375,1.492841362953186,-9.550638198852539,1.6514034271240234
1772698744065621000,11.12162109375,1.5168304443359375,-9.545185089111328,1.6610357761383057
1772698744075621000,11.13162109375,1.5232163667678833,-9.541484832763672,1.6763898134231567
1772698744085621000,11.14162109375,1.5036903619766235,-9.541465759277344,1.6940240859985352
1772698744095621000,11.15162109375,1.4586687088012695,-9.542947769165039,1.7247682809829712
1772698744105621000,11.16162109375,1.408921241760254,-9.541053771972656,1.7758402824401855
1772698744115621000,11.17162109375,1.3735722303390503,-9.534463882446289,1.8378506898880005
1772698744125621000,11.18162109375,1.3417298793792725,-9.525910377502441,1.904517650604248
1772698744135621000,11.19162109375,1.3003408908843994,-9.515726089477539,1.9825412034988403
1772698744145621000,11.20162109375,1.2509796619415283,-9.500984191894531,2.082479476928711
1772698744155621000,11.21162109375,1.1846753358840942,-9.480757713317871,2.2095656394958496
1772698744165621000,11.22162109375,1.1160058975219727,-9.455598831176758,2.3487398624420166
1772698744175621000,11.23162109375,1.05390465259552,-9.427445411682129,2.4865522384643555
1772698744185621000,11.24162109375,0.9762834310531616,-9.399149894714355,2.6216888427734375
1772698744195621000,11.25162109375,0.8716395497322083,-9.376441955566406,2.7373297214508057
1772698744205621000,11.26162109375,0.7437092065811157,-9.365455627441406,2.8116753101348877
1772698744215621000,11.27162109375,0.6107491254806519,-9.367192268371582,2.8377976417541504
1772698744225621000,11.28162109375,0.5004084706306458,-9.377907752990723,2.823972463607788
1772698744235621000,11.29162109375,0.4311322271823883,-9.393016815185547,2.7849152088165283
1772698744245621000,11.30162109375,0.39038461446762085,-9.412126541137695,2.725778102874756
1772698744255621000,11.31162109375,0.3538127839565277,-9.43492603302002,2.6509175300598145
1772698744265621000,11.32162109375,0.3077673316001892,-9.45947265625,2.5678844451904297
1772698744275621000,11.33162109375,0.2559836208820343,-9.482383728027344,2.4878242015838623
1772698744285621000,11.34162109375,0.20781643688678741,-9.499405860900879,2.426621913909912
1772698744295621000,11.35162109375,0.167465940117836,-9.509053230285645,2.391705274581909
1772698744305621000,11.36162109375,0.13276416063308716,-9.51313591003418,2.3776047229766846
1772698744315621000,11.37162109375,0.10118399560451508,-9.51334285736084,2.378329277038574
1772698744325621000,11.38162109375,0.0713341161608696,-9.511155128479004,2.3881452083587646
1772698744335621000,11.39162109375,0.04019829258322716,-9.5087890625,2.398268461227417
1772698744345621000,11.40162109375,0.008822321891784668,-9.507867813110352,2.402243137359619
1772698744355621000,11.41162109375,-0.017301373183727264,-9.509420394897461,2.3960392475128174
1772698744365621000,11.42162109375,-0.03331569582223892,-9.513631820678711,2.379096031188965
1772698744375621000,11.43162109375,-0.0378592275083065,-9.520381927490234,2.351864814758301
1772698744385621000,11.44162109375,-0.03238761052489281,-9.528746604919434,2.3178317546844482
1772698744395621000,11.45162109375,-0.02137530781328678,-9.537654876708984,2.281022787094116
1772698744405621000,11.46162109375,-0.010929390788078308,-9.546422004699707,2.2441275119781494
1772698744415621000,11.47162109375,-0.005260596051812172,-9.554489135742188,2.209543228149414
1772698744425621000,11.48162109375,-0.004600124899297953,-9.56100082397461,2.181194305419922
1772698744435621000,11.49162109375,-0.008045518770813942,-9.565081596374512,2.1632208824157715
1772698744445621000,11.50162109375,-0.014361296780407429,-9.566376686096191,2.157456874847412
1772698744455621000,11.51162109375,-0.023781724274158478,-9.565349578857422,2.161918878555298
1772698744465621000,11.52162109375,-0.03722796216607094,-9.563127517700195,2.171539783477783
1772698744475621000,11.53162109375,-0.05593192204833031,-9.560786247253418,2.1814281940460205
1772698744485621000,11.54162109375,-0.08050853759050369,-9.558996200561523,2.1884942054748535
1772698744495621000,11.55162109375,-0.10959814488887787,-9.557995796203613,2.191593885421753
1772698744505621000,11.56162109375,-0.14105509221553802,-9.557604789733887,2.1915035247802734
1772698744515621000,11.57162109375,-0.17163415253162384,-9.55759048461914,2.1893842220306396
1772698744525621000,11.58162109375,-0.19817186892032623,-9.557711601257324,2.1866097450256348
1772698744535621000,11.59162109375,-0.21853406727313995,-9.557497024536133,2.1856064796447754
1772698744545621000,11.60162109375,-0.23278355598449707,-9.556222915649414,2.1897053718566895
1772698744555621000,11.61162109375,-0.24359944462776184,-9.552901268005371,2.202984094619751
1772698744565621000,11.62162109375,-0.2544413208961487,-9.546514511108398,2.2292823791503906
1772698744575621000,11.63162109375,-0.2679583430290222,-9.536083221435547,2.271939516067505
1772698744585621000,11.64162109375,-0.2853950560092926,-9.520877838134766,2.3327720165252686
1772698744595621000,11.65162109375,-0.3057827651500702,-9.50102710723877,2.4098503589630127
1772698744605621000,11.66162109375,-0.3250564932823181,-9.477810859680176,2.497164011001587
1772698744615621000,11.67162109375,-0.33902838826179504,-9.453248023986816,2.5868046283721924
1772698744625621000,11.68162109375,-0.3417157828807831,-9.430098533630371,2.669618844985962
1772698744635621000,11.69162109375,-0.3333142399787903,-9.410563468933105,2.7387189865112305
1772698744645621000,11.70162109375,-0.32094606757164,-9.396079063415527,2.7894582748413086
1772698744655621000,11.71162109375,-0.30923789739608765,-9.386752128601074,2.8219940662384033
1772698744665621000,11.72162109375,-0.29809629917144775,-9.38089370727539,2.8425989151000977
1772698744675621000,11.73162109375,-0.28818318247795105,-9.376102447509766,2.859377384185791
1772698744685621000,11.74162109375,-0.28263187408447266,-9.370074272155762,2.879619598388672
1772698744695621000,11.75162109375,-0.2869708836078644,-9.36131763458252,2.907536029815674
1772698744705621000,11.76162109375,-0.3063235282897949,-9.349933624267578,2.941990613937378
1772698744715621000,11.77162109375,-0.3400696814060211,-9.337709426879883,2.976898431777954
1772698744725621000,11.78162109375,-0.37705427408218384,-9.32701301574707,3.005833864212036
1772698744735621000,11.79162109375,-0.40324223041534424,-9.32089900970459,3.021362543106079
1772698744745621000,11.80162109375,-0.40634340047836304,-9.323370933532715,3.0133094787597656
1772698744755621000,11.81162109375,-0.3824150562286377,-9.337175369262695,2.9734323024749756
1772698744765621000,11.82162109375,-0.33518847823143005,-9.36276626586914,2.897695779800415
1772698744775621000,11.83162109375,-0.2675722539424896,-9.398563385009766,2.786717176437378
1772698744785621000,11.84162109375,-0.18619243800640106,-9.440025329589844,2.6498398780822754
1772698744795621000,11.85162109375,-0.10139115154743195,-9.48167610168457,2.501586437225342
1772698744805621000,11.86162109375,-0.01755942963063717,-9.52058219909668,2.3512940406799316
1772698744815621000,11.87162109375,0.0681619942188263,-9.555190086364746,2.2054693698883057
1772698744825621000,11.88162109375,0.1599612683057785,-9.585155487060547,2.066298246383667
1772698744835621000,11.89162109375,0.25990432500839233,-9.61067008972168,1.9333537817001343
1772698744845621000,11.90162109375,0.3618634045124054,-9.632895469665527,1.8018736839294434
1772698744855621000,11.91162109375,0.45333170890808105,-9.651472091674805,1.6774896383285522
1772698744865621000,11.92162109375,0.527279257774353,-9.665459632873535,1.5720220804214478
1772698744875621000,11.93162109375,0.5812584161758423,-9.675311088562012,1.4902584552764893
1772698744885621000,11.94162109375,0.6211379766464233,-9.680732727050781,1.4380505084991455
1772698744895621000,11.95162109375,0.66091388463974,-9.680764198303223,1.4199905395507812
1772698744905621000,11.96162109375,0.7096593379974365,-9.675317764282227,1.4335261583328247
1772698744915621000,11.97162109375,0.7672351598739624,-9.665458679199219,1.4699115753173828
1772698744925621000,11.98162109375,0.8276301026344299,-9.652520179748535,1.521271824836731
1772698744935621000,11.99162109375,0.8830136060714722,-9.637530326843262,1.5838792324066162
1772698744945621000,12.00162109375,0.9287868142127991,-9.62244987487793,1.6480878591537476
1772698744955621000,12.01162109375,0.9631388783454895,-9.609183311462402,1.7048020362854004
1772698744965621000,12.02162109375,0.990495502948761,-9.597880363464355,1.752142071723938
1772698744975621000,12.03162109375,1.0184071063995361,-9.587578773498535,1.792083740234375
1772698744985621000,12.04162109375,1.0552923679351807,-9.577235221862793,1.8257358074188232
1772698744995621000,12.05162109375,1.1051441431045532,-9.56639575958252,1.8528658151626587
1772698745005621000,12.06162109375,1.1626967191696167,-9.555691719055176,1.8727773427963257
1772698745015621000,12.07162109375,1.2155567407608032,-9.546709060668945,1.8849856853485107
1772698745025621000,12.08162109375,1.2539747953414917,-9.540750503540039,1.8899741172790527
1772698745035621000,12.09162109375,1.2739943265914917,-9.538159370422363,1.8896684646606445
1772698745045621000,12.10162109375,1.278663158416748,-9.538040161132812,1.8871113061904907
1772698745055621000,12.11162109375,1.2764836549758911,-9.538676261901855,1.885374665260315
1772698745065621000,12.12162109375,1.2752817869186401,-9.538643836975098,1.886353611946106
1772698745075621000,12.13162109375,1.2788288593292236,-9.537036895751953,1.892068862915039
1772698745085621000,12.14162109375,1.2871317863464355,-9.533571243286133,1.903868556022644
1772698745095621000,12.15162109375,1.2979012727737427,-9.52862548828125,1.9212353229522705
1772698745105621000,12.16162109375,1.308227300643921,-9.52283000946045,1.9428439140319824
1772698745115621000,12.17162109375,1.3162118196487427,-9.51689624786377,1.9663814306259155
1772698745125621000,12.18162109375,1.3215705156326294,-9.511388778686523,1.9893063306808472
1772698745135621000,12.19162109375,1.3249452114105225,-9.506657600402832,2.0095698833465576
1772698745145621000,12.20162109375,1.327185034751892,-9.502745628356934,2.026520252227783
1772698745155621000,12.21162109375,1.3281384706497192,-9.499631881713867,2.040451765060425
1772698745165621000,12.22162109375,1.3278052806854248,-9.49724292755127,2.0517525672912598
1772698745175621000,12.23162109375,1.3264989852905273,-9.495451927185059,2.060870409011841
1772698745185621000,12.24162109375,1.3235669136047363,-9.494283676147461,2.0681188106536865
1772698745195621000,12.25162109375,1.319114089012146,-9.49360179901123,2.074087619781494
1772698745205621000,12.26162109375,1.3142045736312866,-9.49301815032959,2.079866409301758
1772698745215621000,12.27162109375,1.3101218938827515,-9.492074966430664,2.086740493774414
1772698745225621000,12.28162109375,1.3075652122497559,-9.490466117858887,2.095639944076538
1772698745235621000,12.29162109375,1.3064576387405396,-9.488105773925781,2.106987476348877
1772698745245621000,12.30162109375,1.307203769683838,-9.484994888305664,2.1204910278320312
1772698745255621000,12.31162109375,1.3098602294921875,-9.481170654296875,2.135897159576416
1772698745265621000,12.32162109375,1.3142489194869995,-9.47669506072998,2.1529977321624756
1772698745275621000,12.33162109375,1.319919228553772,-9.471659660339355,2.1716041564941406
1772698745285621000,12.34162109375,1.3269842863082886,-9.466126441955566,2.191333532333374
1772698745295621000,12.35162109375,1.3358392715454102,-9.460123062133789,2.211784601211548
1772698745305621000,12.36162109375,1.3461320400238037,-9.453886032104492,2.232118606567383
1772698745315621000,12.37162109375,1.3581973314285278,-9.447650909423828,2.2511277198791504
1772698745325621000,12.38162109375,1.3715360164642334,-9.441573143005371,2.26846981048584
1772698745335621000,12.39162109375,1.3851606845855713,-9.435591697692871,2.2850236892700195
1772698745345621000,12.40162109375,1.3985515832901,-9.42949104309082,2.301988363265991
1772698745355621000,12.41162109375,1.412635326385498,-9.42301082611084,2.319855213165283
1772698745365621000,12.42162109375,1.4281138181686401,-9.416298866271973,2.337559223175049
1772698745375621000,12.43162109375,1.4439473152160645,-9.410307884216309,2.3519134521484375
1772698745385621000,12.44162109375,1.4573777914047241,-9.406096458435059,2.3604607582092285
1772698745395621000,12.45162109375,1.4652382135391235,-9.404236793518066,2.3630053997039795
1772698745405621000,12.46162109375,1.465946912765503,-9.404865264892578,2.3600621223449707
1772698745415621000,12.47162109375,1.4599016904830933,-9.407820701599121,2.352017641067505
1772698745425621000,12.48162109375,1.4486536979675293,-9.41268539428711,2.339477062225342
1772698745435621000,12.49162109375,1.4340052604675293,-9.418853759765625,2.3236241340637207
1772698745445621000,12.50162109375,1.4164209365844727,-9.42634105682373,2.3039631843566895
1772698745455621000,12.51162109375,1.3923059701919556,-9.435935020446777,2.2792551517486572
1772698745465621000,12.52162109375,1.3603264093399048,-9.446730613708496,2.2537009716033936
1772698745475621000,12.53162109375,1.3152395486831665,-9.456543922424316,2.2392711639404297
1772698745485621000,12.54162109375,1.2651172876358032,-9.462158203125,2.244418144226074
1772698745495621000,12.55162109375,1.2194467782974243,-9.45988941192627,2.2789971828460693
1772698745505621000,12.56162109375,1.1792314052581787,-9.448549270629883,2.346214532852173
1772698745515621000,12.57162109375,1.144056797027588,-9.430828094482422,2.4333128929138184
1772698745525621000,12.58162109375,1.1055654287338257,-9.408943176269531,2.53375506401062
1772698745535621000,12.59162109375,1.0700801610946655,-9.383313179016113,2.6417322158813477
1772698745545621000,12.60162109375,1.040369987487793,-9.356095314025879,2.7480013370513916
1772698745555621000,12.61162109375,1.0041769742965698,-9.331815719604492,2.842398166656494
1772698745565621000,12.62162109375,0.9548827409744263,-9.3126802444458,2.9210612773895264
1772698745575621000,12.63162109375,0.8865261077880859,-9.300552368164062,2.9806346893310547
1772698745585621000,12.64162109375,0.7989508509635925,-9.29615592956543,3.0188677310943604
1772698745595621000,12.65162109375,0.696834146976471,-9.299057960510254,3.035181760787964
1772698745605621000,12.66162109375,0.5900379419326782,-9.307488441467285,3.03197979927063
1772698745615621000,12.67162109375,0.491748571395874,-9.317200660705566,3.0196573734283447
1772698745625621000,12.68162109375,0.41002050042152405,-9.32382869720459,3.0113918781280518
1772698745635621000,12.69162109375,0.3469480574131012,-9.326486587524414,3.0110907554626465
1772698745645621000,12.70162109375,0.2986169159412384,-9.326369285583496,3.016629934310913
1772698745655621000,12.71162109375,0.25993961095809937,-9.325878143310547,3.0217208862304688
1772698745665621000,12.72162109375,0.2274657040834427,-9.32750129699707,3.019331455230713
1772698745675621000,12.73162109375,0.19992472231388092,-9.33373737335205,3.001958131790161
1772698745685621000,12.74162109375,0.16951216757297516,-9.345821380615234,2.9660210609436035
1772698745695621000,12.75162109375,0.13217207789421082,-9.36355972290039,2.9114701747894287
1772698745705621000,12.76162109375,0.08913759887218475,-9.38466739654541,2.844372510910034
1772698745715621000,12.77162109375,0.04451936110854149,-9.404913902282715,2.7777719497680664
1772698745725621000,12.78162109375,0.00559297576546669,-9.420750617980957,2.72393536567688
1772698745735621000,12.79162109375,-0.02144572325050831,-9.430846214294434,2.6886911392211914
1772698745745621000,12.80162109375,-0.03635456785559654,-9.435689926147461,2.6714818477630615
1772698745755621000,12.81162109375,-0.04336171969771385,-9.436258316040039,2.669365644454956
1772698745765621000,12.82162109375,-0.04797229915857315,-9.43394947052002,2.6774394512176514
1772698745775621000,12.83162109375,-0.055595796555280685,-9.431204795837402,2.686950206756592
1772698745785621000,12.84162109375,-0.07171981781721115,-9.430869102478027,2.687739372253418
1772698745795621000,12.85162109375,-0.0986475870013237,-9.435263633728027,2.6714136600494385
1772698745805621000,12.86162109375,-0.13445882499217987,-9.444926261901855,2.6354615688323975
1772698745815621000,12.87162109375,-0.1739065945148468,-9.458775520324707,2.582965135574341
1772698745825621000,12.88162109375,-0.2117258608341217,-9.474892616271973,2.5203137397766113
1772698745835621000,12.89162109375,-0.2446146309375763,-9.491244316101074,2.454960584640503
1772698745845621000,12.90162109375,-0.272508829832077,-9.506143569946289,2.3936097621917725
1772698745855621000,12.91162109375,-0.296904981136322,-9.518427848815918,2.3413186073303223
1772698745865621000,12.92162109375,-0.32050856947898865,-9.527180671691895,2.3022780418395996
1772698745875621000,12.93162109375,-0.3468250036239624,-9.532327651977539,2.2770230770111084
1772698745885621000,12.94162109375,-0.38013342022895813,-9.534788131713867,2.2613463401794434
1772698745895621000,12.95162109375,-0.4225500822067261,-9.535933494567871,2.2489571571350098
1772698745905621000,12.96162109375,-0.4731200933456421,-9.537138938903809,2.233725070953369
1772698745915621000,12.97162109375,-0.5272367596626282,-9.539302825927734,2.2122642993927
1772698745925621000,12.98162109375,-0.5800471305847168,-9.542612075805664,2.184600591659546
1772698745935621000,12.99162109375,-0.6272275447845459,-9.546905517578125,2.1525747776031494
1772698745945621000,13.00162109375,-0.6630074381828308,-9.551916122436523,2.1193625926971436
1772698745955621000,13.01162109375,-0.6798217296600342,-9.557522773742676,2.088541030883789
1772698745965621000,13.02162109375,-0.6718541979789734,-9.563586235046387,2.0632050037384033
1772698745975621000,13.03162109375,-0.6387577056884766,-9.56995964050293,2.0440826416015625
1772698745985621000,13.04162109375,-0.5891967415809631,-9.576072692871094,2.0302865505218506
1772698745995621000,13.05162109375,-0.537445604801178,-9.581345558166504,2.0197393894195557
1772698746005621000,13.06162109375,-0.4968859553337097,-9.585396766662598,2.0108840465545654
1772698746015621000,13.07162109375,-0.4745994508266449,-9.58822250366211,2.0027804374694824
1772698746025621000,13.08162109375,-0.46943753957748413,-9.589963912963867,1.9956424236297607
1772698746035621000,13.09162109375,-0.4765673577785492,-9.591114044189453,1.9884179830551147
1772698746045621000,13.10162109375,-0.4907940924167633,-9.592414855957031,1.978653907775879
1772698746055621000,13.11162109375,-0.5050777792930603,-9.594321250915527,1.9657723903656006
1772698746065621000,13.12162109375,-0.5134238600730896,-9.596880912780762,1.9510681629180908
1772698746075621000,13.13162109375,-0.5158446431159973,-9.59929370880127,1.93851900100708
1772698746085621000,13.14162109375,-0.5195778012275696,-9.599859237670898,1.9347219467163086
1772698746095621000,13.15162109375,-0.5337814092636108,-9.597879409790039,1.940665602684021
1772698746105621000,13.16162109375,-0.5631121397018433,-9.594657897949219,1.9482903480529785
1772698746115621000,13.17162109375,-0.6031238436698914,-9.592095375061035,1.948935866355896
1772698746125621000,13.18162109375,-0.6426724791526794,-9.592337608337402,1.9350497722625732
1772698746135621000,13.19162109375,-0.6705796718597412,-9.596944808959961,1.902457594871521
1772698746145621000,13.20162109375,-0.680804431438446,-9.60535717010498,1.8558032512664795
1772698746155621000,13.21162109375,-0.6713457107543945,-9.616072654724121,1.8030074834823608
1772698746165621000,13.22162109375,-0.6385752558708191,-9.629250526428223,1.743599534034729
1772698746175621000,13.23162109375,-0.5804883241653442,-9.646065711975098,1.6693799495697021
1772698746185621000,13.24162109375,-0.4953073561191559,-9.666747093200684,1.5745015144348145
1772698746195621000,13.25162109375,-0.3740593492984772,-9.68983268737793,1.462059497833252
