time,seconds_elapsed,z,y,x
1772541310744810000,0.18981005859375,7.955756187438965,1.1930429935455322,-0.8907319903373718
1772541310759673300,0.20467333984375,6.203200817108154,0.9823529720306396,-1.0655080080032349
1772541310769583400,0.214583251953125,5.695630073547363,0.8291239738464355,-1.5682909488677979
1772541310779493400,0.224493408203125,5.793791770935059,0.7357500195503235,-1.9944590330123901
1772541310789403400,0.2344033203125,4.103485107421875,0.8770080208778381,-1.9226330518722534
1772541310799313400,0.2443134765625,-3.411914110183716,3.41007399559021,1.4507969617843628
1772541310809223400,0.254223388671875,0.8282170295715332,3.062915086746216,-1.6329339742660522
1772541310819133400,0.264133544921875,0.830610990524292,1.3965500593185425,-1.7191259860992432
1772541310829043500,0.27404345703125,0.9982050061225891,1.4659819602966309,-2.0112180709838867
1772541310838953700,0.28395361328125,3.3493120670318604,2.0741090774536133,-2.9856579303741455
1772541310848863500,0.293863525390625,7.249466896057129,2.813918113708496,-4.295287132263184
1772541310858773800,0.303773681640625,10.347564697265625,3.381342887878418,-4.199518203735352
1772541310868683500,0.31368359375,9.583813667297363,2.4452109336853027,-5.391830921173096
1772541310878593800,0.32359375,9.720284461975098,1.3462719917297363,-4.944115161895752
1772541310888503600,0.333503662109375,6.765838146209717,-1.0503230094909668,-3.177194118499756
1772541310898413600,0.34341357421875,6.332487106323242,-1.3591749668121338,-2.492453098297119
1772541310908323800,0.35332373046875,7.692393779754639,-0.22432400286197662,-2.310492992401123
1772541310918233600,0.363233642578125,9.41565227508545,-0.34688499569892883,-2.6954009532928467
1772541310928144000,0.373143798828125,9.456972122192383,-0.4278860092163086,-2.5342819690704346
1772541310938054000,0.383053955078125,9.499773979187012,-0.5189759731292725,-2.350522041320801
1772541310947964000,0.3929638671875,9.539265632629395,-0.6225749850273132,-2.1575019359588623
1772541310957874000,0.4028740234375,9.572415351867676,-0.7358149886131287,-1.966583013534546
1772541310967784000,0.412783935546875,9.596118927001953,-0.849029004573822,-1.7982289791107178
1772541310977694000,0.42269384765625,9.611227035522461,-0.946308970451355,-1.6639859676361084
1772541310987604000,0.43260400390625,9.630703926086426,-1.0103600025177002,-1.5062320232391357
1772541310997514000,0.442513916015625,9.649277687072754,-1.047726035118103,-1.354148030281067
1772541311007424000,0.452424072265625,9.664233207702637,-1.0847899913787842,-1.2107160091400146
1772541311017334000,0.462333984375,9.680142402648926,-1.1171519756317139,-1.042510986328125
1772541311027244000,0.472244140625,9.691935539245605,-1.1603660583496094,-0.8717489838600159
1772541311037154000,0.482154052734375,9.695381164550781,-1.2232660055160522,-0.7370210289955139
1772541311047064000,0.49206396484375,9.692095756530762,-1.2985639572143555,-0.6457870006561279
1772541311056974000,0.50197412109375,9.693493843078613,-1.3538750410079956,-0.49315300583839417
1772541311066884000,0.511884033203125,9.695372581481934,-1.3861680030822754,-0.34393900632858276
1772541311076794000,0.521794189453125,9.697246551513672,-1.4022560119628906,-0.19255800545215607
1772541311086704400,0.531704345703125,9.694276809692383,-1.4338359832763672,-0.0716399997472763
1772541311096614400,0.541614501953125,9.685823440551758,-1.491562008857727,0.009587000124156475
1772541311106524400,0.5515244140625,9.673504829406738,-1.5673350095748901,0.08232399821281433
1772541311116434400,0.561434326171875,9.660749435424805,-1.640367031097412,0.13825799524784088
1772541311126344400,0.571344482421875,9.648405075073242,-1.7058509588241577,0.19587600231170654
1772541311136254500,0.58125439453125,9.633528709411621,-1.7828869819641113,0.23760099709033966
1772541311146164700,0.591164794921875,9.61818790435791,-1.86204195022583,0.2515389919281006
1772541311156074500,0.601074462890625,9.603387832641602,-1.9386500120162964,0.23785999417304993
1772541311165984500,0.610984619140625,9.589652061462402,-2.0075340270996094,0.21996699273586273
1772541311175894800,0.620894775390625,9.578012466430664,-2.062540054321289,0.21818800270557404
1772541311185804800,0.6308046875,9.566422462463379,-2.113861083984375,0.23493799567222595
1772541311195714800,0.64071484375,9.554081916809082,-2.163470983505249,0.2809320092201233
1772541311205624800,0.650624755859375,9.540081977844238,-2.2149391174316406,0.34769201278686523
1772541311215534800,0.660534912109375,9.524515151977539,-2.270076036453247,0.41274499893188477
1772541311225444900,0.67044482421875,9.502949714660645,-2.3454320430755615,0.4826110005378723
1772541311235355000,0.68035498046875,9.474331855773926,-2.4511139392852783,0.5187529921531677
1772541311245265000,0.690264892578125,9.447549819946289,-2.559267997741699,0.48370999097824097
1772541311255175200,0.700175048828125,9.418354988098145,-2.6672909259796143,0.4692290127277374
1772541311265085200,0.710085205078125,9.389273643493652,-2.766969919204712,0.4747990071773529
1772541311284905200,0.7299052734375,9.342745780944824,-2.893141984939575,0.6187210083007812
1772541311294815200,0.739815185546875,9.319769859313965,-2.9433250427246094,0.720221996307373
1772541311304725200,0.749725341796875,9.297332763671875,-2.990020990371704,0.812021017074585
1772541311314635500,0.759635498046875,9.277552604675293,-3.031728982925415,0.8807119727134705
1772541311324545500,0.769545654296875,9.26513385772705,-3.058274984359741,0.9188479781150818
1772541311334455300,0.779455322265625,9.265288352966309,-3.0395989418029785,0.9773769974708557
1772541311344365600,0.789365478515625,9.269530296325684,-3.0116701126098633,1.0225759744644165
1772541311354275600,0.799275634765625,9.274262428283691,-2.987149953842163,1.051192045211792
1772541311364185900,0.809185791015625,9.267129898071289,-3.003343105316162,1.0678269863128662
1772541311374096000,0.819095947265625,9.256852149963379,-3.031935930252075,1.0761359930038452
1772541311384005600,0.829005615234375,9.245606422424316,-3.0650060176849365,1.079118013381958
1772541311393916000,0.838916015625,9.234702110290527,-3.0872340202331543,1.1087260246276855
1772541311403826000,0.848825927734375,9.22692584991455,-3.086545944213867,1.1734850406646729
1772541311413736000,0.85873583984375,9.232109069824219,-3.0185608863830566,1.3024870157241821
1772541311423646200,0.868646240234375,9.248958587646484,-2.8955769538879395,1.4534059762954712
1772541311433556000,0.878555908203125,9.265059471130371,-2.8059511184692383,1.5248949527740479
1772541311443466000,0.888466064453125,9.278247833251953,-2.7311129570007324,1.5796010494232178
1772541311453376300,0.898376220703125,9.279480934143066,-2.702402114868164,1.6211919784545898
1772541311463286300,0.908286376953125,9.273490905761719,-2.6881799697875977,1.6781189441680908
1772541311473196300,0.9181962890625,9.259806632995605,-2.6859710216522217,1.755437970161438
1772541311483106300,0.928106201171875,9.238055229187012,-2.69187593460083,1.857996940612793
1772541311493016300,0.938016357421875,9.210801124572754,-2.7031660079956055,1.9733339548110962
1772541311502926600,0.947926513671875,9.18673324584961,-2.714521884918213,2.06768798828125
1772541311512836600,0.957836669921875,9.168525695800781,-2.6948370933532715,2.1716349124908447
1772541311522746600,0.96774658203125,9.162759780883789,-2.677588939666748,2.216839075088501
1772541311532656600,0.97765673828125,9.165621757507324,-2.666256904602051,2.218661069869995
1772541311542567000,0.98756689453125,9.165534019470215,-2.661004066467285,2.2253189086914062
1772541311552477000,0.997476806640625,9.155156135559082,-2.660797119140625,2.2678821086883545
1772541311562387000,1.007386962890625,9.143866539001465,-2.6610069274902344,2.312735080718994
1772541311572297000,1.017296875,9.13344669342041,-2.6646780967712402,2.349402904510498
1772541311582207000,1.02720703125,9.126901626586914,-2.668915033340454,2.3699259757995605
1772541311592117000,1.037116943359375,9.115399360656738,-2.677032947540283,2.404792070388794
1772541311602027300,1.04702734375,9.09851360321045,-2.676455020904541,2.468533992767334
1772541311611937300,1.056937255859375,9.079249382019043,-2.6825170516967773,2.5320630073547363
1772541311621847300,1.066847412109375,9.065377235412598,-2.7068068981170654,2.5558040142059326
1772541311631757300,1.07675732421875,9.056924819946289,-2.7497830390930176,2.5398430824279785
1772541311641667300,1.086667236328125,9.048453330993652,-2.8094279766082764,2.5045130252838135
1772541311651577600,1.09657763671875,9.039679527282715,-2.9009320735931396,2.430803060531616
1772541311661487400,1.1064873046875,9.029496192932129,-3.0090930461883545,2.3352859020233154
1772541311671397600,1.116397705078125,9.027846336364746,-3.096081018447876,2.2253639698028564
1772541311681307600,1.1263076171875,9.030102729797363,-3.181870937347412,2.091156005859375
1772541311691218000,1.136218017578125,9.040908813476562,-3.2571420669555664,1.921718955039978
1772541311701127700,1.146127685546875,9.0648832321167,-3.3194708824157715,1.687896966934204
1772541311711038000,1.156037841796875,9.10135555267334,-3.377758026123047,1.3401730060577393
1772541311720948000,1.165947998046875,9.139184951782227,-3.428770065307617,0.8711130023002625
1772541311730858000,1.17585791015625,9.158663749694824,-3.4697909355163574,0.3456369936466217
1772541311740768000,1.18576806640625,9.144192695617676,-3.5216610431671143,-0.14707300066947937
1772541311750678000,1.195677978515625,9.08437728881836,-3.6239049434661865,-0.6175919771194458
1772541311780408300,1.225408203125,8.618863105773926,-4.318649768829346,-1.7619580030441284
1772541311790318300,1.235318359375,8.354469299316406,-4.615403175354004,-2.2228190898895264
1772541311800228600,1.245228515625,8.058019638061523,-4.926405906677246,-2.6151180267333984
1772541311810138400,1.255138427734375,7.766711235046387,-5.221189975738525,-2.908155918121338
1772541311820048600,1.265048583984375,7.506435871124268,-5.484042167663574,-3.1014060974121094
1772541311829958700,1.274958740234375,7.280847072601318,-5.719600200653076,-3.2117650508880615
1772541311839869000,1.284868896484375,7.081149101257324,-5.934688091278076,-3.2675390243530273
1772541311849778700,1.29477880859375,6.872224807739258,-6.1493401527404785,-3.3163459300994873
1772541311859689000,1.30468896484375,6.621496200561523,-6.378468036651611,-3.3927741050720215
1772541311869599000,1.314598876953125,6.335278034210205,-6.611024856567383,-3.4926440715789795
1772541311879509200,1.32450927734375,6.028770923614502,-6.833946228027344,-3.6043179035186768
1772541311889419000,1.3344189453125,5.7361040115356445,-7.032955169677734,-3.6979269981384277
1772541311899329300,1.344329345703125,5.471879005432129,-7.204535961151123,-3.7673890590667725
1772541311909239300,1.3542392578125,5.220160007476807,-7.363544940948486,-3.8168179988861084
1772541311919149300,1.3641494140625,4.968245983123779,-7.51601505279541,-3.8556509017944336
1772541311929059300,1.374059326171875,4.697843074798584,-7.666825771331787,-3.897439956665039
1772541311938969600,1.383969482421875,4.406033039093018,-7.815361976623535,-3.942966938018799
1772541311948879600,1.393879638671875,4.104028224945068,-7.963983058929443,-3.9713869094848633
1772541311958790000,1.403789794921875,3.8197290897369385,-8.129229545593262,-3.919857978820801
1772541311968699600,1.41369970703125,3.5571110248565674,-8.311700820922852,-3.781877040863037
1772541311978609700,1.423609619140625,3.299341917037964,-8.479701042175293,-3.6399168968200684
1772541311988520000,1.43352001953125,3.0450499057769775,-8.618012428283691,-3.535183906555176
1772541311998430200,1.44343017578125,2.8037750720977783,-8.72329330444336,-3.4760611057281494
1772541312008340000,1.453340087890625,2.5741078853607178,-8.79666805267334,-3.4688079357147217
1772541312018250200,1.463250244140625,2.3427278995513916,-8.845389366149902,-3.5086660385131836
1772541312028160300,1.47316015625,2.1120829582214355,-8.867742538452148,-3.597532033920288
1772541312038070500,1.483070556640625,1.9022029638290405,-8.855877876281738,-3.740999937057495
1772541312047980300,1.492980224609375,1.697479009628296,-8.810041427612305,-3.9423060417175293
1772541312057890600,1.502890625,1.4695409536361694,-8.730637550354004,-4.201958179473877
1772541312067800600,1.512800537109375,1.2125259637832642,-8.619720458984375,-4.5022430419921875
1772541312077710600,1.522710693359375,0.9374070167541504,-8.481690406799316,-4.818943023681641
1772541312087620600,1.53262060546875,0.6912490129470825,-8.342930793762207,-5.094864845275879
1772541312097530600,1.542530517578125,0.4594059884548187,-8.255871772766113,-5.260180950164795
1772541312117351200,1.56235107421875,-0.097011998295784,-8.358949661254883,-5.1145429611206055
1772541312127261000,1.572260986328125,-0.26069700717926025,-8.391472816467285,-5.0552191734313965
1772541312137171200,1.582171142578125,-0.1310179978609085,-8.499817848205566,-4.876057147979736
1772541312147081200,1.592081298828125,-0.009921999648213387,-8.488983154296875,-4.896637916564941
1772541312156991200,1.6019912109375,0.11899299919605255,-8.464299201965332,-4.9377617835998535
1772541312166901200,1.6119013671875,0.21578200161457062,-8.437192916870117,-4.980682849884033
1772541312176811500,1.6218115234375,0.25896701216697693,-8.413301467895508,-5.01889705657959
1772541312186721500,1.631721435546875,0.20848099887371063,-8.373150825500488,-5.087913990020752
1772541312196631600,1.641631591796875,0.11712300032377243,-8.343031883239746,-5.14005184173584
1772541312206541800,1.651541748046875,0.025512000545859337,-8.325791358947754,-5.169196128845215
1772541312216451800,1.661451904296875,-0.06637399643659592,-8.320121765136719,-5.177949905395508
1772541312226362000,1.671362060546875,-0.18593700230121613,-8.311663627624512,-5.188611030578613
1772541312236271900,1.68127197265625,-0.3018780052661896,-8.28876781463623,-5.219695091247559
1772541312246182100,1.69118212890625,-0.3856160044670105,-8.250389099121094,-5.274694919586182
1772541312256092000,1.701091796875,-0.4240959882736206,-8.205842018127441,-5.34081506729126
1772541312266002200,1.711002197265625,-0.43827199935913086,-8.16796875,-5.397426128387451
1772541312275912200,1.720912109375,-0.46923598647117615,-8.13211727142334,-5.448713779449463
1772541312285822500,1.730822509765625,-0.5194370150566101,-8.089245796203613,-5.507658958435059
1772541312295732200,1.740732177734375,-0.5740429759025574,-8.053092002868652,-5.555016994476318
1772541312305642500,1.750642578125,-0.6455159783363342,-8.029378890991211,-5.5814337730407715
1772541312315552500,1.760552490234375,-0.7884969711303711,-8.022356986999512,-5.573155879974365
1772541312325462800,1.770462890625,-0.962448000907898,-8.044071197509766,-5.514220237731934
1772541312335372800,1.780372802734375,-1.0852630138397217,-8.061270713806152,-5.4660868644714355
1772541312345282800,1.79028271484375,-1.1796139478683472,-8.067598342895508,-5.437130928039551
1772541312355192800,1.80019287109375,-1.2463749647140503,-8.070408821105957,-5.418033123016357
1772541312365103000,1.81010302734375,-1.3009719848632812,-8.067666053771973,-5.409272193908691
1772541312375013000,1.82001318359375,-1.3570380210876465,-8.059951782226562,-5.4070000648498535
1772541312384923400,1.82992333984375,-1.3912689685821533,-8.060462951660156,-5.397528171539307
1772541312394833400,1.83983349609375,-1.4190319776535034,-8.060699462890625,-5.389944076538086
1772541312404743400,1.849743408203125,-1.4540430307388306,-8.052238464355469,-5.393255233764648
1772541312414653400,1.8596533203125,-1.4603949785232544,-8.029595375061035,-5.425207138061523
1772541312424563700,1.869563720703125,-1.4021309614181519,-7.974701881408691,-5.520701885223389
1772541312434473700,1.8794736328125,-1.3587130308151245,-7.932683944702148,-5.591640949249268
1772541312444384000,1.889384033203125,-1.3321239948272705,-7.8905839920043945,-5.657221794128418
1772541312454293800,1.899293701171875,-1.290897011756897,-7.839385032653809,-5.7373881340026855
1772541312464204000,1.9092041015625,-1.285931944847107,-7.79867696762085,-5.793705940246582
1772541312474114000,1.919114013671875,-1.2619060277938843,-7.69091796875,-5.941158771514893
1772541312484024300,1.9290244140625,-1.2196660041809082,-7.576803207397461,-6.094625949859619
1772541312493934300,1.938934326171875,-1.2232539653778076,-7.4560418128967285,-6.241081237792969
1772541312503844400,1.94884423828125,-1.197985053062439,-7.35020112991333,-6.370194911956787
1772541312513754400,1.95875439453125,-1.1128239631652832,-7.259300231933594,-6.488771915435791
1772541312523664600,1.96866455078125,-0.9812510013580322,-7.161642074584961,-6.61725378036499
1772541312533574700,1.97857470703125,-0.805092990398407,-7.097315788269043,-6.709689140319824
1772541312543485000,1.98848486328125,-0.6328520178794861,-7.074318885803223,-6.752298831939697
1772541312553395000,1.99839501953125,-0.46857398748397827,-7.090203762054443,-6.749032974243164
1772541312563305000,2.008304931640625,-0.29956600069999695,-7.1427998542785645,-6.703036785125732
1772541312573215000,2.018215087890625,-0.12498600035905838,-7.214944839477539,-6.630910873413086
1772541312583125200,2.028125244140625,0.09241099655628204,-7.292295932769775,-6.546288013458252
1772541312593035300,2.03803515625,0.359919011592865,-7.358424186706543,-6.462510108947754
1772541312602945500,2.047945556640625,0.6423659920692444,-7.4183759689331055,-6.371427059173584
1772541312612855300,2.057855224609375,0.8964530229568481,-7.463604927062988,-6.2873687744140625
1772541312622765600,2.067765625,1.1485209465026855,-7.475205898284912,-6.232350826263428
1772541312632675800,2.07767578125,1.3960050344467163,-7.4725751876831055,-6.184802055358887
1772541312642585900,2.0875859375,1.6483110189437866,-7.4406418800354,-6.161160945892334
1772541312652496100,2.09749609375,1.9124319553375244,-7.38367223739624,-6.153374195098877
1772541312662406000,2.107406005859375,2.098180055618286,-7.322153091430664,-6.166339874267578
1772541312672316200,2.117316162109375,2.195017099380493,-7.293294906616211,-6.166827201843262
1772541312682226200,2.12722607421875,2.2809898853302,-7.214268207550049,-6.228278160095215
1772541312692136400,2.137136474609375,2.3394811153411865,-7.1105170249938965,-6.325139999389648
1772541312702046500,2.14704638671875,2.378434896469116,-6.989412784576416,-6.444469928741455
1772541312711956500,2.15695654296875,2.4081389904022217,-6.846205234527588,-6.5856170654296875
1772541312721866800,2.16686669921875,2.4295549392700195,-6.679616928100586,-6.746850967407227
1772541312731776800,2.17677685546875,2.4543919563293457,-6.482763767242432,-6.927460193634033
1772541312741686800,2.186686767578125,2.4772379398345947,-6.2445759773254395,-7.135024070739746
1772541312751597000,2.19659716796875,2.490051031112671,-5.961472034454346,-7.368887901306152
1772541312761507000,2.206507080078125,2.5015869140625,-5.649785995483398,-7.60670804977417
1772541312771417000,2.2164169921875,2.539159059524536,-5.321227073669434,-7.827974796295166
1772541312781327400,2.226327392578125,2.6020889282226562,-5.025108814239502,-8.001089096069336
1772541312791237400,2.2362373046875,2.6904520988464355,-4.778803825378418,-8.12185287475586
1772541312811057700,2.2560576171875,2.8503448963165283,-4.4394001960754395,-8.258769035339355
1772541312820967700,2.2659677734375,2.941556930541992,-4.324306011199951,-8.287798881530762
1772541312830877700,2.275877685546875,3.0736989974975586,-4.24562406539917,-8.280522346496582
1772541312840788000,2.2857880859375,3.2297890186309814,-4.204629898071289,-8.241938591003418
1772541312850698000,2.295697998046875,3.4127020835876465,-4.200054168701172,-8.170252799987793
1772541312860608300,2.305608154296875,3.642997980117798,-4.2272868156433105,-8.0559663772583
1772541312870518300,2.315518310546875,3.909372091293335,-4.277149200439453,-7.903339862823486
1772541312880428300,2.32542822265625,4.165843963623047,-4.362277984619141,-7.7237467765808105
1772541312890338600,2.335338623046875,4.396155834197998,-4.47352409362793,-7.530034065246582
1772541312900248600,2.34524853515625,4.590460777282715,-4.5922322273254395,-7.340235233306885
1772541312910158600,2.35515869140625,4.744496822357178,-4.690176963806152,-7.178579807281494
1772541312920068900,2.36506884765625,4.863890171051025,-4.7589640617370605,-7.0522918701171875
1772541312929979000,2.374978759765625,4.927830219268799,-4.805683135986328,-6.975807189941406
1772541312939889000,2.384888916015625,4.959884166717529,-4.843265056610107,-6.926928997039795
1772541312949799200,2.394799072265625,4.981987953186035,-4.882689952850342,-6.8832502365112305
1772541312959709200,2.404709228515625,5.010908126831055,-4.937510013580322,-6.822886943817139
1772541312969619700,2.41461962890625,5.043415069580078,-5.0138630867004395,-6.7427849769592285
1772541312979529500,2.424529541015625,5.0496320724487305,-5.123773097991943,-6.654932975769043
1772541312989439500,2.434439453125,4.990849018096924,-5.278367042541504,-6.5780158042907715
1772541312999349800,2.444349853515625,4.912080764770508,-5.4694318771362305,-6.480490207672119
1772541313009259800,2.454259765625,4.853414058685303,-5.6591949462890625,-6.360652923583984
1772541313019170000,2.464170166015625,4.799695014953613,-5.836511135101318,-6.240039825439453
1772541313029080300,2.474080322265625,4.77893590927124,-5.989074230194092,-6.110054016113281
1772541313038990300,2.483990234375,4.803394794464111,-6.104547023773193,-5.9751081466674805
1772541313048900400,2.493900390625,4.862621784210205,-6.154313087463379,-5.8753180503845215
1772541313058810400,2.503810302734375,4.921498775482178,-6.185585021972656,-5.792873859405518
1772541313068720600,2.513720703125,4.870638847351074,-6.231060028076172,-5.787121772766113
1772541313078630700,2.523630615234375,4.7410569190979,-6.257487773895264,-5.8656840324401855
1772541313088541000,2.533541015625,4.574131011962891,-6.272467136383057,-5.981093883514404
1772541313098451000,2.543450927734375,4.424192905426025,-6.292367935180664,-6.072286128997803
1772541313108361200,2.553361328125,4.295359134674072,-6.340467929840088,-6.114601135253906
1772541313118271200,2.563271240234375,4.255500793457031,-6.476284027099609,-5.999039173126221
1772541313128181500,2.573181396484375,4.24211311340332,-6.626366138458252,-5.842580795288086
1772541313138091500,2.583091552734375,4.232030868530273,-6.764386177062988,-5.689726829528809
1772541313148001800,2.593001708984375,4.234344959259033,-6.854720115661621,-5.578808784484863
1772541313157911800,2.602911865234375,4.250348091125488,-6.930952072143555,-5.471419811248779
1772541313167821800,2.61282177734375,4.213809013366699,-7.032769203186035,-5.368797779083252
1772541313177732000,2.622732177734375,4.1340861320495605,-7.1491827964782715,-5.276223182678223
1772541313187642000,2.63264208984375,4.007415771484375,-7.277795791625977,-5.197527885437012
1772541313197552400,2.642552490234375,3.8505799770355225,-7.40457820892334,-5.136659145355225
1772541313207462700,2.652462646484375,3.67203688621521,-7.526339054107666,-5.0902252197265625
1772541313217372700,2.66237255859375,3.5471351146698,-7.616794109344482,-5.044033050537109
1772541313227283000,2.672282958984375,3.397368907928467,-7.710371017456055,-5.004802227020264
1772541313237193000,2.68219287109375,3.2246639728546143,-7.7972588539123535,-4.984407901763916
1772541313247103000,2.69210302734375,3.02502703666687,-7.874537944793701,-4.988071918487549
1772541313257013200,2.70201318359375,2.8062829971313477,-7.946142196655273,-5.002358913421631
1772541313276833500,2.72183349609375,2.3552188873291016,-8.080953598022461,-5.019079208374023
1772541313286743600,2.73174365234375,2.1312360763549805,-8.14399242401123,-5.0172929763793945
1772541313296653800,2.74165380859375,1.9086940288543701,-8.209144592285156,-5.000682830810547
1772541313306564000,2.751564208984375,1.7013520002365112,-8.280698776245117,-4.957357883453369
1772541313316474000,2.76147412109375,1.5248210430145264,-8.363743782043457,-4.874703884124756
1772541313326384000,2.771384033203125,1.386144995689392,-8.464418411254883,-4.740488052368164
1772541313336294100,2.781294189453125,1.2843010425567627,-8.57913589477539,-4.559496879577637
1772541313346204400,2.791204345703125,1.2197010517120361,-8.693280220031738,-4.3565168380737305
1772541313356114400,2.801114501953125,1.193640947341919,-8.790419578552246,-4.164580821990967
1772541313366025000,2.81102490234375,1.1898449659347534,-8.870444297790527,-3.9924309253692627
1772541313375934700,2.820934814453125,1.1936910152435303,-8.935975074768066,-3.8423240184783936
1772541313385845000,2.830844970703125,1.1968929767608643,-8.990260124206543,-3.712501049041748
1772541313395755300,2.84075537109375,1.186622977256775,-9.015375137329102,-3.654439926147461
1772541313405665300,2.850665283203125,1.1589850187301636,-9.041192054748535,-3.599108934402466
1772541313415575300,2.8605751953125,1.142894983291626,-9.082008361816406,-3.5001308917999268
1772541313425485600,2.870485595703125,1.112360954284668,-9.137171745300293,-3.3637449741363525
1772541313435395600,2.8803955078125,1.0876940488815308,-9.19962215423584,-3.1974809169769287
1772541313445305900,2.890305908203125,1.0603129863739014,-9.267317771911621,-3.0054240226745605
1772541313455215900,2.9002158203125,1.0162299871444702,-9.341527938842773,-2.7826530933380127
1772541313465126100,2.910126220703125,0.9398260116577148,-9.418049812316895,-2.541076898574829
1772541313475036400,2.920036376953125,0.8288589715957642,-9.492532730102539,-2.2901558876037598
1772541313484946400,2.929946533203125,0.6760979890823364,-9.561205863952637,-2.0411360263824463
1772541313494856700,2.939856689453125,0.46069300174713135,-9.619495391845703,-1.814682960510254
1772541313504766700,2.9497666015625,0.17427800595760345,-9.664053916931152,-1.6173139810562134
1772541313514677000,2.959677001953125,-0.17251800000667572,-9.693069458007812,-1.4334039688110352
1772541313524587000,2.9695869140625,-0.573324978351593,-9.701443672180176,-1.2622560262680054
1772541313534497300,2.979497314453125,-1.0204700231552124,-9.683805465698242,-1.1056900024414062
1772541313544407300,2.9894072265625,-1.5017249584197998,-9.6363525390625,-0.9620580077171326
1772541313554317600,2.999317626953125,-1.9747430086135864,-9.563987731933594,-0.8188549876213074
1772541313564227600,3.0092275390625,-2.31644606590271,-9.501090049743652,-0.6351500153541565
1772541313574137900,3.019137939453125,-2.534092903137207,-9.461953163146973,-0.2996770143508911
1772541313584048000,3.029048095703125,-2.6660380363464355,-9.427326202392578,0.24029900133609772
1772541313593958400,3.03895849609375,-2.623120069503784,-9.434544563293457,0.3855159878730774
1772541313603868400,3.048868408203125,-2.4911389350891113,-9.47362232208252,0.29106101393699646
1772541313613778700,3.05877880859375,-2.372170925140381,-9.502824783325195,0.33037900924682617
1772541313623688700,3.068688720703125,-2.2659010887145996,-9.522329330444336,0.48055899143218994
1772541313633599000,3.078598876953125,-2.1391730308532715,-9.541135787963867,0.6562719941139221
1772541313643509200,3.08850927734375,-1.9562640190124512,-9.57020378112793,0.790099024772644
1772541313653419300,3.098419189453125,-1.7111760377883911,-9.608989715576172,0.8827149868011475
1772541313663329300,3.108329345703125,-1.4070669412612915,-9.64966869354248,0.9716429710388184
1772541313673239600,3.118239501953125,-1.0452810525894165,-9.683838844299316,1.0819669961929321
1772541313683149800,3.12814990234375,-0.6195700168609619,-9.704925537109375,1.2126679420471191
1772541313693059800,3.138059814453125,-0.12600700557231903,-9.705246925354004,1.3536230325698853
1772541313702970000,3.14797021484375,0.43841201066970825,-9.677727699279785,1.4796630144119263
1772541313712880400,3.15788037109375,1.0787229537963867,-9.618180274963379,1.5384939908981323
1772541313722790400,3.167790283203125,1.7444310188293457,-9.528950691223145,1.4819090366363525
1772541313732700700,3.17770068359375,2.323992967605591,-9.429644584655762,1.3118259906768799
1772541313742610700,3.187610595703125,2.760021924972534,-9.34769344329834,1.0212370157241821
1772541313752521000,3.19752099609375,3.0054309368133545,-9.3070650100708,0.6212599873542786
1772541313762431000,3.207430908203125,3.0420849323272705,-9.314128875732422,0.18087300658226013
1772541313772341500,3.217341552734375,2.905517101287842,-9.356644630432129,-0.2261500060558319
1772541313782251300,3.227251220703125,2.667941093444824,-9.412282943725586,-0.5753350257873535
1772541313792161800,3.237161865234375,2.4305970668792725,-9.453387260437012,-0.8750309944152832
1772541313802071800,3.24707177734375,2.2757480144500732,-9.464786529541016,-1.130831003189087
1772541313811982000,3.256982177734375,2.2497379779815674,-9.443750381469727,-1.3395010232925415
1772541313821892400,3.266892333984375,2.3562190532684326,-9.390238761901855,-1.5204180479049683
1772541313831802400,3.27680224609375,2.56860089302063,-9.301162719726562,-1.7119139432907104
1772541313841712600,3.286712646484375,2.87050199508667,-9.162814140319824,-1.96036696434021
1772541313851622700,3.29662255859375,3.2101480960845947,-8.98457145690918,-2.2388460636138916
1772541313861533000,3.306532958984375,3.5497679710388184,-8.798995018005371,-2.452924966812134
1772541313871443200,3.316443115234375,3.892638921737671,-8.622239112854004,-2.5581979751586914
1772541313881353500,3.326353515625,4.260930061340332,-8.44057559967041,-2.577047109603882
1772541313891263700,3.336263671875,4.656317234039307,-8.23413372039795,-2.560810089111328
1772541313901173800,3.346173828125,5.060685157775879,-7.998487949371338,-2.5404040813446045
1772541313911084000,3.356083984375,5.448339939117432,-7.744692802429199,-2.5249369144439697
1772541313920994000,3.365994140625,5.794181823730469,-7.495485782623291,-2.5070180892944336
1772541313930904300,3.375904296875,6.0827131271362305,-7.27351713180542,-2.477202892303467
1772541313940814600,3.385814697265625,6.31438684463501,-7.084722995758057,-2.444425106048584
1772541313950724600,3.395724609375,6.50300407409668,-6.9210100173950195,-2.4188029766082764
1772541313960635100,3.40563525390625,6.663650989532471,-6.771474838256836,-2.40476393699646
1772541313970545200,3.415545166015625,6.80722188949585,-6.63186502456665,-2.391676902770996
1772541313980455400,3.425455322265625,6.936069011688232,-6.503900051116943,-2.3728110790252686
1772541313990365400,3.435365478515625,7.041830062866211,-6.397540092468262,-2.3503448963165283
1772541314000275700,3.445275634765625,7.197361946105957,-6.284221172332764,-2.1786580085754395
1772541314010185700,3.455185791015625,7.318925857543945,-6.198538780212402,-2.012821912765503
1772541314020096000,3.465095947265625,7.413009166717529,-6.127100944519043,-1.8830749988555908
1772541314030006300,3.47500634765625,7.470061779022217,-6.065185070037842,-1.8578790426254272
1772541314039916300,3.484916259765625,7.502810001373291,-6.028816223144531,-1.844243049621582
1772541314049826800,3.494826904296875,7.5106120109558105,-6.01954984664917,-1.8427560329437256
1772541314059736800,3.50473681640625,7.492457866668701,-6.042612075805664,-1.8411790132522583
1772541314069647000,3.514647216796875,7.425673961639404,-6.146284103393555,-1.7670780420303345
1772541314079557400,3.524557373046875,7.350759029388428,-6.253114223480225,-1.7043750286102295
1772541314089467400,3.53446728515625,7.269813060760498,-6.356598854064941,-1.6683650016784668
1772541314099377700,3.544377685546875,7.16713285446167,-6.468260765075684,-1.6833850145339966
1772541314109288000,3.554287841796875,7.0067667961120605,-6.618234157562256,-1.7731859683990479
1772541314119198200,3.5641982421875,6.774702072143555,-6.818632125854492,-1.9104059934616089
1772541314129108200,3.574108154296875,6.4929938316345215,-7.047677993774414,-2.0521349906921387
1772541314139018500,3.5840185546875,6.239184856414795,-7.2528181076049805,-2.1234889030456543
1772541314148928500,3.593928466796875,6.314873218536377,-7.227038860321045,-1.983001947402954
1772541314158838800,3.6038388671875,6.515203952789307,-7.102848052978516,-1.7724720239639282
1772541314168749300,3.613749267578125,6.399270057678223,-7.229090213775635,-1.682142972946167
1772541314178659300,3.623659423828125,6.044696807861328,-7.524269104003906,-1.6991280317306519
1772541314188569600,3.633569580078125,5.605018138885498,-7.865480899810791,-1.6607259511947632
1772541314198479600,3.643479736328125,5.396599769592285,-8.028910636901855,-1.5662989616394043
1772541314208390000,3.653389892578125,5.288970947265625,-8.112252235412598,-1.5027209520339966
1772541314218300400,3.663300537109375,5.2976789474487305,-8.098023414611816,-1.5480949878692627
1772541314228210400,3.67321044921875,5.331549167633057,-8.069628715515137,-1.5797710418701172
1772541314238120700,3.68312060546875,5.187739849090576,-8.147318840026855,-1.6578710079193115
1772541314248030700,3.69303076171875,4.958651065826416,-8.282990455627441,-1.6863670349121094
1772541314257941000,3.70294091796875,4.710535049438477,-8.429862976074219,-1.669819951057434
1772541314267851300,3.712851318359375,4.471479892730713,-8.566183090209961,-1.6329009532928467
1772541314277761500,3.722761474609375,4.264150142669678,-8.679165840148926,-1.5903140306472778
1772541314287671600,3.732671630859375,4.100510120391846,-8.767049789428711,-1.537755012512207
1772541314297581800,3.742581787109375,3.9668009281158447,-8.836310386657715,-1.4913489818572998
1772541314307492400,3.752492431640625,3.8389670848846436,-8.898442268371582,-1.4560389518737793
1772541314317402400,3.76240234375,3.6937389373779297,-8.964678764343262,-1.4250719547271729
1772541314327312600,3.772312744140625,3.5170280933380127,-9.041070938110352,-1.3890899419784546
1772541314337223000,3.782222900390625,3.3082499504089355,-9.125840187072754,-1.347046971321106
1772541314347133000,3.7921328125,3.0749518871307373,-9.214139938354492,-1.2978119850158691
1772541314357043200,3.802043212890625,2.8229000568389893,-9.302077293395996,-1.24201500415802
1772541314366953500,3.811953369140625,2.554157018661499,-9.387676239013672,-1.1780749559402466
1772541314376863700,3.82186376953125,2.2685909271240234,-9.469736099243164,-1.1034599542617798
1772541314386774000,3.83177392578125,1.9687410593032837,-9.546422958374023,-1.0148179531097412
1772541314396684300,3.841684326171875,1.6631250381469727,-9.61470890045166,-0.9118160009384155
1772541314406594600,3.851594482421875,1.3590940237045288,-9.672286033630371,-0.7998520135879517
1772541314416504600,3.861504638671875,1.0644170045852661,-9.71809196472168,-0.6824349761009216
1772541314426414800,3.871414794921875,0.7949180006980896,-9.751104354858398,-0.5692949891090393
1772541314436324900,3.881324951171875,0.569034993648529,-9.771787643432617,-0.4778819978237152
1772541314446235400,3.8912353515625,0.4005959928035736,-9.782754898071289,-0.42101800441741943
1772541314456145400,3.9011455078125,0.2593989968299866,-9.78581714630127,-0.45881199836730957
1772541314466055700,3.9110556640625,0.14067700505256653,-9.784058570861816,-0.5407480001449585
1772541314475966000,3.920966064453125,0.0506180003285408,-9.77720832824707,-0.6660500168800354
1772541314485876200,3.930876220703125,-0.004521999973803759,-9.772244453430176,-0.7370439767837524
1772541314495786500,3.940786376953125,-0.05245999991893768,-9.766122817993164,-0.8124610185623169
1772541314505696800,3.95069677734375,-0.09838400036096573,-9.75964069366455,-0.8830339908599854
1772541314515606800,3.960606689453125,-0.1402679979801178,-9.753990173339844,-0.9380829930305481
1772541314525517300,3.970517333984375,-0.1783369928598404,-9.749768257141113,-0.9747999906539917
1772541314535427300,3.98042724609375,-0.2186100035905838,-9.747329711914062,-0.9908519983291626
1772541314545337600,3.990337646484375,-0.276091992855072,-9.746904373168945,-0.9806270003318787
1772541314555247900,4.000247802734375,-0.35947299003601074,-9.748424530029297,-0.9375669956207275
1772541314565158000,4.010157958984375,-0.41750699281692505,-9.750804901123047,-0.8874199986457825
1772541314575068400,4.020068359375,-0.4376069903373718,-9.757264137268066,-0.8027030229568481
1772541314584978400,4.029978515625,-0.4309679865837097,-9.765596389770508,-0.6981419920921326
1772541314594888700,4.039888671875,-0.4795069992542267,-9.770723342895508,-0.5856959819793701
1772541314604799000,4.049799072265625,-0.5196400284767151,-9.774624824523926,-0.4761449992656708
1772541314614709200,4.059709228515625,-0.5617460012435913,-9.77646255493164,-0.3811039924621582
1772541314624619300,4.069619384765625,-0.5944569706916809,-9.775373458862305,-0.35874998569488525
1772541314634529500,4.079529541015625,-0.6548709869384766,-9.770601272583008,-0.3827899992465973
1772541314644440000,4.089440185546875,-0.7172970175743103,-9.763031005859375,-0.4569050073623657
1772541314654350000,4.09935009765625,-0.7511450052261353,-9.754219055175781,-0.5753120183944702
1772541314664260400,4.10926025390625,-0.7459790110588074,-9.744730949401855,-0.7237039804458618
1772541314674170600,4.119170654296875,-0.7099379897117615,-9.734240531921387,-0.8834890127182007
1772541314684081000,4.129080810546875,-0.6633049845695496,-9.723271369934082,-1.028601050376892
1772541314693991000,4.138990966796875,-0.6458529829978943,-9.718437194824219,-1.0839159488677979
1772541314703901200,4.148901123046875,-0.6348599791526794,-9.71420669555664,-1.1274460554122925
1772541314713811700,4.158811767578125,-0.5949010252952576,-9.70730209350586,-1.2059869766235352
1772541314723721700,4.1687216796875,-0.5387780070304871,-9.698135375976562,-1.3022739887237549
1772541314733632000,4.178632080078125,-0.47266700863838196,-9.685312271118164,-1.4182180166244507
1772541314743542300,4.188542236328125,-0.4024139940738678,-9.666159629821777,-1.5631389617919922
1772541314753452500,4.19845263671875,-0.3284589946269989,-9.642224311828613,-1.7203689813613892
1772541314763362800,4.20836279296875,-0.2689329981803894,-9.62298583984375,-1.8346199989318848
1772541314773272800,4.21827294921875,-0.19607999920845032,-9.601811408996582,-1.9510979652404785
1772541314783183400,4.228183349609375,-0.0773020014166832,-9.579305648803711,-2.0666189193725586
1772541314793093400,4.23809326171875,0.10104600340127945,-9.552925109863281,-2.1843628883361816
1772541314803003600,4.248003662109375,0.32227200269699097,-9.517414093017578,-2.314081907272339
1772541314812914200,4.2579140625,0.5658789873123169,-9.471291542053223,-2.4524309635162354
1772541314822824200,4.26782421875,0.8425419926643372,-9.416096687316895,-2.5821030139923096
1772541314832734500,4.277734375,1.168634057044983,-9.34887409210205,-2.696829080581665
1772541314842645000,4.28764501953125,1.515468955039978,-9.263155937194824,-2.8173210620880127
1772541314852555000,4.297554931640625,1.8458640575408936,-9.158930778503418,-2.957490921020508
1772541314862465300,4.30746533203125,2.139777898788452,-9.04267692565918,-3.113090991973877
1772541314872375300,4.317375244140625,2.389043092727661,-8.924859046936035,-3.267932891845703
1772541314882285800,4.327285888671875,2.5838429927825928,-8.816829681396484,-3.409883975982666
1772541314892195800,4.33719580078125,2.716953992843628,-8.730826377868652,-3.525739908218384
1772541314902106000,4.347106201171875,2.7912158966064453,-8.673300743103027,-3.608736991882324
1772541314912016600,4.3570166015625,2.8236589431762695,-8.63727855682373,-3.6693809032440186
1772541314921926700,4.3669267578125,2.8361690044403076,-8.60705852508545,-3.730233907699585
1772541314931837000,4.3768369140625,2.8436410427093506,-8.565933227539062,-3.818181037902832
1772541314941747200,4.386747314453125,2.8529489040374756,-8.496726989746094,-3.9631190299987793
1772541314951657500,4.396657470703125,2.869699001312256,-8.387198448181152,-4.178483963012695
1772541314961567700,4.406567626953125,2.9206368923187256,-8.228039741516113,-4.45075798034668
1772541314971478000,4.41647802734375,3.02409291267395,-8.021392822265625,-4.748907089233398
1772541314981388300,4.42638818359375,3.187309980392456,-7.7905988693237305,-5.018729209899902
1772541314991298800,4.436298828125,3.412682056427002,-7.5574798583984375,-5.222845077514648
1772541315001209000,4.446208984375,3.684741973876953,-7.331189155578613,-5.358764171600342
1772541315011118800,4.456118896484375,3.9788119792938232,-7.113124847412109,-5.441736221313477
1772541315021029400,4.466029296875,4.260809898376465,-6.902832984924316,-5.498764991760254
1772541315030939400,4.475939453125,4.516178131103516,-6.697944164276123,-5.548121929168701
1772541315040850000,4.485849853515625,4.737442970275879,-6.500281810760498,-5.598476886749268
1772541315050760000,4.495760009765625,4.92747688293457,-6.319220066070557,-5.641576766967773
1772541315060670200,4.505670166015625,5.09431791305542,-6.152801990509033,-5.6772308349609375
1772541315070580500,4.51558056640625,5.236709117889404,-5.998112201690674,-5.713100910186768
1772541315080490800,4.52549072265625,5.355555057525635,-5.850522994995117,-5.75581693649292
1772541315090401000,4.535401123046875,5.452095985412598,-5.709311008453369,-5.806756973266602
1772541315100311300,4.545311279296875,5.526247978210449,-5.57700777053833,-5.8649420738220215
1772541315110221600,4.5552216796875,5.581101894378662,-5.457891941070557,-5.92475700378418
1772541315120131800,4.5651318359375,5.622302055358887,-5.397242069244385,-5.94133996963501
1772541315130042000,4.5750419921875,5.6627302169799805,-5.340065002441406,-5.95459508895874
1772541315139952400,4.584952392578125,5.698888778686523,-5.280768871307373,-5.972949981689453
1772541315149862700,4.594862548828125,5.769318103790283,-5.201356887817383,-5.975019931793213
1772541315159773000,4.60477294921875,5.8163909912109375,-5.142001152038574,-5.980755805969238
1772541315169683200,4.61468310546875,5.8674798011779785,-5.115004062652588,-5.953942775726318
1772541315179593200,4.62459326171875,5.8421759605407715,-5.1289801597595215,-5.9667887687683105
1772541315189503500,4.63450341796875,5.794145107269287,-5.152766227722168,-5.993072032928467
1772541315199413800,4.644413818359375,5.720148086547852,-5.187267780303955,-6.034246921539307
1772541315209324000,4.654323974609375,5.612633228302002,-5.231907844543457,-6.096351146697998
1772541315219234300,4.664234375,5.47939920425415,-5.294632911682129,-6.1630377769470215
1772541315229144300,4.674144287109375,5.348564147949219,-5.3747239112854,-6.208479881286621
1772541315239054800,4.684054931640625,5.20162296295166,-5.4858832359313965,-6.236042022705078
1772541315248965000,4.693965087890625,5.0476460456848145,-5.646154880523682,-6.219502925872803
1772541315258875400,4.70387548828125,4.900277137756348,-5.856044769287109,-6.142800807952881
1772541315268785700,4.71378564453125,4.779462814331055,-6.08007287979126,-6.019087791442871
1772541315278695700,4.72369580078125,4.716180801391602,-6.2742018699646,-5.867880821228027
1772541315288606000,4.73360595703125,4.640010833740234,-6.454217910766602,-5.731784820556641
1772541315298516200,4.74351611328125,4.385863780975342,-6.667284965515137,-5.687839984893799
1772541315308426500,4.753426513671875,3.954495906829834,-6.917758941650391,-5.704959869384766
1772541315318336800,4.763336669921875,3.499224901199341,-7.159119129180908,-5.7045979499816895
1772541315328247000,4.7732470703125,3.177267074584961,-7.381482124328613,-5.608804225921631
1772541315338157300,4.7831572265625,2.9834630489349365,-7.5945940017700195,-5.427807807922363
1772541315348067300,4.7930673828125,2.881671905517578,-7.732615947723389,-5.286077976226807
1772541315357977900,4.802977783203125,2.8700270652770996,-7.793964862823486,-5.2016401290893555
1772541315367888100,4.81288818359375,2.8675150871276855,-7.8764801025390625,-5.077245235443115
1772541315377798100,4.822798095703125,2.7629129886627197,-7.943638801574707,-5.030402183532715
1772541315387708700,4.832708740234375,2.6231019496917725,-8.056563377380371,-4.924544811248779
1772541315397618700,4.84261865234375,2.459878921508789,-8.204479217529297,-4.7618818283081055
1772541315407529000,4.852529052734375,2.275420904159546,-8.363672256469727,-4.572904109954834
1772541315417439500,4.862439453125,2.076287031173706,-8.5225191116333,-4.369863986968994
1772541315427349500,4.872349609375,1.8805789947509766,-8.669883728027344,-4.163719177246094
1772541315437259800,4.882259765625,1.7066190242767334,-8.800924301147461,-3.9586870670318604
1772541315447170000,4.892170166015625,1.5693559646606445,-8.913429260253906,-3.7587130069732666
1772541315457080300,4.902080322265625,1.4680689573287964,-9.000199317932129,-3.5890378952026367
1772541315466990600,4.911990478515625,1.3814369440078735,-9.0684232711792,-3.448965072631836
1772541315476900600,4.921900634765625,1.290802001953125,-9.129098892211914,-3.321650981903076
1772541315486811100,4.93181103515625,1.1948120594024658,-9.188671112060547,-3.1907310485839844
1772541315496721400,4.941721435546875,1.0985640287399292,-9.247976303100586,-3.0509190559387207
1772541315506631700,4.951631591796875,1.0024429559707642,-9.304642677307129,-2.9083950519561768
1772541315516542000,4.9615419921875,0.9016050100326538,-9.354969024658203,-2.7769899368286133
1772541315526452000,4.971451904296875,0.7902809977531433,-9.39652156829834,-2.668494939804077
1772541315536362200,4.9813623046875,0.6626570224761963,-9.429000854492188,-2.5874431133270264
1772541315546272300,4.991272216796875,0.5190520286560059,-9.453266143798828,-2.5310781002044678
1772541315556182800,5.001182861328125,0.3688650131225586,-9.469322204589844,-2.497169017791748
1772541315566093000,5.011093017578125,0.22082500159740448,-9.477434158325195,-2.4838409423828125
1772541315576003300,5.02100341796875,0.07927700132131577,-9.479592323303223,-2.4841580390930176
1772541315585913600,5.03091357421875,-0.05305600166320801,-9.479384422302246,-2.4856479167938232
1772541315595823600,5.04082373046875,-0.15191200375556946,-9.465867042541504,-2.5326480865478516
1772541315605734000,5.05073388671875,-0.23969300091266632,-9.458592414855957,-2.552953004837036
1772541315615644200,5.06064404296875,-0.32291799783706665,-9.45285415649414,-2.5650110244750977
1772541315625554400,5.070554443359375,-0.3979960083961487,-9.451510429382324,-2.559401035308838
1772541315635464700,5.080464599609375,-0.4532720148563385,-9.4557523727417,-2.5344278812408447
1772541315645375000,5.090375,-0.49500301480293274,-9.46762752532959,-2.4817309379577637
1772541315655285200,5.10028515625,-0.5354539752006531,-9.48445987701416,-2.4079670906066895
1772541315665195300,5.1101953125,-0.5651670098304749,-9.502378463745117,-2.3292579650878906
1772541315675105500,5.12010546875,-0.6309919953346252,-9.509777069091797,-2.2816660404205322
1772541315685015800,5.130015869140625,-0.6159049868583679,-9.520904541015625,-2.238982915878296
1772541315694926000,5.139926025390625,-0.5958690047264099,-9.525737762451172,-2.2237958908081055
1772541315704836400,5.14983642578125,-0.5853469967842102,-9.521056175231934,-2.246526002883911
1772541315714746600,5.15974658203125,-0.5797669887542725,-9.505913734436035,-2.3111629486083984
1772541315724657000,5.169656982421875,-0.5964959859848022,-9.479125022888184,-2.414621114730835
1772541315734567200,5.179567138671875,-0.650272011756897,-9.457727432250977,-2.4836599826812744
1772541315744477200,5.189477294921875,-0.7258949875831604,-9.428692817687988,-2.571542978286743
1772541315754387700,5.1993876953125,-0.7910850048065186,-9.401822090148926,-2.6495180130004883
1772541315764297700,5.209297607421875,-0.8114889860153198,-9.382217407226562,-2.712096929550171
1772541315774208000,5.2192080078125,-0.7768170237541199,-9.367364883422852,-2.772913932800293
1772541315784118300,5.2291181640625,-0.7217419743537903,-9.353388786315918,-2.834294080734253
1772541315794028500,5.239028564453125,-0.7334629893302917,-9.338035583496094,-2.8815200328826904
1772541315803938800,5.248938720703125,-0.8202490210533142,-9.318024635314941,-2.9226009845733643
1772541315813848800,5.258848876953125,-0.7923349738121033,-9.27719497680664,-3.0571000576019287
1772541315823759400,5.26875927734375,-0.7421020269393921,-9.236262321472168,-3.190732002258301
1772541315833669400,5.27866943359375,-0.6047459840774536,-9.193726539611816,-3.3391170501708984
1772541315843579600,5.28857958984375,-0.40636199712753296,-9.158255577087402,-3.464279890060425
1772541315853490200,5.298490234375,-0.16957299411296844,-9.135014533996582,-3.5443990230560303
1772541315863400400,5.308400390625,0.07882899791002274,-9.125102043151855,-3.5729990005493164
1772541315873310500,5.318310546875,0.3125019967556,-9.124846458435059,-3.560837984085083
1772541315883220700,5.328220703125,0.5285149812698364,-9.12583065032959,-3.5326900482177734
1772541315893131000,5.338131103515625,0.7331339716911316,-9.123945236206055,-3.5008790493011475
1772541315903041000,5.348041015625,0.9238250255584717,-9.117451667785645,-3.472553014755249
1772541315912951300,5.357951416015625,1.0957759618759155,-9.10150146484375,-3.464380979537964
1772541315922861800,5.36786181640625,1.2361149787902832,-9.073579788208008,-3.4902920722961426
1772541315932771800,5.377771728515625,1.3275489807128906,-9.028568267822266,-3.572472095489502
1772541315942682000,5.38768212890625,1.3325179815292358,-8.965021133422852,-3.7273030281066895
1772541315952592400,5.39759228515625,1.2186199426651,-8.898106575012207,-3.921562910079956
1772541315962502700,5.407502685546875,1.0129189491271973,-8.833700180053711,-4.120646953582764
1772541315972413000,5.417412841796875,0.8094630241394043,-8.760652542114258,-4.316914081573486
1772541315982323200,5.4273232421875,0.693461000919342,-8.674970626831055,-4.50599479675293
1772541315992233200,5.437233154296875,0.701104998588562,-8.579254150390625,-4.68453311920166
1772541316002143700,5.447143798828125,0.8267719745635986,-8.473081588745117,-4.854209899902344
1772541316012053800,5.4570537109375,1.0406420230865479,-8.35167407989502,-5.020617961883545
1772541316021964000,5.466964111328125,1.3098479509353638,-8.203736305236816,-5.198367118835449
1772541316031874000,5.4768740234375,1.5960520505905151,-8.01026439666748,-5.415558815002441
1772541316041784600,5.48678466796875,1.8685710430145264,-7.771125793457031,-5.670805931091309
1772541316051694800,5.49669482421875,2.1542699337005615,-7.540937900543213,-5.8765082359313965
1772541316061604900,5.50660498046875,2.4916560649871826,-7.354263782501221,-5.97883415222168
1772541316071515400,5.516515380859375,2.840536117553711,-7.2072038650512695,-6.002299785614014
1772541316081425400,5.52642529296875,3.1337270736694336,-7.078582763671875,-6.009444236755371
1772541316091335700,5.536335693359375,3.36982798576355,-6.955543041229248,-6.025337219238281
1772541316101246000,5.546245849609375,3.5718019008636475,-6.8290557861328125,-6.053612232208252
1772541316111156000,5.556156005859375,3.765465021133423,-6.700226783752441,-6.0801520347595215
1772541316121066500,5.56606640625,3.9625039100646973,-6.571927070617676,-6.09494686126709
1772541316130976500,5.5759765625,4.156705856323242,-6.44665002822876,-6.099384784698486
1772541316140886800,5.58588671875,4.328909873962402,-6.330558776855469,-6.101192951202393
1772541316150797000,5.595797119140625,4.44708776473999,-6.228419780731201,-6.121291160583496
1772541316160707300,5.605707275390625,4.416245937347412,-6.214354991912842,-6.157805919647217
1772541316170617600,5.61561767578125,4.303114891052246,-6.2408552169799805,-6.210873126983643
1772541316180527600,5.625527587890625,4.146800994873047,-6.323180198669434,-6.2338948249816895
1772541316190438000,5.63543798828125,3.9930078983306885,-6.444839954376221,-6.2096638679504395
1772541316200348200,5.64534814453125,3.8234269618988037,-6.573836803436279,-6.181107044219971
1772541316210258400,5.655258544921875,3.715075969696045,-6.672550201416016,-6.141276836395264
1772541316220168700,5.665168701171875,3.588958978652954,-6.784761905670166,-6.093143939971924
1772541316230079000,5.675078857421875,3.4637370109558105,-6.912775993347168,-6.021297931671143
1772541316239989200,5.6849892578125,3.3586959838867188,-7.0577192306518555,-5.9116621017456055
1772541316249899300,5.694899169921875,3.2880699634552,-7.209289073944092,-5.766692161560059
1772541316259809500,5.7048095703125,3.216365098953247,-7.367156982421875,-5.605352878570557
1772541316269719800,5.7147197265625,3.096550941467285,-7.535874843597412,-5.446279048919678
1772541316279630000,5.724630126953125,2.8727340698242188,-7.728894233703613,-5.2963762283325195
1772541316289540400,5.734540283203125,2.5599849224090576,-7.953926086425781,-5.120696067810059
1772541316299450400,5.744450439453125,2.2044599056243896,-8.187811851501465,-4.913255214691162
1772541316309360600,5.754360595703125,1.853795051574707,-8.418030738830566,-4.662639141082764
1772541316319270700,5.764270751953125,1.5356099605560303,-8.649255752563477,-4.34422492980957
1772541316329181200,5.77418115234375,1.29190194606781,-8.842761993408203,-4.02200984954834
1772541316339091500,5.784091552734375,1.1874630451202393,-8.942359924316406,-3.8293778896331787
1772541316349001500,5.79400146484375,1.2298359870910645,-8.940247535705566,-3.8209280967712402
1772541316358911700,5.803911865234375,1.293192982673645,-8.951969146728516,-3.7722530364990234
1772541316368822000,5.813822021484375,1.3443650007247925,-9.023232460021973,-3.579659938812256
1772541316378732300,5.823732177734375,1.324079990386963,-9.128721237182617,-3.3095719814300537
1772541316388642600,5.833642578125,1.2344900369644165,-9.199377059936523,-3.1444389820098877
1772541316398552600,5.843552490234375,1.1182730197906494,-9.283594131469727,-2.9333178997039795
1772541316408462800,5.853462890625,1.0286589860916138,-9.359452247619629,-2.7170801162719727
1772541316418373000,5.863373046875,1.0023740530014038,-9.411543846130371,-2.5412800312042236
1772541316428283400,5.873283447265625,0.9945420026779175,-9.456611633300781,-2.371367931365967
1772541316438193700,5.883193603515625,0.9527119994163513,-9.498661041259766,-2.2153520584106445
1772541316448104000,5.89310400390625,0.8816919922828674,-9.5365571975708,-2.0776679515838623
1772541316458014000,5.903013916015625,0.7842419743537903,-9.567447662353516,-1.9720319509506226
1772541316467924200,5.91292431640625,0.6703959703445435,-9.591680526733398,-1.8947900533676147
1772541316477834500,5.92283447265625,0.5449020266532898,-9.60849380493164,-1.849310040473938
1772541316487744500,5.93274462890625,0.4059149920940399,-9.618803024291992,-1.8313560485839844
1772541316497655000,5.942655029296875,0.26688501238822937,-9.622666358947754,-1.836596965789795
1772541316507565000,5.95256494140625,0.14787200093269348,-9.622419357299805,-1.8512660264968872
1772541316517475300,5.962475341796875,0.04924499988555908,-9.620282173156738,-1.8675589561462402
1772541316527385600,5.972385498046875,-0.03441699966788292,-9.616035461425781,-1.8896290063858032
1772541316537295600,5.982295654296875,-0.11510699987411499,-9.609963417053223,-1.9171329736709595
1772541316547206100,5.9922060546875,-0.19727399945259094,-9.603986740112305,-1.9402400255203247
1772541316557116200,6.0021162109375,-0.27740898728370667,-9.598955154418945,-1.9552799463272095
1772541316567026400,6.0120263671875,-0.3466159999370575,-9.598069190979004,-1.9485670328140259
1772541316576936700,6.021936767578125,-0.4056119918823242,-9.600316047668457,-1.9259949922561646
1772541316586846700,6.0318466796875,-0.4620009958744049,-9.60703182220459,-1.8792250156402588
1772541316596757000,6.041757080078125,-0.5200420022010803,-9.617461204528809,-1.8094240427017212
1772541316606667300,6.051667236328125,-0.5799930095672607,-9.629851341247559,-1.7232500314712524
1772541316616577500,6.06157763671875,-0.6323720216751099,-9.64318561553955,-1.6276030540466309
1772541316626487600,6.071487548828125,-0.6633700132369995,-9.654800415039062,-1.5442670583724976
1772541316636397800,6.081397705078125,-0.6571530103683472,-9.664316177368164,-1.4863289594650269
1772541316646308000,6.09130810546875,-0.6699079871177673,-9.66949462890625,-1.4464149475097656
1772541316656218400,6.10121826171875,-0.7218220233917236,-9.666629791259766,-1.440567970275879
1772541316666128600,6.111128662109375,-0.7852429747581482,-9.65796947479248,-1.4652769565582275
1772541316676038700,6.12103857421875,-0.8542439937591553,-9.647930145263672,-1.492550015449524
1772541316685949000,6.130948974609375,-0.9021810293197632,-9.639331817626953,-1.5196620225906372
1772541316695859200,6.140859130859375,-0.9115859866142273,-9.627584457397461,-1.5870230197906494
1772541316705769500,6.15076953125,-0.830623984336853,-9.604900360107422,-1.7595319747924805
1772541316715679500,6.160679443359375,-0.7671409845352173,-9.586735725402832,-1.8830759525299072
1772541316725589800,6.17058984375,-0.6720240116119385,-9.566823959350586,-2.016000986099243
1772541316735500000,6.1805,-0.5599920153617859,-9.545042991638184,-2.1490890979766846
1772541316745410000,6.19041015625,-0.44593098759651184,-9.521121978759766,-2.2780210971832275
1772541316755320300,6.2003203125,-0.35395100712776184,-9.49818229675293,-2.387315034866333
1772541316765230600,6.210230712890625,-0.3114689886569977,-9.474154472351074,-2.4866480827331543
1772541316775140900,6.220140869140625,-0.29435300827026367,-9.443376541137695,-2.603074073791504
1772541316785051100,6.230051025390625,-0.25560298562049866,-9.406657218933105,-2.7366950511932373
1772541316794961200,6.239961181640625,-0.21244299411773682,-9.374277114868164,-2.8491780757904053
1772541316804871400,6.249871337890625,-0.1304139941930771,-9.346527099609375,-2.943711042404175
1772541316814781400,6.259781494140625,-0.014441999606788158,-9.328034400939941,-3.004594087600708
1772541316824691700,6.269691650390625,0.12703000009059906,-9.317885398864746,-3.0332961082458496
1772541316834602000,6.27960205078125,0.28618499636650085,-9.312673568725586,-3.038455009460449
1772541316844512300,6.28951220703125,0.4604710042476654,-9.309784889221191,-3.0258638858795166
1772541316854422500,6.299422607421875,0.6527230143547058,-9.307511329650879,-2.997365951538086
1772541316864332500,6.30933251953125,0.8631600141525269,-9.302504539489746,-2.9594531059265137
1772541316874242800,6.319242919921875,1.0927590131759644,-9.287650108337402,-2.9300920963287354
1772541316884152800,6.32915283203125,1.337088942527771,-9.253941535949707,-2.9354310035705566
1772541316894063400,6.3390634765625,1.5739550590515137,-9.197132110595703,-2.995906114578247
1772541316903973400,6.348973388671875,1.7722469568252563,-9.11388874053955,-3.1362669467926025
1772541316913883600,6.358883544921875,1.8800599575042725,-9.00683307647705,-3.373764991760254
1772541316923794000,6.3687939453125,1.848147988319397,-8.894174575805664,-3.6766839027404785
1772541316933704000,6.378703857421875,1.6662089824676514,-8.801918983459473,-3.973659038543701
1772541316943614200,6.3886142578125,1.4210209846496582,-8.734041213989258,-4.211556911468506
1772541316953524200,6.398524169921875,1.2404940128326416,-8.67133903503418,-4.394207000732422
1772541316963434500,6.4084345703125,1.2081329822540283,-8.595224380493164,-4.550004005432129
1772541316973344800,6.4183447265625,1.3221379518508911,-8.504776000976562,-4.686229228973389
1772541316983255000,6.428255126953125,1.5574899911880493,-8.399876594543457,-4.801694869995117
1772541316993165000,6.4381650390625,1.8872020244598389,-8.273386001586914,-4.901994228363037
1772541317003075300,6.448075439453125,2.2756268978118896,-8.101569175720215,-5.022556781768799
1772541317012985600,6.457985595703125,2.6821091175079346,-7.86224889755249,-5.199164867401123
1772541317022895600,6.4678955078125,3.080125093460083,-7.586167812347412,-5.38543176651001
1772541317032806000,6.477805908203125,3.459523916244507,-7.329999923706055,-5.508426189422607
1772541317042716000,6.4877158203125,3.809854030609131,-7.134585857391357,-5.533777236938477
1772541317052626400,6.49762646484375,4.108630180358887,-6.991474151611328,-5.502584934234619
1772541317062536400,6.507536376953125,4.354188919067383,-6.868181228637695,-5.4689249992370605
1772541317072446700,6.51744677734375,4.567135810852051,-6.739813804626465,-5.454920768737793
1772541317082357000,6.52735693359375,4.770008087158203,-6.586978912353516,-5.467973232269287
1772541317092267000,6.53726708984375,4.977193832397461,-6.413441181182861,-5.489562034606934
1772541317102177500,6.547177490234375,5.18208122253418,-6.235904216766357,-5.504500865936279
1772541317112087300,6.55708740234375,5.36936092376709,-6.072591781616211,-5.507595062255859
1772541317121997800,6.566997802734375,5.521273136138916,-5.937313079833984,-5.504895210266113
1772541317131907800,6.576907958984375,5.6268181800842285,-5.828445911407471,-5.514355182647705
1772541317141818000,6.586818115234375,5.661929130554199,-5.832179069519043,-5.474326133728027
1772541317151728400,6.596728271484375,5.661619186401367,-5.871345043182373,-5.432622909545898
1772541317161638400,6.606638427734375,5.616015911102295,-6.074782848358154,-5.253321170806885
1772541317171548700,6.616548583984375,5.543309211730957,-6.297534942626953,-5.064854145050049
1772541317181458700,6.626458740234375,5.4608941078186035,-6.431546211242676,-4.9853620529174805
1772541317191369000,6.636368896484375,5.34745979309082,-6.563147068023682,-4.936576843261719
1772541317201279000,6.646279052734375,5.201951026916504,-6.690180778503418,-4.921500205993652
1772541317211189500,6.656189453125,4.98374080657959,-6.84497594833374,-4.93443489074707
1772541317221099300,6.666099365234375,4.701609134674072,-7.030670166015625,-4.9502081871032715
1772541317231009800,6.676009765625,4.385995864868164,-7.236917018890381,-4.9426798820495605
1772541317240919800,6.685919921875,4.076147079467773,-7.43129301071167,-4.919439792633057
1772541317250830000,6.695830078125,3.8072640895843506,-7.5820631980896,-4.9047980308532715
1772541317260740400,6.705740234375,3.5748870372772217,-7.7180609703063965,-4.8674139976501465
1772541317270650400,6.715650390625,3.3748629093170166,-7.8842010498046875,-4.742331027984619
1772541317280560600,6.725560546875,3.1764509677886963,-8.088977813720703,-4.52974796295166
1772541317290470700,6.735470703125,2.9411098957061768,-8.320337295532227,-4.261672019958496
1772541317300381200,6.745381103515625,2.6642019748687744,-8.568878173828125,-3.939084053039551
1772541317310291200,6.755291259765625,2.4164199829101562,-8.774484634399414,-3.6344659328460693
1772541317320201500,6.765201416015625,2.2820940017700195,-8.888168334960938,-3.439840078353882
1772541317330111500,6.775111572265625,2.3119559288024902,-8.906827926635742,-3.370948076248169
1772541317340021800,6.785021728515625,2.4027950763702393,-8.947657585144043,-3.1946868896484375
1772541317349932000,6.79493212890625,2.424647092819214,-9.019545555114746,-2.967978000640869
1772541317359842000,6.804842041015625,2.4121360778808594,-9.1089448928833,-2.692348003387451
1772541317369752300,6.81475244140625,2.316448926925659,-9.18380355834961,-2.516310930252075
1772541317379662600,6.82466259765625,2.1790049076080322,-9.27521800994873,-2.2939629554748535
1772541317389572600,6.834572509765625,2.0275349617004395,-9.363798141479492,-2.061160087585449
1772541317399483000,6.84448291015625,1.9024109840393066,-9.432916641235352,-1.8549699783325195
1772541317409393000,6.854392822265625,1.8358789682388306,-9.473451614379883,-1.7097580432891846
1772541317419303200,6.86430322265625,1.767915964126587,-9.50416088104248,-1.6079269647598267
1772541317429213200,6.874213134765625,1.702201008796692,-9.526970863342285,-1.5425139665603638
1772541317439123700,6.884123779296875,1.64375901222229,-9.546430587768555,-1.4845010042190552
1772541317449033700,6.89403369140625,1.5795209407806396,-9.56761646270752,-1.41628098487854
1772541317458944000,6.903944091796875,1.4876999855041504,-9.593049049377441,-1.3417019844055176
1772541317468854300,6.913854248046875,1.3704999685287476,-9.618377685546875,-1.2839570045471191
1772541317478764300,6.923764404296875,1.2433340549468994,-9.640533447265625,-1.2466880083084106
1772541317488674300,6.93367431640625,1.1091580390930176,-9.657573699951172,-1.241379976272583
1772541317498584600,6.94358447265625,0.9781010150909424,-9.668741226196289,-1.2644200325012207
1772541317508494800,6.953494873046875,0.8733829855918884,-9.672752380371094,-1.3096100091934204
1772541317518404900,6.96340478515625,0.7724779844284058,-9.673249244689941,-1.3680449724197388
1772541317528315100,6.973315185546875,0.6617289781570435,-9.672372817993164,-1.4308459758758545
1772541317538225400,6.983225341796875,0.5242319703102112,-9.673702239990234,-1.4780750274658203
1772541317548135400,6.993135498046875,0.3763140141963959,-9.67635726928711,-1.505491018295288
1772541317558045700,7.003045654296875,0.24430599808692932,-9.67833423614502,-1.5199320316314697
1772541317567955700,7.012955810546875,0.14240799844264984,-9.6809663772583,-1.5161230564117432
1772541317577866000,7.022865966796875,0.08263400197029114,-9.686059951782227,-1.487753987312317
1772541317587776000,7.03277587890625,0.03844200074672699,-9.690497398376465,-1.4603960514068604
1772541317597686300,7.042686279296875,0.0017600000137463212,-9.697619438171387,-1.4128659963607788
1772541317607596300,7.05259619140625,-0.03531000018119812,-9.707449913024902,-1.3432060480117798
1772541317617506600,7.062506591796875,-0.07517299801111221,-9.716267585754395,-1.276129961013794
1772541317627416800,7.072416748046875,-0.11206799745559692,-9.724725723266602,-1.2071349620819092
1772541317637327000,7.0823271484375,-0.1415500044822693,-9.731993675231934,-1.1438169479370117
1772541317647236900,7.09223681640625,-0.17225800454616547,-9.737266540527344,-1.0936130285263062
1772541317657147400,7.1021474609375,-0.20616599917411804,-9.738264083862305,-1.0787650346755981
1772541317667057400,7.112057373046875,-0.239656001329422,-9.733896255493164,-1.110780954360962
1772541317676967700,7.1219677734375,-0.252579003572464,-9.726431846618652,-1.1716500520706177
1772541317686877700,7.131877685546875,-0.24599799513816833,-9.714716911315918,-1.2663969993591309
1772541317696788000,7.1417880859375,-0.21037699282169342,-9.697037696838379,-1.4011460542678833
1772541317706698000,7.151697998046875,-0.1492380052804947,-9.672971725463867,-1.565667986869812
1772541317716608300,7.161608154296875,-0.06930399686098099,-9.643972396850586,-1.740409016609192
1772541317726518500,7.1715185546875,0.00752299977466464,-9.614348411560059,-1.8984960317611694
1772541317736428500,7.181428466796875,0.051660001277923584,-9.588282585144043,-2.0253829956054688
1772541317746338800,7.1913388671875,0.07664100080728531,-9.564654350280762,-2.1334290504455566
1772541317756248800,7.201248779296875,0.10510700196027756,-9.538883209228516,-2.244704008102417
1772541317766159000,7.2111591796875,0.15184900164604187,-9.512939453125,-2.349666118621826
1772541317776069000,7.221069091796875,0.1979289948940277,-9.485196113586426,-2.455997943878174
1772541317785979400,7.2309794921875,0.2678149938583374,-9.459956169128418,-2.5450949668884277
1772541317795889400,7.240889404296875,0.35834699869155884,-9.440166473388672,-2.6066980361938477
1772541317805799700,7.250799560546875,0.46970701217651367,-9.427204132080078,-2.635761022567749
1772541317815709700,7.260709716796875,0.6558030247688293,-9.438921928405762,-2.5527760982513428
1772541317825620000,7.270619873046875,0.8251270055770874,-9.433209419250488,-2.524631977081299
1772541317835530200,7.2805302734375,1.0314630270004272,-9.427396774291992,-2.4698801040649414
1772541317845440300,7.290440185546875,1.2696139812469482,-9.417262077331543,-2.396505117416382
1772541317855350500,7.3003505859375,1.52183997631073,-9.397087097167969,-2.327828884124756
1772541317865260500,7.310260498046875,1.7690340280532837,-9.362936973571777,-2.2903950214385986
1772541317875170800,7.3201708984375,1.9959080219268799,-9.317850112915039,-2.287795066833496
1772541317885080800,7.330080810546875,2.2031519412994385,-9.25775146484375,-2.3409860134124756
1772541317894991000,7.3399912109375,2.3811540603637695,-9.177659034729004,-2.478040933609009
1772541317904901000,7.349901123046875,2.504404067993164,-9.083565711975098,-2.693842887878418
1772541317914811400,7.359811279296875,2.5568630695343018,-8.991134643554688,-2.9431169033050537
1772541317924721400,7.369721435546875,2.541404962539673,-8.91662883758545,-3.1741139888763428
1772541317934631700,7.379631591796875,2.480928897857666,-8.866355895996094,-3.3574891090393066
1772541317944542000,7.3895419921875,2.4447319507598877,-8.822811126708984,-3.495896100997925
1772541317954452000,7.399451904296875,2.4789700508117676,-8.7647123336792,-3.6158719062805176
1772541317964362200,7.4093623046875,2.5940120220184326,-8.680460929870605,-3.736401081085205
1772541317974272300,7.419272216796875,2.8046059608459473,-8.55993938446045,-3.860265016555786
1772541317984182500,7.4291826171875,3.107822895050049,-8.400455474853516,-3.9766581058502197
1772541317994092500,7.439092529296875,3.459507942199707,-8.207243919372559,-4.0881500244140625
1772541318004002800,7.4490029296875,3.811208963394165,-7.984123229980469,-4.215267181396484
1772541318013913000,7.4589130859375,4.128949165344238,-7.749009132385254,-4.352540016174316
1772541318023823000,7.468822998046875,4.401681900024414,-7.54300594329834,-4.446148872375488
1772541318033733000,7.478733154296875,4.6400041580200195,-7.382124900817871,-4.473764896392822
1772541318043643400,7.488643310546875,4.846621990203857,-7.24799919128418,-4.4740118980407715
1772541318053553700,7.4985537109375,5.027006149291992,-7.1211700439453125,-4.478632926940918
1772541318063463700,7.508463623046875,5.203607082366943,-6.9795050621032715,-4.499887943267822
1772541318073374000,7.5183740234375,5.3953399658203125,-6.817392826080322,-4.522548198699951
1772541318083284000,7.528283935546875,5.603824138641357,-6.641604900360107,-4.530590057373047
1772541318093194200,7.5381943359375,5.807890892028809,-6.466261863708496,-4.527234077453613
1772541318103104300,7.548104248046875,5.98168420791626,-6.309010982513428,-4.52281379699707
1772541318113014500,7.5580146484375,6.111793041229248,-6.181149959564209,-4.525415897369385
1772541318122924500,7.567924560546875,6.241730213165283,-6.122434139251709,-4.426806926727295
1772541318132834800,7.577834716796875,6.357049942016602,-6.024937152862549,-4.396368980407715
1772541318142745000,7.5877451171875,6.4051690101623535,-5.943566799163818,-4.437096118927002
1772541318152655000,7.597655029296875,6.408973217010498,-5.911118984222412,-4.474788188934326
1772541318162565000,7.607565185546875,6.471065044403076,-5.929853916168213,-4.359148025512695
1772541318172475400,7.617475341796875,6.469936847686768,-5.96323299407959,-4.315064907073975
1772541318182385400,7.627385498046875,6.45693302154541,-5.996159076690674,-4.288837909698486
1772541318192295700,7.637295654296875,6.4158549308776855,-6.02048397064209,-4.316314220428467
1772541318202206000,7.6472060546875,6.291872978210449,-6.134819030761719,-4.337780952453613
1772541318212116200,7.6571162109375,6.107402801513672,-6.274919033050537,-4.400569915771484
1772541318222026200,7.667026123046875,5.87686014175415,-6.445793151855469,-4.467022895812988
1772541318231936500,7.6769365234375,5.622121810913086,-6.637805938720703,-4.513453960418701
1772541318241846500,7.686846435546875,5.3930511474609375,-6.8056840896606445,-4.542870998382568
1772541318251756500,7.696756591796875,5.225608825683594,-6.920095920562744,-4.565663814544678
1772541318261666800,7.706666748046875,5.0268940925598145,-7.086872100830078,-4.532835960388184
1772541318271576800,7.716576904296875,4.783589839935303,-7.339468955993652,-4.3919758796691895
1772541318281487000,7.726487060546875,4.506606101989746,-7.62375020980835,-4.196300983428955
1772541318291396900,7.73639697265625,4.220810890197754,-7.897298812866211,-3.98213791847229
1772541318301307400,7.746307373046875,3.9261980056762695,-8.163385391235352,-3.739531993865967
1772541318311217400,7.756217529296875,3.690709114074707,-8.371891021728516,-3.5114259719848633
1772541318321127700,7.766127685546875,3.548882007598877,-8.489184379577637,-3.373302936553955
1772541318331037700,7.77603759765625,3.499351978302002,-8.509048461914062,-3.375005006790161
1772541318340948000,7.785947998046875,3.526729106903076,-8.524435997009277,-3.3069911003112793
1772541318350858200,7.795858154296875,3.549412965774536,-8.583948135375977,-3.1237010955810547
1772541318360768300,7.805768310546875,3.564387083053589,-8.662010192871094,-2.8817989826202393
1772541318370678500,7.815678466796875,3.4848790168762207,-8.736043930053711,-2.7526609897613525
1772541318380588300,7.82558837890625,3.361877918243408,-8.8355131149292,-2.582927942276001
1772541318390498600,7.83549853515625,3.209475040435791,-8.94556713104248,-2.3908379077911377
1772541318400408600,7.84540869140625,3.0493390560150146,-9.050905227661133,-2.196052074432373
1772541318410318800,7.85531884765625,2.9042229652404785,-9.139009475708008,-2.0208919048309326
1772541318420228900,7.865228759765625,2.787015914916992,-9.205081939697266,-1.8812270164489746
1772541318430139100,7.87513916015625,2.6954619884490967,-9.25391960144043,-1.771854043006897
1772541318440049200,7.885049072265625,2.5777390003204346,-9.307833671569824,-1.6611729860305786
1772541318449959400,7.89495947265625,2.4503018856048584,-9.359129905700684,-1.562917947769165
1772541318459869400,7.904869384765625,2.302151918411255,-9.409710884094238,-1.482377052307129
1772541318469779700,7.91477978515625,2.1761209964752197,-9.450647354125977,-1.4105900526046753
1772541318479689700,7.924689697265625,2.0238709449768066,-9.492901802062988,-1.3523249626159668
1772541318489600000,7.93460009765625,1.8514790534973145,-9.534040451049805,-1.3092360496520996
1772541318499510000,7.944510009765625,1.6741650104522705,-9.570651054382324,-1.2805559635162354
1772541318509420300,7.954420166015625,1.5038880109786987,-9.600691795349121,-1.266901969909668
1772541318519330300,7.964330322265625,1.3438630104064941,-9.624919891357422,-1.2629040479660034
1772541318529240300,7.974240234375,1.1950939893722534,-9.645089149475098,-1.2585699558258057
1772541318539150600,7.984150634765625,1.061418056488037,-9.655293464660645,-1.2995129823684692
1772541318549060600,7.994060546875,0.9454020261764526,-9.664111137390137,-1.3233309984207153
1772541318558971000,8.003970947265625,0.8372460007667542,-9.6720552444458,-1.338055968284607
1772541318568881000,8.013880859375,0.7280939817428589,-9.678606986999512,-1.3544210195541382
1772541318578791200,8.023791259765625,0.6352199912071228,-9.682205200195312,-1.3752779960632324
1772541318588701200,8.033701171875,0.559939980506897,-9.687280654907227,-1.3722569942474365
1772541318598611500,8.043611572265625,0.49004799127578735,-9.696951866149902,-1.3300479650497437
1772541318608521500,8.053521484375,0.4226340055465698,-9.711240768432617,-1.2462749481201172
1772541318618431700,8.063431640625,0.372640997171402,-9.725484848022461,-1.147223949432373
1772541318628341800,8.073341796875,0.33556699752807617,-9.738170623779297,-1.046623945236206
1772541318638252000,8.083251953125,0.29480400681495667,-9.74909496307373,-0.9530190229415894
1772541318648162000,8.093162109375,0.24824999272823334,-9.758193016052246,-0.8695240020751953
1772541318658072000,8.103072021484374,0.19680599868297577,-9.763168334960938,-0.8257309794425964
1772541318667982000,8.112982177734375,0.14628300070762634,-9.763310432434082,-0.8345010280609131
1772541318677892400,8.122892333984375,0.10324099659919739,-9.759749412536621,-0.8812639713287354
1772541318687802400,8.13280224609375,0.06506700068712234,-9.75463581085205,-0.93961501121521
1772541318697712600,8.142712646484375,0.04619299992918968,-9.746969223022461,-1.0170940160751343
1772541318707622700,8.15262255859375,0.04754599928855896,-9.736333847045898,-1.114259958267212
1772541318717533000,8.162532958984375,0.07351499795913696,-9.723011016845703,-1.2237939834594727
1772541318727443000,8.17244287109375,0.12459400296211243,-9.707340240478516,-1.3386720418930054
1772541318737353200,8.182353271484375,0.1929589956998825,-9.689240455627441,-1.4565019607543945
1772541318747263200,8.19226318359375,0.26914799213409424,-9.669032096862793,-1.5739729404449463
1772541318757173500,8.202173583984376,0.34259700775146484,-9.647115707397461,-1.6899139881134033
1772541318767083500,8.21208349609375,0.4107460081577301,-9.623080253601074,-1.8076529502868652
1772541318776993500,8.22199365234375,0.47801199555397034,-9.59573745727539,-1.9321789741516113
1772541318786903800,8.23190380859375,0.5498380064964294,-9.567681312561035,-2.048701047897339
1772541318796813800,8.241813720703124,0.6373040080070496,-9.543366432189941,-2.1349499225616455
1772541318806724000,8.25172412109375,0.7463030219078064,-9.524359703063965,-2.1839380264282227
1772541318816634400,8.26163427734375,0.8772299885749817,-9.511024475097656,-2.193382978439331
1772541318826544400,8.27154443359375,1.0311449766159058,-9.502842903137207,-2.1616530418395996
1772541318836454400,8.281454345703125,1.1796610355377197,-9.481066703796387,-2.181238889694214
1772541318846364700,8.29136474609375,1.3500250577926636,-9.456953048706055,-2.1871209144592285
1772541318856274700,8.301274658203125,1.5484620332717896,-9.428047180175781,-2.1804161071777344
1772541318866184700,8.311184814453124,1.777745008468628,-9.390275955200195,-2.168487071990967
1772541318876095000,8.321094970703125,2.0261740684509277,-9.339394569396973,-2.170330047607422
1772541318886005000,8.3310048828125,2.2777740955352783,-9.274237632751465,-2.200058937072754
1772541318895915000,8.3409150390625,2.5248019695281982,-9.186877250671387,-2.294919013977051
1772541318905825300,8.3508251953125,2.730195999145508,-9.077075958251953,-2.4885239601135254
1772541318915735300,8.3607353515625,2.8364150524139404,-8.961194038391113,-2.7733991146087646
1772541318925645600,8.3706455078125,2.807076930999756,-8.867263793945312,-3.0873899459838867
1772541318935555300,8.380555419921874,2.6559059619903564,-8.812416076660156,-3.3656299114227295
1772541318945465900,8.3904658203125,2.4551138877868652,-8.787858009338379,-3.5757439136505127
1772541318955375600,8.400375732421875,2.290726900100708,-8.763900756835938,-3.7398669719696045
1772541318965286000,8.410285888671876,2.244296073913574,-8.709600448608398,-3.891787052154541
1772541318975196000,8.42019580078125,2.3364059925079346,-8.61759090423584,-4.0395989418029785
1772541318985106200,8.430106201171874,2.532802104949951,-8.492225646972656,-4.184136867523193
1772541318995016200,8.44001611328125,2.795088052749634,-8.338261604309082,-4.324447154998779
1772541319004926500,8.449926513671874,3.09749698638916,-8.154020309448242,-4.467376232147217
1772541319014836500,8.45983642578125,3.4158968925476074,-7.929657936096191,-4.6359639167785645
1772541319024746800,8.469746826171875,3.720089912414551,-7.66879415512085,-4.8363728523254395
1772541319034656800,8.47965673828125,3.994417905807495,-7.416439056396484,-5.00809907913208
1772541319044566800,8.48956689453125,4.246304035186768,-7.214774131774902,-5.094695091247559
1772541319054476800,8.499476806640626,4.482691764831543,-7.056443214416504,-5.113911151885986
1772541319064387000,8.509386962890625,4.691274166107178,-6.917667865753174,-5.116427898406982
1772541319074297000,8.519297119140624,4.867465972900391,-6.7813591957092285,-5.134291172027588
1772541319084207400,8.529207275390625,5.029604911804199,-6.630267143249512,-5.175198078155518
1772541319094117400,8.539117431640625,5.19913911819458,-6.463951110839844,-5.217881202697754
1772541319104027600,8.549027587890626,5.387829780578613,-6.28685188293457,-5.242783069610596
1772541319113937400,8.5589375,5.58661413192749,-6.103168964385986,-5.25177001953125
1772541319123847700,8.56884765625,5.773838996887207,-5.9200358390808105,-5.258893013000488
1772541319133757700,8.5787578125,5.9390549659729,-5.7459940910339355,-5.26793909072876
1772541319143668000,8.58866796875,6.081384181976318,-5.590047836303711,-5.273342132568359
1772541319153578000,8.598577880859375,6.203975200653076,-5.457592964172363,-5.269285202026367
1772541319163488300,8.60848828125,6.310433864593506,-5.348581790924072,-5.254627227783203
1772541319173398300,8.618398193359376,6.4740071296691895,-5.278532028198242,-5.124872207641602
1772541319183308300,8.628308349609375,6.596220016479492,-5.210770130157471,-5.037637233734131
1772541319193218600,8.638218505859374,6.739070892333984,-5.045543193817139,-5.0167131423950195
1772541319203128600,8.648128662109375,6.896483898162842,-4.7482218742370605,-5.092434883117676
1772541319213038800,8.658038818359374,6.909930229187012,-4.676984786987305,-5.13991117477417
1772541319222948900,8.667948974609375,6.894812107086182,-4.653071880340576,-5.1817450523376465
1772541319232859000,8.67785888671875,6.891429901123047,-4.6558637619018555,-5.183736801147461
1772541319242769200,8.68776904296875,6.894101142883301,-4.69454288482666,-5.145158767700195
1772541319252679200,8.69767919921875,6.8829569816589355,-4.7602081298828125,-5.099544048309326
1772541319262589200,8.707589111328126,6.840331077575684,-4.843897819519043,-5.078042030334473
1772541319272499500,8.71749951171875,6.760623931884766,-4.932991027832031,-5.098980903625488
1772541319282409500,8.727409423828124,6.6474409103393555,-5.011977195739746,-5.170263767242432
1772541319292319500,8.737319580078125,6.527221202850342,-5.083434104919434,-5.2530059814453125
1772541319302229800,8.747229736328125,6.4759521484375,-5.151119232177734,-5.250525951385498
1772541319312139800,8.757139892578126,6.440566062927246,-5.239031791687012,-5.206884860992432
1772541319322049800,8.7670498046875,6.401782035827637,-5.357018947601318,-5.134157180786133
1772541319331960000,8.7769599609375,6.328808784484863,-5.5049262046813965,-5.067739963531494
1772541319341870000,8.7868701171875,6.211266040802002,-5.672010898590088,-5.028767108917236
1772541319351780400,8.7967802734375,6.119710922241211,-5.818360805511475,-4.973511219024658
1772541319361690400,8.8066904296875,6.171230792999268,-5.876913070678711,-4.839198112487793
1772541319371600600,8.8166005859375,6.301301956176758,-5.852179050445557,-4.69952917098999
1772541319381510400,8.826510498046876,6.202023029327393,-6.052581787109375,-4.576150894165039
1772541319391420700,8.836420654296875,6.05811882019043,-6.260307788848877,-4.488621234893799
1772541319401330700,8.84633056640625,5.861496925354004,-6.4590959548950195,-4.467989921569824
1772541319411241000,8.856240966796875,5.699329853057861,-6.603654861450195,-4.466476917266846
1772541319421151000,8.86615087890625,5.525842189788818,-6.736086845397949,-4.486670017242432
1772541319431061200,8.876061279296875,5.330234050750732,-6.842824935913086,-4.561178207397461
1772541319440971300,8.88597119140625,5.129840850830078,-6.931201934814453,-4.656520843505859
1772541319450881300,8.89588134765625,4.955216884613037,-7.016743183135986,-4.717113018035889
1772541319460791300,8.905791259765625,4.80740213394165,-7.118832111358643,-4.717106819152832
1772541319470701600,8.91570166015625,4.669801235198975,-7.247680187225342,-4.658761978149414
1772541319480611600,8.925611572265625,4.529388904571533,-7.391508102416992,-4.570586204528809
1772541319490521900,8.93552197265625,4.383561134338379,-7.53314208984375,-4.480641841888428
1772541319500432000,8.945431884765625,4.228458881378174,-7.663990020751953,-4.407196998596191
1772541319510342000,8.955341796875,4.063563823699951,-7.779813766479492,-4.359123229980469
1772541319520252000,8.965251953125,3.88633394241333,-7.884975910186768,-4.331690788269043
1772541319530162200,8.975162109375,3.6922268867492676,-7.992260932922363,-4.30479097366333
1772541319540072200,8.985072265625,3.483506917953491,-8.104231834411621,-4.269266128540039
1772541319549982500,8.994982421875,3.2660529613494873,-8.217378616333008,-4.224637031555176
1772541319559892200,9.004892333984374,3.0383119583129883,-8.334704399108887,-4.1642961502075195
1772541319569802500,9.014802490234375,2.8008339405059814,-8.453807830810547,-4.090044975280762
1772541319579712800,9.024712646484375,2.553546905517578,-8.571893692016602,-4.005251884460449
1772541319589622800,9.034622802734376,2.292862892150879,-8.688486099243164,-3.910623073577881
1772541319599532800,9.04453271484375,2.0143699645996094,-8.80123233795166,-3.8105950355529785
1772541319609442800,9.05444287109375,1.7187429666519165,-8.906034469604492,-3.710594892501831
1772541319619352800,9.064352783203125,1.4132850170135498,-8.999031066894531,-3.6138720512390137
1772541319629263000,9.07426318359375,1.1045130491256714,-9.07988452911377,-3.5179200172424316
1772541319639173400,9.08417333984375,0.7927839756011963,-9.151589393615723,-3.4146618843078613
1772541319649083400,9.09408349609375,0.48959699273109436,-9.21432113647461,-3.3009979724884033
1772541319658993400,9.103993408203126,0.21964199841022491,-9.264430046081543,-3.1878089904785156
1772541319668903400,9.1139033203125,0.01946300081908703,-9.297181129455566,-3.0987160205841064
1772541319678813700,9.123813720703126,-0.094930000603199,-9.307543754577637,-3.0660409927368164
1772541319688723700,9.1337236328125,-0.1700119972229004,-9.3042631149292,-3.07275390625
1772541319698633700,9.1436337890625,-0.21678400039672852,-9.291229248046875,-3.10903000831604
1772541319708544000,9.1535439453125,-0.2673340141773224,-9.285097122192383,-3.1233839988708496
1772541319718454000,9.1634541015625,-0.33273598551750183,-9.276707649230957,-3.141974925994873
1772541319728364000,9.173364013671875,-0.41718098521232605,-9.269193649291992,-3.154046058654785
1772541319738274000,9.183274169921875,-0.526494026184082,-9.26442813873291,-3.1516950130462646
1772541319748184300,9.193184326171876,-0.6588810086250305,-9.2626371383667,-3.1320009231567383
1772541319758094300,9.20309423828125,-0.7952029705047607,-9.26250171661377,-3.1006009578704834
1772541319768004600,9.213004638671874,-0.9142439961433411,-9.261482238769531,-3.070681095123291
1772541319777914400,9.222914306640625,-0.9820870161056519,-9.263333320617676,-3.0440421104431152
1772541319787824600,9.23282470703125,-1.0516129732131958,-9.267330169677734,-3.0084381103515625
1772541319797734700,9.242734619140625,-1.1103090047836304,-9.27855110168457,-2.952234983444214
1772541319807645000,9.25264501953125,-1.1024949550628662,-9.299027442932129,-2.8900859355926514
1772541319817554700,9.2625546875,-1.0195679664611816,-9.340071678161621,-2.786313056945801
1772541319827465000,9.27246484375,-0.9552170038223267,-9.350336074829102,-2.774669885635376
1772541319837375000,9.282375,-0.899137020111084,-9.346084594726562,-2.8075358867645264
1772541319847285200,9.29228515625,-0.9990230202674866,-9.318939208984375,-2.8634469509124756
1772541319857195300,9.3021953125,-1.121986985206604,-9.300028800964355,-2.879344940185547
1772541319867105500,9.31210546875,-1.2652469873428345,-9.28515911102295,-2.867927074432373
1772541319877015300,9.322015380859375,-1.3779460191726685,-9.282913208007812,-2.8229029178619385
1772541319886925600,9.331925537109376,-1.4461649656295776,-9.288082122802734,-2.7713139057159424
1772541319896835600,9.341835693359375,-1.4346810579299927,-9.29421329498291,-2.7566800117492676
1772541319906745900,9.351745849609374,-1.387874960899353,-9.301726341247559,-2.7553069591522217
1772541319916655900,9.36165576171875,-1.3520779609680176,-9.323022842407227,-2.700577974319458
1772541319926566100,9.371566162109374,-1.349450945854187,-9.340920448303223,-2.6393589973449707
1772541319936476200,9.38147607421875,-1.3480459451675415,-9.358633995056152,-2.5765860080718994
1772541319946386200,9.39138623046875,-1.3479050397872925,-9.372644424438477,-2.5252199172973633
1772541319956296000,9.4012958984375,-1.3454550504684448,-9.3842134475708,-2.4832019805908203
1772541319966206500,9.41120654296875,-1.3468480110168457,-9.392048835754395,-2.4526379108428955
1772541319976116200,9.4211162109375,-1.3566169738769531,-9.395057678222656,-2.4356720447540283
1772541319986026500,9.431026611328125,-1.3601020574569702,-9.39354133605957,-2.4395720958709717
1772541319995936300,9.440936279296874,-1.3413079977035522,-9.392695426940918,-2.453200101852417
1772541320005846800,9.4508466796875,-1.3015209436416626,-9.396360397338867,-2.4605801105499268
1772541320015756800,9.4607568359375,-1.261718988418579,-9.401573181152344,-2.4614028930664062
1772541320025666800,9.470666748046876,-1.2255510091781616,-9.406312942504883,-2.4615700244903564
1772541320035576800,9.480576904296875,-1.1830379962921143,-9.406977653503418,-2.479763984680176
1772541320045487000,9.490487060546876,-1.1365469694137573,-9.400609970092773,-2.5252349376678467
1772541320055396900,9.50039697265625,-1.0831040143966675,-9.391953468322754,-2.5803279876708984
1772541320065307100,9.51030712890625,-1.0172209739685059,-9.388483047485352,-2.6194779872894287
1772541320075217200,9.520217041015625,-0.9611709713935852,-9.375152587890625,-2.687501907348633
1772541320085127400,9.53012744140625,-0.8833209872245789,-9.362212181091309,-2.7583980560302734
1772541320095037200,9.540037109375,-0.7781230211257935,-9.348464965820312,-2.835618019104004
1772541320104947500,9.549947509765625,-0.6442899703979492,-9.331276893615723,-2.9244089126586914
1772541320114857500,9.559857421875,-0.48170900344848633,-9.30545711517334,-3.035862922668457
1772541320124767700,9.569767822265625,-0.30090299248695374,-9.268660545349121,-3.168813943862915
1772541320134677800,9.579677734375,-0.11260899901390076,-9.223047256469727,-3.3109989166259766
1772541320144587800,9.589587890625,0.06759200245141983,-9.171212196350098,-3.453157901763916
1772541320154497800,9.599497802734374,0.23243099451065063,-9.115416526794434,-3.5909841060638428
1772541320164407800,9.60940771484375,0.3751150071620941,-9.059652328491211,-3.717794895172119
1772541320174317800,9.61931787109375,0.48835599422454834,-9.008740425109863,-3.8267641067504883
1772541320184228000,9.62922802734375,0.58057701587677,-8.964665412902832,-3.91634202003479
1772541320194138000,9.63913818359375,0.6649969816207886,-8.930337905883789,-3.9808120727539062
1772541320204048100,9.649048095703124,0.7477650046348572,-8.90857982635498,-4.0147318840026855
1772541320213958100,9.658958251953125,0.8357269763946533,-8.89710521697998,-4.02282190322876
1772541320223868200,9.6688681640625,0.9550650119781494,-8.885622024536133,-4.021637916564941
1772541320233778400,9.6787783203125,1.0798180103302002,-8.85935115814209,-4.047948837280273
1772541320243688400,9.6886884765625,1.1712729930877686,-8.819838523864746,-4.1083478927612305
1772541320253598700,9.6985986328125,1.2353700399398804,-8.766915321350098,-4.201794147491455
1772541320263508500,9.708508544921875,1.2953269481658936,-8.696084976196289,-4.3289971351623535
1772541320273418800,9.718418701171874,1.3745239973068237,-8.599224090576172,-4.494890213012695
1772541320283328800,9.728328857421875,1.4912309646606445,-8.473896980285645,-4.691408157348633
1772541320293239000,9.738239013671874,1.656101942062378,-8.321160316467285,-4.9046549797058105
1772541320303148800,9.748148681640625,1.871472954750061,-8.142848014831543,-5.1216840744018555
1772541320313059000,9.75805908203125,2.121762990951538,-7.9459991455078125,-5.3290910720825195
1772541320322969000,9.767968994140626,2.366780996322632,-7.7409820556640625,-5.524086952209473
1772541320332879000,9.777879150390625,2.5901598930358887,-7.535412788391113,-5.705142021179199
1772541320342789400,9.787789306640626,2.8070900440216064,-7.33531379699707,-5.861177921295166
1772541320352699400,9.797699462890625,3.0333518981933594,-7.14670991897583,-5.98024320602417
1772541320362609400,9.807609375,3.2721059322357178,-6.971969127655029,-6.060113906860352
1772541320372519400,9.81751953125,3.5078399181365967,-6.808806896209717,-6.113529205322266
1772541320382429700,9.8274296875,3.718648910522461,-6.663313865661621,-6.149139881134033
1772541320392339700,9.837339599609376,3.903156042098999,-6.528933048248291,-6.178867816925049
1772541320402249700,9.847249755859375,4.060354232788086,-6.4113850593566895,-6.200620174407959
1772541320412160000,9.857159912109376,4.181704044342041,-6.317594051361084,-6.216216087341309
1772541320422070000,9.867070068359375,4.2680559158325195,-6.378994941711426,-6.093613147735596
1772541320431980000,9.87697998046875,4.298896789550781,-6.470423221588135,-5.974370956420898
1772541320441890000,9.88689013671875,4.208878993988037,-6.461061954498291,-6.048142910003662
1772541320451800000,9.896800048828124,4.086417198181152,-6.4482831954956055,-6.144987106323242
1772541320461710300,9.90671044921875,3.948693037033081,-6.4557929039001465,-6.226603031158447
1772541320471620400,9.916620361328125,3.7927029132843018,-6.504825115203857,-6.272373199462891
1772541320481530400,9.9265302734375,3.618058919906616,-6.582658767700195,-6.294303894042969
1772541320491440400,9.9364404296875,3.507620096206665,-6.683311939239502,-6.250596046447754
1772541320501350700,9.9463505859375,3.380873918533325,-6.808657169342041,-6.184811115264893
1772541320511260700,9.9562607421875,3.2624709606170654,-6.957129001617432,-6.082320213317871
1772541320521170700,9.966170654296874,3.1669669151306152,-7.127254962921143,-5.934019088745117
1772541320531080700,9.976080810546875,3.0749619007110596,-7.307487964630127,-5.760663032531738
1772541320540990700,9.98599072265625,2.9285800457000732,-7.506450176239014,-5.5782270431518555
1772541320550901000,9.99590087890625,2.6804230213165283,-7.712934970855713,-5.419035911560059
1772541320560811000,10.00581103515625,2.334620952606201,-7.917938232421875,-5.2816481590271
1772541320570721000,10.015720947265624,1.9392390251159668,-8.130500793457031,-5.116084098815918
1772541320580631300,10.02563134765625,1.526695966720581,-8.35241985321045,-4.893490791320801
1772541320590541300,10.035541259765624,1.0827959775924683,-8.574883460998535,-4.619409084320068
1772541320600451300,10.045451416015625,0.7985849976539612,-8.731952667236328,-4.376674175262451
1772541320610361300,10.055361328125,0.7971360087394714,-8.760512351989746,-4.319491863250732
1772541320620271400,10.065271240234376,0.8763009905815125,-8.72373104095459,-4.378197193145752
1772541320630181600,10.075181640625,0.9097930192947388,-8.702852249145508,-4.412782192230225
1772541320640091400,10.08509130859375,0.9401450157165527,-8.787126541137695,-4.235860824584961
1772541320650001700,10.095001708984375,0.9063209891319275,-8.896533966064453,-4.008771896362305
1772541320659911700,10.10491162109375,0.8184919953346252,-8.965475082397461,-3.8717360496520996
1772541320669821700,10.11482177734375,0.7342240214347839,-9.052972793579102,-3.6803019046783447
1772541320679731700,10.124731689453125,0.6733180284500122,-9.147586822509766,-3.450840950012207
1772541320689642000,10.13464208984375,0.6640849709510803,-9.2326078414917,-3.218379020690918
1772541320699552000,10.144552001953125,0.7026249766349792,-9.293062210083008,-3.0307319164276123
1772541320709462000,10.1544619140625,0.707535982131958,-9.357071876525879,-2.8257079124450684
1772541320719372000,10.1643720703125,0.6747859716415405,-9.418299674987793,-2.623033046722412
1772541320729282000,10.174281982421874,0.5984870195388794,-9.470685958862305,-2.4470269680023193
1772541320739192300,10.1841923828125,0.4906980097293854,-9.507917404174805,-2.3235199451446533
1772541320749102300,10.194102294921874,0.34661999344825745,-9.529192924499512,-2.2614901065826416
1772541320759012400,10.204012451171875,0.1897750049829483,-9.540755271911621,-2.231142044067383
1772541320768922400,10.21392236328125,0.05368899926543236,-9.54496955871582,-2.220515012741089
1772541320778832400,10.223832275390626,-0.05649299919605255,-9.545162200927734,-2.219618082046509
1772541320788742700,10.23374267578125,-0.15339699387550354,-9.538087844848633,-2.2452969551086426
1772541320798652700,10.243652587890624,-0.24893899261951447,-9.524431228637695,-2.294178009033203
1772541320808562700,10.253562744140625,-0.3555139899253845,-9.505254745483398,-2.3587589263916016
1772541320818472700,10.26347265625,-0.4796319901943207,-9.48308277130127,-2.425102949142456
1772541320828382700,10.2733828125,-0.6091949939727783,-9.460495948791504,-2.483530044555664
1772541320838293000,10.28329296875,-0.7324159741401672,-9.443282127380371,-2.5155560970306396
1772541320848203000,10.293203125,-0.8379529714584351,-9.450727462768555,-2.4538960456848145
1772541320858113000,10.303113037109375,-0.9258130192756653,-9.459653854370117,-2.387010097503662
1772541320868023000,10.31302294921875,-0.9945579767227173,-9.468674659729004,-2.32273006439209
1772541320877933000,10.32293310546875,-1.0456249713897705,-9.475828170776367,-2.2705330848693848
1772541320887843000,10.332843017578124,-1.0862940549850464,-9.480154037475586,-2.2330899238586426
1772541320897753300,10.34275341796875,-1.131348967552185,-9.480222702026367,-2.210304021835327
1772541320907663000,10.3526630859375,-1.1429009437561035,-9.493618965148926,-2.145922899246216
1772541320917573400,10.362573486328126,-1.1406019926071167,-9.511756896972656,-2.0653131008148193
1772541320927483400,10.3724833984375,-1.1527880430221558,-9.526586532592773,-1.9887720346450806
1772541320937393400,10.382393310546876,-1.1836440563201904,-9.535883903503418,-1.9250710010528564
1772541320947303700,10.3923037109375,-1.2328120470046997,-9.541693687438965,-1.8644700050354004
1772541320957213700,10.402213623046874,-1.2893069982528687,-9.544805526733398,-1.809527039527893
1772541320967123700,10.412123779296875,-1.3326209783554077,-9.544671058654785,-1.778596043586731
1772541320977033500,10.422033447265624,-1.3537609577178955,-9.540273666381836,-1.786195993423462
1772541320986943700,10.43194384765625,-1.3561919927597046,-9.529191017150879,-1.8426350355148315
1772541320996853800,10.441853759765625,-1.3344169855117798,-9.512941360473633,-1.9399139881134033
1772541321006763800,10.451763671875,-1.2732659578323364,-9.494889259338379,-2.065397024154663
1772541321016673800,10.461673828125,-1.164425015449524,-9.477983474731445,-2.2027180194854736
1772541321026584000,10.471583984375,-1.04345703125,-9.460897445678711,-2.332942008972168
1772541321036494000,10.481494140625,-1.0201820135116577,-9.443944931030273,-2.4106340408325195
1772541321046404000,10.491404052734374,-1.0623090267181396,-9.423227310180664,-2.4727139472961426
1772541321056314000,10.501314208984375,-1.0544710159301758,-9.39280891418457,-2.589063882827759
1772541321066224000,10.51122412109375,-0.9797059893608093,-9.362810134887695,-2.723602056503296
1772541321076134100,10.521134033203126,-0.9115710258483887,-9.332788467407227,-2.847480058670044
1772541321086044200,10.531044189453125,-0.792639970779419,-9.307934761047363,-2.962109088897705
1772541321095954200,10.5409541015625,-0.6351770162582397,-9.294415473937988,-3.041450023651123
1772541321105864400,10.550864501953125,-0.44753900170326233,-9.292716026306152,-3.079793930053711
1772541321115774500,10.5607744140625,-0.24324600398540497,-9.29529857635498,-3.0948760509490967
1772541321125684500,10.5706845703125,-0.035930998623371124,-9.294151306152344,-3.107646942138672
1772541321135594500,10.580594482421875,0.17179499566555023,-9.286643981933594,-3.1254959106445312
1772541321145504500,10.59050439453125,0.38251399993896484,-9.271695137023926,-3.1510889530181885
1772541321155414800,10.600414794921875,0.5916730165481567,-9.246869087219238,-3.1914520263671875
1772541321165324500,10.610324462890626,0.7788100242614746,-9.208049774169922,-3.2627151012420654
1772541321175234600,10.620234619140625,0.932898998260498,-9.15088939666748,-3.3809640407562256
1772541321185144600,10.63014453125,1.0387439727783203,-9.07641887664795,-3.546778917312622
1772541321195054800,10.640054931640625,1.0710450410842896,-8.991995811462402,-3.746579885482788
1772541321204964900,10.64996484375,1.0224699974060059,-8.912982940673828,-3.9437670707702637
1772541321214875000,10.659875,0.9377779960632324,-8.843779563903809,-4.116815090179443
1772541321224785000,10.669784912109375,0.8934820294380188,-8.783568382263184,-4.253307819366455
1772541321234695000,10.67969482421875,0.9254680275917053,-8.725923538208008,-4.363687992095947
1772541321244605200,10.689605224609375,1.0556780099868774,-8.663446426391602,-4.457604885101318
1772541321254515000,10.699514892578126,1.2983399629592896,-8.586214065551758,-4.542162895202637
1772541321264425200,10.70942529296875,1.6313689947128296,-8.479217529296875,-4.6348137855529785
1772541321274335200,10.719335205078124,2.000211000442505,-8.321946144104004,-4.7732977867126465
1772541321284245200,10.729245361328125,2.3267979621887207,-8.10561466217041,-4.992490768432617
1772541321294155300,10.7391552734375,2.583868980407715,-7.8826069831848145,-5.218057155609131
1772541321304065300,10.749065185546876,2.819387912750244,-7.702548027038574,-5.363004207611084
1772541321313975300,10.758975341796875,3.0648179054260254,-7.558145046234131,-5.433353900909424
1772541321323885300,10.76888525390625,3.294055938720703,-7.421022891998291,-5.487950801849365
1772541321333795300,10.77879541015625,3.4966049194335938,-7.276762008666992,-5.555404186248779
1772541321343705600,10.78870556640625,3.690419912338257,-7.118618965148926,-5.634364128112793
1772541321353615600,10.79861572265625,3.901247024536133,-6.948754787445068,-5.703951835632324
1772541321363525600,10.808525634765624,4.134453773498535,-6.764810085296631,-5.760523796081543
1772541321373435600,10.818435546875,4.377325057983398,-6.573113918304443,-5.802862167358398
1772541321383345700,10.828345703125,4.608104228973389,-6.37467622756958,-5.845417022705078
1772541321393256000,10.838255859375,4.809516906738281,-6.181323051452637,-5.890653133392334
1772541321403165700,10.848165771484375,4.984189987182617,-5.999134063720703,-5.93365478515625
1772541321413076000,10.858075927734374,5.13516092300415,-5.8402018547058105,-5.963400840759277
1772541321422986000,10.867986083984375,5.259139060974121,-5.712822914123535,-5.978722095489502
1772541321432896000,10.87789599609375,5.308230876922607,-5.767838954925537,-5.881728172302246
1772541321442806000,10.887805908203125,5.255674839019775,-5.75770378112793,-5.938581943511963
1772541321452716000,10.897716064453125,5.190692901611328,-5.742339134216309,-6.0101799964904785
1772541321462626300,10.907626220703126,5.0768561363220215,-5.805391788482666,-6.046731948852539
1772541321472536300,10.917536376953125,5.0856709480285645,-5.855339050292969,-5.99090576171875
1772541321482446300,10.9274462890625,5.101163864135742,-5.899559020996094,-5.934082984924316
1772541321492356400,10.9373564453125,5.089900016784668,-5.940471172332764,-5.902857780456543
1772541321502266400,10.947266357421874,5.001062870025635,-6.06124210357666,-5.855828762054443
1772541321512176400,10.95717626953125,4.871600151062012,-6.190255165100098,-5.829946041107178
1772541321522086400,10.96708642578125,4.684366226196289,-6.3160247802734375,-5.848465919494629
1772541321531996700,10.97699658203125,4.451557159423828,-6.435601234436035,-5.89971923828125
1772541321541906400,10.986906494140625,4.211651802062988,-6.567735195159912,-5.930163860321045
1772541321551816400,10.99681640625,3.9746758937835693,-6.71991491317749,-5.923234939575195
1772541321561726700,11.006726806640625,3.7800021171569824,-6.875638961791992,-5.87172794342041
1772541321571636700,11.01663671875,3.7498719692230225,-6.970372200012207,-5.778614044189453
1772541321581546800,11.026546630859375,3.8209519386291504,-7.010276794433594,-5.682988166809082
1772541321591456800,11.036456787109374,3.7015440464019775,-7.146931171417236,-5.591057777404785
1772541321601366800,11.04636669921875,3.372591018676758,-7.3796210289001465,-5.49607515335083
1772541321611276800,11.05627685546875,3.0142529010772705,-7.5999650955200195,-5.403219223022461
1772541321621186800,11.066186767578126,2.7545979022979736,-7.770565032958984,-5.29816198348999
1772541321631097000,11.07609716796875,2.5620319843292236,-7.863039970397949,-5.258195877075195
1772541321641007000,11.086007080078126,2.387173891067505,-7.900946140289307,-5.283600807189941
1772541321650917000,11.095917236328125,2.2232561111450195,-7.922436237335205,-5.3227949142456055
1772541321660827000,11.105826904296874,2.0744259357452393,-7.968052864074707,-5.314780235290527
1772541321670737200,11.115737060546875,1.9486639499664307,-8.053624153137207,-5.232767105102539
1772541321680647200,11.125647216796875,1.8336230516433716,-8.162203788757324,-5.104537010192871
1772541321690557200,11.13555712890625,1.7140120267868042,-8.274234771728516,-4.9637908935546875
1772541321700467200,11.14546728515625,1.5881940126419067,-8.383930206298828,-4.819479942321777
1772541321710377200,11.155377197265626,1.4488739967346191,-8.489169120788574,-4.677046775817871
1772541321720287200,11.165287353515625,1.2878860235214233,-8.578690528869629,-4.559323787689209
1772541321730197500,11.175197509765624,1.1048740148544312,-8.653448104858398,-4.4651007652282715
1772541321740107300,11.185107177734375,0.9085599780082703,-8.72412109375,-4.370840072631836
1772541321750017500,11.195017578125,0.7067340016365051,-8.794670104980469,-4.265480041503906
1772541321759927300,11.20492724609375,0.4977630078792572,-8.866303443908691,-4.144985198974609
1772541321769837600,11.214837646484375,0.2780210077762604,-8.937775611877441,-4.0098490715026855
1772541321779747600,11.22474755859375,0.04907200112938881,-9.005830764770508,-3.864269971847534
1772541321789657600,11.23465771484375,-0.18658199906349182,-9.067669868469238,-3.7124850749969482
1772541321799567600,11.244567626953126,-0.427293986082077,-9.123591423034668,-3.5521130561828613
1772541321809477400,11.254477294921875,-0.6696419715881348,-9.176100730895996,-3.3750240802764893
1772541321819387600,11.2643876953125,-0.8914880156517029,-9.221938133239746,-3.193917989730835
1772541321829297700,11.274297607421875,-1.07111394405365,-9.2589693069458,-3.027240037918091
1772541321839207700,11.284207763671875,-1.1957759857177734,-9.289304733276367,-2.884258985519409
1772541321849117700,11.29411767578125,-1.2719180583953857,-9.316176414489746,-2.7624409198760986
1772541321859028000,11.304028076171875,-1.2820370197296143,-9.340166091918945,-2.675384044647217
1772541321868937700,11.313937744140626,-1.2742960453033447,-9.358332633972168,-2.6149139404296875
1772541321878848000,11.323847900390625,-1.2439420223236084,-9.371672630310059,-2.5815470218658447
1772541321888757800,11.3337578125,-1.1981309652328491,-9.380586624145508,-2.5708200931549072
1772541321898668000,11.34366796875,-1.139096975326538,-9.386574745178223,-2.575792074203491
1772541321908578000,11.353578125,-1.0357669591903687,-9.384413719177246,-2.626784086227417
1772541321918488000,11.363488037109375,-1.0028979778289795,-9.377582550048828,-2.6636760234832764
1772541321928398000,11.373398193359375,-1.0446419715881348,-9.373104095458984,-2.663393974304199
1772541321938308000,11.38330810546875,-1.103242039680481,-9.365934371948242,-2.6649839878082275
1772541321948218000,11.393218017578125,-1.1687829494476318,-9.355965614318848,-2.6720540523529053
1772541321958128000,11.403128173828126,-1.2326420545578003,-9.342361450195312,-2.6908888816833496
1772541321968038100,11.4130380859375,-1.28603196144104,-9.329490661621094,-2.7104849815368652
1772541321977948200,11.4229482421875,-1.3280329704284668,-9.321746826171875,-2.716866970062256
1772541321987858400,11.4328583984375,-1.3625459671020508,-9.320405960083008,-2.7043559551239014
1772541321997768200,11.442768310546874,-1.4024759531021118,-9.314458847045898,-2.7044239044189453
1772541322007678500,11.452678466796876,-1.4399950504302979,-9.311238288879395,-2.6957859992980957
1772541322017588200,11.462588134765625,-1.4791580438613892,-9.310763359069824,-2.676156997680664
1772541322027498500,11.47249853515625,-1.5257279872894287,-9.312744140625,-2.6429131031036377
1772541322037408500,11.482408447265625,-1.5419789552688599,-9.334091186523438,-2.556770086288452
1772541322047318500,11.492318603515624,-1.5670809745788574,-9.357084274291992,-2.455451011657715
1772541322057228500,11.502228515625,-1.5911509990692139,-9.376861572265625,-2.3627729415893555
1772541322067138600,11.512138671875,-1.5951770544052124,-9.396039009094238,-2.282512903213501
1772541322077048600,11.522048583984375,-1.573451042175293,-9.414837837219238,-2.219259023666382
1772541322086958600,11.53195849609375,-1.5391230583190918,-9.42908763885498,-2.1825239658355713
1772541322096868600,11.54186865234375,-1.5124130249023438,-9.432784080505371,-2.1852331161499023
1772541322106778600,11.551778564453125,-1.4815629720687866,-9.417858123779297,-2.2691268920898438
1772541322116689000,11.56168896484375,-1.4985779523849487,-9.386059761047363,-2.3866679668426514
1772541322126599000,11.571598876953125,-1.5233319997787476,-9.361833572387695,-2.464859962463379
1772541322136508700,11.5815087890625,-1.528417944908142,-9.34343147277832,-2.530656099319458
1772541322146418700,11.591418701171875,-1.46950101852417,-9.335810661315918,-2.5929150581359863
1772541322156328700,11.60132861328125,-1.4302209615707397,-9.326055526733398,-2.649372100830078
1772541322166239000,11.611239013671875,-1.407681941986084,-9.307405471801758,-2.725929021835327
1772541322176149000,11.62114892578125,-1.420125961303711,-9.292481422424316,-2.770020008087158
1772541322186059000,11.63105908203125,-1.4315849542617798,-9.27015209197998,-2.8381030559539795
1772541322195969000,11.640968994140625,-1.4319080114364624,-9.242642402648926,-2.926300048828125
1772541322205879000,11.650879150390624,-1.4125900268554688,-9.215852737426758,-3.0187199115753174
1772541322215789000,11.6607890625,-1.3678319454193115,-9.194978713989258,-3.101841926574707
1772541322225699000,11.670698974609374,-1.2226879596710205,-9.19631576538086,-3.1579771041870117
1772541322235609000,11.680609130859375,-1.051738977432251,-9.19144058227539,-3.2328479290008545
1772541322245519000,11.69051904296875,-0.9070000052452087,-9.16740608215332,-3.34306001663208
1772541322255429000,11.70042919921875,-0.7189369797706604,-9.137824058532715,-3.4674670696258545
1772541322265339100,11.710339111328125,-0.49940401315689087,-9.107210159301758,-3.58459210395813
1772541322275249200,11.720249267578126,-0.2556160092353821,-9.076491355895996,-3.6867270469665527
1772541322285159200,11.7301591796875,0.01559900026768446,-9.039926528930664,-3.784113883972168
1772541322295069200,11.740069091796874,0.31356000900268555,-8.99209976196289,-3.8837890625
1772541322304979200,11.749979248046875,0.6362500190734863,-8.932095527648926,-3.9815609455108643
1772541322314889200,11.75988916015625,0.9673879742622375,-8.863879203796387,-4.066427230834961
1772541322324799200,11.76979931640625,1.2726110219955444,-8.797307014465332,-4.126482009887695
1772541322334709500,11.77970947265625,1.5128259658813477,-8.748682022094727,-4.14872407913208
1772541322344619300,11.789619384765626,1.6900889873504639,-8.723883628845215,-4.132489204406738
1772541322354529500,11.799529541015625,1.8390549421310425,-8.718963623046875,-4.078915119171143
1772541322364439300,11.809439208984376,1.9752240180969238,-8.719982147216797,-4.0125322341918945
1772541322374349600,11.819349609375,2.1011109352111816,-8.721854209899902,-3.9439311027526855
1772541322384259600,11.829259521484374,2.2068159580230713,-8.719889640808105,-3.8901779651641846
1772541322394169600,11.839169677734375,2.2776880264282227,-8.713801383972168,-3.8628718852996826
1772541322404079600,11.84907958984375,2.316879987716675,-8.702146530151367,-3.8658370971679688
1772541322413989600,11.85898974609375,2.3326640129089355,-8.684229850769043,-3.8965139389038086
1772541322423899600,11.868899658203125,2.334115982055664,-8.662538528442383,-3.9436419010162354
1772541322433809700,11.8788095703125,2.299036979675293,-8.651464462280273,-3.988306999206543
1772541322443719700,11.8887197265625,2.303067922592163,-8.600177764892578,-4.09546422958374
1772541322453629700,11.898629638671874,2.312166929244995,-8.527787208557129,-4.239192008972168
1772541322463539700,11.908539794921875,2.3300271034240723,-8.439763069152832,-4.402430057525635
1772541322473449700,11.91844970703125,2.373573064804077,-8.339603424072266,-4.566965103149414
1772541322483360000,11.928360107421875,2.450629949569702,-8.23176383972168,-4.7193708419799805
1772541322493269800,11.938269775390625,2.5532000064849854,-8.121054649353027,-4.854859828948975
1772541322503179800,11.9481796875,2.6687259674072266,-8.011014938354492,-4.974088191986084
1772541322513089800,11.95808984375,2.7843708992004395,-7.905923843383789,-5.077761173248291
1772541322522999800,11.967999755859376,2.889103889465332,-7.813427925109863,-5.161724090576172
1772541322532909800,11.977909912109375,2.9040229320526123,-7.795869827270508,-5.179872035980225
1772541322542819800,11.98781982421875,2.8666698932647705,-7.806849002838135,-5.184141159057617
1772541322552730000,11.997730224609375,2.7818069458007812,-7.849067211151123,-5.16659688949585
1772541322562640000,12.007639892578124,2.583127975463867,-8.000757217407227,-5.0354108810424805
1772541322572550000,12.0175498046875,2.4640870094299316,-8.091131210327148,-4.949936866760254
1772541322582460000,12.0274599609375,2.3540871143341064,-8.188817977905273,-4.841647148132324
1772541322592370200,12.0373701171875,2.253709077835083,-8.286764144897461,-4.721264839172363
1772541322602280200,12.0472802734375,2.1634249687194824,-8.377890586853027,-4.601143836975098
1772541322612190200,12.057190185546874,2.0450210571289062,-8.435030937194824,-4.550622940063477
1772541322622100200,12.067100341796875,1.9228589534759521,-8.501790046691895,-4.479083061218262
1772541322632010000,12.077010009765624,1.7894129753112793,-8.578224182128906,-4.387720108032227
1772541322641920300,12.086920166015625,1.6494899988174438,-8.661231994628906,-4.278113842010498
1772541322651830000,12.096830078125,1.540673017501831,-8.741694450378418,-4.153203010559082
1772541322661740300,12.106740234375,1.4976619482040405,-8.810076713562012,-4.022383213043213
1772541322671650000,12.116650146484375,1.6144410371780396,-8.835797309875488,-3.919471025466919
1772541322681560300,12.126560302734376,1.7394700050354004,-8.833277702331543,-3.871361017227173
1772541322691470000,12.136469970703125,1.7317899465560913,-8.8238525390625,-3.8962230682373047
1772541322701380400,12.14638037109375,1.6598470211029053,-8.798666954040527,-3.9835119247436523
1772541322711290400,12.156290283203125,1.6001060009002686,-8.746444702148438,-4.120601177215576
1772541322721200400,12.166200439453124,1.5825910568237305,-8.672174453735352,-4.281215190887451
1772541322731110400,12.1761103515625,1.6042699813842773,-8.599235534667969,-4.418080806732178
1772541322741020400,12.1860205078125,1.6123230457305908,-8.547679901123047,-4.514155864715576
1772541322750930400,12.195930419921876,1.5587420463562012,-8.529182434082031,-4.567644119262695
1772541322760840400,12.20584033203125,1.4350440502166748,-8.545354843139648,-4.577943801879883
1772541322770750500,12.21575048828125,1.2514090538024902,-8.59479808807373,-4.539097785949707
1772541322780660200,12.22566015625,1.0564459562301636,-8.671778678894043,-4.441192150115967
1772541322790570500,12.235570556640624,0.8934770226478577,-8.77377700805664,-4.273468971252441
1772541322800480500,12.24548046875,0.7660650014877319,-8.882219314575195,-4.0693159103393555
1772541322810390500,12.255390625,0.6997309923171997,-8.95149040222168,-3.9269840717315674
1772541322820300500,12.265300537109376,0.7047550082206726,-8.953935623168945,-3.920509099960327
1772541322830210600,12.27521044921875,0.7281150221824646,-8.88852596282959,-4.062504768371582
1772541322840120600,12.28512060546875,0.707440972328186,-8.802860260009766,-4.248435974121094
1772541322850030600,12.295030517578125,0.6859729886054993,-8.77026653289795,-4.318779945373535
1772541322859940600,12.304940673828124,0.8777210116386414,-8.855499267578125,-4.10484504699707
1772541322869850600,12.3148505859375,0.9679830074310303,-8.920719146728516,-3.940026044845581
1772541322879760600,12.3247607421875,0.9613490104675293,-9.009496688842773,-3.7342751026153564
1772541322889670700,12.334670654296875,0.9280030131340027,-9.097949981689453,-3.5222361087799072
1772541322899580700,12.34458056640625,0.9220079779624939,-9.167927742004395,-3.3375189304351807
1772541322909490700,12.35449072265625,0.9344369769096375,-9.215755462646484,-3.1994779109954834
1772541322919400700,12.364400634765625,0.9351630210876465,-9.245759010314941,-3.111496925354004
1772541322929310700,12.374310791015626,0.8432260155677795,-9.29150390625,-2.9994869232177734
1772541322939220500,12.384220458984375,0.713994026184082,-9.321617126464844,-2.9389920234680176
1772541322949130800,12.394130859375,0.5583509802818298,-9.330228805541992,-2.945349931716919
1772541322959040800,12.404040771484375,0.37104201316833496,-9.33498477935791,-2.959796905517578
1772541322968950800,12.41395068359375,0.18067699670791626,-9.337767601013184,-2.9687418937683105
1772541322978860800,12.42386083984375,0.003957999870181084,-9.342622756958008,-2.958950996398926
1772541322988770800,12.433770751953125,-0.1525679975748062,-9.353571891784668,-2.920175075531006
1772541322998680800,12.443680908203126,-0.2913089990615845,-9.370306968688965,-2.8552560806274414
1772541323008590800,12.4535908203125,-0.41801199316978455,-9.388723373413086,-2.7779760360717773
1772541323018500900,12.4635009765625,-0.5556600093841553,-9.403902053833008,-2.7014570236206055
1772541323028410600,12.47341064453125,-0.6614580154418945,-9.409573554992676,-2.657520055770874
1772541323038321000,12.48332080078125,-0.7636809945106506,-9.407604217529297,-2.6370038986206055
1772541323048230700,12.493230712890625,-0.8871359825134277,-9.400094032287598,-2.6251189708709717
1772541323058141000,12.503140869140625,-1.01596200466156,-9.396467208862305,-2.5911850929260254
1772541323068051000,12.513051025390626,-1.1381579637527466,-9.391642570495605,-2.5576670169830322
1772541323077960700,12.522960693359375,-1.245421051979065,-9.38852310180664,-2.5188419818878174
1772541323087871000,12.53287109375,-1.334460973739624,-9.388711929321289,-2.472111940383911
1772541323097780700,12.54278076171875,-1.4117109775543213,-9.391361236572266,-2.4185590744018555
1772541323107691000,12.55269091796875,-1.4862200021743774,-9.394750595092773,-2.3600549697875977
1772541323117601000,12.56260107421875,-1.5621269941329956,-9.39796257019043,-2.297408103942871
1772541323127511000,12.572510986328124,-1.638308048248291,-9.400444030761719,-2.233297109603882
1772541323137420800,12.5824208984375,-1.7089890241622925,-9.402009963989258,-2.172914981842041
1772541323147331000,12.5923310546875,-1.7696729898452759,-9.402997016906738,-2.119420051574707
1772541323157240800,12.60224072265625,-1.817389965057373,-9.404431343078613,-2.0721499919891357
1772541323167150800,12.61215087890625,-1.851768970489502,-9.4076509475708,-2.0265920162200928
1772541323177060900,12.622060791015626,-1.8756120204925537,-9.412713050842285,-1.980638027191162
1772541323186971000,12.631970947265625,-1.8939900398254395,-9.41879940032959,-1.9336589574813843
1772541323196881000,12.641880859375,-1.9100500345230103,-9.425153732299805,-1.886314034461975
1772541323206791000,12.651791015625,-1.8691370487213135,-9.437368392944336,-1.8661240339279175
1772541323216701000,12.661700927734374,-1.8160920143127441,-9.450961112976074,-1.8496309518814087
1772541323226611000,12.67161083984375,-1.7467089891433716,-9.468098640441895,-1.8287010192871094
1772541323236521200,12.681521240234375,-1.6600470542907715,-9.490283012390137,-1.794092059135437
1772541323246431000,12.691430908203126,-1.5525729656219482,-9.518797874450684,-1.7383979558944702
1772541323256341200,12.70134130859375,-1.507040023803711,-9.535977363586426,-1.6834349632263184
1772541323266251000,12.7112509765625,-1.4608910083770752,-9.551629066467285,-1.6346839666366577
1772541323276161300,12.721161376953125,-1.3869400024414062,-9.570234298706055,-1.5896660089492798
1772541323286071000,12.731071044921874,-1.302014946937561,-9.5866060256958,-1.5626130104064941
1772541323295981000,12.74098095703125,-1.1911879777908325,-9.603691101074219,-1.546025037765503
1772541323305891000,12.75089111328125,-1.0671470165252686,-9.618226051330566,-1.5462770462036133
1772541323315801000,12.760801025390625,-0.9987679719924927,-9.627388954162598,-1.5348700284957886
1772541323325711000,12.770711181640625,-0.9314770102500916,-9.634296417236328,-1.5338540077209473
1772541323335621000,12.78062109375,-0.8565130233764648,-9.640056610107422,-1.541327953338623
1772541323345531100,12.79053125,-0.7669309973716736,-9.645386695861816,-1.5550919771194458
1772541323355441200,12.800441162109376,-0.6642640233039856,-9.64975357055664,-1.5751190185546875
1772541323365351200,12.81035107421875,-0.5096240043640137,-9.651406288146973,-1.6219350099563599
1772541323375261200,12.82026123046875,-0.349139004945755,-9.650073051452637,-1.6715890169143677
