time,seconds_elapsed,z,y,x
1772541310744810000,0.18981005859375,7.954950332641602,1.1929500102996826,-0.8899500370025635
1772541310759673300,0.20467333984375,6.202950477600098,0.9820500612258911,-1.065000057220459
1772541310769583400,0.214583251953125,5.695050239562988,0.8290500640869141,-1.5679501295089722
1772541310779493400,0.224493408203125,5.793000221252441,0.7350000143051147,-1.9939501285552979
1772541310789403400,0.2344033203125,4.102950096130371,0.8770500421524048,-1.921950101852417
1772541310799313400,0.2443134765625,-3.4110002517700195,3.4099502563476562,1.4500501155853271
1772541310809223400,0.254223388671875,0.8280000686645508,3.061950206756592,-1.6320000886917114
1772541310819133400,0.264133544921875,0.8299500346183777,1.3960500955581665,-1.7190001010894775
1772541310829043500,0.27404345703125,0.9979500770568848,1.4650501012802124,-2.01104998588562
1772541310838953700,0.28395361328125,3.3490500450134277,2.074050188064575,-2.9850001335144043
1772541310848863500,0.293863525390625,7.249050140380859,2.8129501342773438,-4.294950008392334
1772541310858773800,0.303773681640625,10.347000122070312,3.38100004196167,-4.198950290679932
1772541310868683500,0.31368359375,9.583050727844238,2.445000171661377,-5.391000270843506
1772541310878593800,0.32359375,9.720000267028809,1.3459500074386597,-4.944000244140625
1772541310888503600,0.333503662109375,6.765000343322754,-1.0500000715255737,-3.177000045776367
1772541310898413600,0.34341357421875,6.3319501876831055,-1.3590000867843628,-2.491950035095215
1772541310908323800,0.35332373046875,7.692000389099121,-0.22395001351833344,-2.31000018119812
1772541310918233600,0.363233642578125,8.338050842285156,0.3330000042915344,0.4420500099658966
1772541310928144000,0.373143798828125,9.049050331115723,0.9649500250816345,1.7449500560760498
1772541310938054000,0.383053955078125,9.250950813293457,0.7380000352859497,1.603950023651123
1772541310947964000,0.3929638671875,9.334050178527832,0.19200000166893005,1.0459500551223755
1772541310957874000,0.4028740234375,10.480950355529785,-0.29100000858306885,1.3399500846862793
1772541310967784000,0.412783935546875,12.382050514221191,-0.4990500211715698,1.5630000829696655
1772541310977694000,0.42269384765625,13.809000968933105,-0.7600500583648682,1.5150001049041748
1772541310987604000,0.43260400390625,12.994950294494629,-0.6360000371932983,1.672950029373169
1772541310997514000,0.442513916015625,11.773950576782227,-0.2530499994754791,0.8970000147819519
1772541311007424000,0.452424072265625,10.246950149536133,-0.034950003027915955,0.28005000948905945
1772541311017334000,0.462333984375,8.956050872802734,0.1770000010728836,0.8179500102996826
1772541311027244000,0.472244140625,8.56095027923584,0.13905000686645508,2.140050172805786
1772541311037154000,0.482154052734375,9.034950256347656,-0.4630500078201294,2.4559500217437744
1772541311047064000,0.49206396484375,10.054950714111328,-0.41505002975463867,3.1879501342773438
1772541311056974000,0.50197412109375,10.633950233459473,-0.25005000829696655,4.085999965667725
1772541311066884000,0.511884033203125,9.38895034790039,0.661050021648407,3.748950242996216
1772541311076794000,0.521794189453125,8.218950271606445,1.6380001306533813,3.5310001373291016
1772541311086704400,0.531704345703125,8.88900089263916,1.3650000095367432,2.2669501304626465
1772541311096614400,0.541614501953125,9.748950004577637,0.3570000231266022,1.8240001201629639
1772541311106524400,0.5515244140625,10.206000328063965,-0.4320000112056732,2.260050058364868
1772541311116434400,0.561434326171875,10.813950538635254,-0.5760000348091125,2.1880500316619873
1772541311126344400,0.571344482421875,10.134000778198242,-0.527999997138977,2.5279500484466553
1772541311136254500,0.58125439453125,9.969000816345215,-0.9130500555038452,2.4970500469207764
1772541311146164700,0.591164794921875,10.476000785827637,-0.9589500427246094,3.223950147628784
1772541311156074500,0.601074462890625,10.777950286865234,-1.015950083732605,3.028050184249878
1772541311165984500,0.610984619140625,10.732950210571289,-1.117050051689148,2.5729501247406006
1772541311175894800,0.620894775390625,10.488000869750977,-1.0980000495910645,2.137050151824951
1772541311185804800,0.6308046875,9.835050582885742,-1.228950023651123,1.8000000715255737
1772541311195714800,0.64071484375,9.289050102233887,-0.9439500570297241,2.491950035095215
1772541311205624800,0.650624755859375,9.202950477600098,-0.5610000491142273,3.016050100326538
1772541311215534800,0.660534912109375,9.231000900268555,-0.1879500150680542,2.590050220489502
1772541311225444900,0.67044482421875,9.283950805664062,-0.6949500441551208,3.0400500297546387
1772541311235355000,0.68035498046875,8.31195068359375,-1.609950065612793,3.0139501094818115
1772541311245265000,0.690264892578125,9.95895004272461,-1.4020500183105469,0.6790500283241272
1772541311255175200,0.700175048828125,11.326050758361816,-1.5889500379562378,-0.1290000081062317
1772541311265085200,0.710085205078125,11.33595085144043,-2.2420501708984375,0.8800500631332397
1772541311284905200,0.7299052734375,10.737000465393066,-1.6030501127243042,3.658050060272217
1772541311294815200,0.739815185546875,10.171950340270996,-1.5450000762939453,4.6369500160217285
1772541311304725200,0.749725341796875,11.33595085144043,-1.3060500621795654,5.3620500564575195
1772541311314635500,0.759635498046875,12.004050254821777,-1.579050064086914,5.52495002746582
1772541311324545500,0.769545654296875,11.84595012664795,-1.64805006980896,4.579950332641602
1772541311334455300,0.779455322265625,10.98900032043457,-1.6909500360488892,3.1090500354766846
1772541311344365600,0.789365478515625,10.110000610351562,-1.5769500732421875,2.0460000038146973
1772541311354275600,0.799275634765625,9.334050178527832,-1.5169501304626465,1.3780500888824463
1772541311364185900,0.809185791015625,8.934000015258789,-1.5120000839233398,1.4359500408172607
1772541311374096000,0.819095947265625,9.291000366210938,-1.5570000410079956,1.599000096321106
1772541311384005600,0.829005615234375,9.631050109863281,-1.540950059890747,1.738050103187561
1772541311393916000,0.838916015625,10.156050682067871,-1.2559500932693481,2.638050079345703
1772541311403826000,0.848825927734375,11.202000617980957,-0.909000039100647,4.4070000648498535
1772541311413736000,0.85873583984375,11.605950355529785,-0.906000018119812,5.377050399780273
1772541311423646200,0.868646240234375,10.468950271606445,-1.0039499998092651,4.303950309753418
1772541311433556000,0.878555908203125,8.829000473022461,-0.89205002784729,2.6899502277374268
1772541311443466000,0.888466064453125,7.624950408935547,-1.0039499998092651,1.5679501295089722
1772541311453376300,0.898376220703125,7.156050205230713,-1.1190000772476196,0.47805002331733704
1772541311463286300,0.908286376953125,7.359000205993652,-1.2580500841140747,0.31095001101493835
1772541311473196300,0.9181962890625,7.630050182342529,-1.5070500373840332,0.9070500135421753
1772541311483106300,0.928106201171875,7.468950271606445,-1.4070000648498535,2.3770501613616943
1772541311493016300,0.938016357421875,8.37405014038086,-1.1460000276565552,4.222949981689453
1772541311502926600,0.947926513671875,9.598050117492676,-1.1530500650405884,4.966950416564941
1772541311512836600,0.957836669921875,9.98805046081543,-1.4329500198364258,4.8070502281188965
1772541311522746600,0.96774658203125,9.532950401306152,-1.6789500713348389,3.078000068664551
1772541311532656600,0.97765673828125,9.370050430297852,-1.927950143814087,1.582050085067749
1772541311542567000,0.98756689453125,9.259950637817383,-2.199000120162964,1.2229501008987427
1772541311552477000,0.997476806640625,9.247950553894043,-2.266050100326538,1.4650501012802124
1772541311562387000,1.007386962890625,9.11205005645752,-2.2540500164031982,1.6900501251220703
1772541311572297000,1.017296875,9.009000778198242,-2.2489500045776367,1.8409501314163208
1772541311582207000,1.02720703125,8.716950416564941,-2.266050100326538,2.098950147628784
1772541311592117000,1.037116943359375,8.30505084991455,-2.130000114440918,2.7580502033233643
1772541311602027300,1.04702734375,8.716950416564941,-1.894950032234192,3.6120002269744873
1772541311611937300,1.056937255859375,8.8410005569458,-2.1439499855041504,3.604950189590454
1772541311621847300,1.066847412109375,8.665950775146484,-2.545950174331665,2.571000099182129
1772541311631757300,1.07675732421875,8.506050109863281,-2.8339500427246094,1.8240001201629639
1772541311641667300,1.086667236328125,8.13705062866211,-3.3790502548217773,1.2660000324249268
1772541311651577600,1.09657763671875,7.471950531005859,-3.8560502529144287,1.0579500198364258
1772541311661487400,1.1064873046875,7.144050121307373,-3.6570000648498535,1.1460000276565552
1772541311671397600,1.116397705078125,7.089000225067139,-2.9509501457214355,2.319000005722046
1772541311681307600,1.1263076171875,7.2300004959106445,-2.556000232696533,4.126950263977051
1772541311691218000,1.136218017578125,8.072999954223633,-2.517000198364258,5.236050128936768
1772541311701127700,1.146127685546875,8.458050727844238,-2.9029500484466553,5.110950469970703
1772541311711038000,1.156037841796875,8.869950294494629,-3.3960001468658447,3.0810000896453857
1772541311720948000,1.165947998046875,7.725000381469727,-3.8530502319335938,-0.037950001657009125
1772541311730858000,1.17585791015625,5.263950347900391,-4.078050136566162,-3.604950189590454
1772541311740768000,1.18576806640625,5.073000431060791,-5.098050117492676,-3.7510502338409424
1772541311750678000,1.195677978515625,3.198000192642212,-5.785950183868408,-0.7560000419616699
1772541311770498000,1.215498046875,4.338000297546387,-6.054000377655029,4.570050239562988
1772541311780408300,1.225408203125,3.397050142288208,-6.463050365447998,3.535950183868408
1772541311790318300,1.235318359375,3.28695011138916,-6.544950485229492,5.022000312805176
1772541311800228600,1.245228515625,5.9920501708984375,-7.0159502029418945,8.053950309753418
1772541311810138400,1.255138427734375,8.82194995880127,-7.33905029296875,9.093000411987305
1772541311820048600,1.265048583984375,10.146000862121582,-7.074000358581543,7.8949503898620605
1772541311829958700,1.274958740234375,9.454050064086914,-7.584000587463379,5.587050437927246
1772541311839869000,1.284868896484375,8.290050506591797,-8.866950035095215,2.9539501667022705
1772541311849778700,1.29477880859375,5.619000434875488,-10.28700065612793,-0.18195000290870667
1772541311859689000,1.30468896484375,5.0970001220703125,-12.049050331115723,-2.8369500637054443
1772541311869599000,1.314598876953125,6.841950416564941,-13.095000267028809,-4.146000385284424
1772541311879509200,1.32450927734375,8.116050720214844,-13.657950401306152,-4.549050331115723
1772541311889419000,1.3344189453125,9.367950439453125,-13.629000663757324,-4.786050319671631
1772541311899329300,1.344329345703125,8.118000030517578,-12.946950912475586,-4.216050148010254
1772541311909239300,1.3542392578125,6.652950286865234,-12.853050231933594,-3.438000202178955
1772541311919149300,1.3641494140625,7.729950428009033,-11.464950561523438,-3.888000249862671
1772541311929059300,1.374059326171875,7.255950450897217,-11.224950790405273,-5.068050384521484
1772541311938969600,1.383969482421875,8.353050231933594,-12.408000946044922,-4.788000106811523
1772541311948879600,1.393879638671875,8.425050735473633,-13.642951011657715,-3.517050266265869
1772541311958790000,1.403789794921875,1.7040001153945923,-15.18795108795166,-3.1429500579833984
1772541311968699600,1.41369970703125,1.4740500450134277,-17.71095085144043,-6.508950233459473
1772541311978609700,1.423609619140625,2.098950147628784,-15.508050918579102,-13.402050971984863
1772541311988520000,1.43352001953125,1.8570001125335693,-14.311050415039062,-18.20505142211914
1772541311998430200,1.44343017578125,1.3039500713348389,-14.614951133728027,-19.753950119018555
1772541312008340000,1.453340087890625,-1.2370500564575195,-13.969050407409668,-21.478050231933594
1772541312018250200,1.463250244140625,-3.009000062942505,-14.287050247192383,-21.850950241088867
1772541312028160300,1.47316015625,-1.0600500106811523,-14.170050621032715,-22.009050369262695
1772541312038070500,1.483070556640625,1.5769500732421875,-12.25005054473877,-21.178951263427734
1772541312047980300,1.492980224609375,2.1760501861572266,-10.0420503616333,-18.90705108642578
1772541312057890600,1.502890625,2.9200501441955566,-8.782950401306152,-17.142000198364258
1772541312067800600,1.512800537109375,3.7680001258850098,-8.230050086975098,-14.437050819396973
1772541312077710600,1.522710693359375,5.671050071716309,-7.777950286865234,-11.391000747680664
1772541312087620600,1.53262060546875,7.249050140380859,-5.443050384521484,-0.5959500074386597
1772541312097530600,1.542530517578125,11.508000373840332,0.6060000061988831,14.57295036315918
1772541312107441000,1.55244091796875,17.270999908447266,3.5239500999450684,28.705951690673828
1772541312117351000,1.562350830078125,9.42495059967041,-1.3350000381469727,7.675050258636475
1772541312127261000,1.572260986328125,7.657950401306152,-3.145050048828125,1.1460000276565552
1772541312137171200,1.582171142578125,2.3170502185821533,-7.501950263977051,0.021000001579523087
1772541312147081200,1.592081298828125,-3.1620001792907715,-8.295000076293945,-1.659000039100647
1772541312156991200,1.6019912109375,-2.997000217437744,-7.639050483703613,-2.212050199508667
1772541312176811500,1.6218115234375,-3.181950092315674,-6.76200008392334,-6.094950199127197
1772541312186721500,1.631721435546875,-2.073000192642212,-6.970950126647949,-6.6910505294799805
1772541312196631600,1.641631591796875,-1.8790501356124878,-7.903950214385986,-6.748950481414795
1772541312206541800,1.651541748046875,0.16200000047683716,-7.5960001945495605,-5.3959503173828125
1772541312216451800,1.661451904296875,0.7680000066757202,-7.621950149536133,-4.4670000076293945
1772541312226362000,1.671362060546875,-0.4350000321865082,-7.762950420379639,-4.801950454711914
1772541312236271900,1.68127197265625,-0.16200000047683716,-8.04104995727539,-6.004050254821777
1772541312246182100,1.69118212890625,0.6340500116348267,-7.780050277709961,-6.559950351715088
1772541312256092000,1.701091796875,1.2420001029968262,-7.219950199127197,-5.647950172424316
1772541312266002200,1.711002197265625,0.8800500631332397,-6.444000244140625,-4.213050365447998
1772541312275912200,1.720912109375,0.05205000191926956,-6.517950534820557,-4.335000038146973
1772541312285822500,1.730822509765625,-0.28200000524520874,-6.6190505027771,-5.418000221252441
1772541312295732200,1.740732177734375,-0.44700002670288086,-6.250050067901611,-4.972050189971924
1772541312305642500,1.750642578125,-1.281000018119812,-6.496950149536133,-4.594050407409668
1772541312315552500,1.760552490234375,-3.7420501708984375,-7.018950462341309,-3.5839502811431885
1772541312325462800,1.770462890625,-3.3319501876831055,-6.388950347900391,-1.7070001363754272
1772541312335372800,1.780372802734375,-1.582050085067749,-7.25100040435791,-3.475950241088867
1772541312345282800,1.79028271484375,-0.6390000581741333,-8.161050796508789,-5.025000095367432
1772541312355192800,1.80019287109375,0.022950001060962677,-8.601000785827637,-5.695050239562988
1772541312365103000,1.81010302734375,0.028050001710653305,-9.223950386047363,-6.354000091552734
1772541312375013000,1.82001318359375,-0.2440500110387802,-9.456000328063965,-6.531000137329102
1772541312384923400,1.82992333984375,0.5140500068664551,-8.881050109863281,-5.353050231933594
1772541312394833400,1.83983349609375,0.3559500277042389,-9.195000648498535,-5.82705020904541
1772541312404743400,1.849743408203125,-0.22995001077651978,-9.475050926208496,-6.844950199127197
1772541312414653400,1.8596533203125,0.4249500334262848,-9.657000541687012,-8.820000648498535
1772541312424563700,1.869563720703125,3.366000175476074,-11.581950187683105,-14.829000473022461
1772541312434473700,1.8794736328125,0.1879500150680542,-8.398050308227539,-7.7470502853393555
1772541312444384000,1.889384033203125,1.579050064086914,-8.884050369262695,-9.34695053100586
1772541312454293800,1.899293701171875,1.9939501285552979,-9.834000587463379,-11.767050743103027
1772541312464204000,1.9092041015625,2.5639500617980957,-11.206050872802734,-17.152050018310547
1772541312474114000,1.919114013671875,1.2109500169754028,-14.341950416564941,-24.7939510345459
1772541312484024300,1.9290244140625,-3.1240501403808594,-9.9660005569458,-11.758050918579102
1772541312493934300,1.938934326171875,-4.198950290679932,-7.9710001945495605,-10.671000480651855
1772541312503844400,1.94884423828125,-3.1620001792907715,-8.282999992370605,-8.281050682067871
1772541312513754400,1.95875439453125,-2.419950008392334,-7.279950141906738,-8.212050437927246
1772541312523664600,1.96866455078125,-5.101950168609619,-8.163000106811523,-10.381050109863281
1772541312533574700,1.97857470703125,-4.051050186157227,-6.69795036315918,-2.76705002784729
1772541312543485000,1.98848486328125,-0.6460500359535217,-5.083950042724609,-1.0390501022338867
1772541312553395000,1.99839501953125,2.2789502143859863,-6.808050155639648,-0.35895001888275146
1772541312563305000,2.008304931640625,2.209050178527832,-8.047950744628906,-0.6100500226020813
1772541312573215000,2.018215087890625,2.9850001335144043,-9.24000072479248,-1.6540501117706299
1772541312583125200,2.028125244140625,4.567049980163574,-10.50195026397705,-3.5020501613616943
1772541312593035300,2.03803515625,5.068050384521484,-11.338050842285156,-3.198000192642212
1772541312602945500,2.047945556640625,2.26200008392334,-11.718000411987305,-1.8139500617980957
1772541312612855300,2.057855224609375,7.291950225830078,-12.970951080322266,-8.644950866699219
1772541312622765600,2.067765625,-3.3109500408172607,-15.38895034790039,-10.386000633239746
1772541312632675600,2.077675537109375,-10.96500015258789,-18.207000732421875,-7.2210001945495605
1772541312642585900,2.0875859375,0.5839500427246094,-15.432001113891602,-4.932000160217285
1772541312652496100,2.09749609375,1.0459500551223755,-13.915950775146484,-1.9720500707626343
1772541312662406000,2.107406005859375,-0.08100000023841858,-12.8100004196167,-2.242950201034546
1772541312672316200,2.117316162109375,1.8520500659942627,-10.55505084991455,-4.009950160980225
1772541312682226200,2.12722607421875,2.7720000743865967,-8.758950233459473,-5.868000507354736
1772541312692136400,2.137136474609375,0.909000039100647,-10.107000350952148,-8.343000411987305
1772541312702046500,2.14704638671875,1.5630000829696655,-10.279050827026367,-10.515000343322754
1772541312711956500,2.15695654296875,1.9459501504898071,-9.304950714111328,-9.736950874328613
1772541312721866800,2.16686669921875,2.009999990463257,-9.26400089263916,-10.612950325012207
1772541312731776800,2.17677685546875,2.986950159072876,-9.109050750732422,-12.339000701904297
1772541312741686800,2.186686767578125,3.0730502605438232,-9.70995044708252,-14.833950996398926
1772541312751597000,2.19659716796875,0.909000039100647,-8.758950233459473,-13.354050636291504
1772541312761507000,2.206507080078125,-2.1229500770568848,-5.874000072479248,-10.67805004119873
1772541312771417300,2.216417236328125,-3.318000078201294,-2.1100502014160156,-7.648950576782227
1772541312781327400,2.226327392578125,-0.037950001657009125,1.606950044631958,-1.1269500255584717
1772541312791237400,2.2362373046875,1.2300000190734863,3.003000259399414,0.18900001049041748
1772541312801147600,2.246147705078125,2.2450501918792725,3.169950246810913,-1.1220000982284546
1772541312811057700,2.2560576171875,0.49995002150535583,1.91100013256073,-1.711050033569336
1772541312820967700,2.2659677734375,-0.5460000038146973,1.141950011253357,-0.8089500665664673
1772541312830877700,2.275877685546875,-2.9640002250671387,-0.7630500197410583,0.5790000557899475
1772541312840788000,2.2857880859375,-4.065000057220459,-2.199000120162964,2.53695011138916
1772541312850698000,2.295697998046875,-2.868000030517578,-3.703050136566162,4.108050346374512
1772541312860608300,2.305608154296875,0.6460500359535217,-3.352950096130371,5.566050052642822
1772541312870518300,2.315518310546875,2.2980000972747803,-4.464000225067139,5.880000114440918
1772541312880428300,2.32542822265625,5.392950057983398,-5.580000400543213,6.145050525665283
1772541312890338600,2.335338623046875,7.680000305175781,-7.384950160980225,3.5910000801086426
1772541312900248600,2.34524853515625,9.847050666809082,-9.26400089263916,-0.19095000624656677
1772541312910158600,2.35515869140625,8.544000625610352,-11.260950088500977,-5.080050468444824
1772541312920068900,2.36506884765625,5.994000434875488,-12.874950408935547,-7.34505033493042
1772541312929979000,2.374978759765625,4.813950061798096,-11.131950378417969,-6.904050350189209
1772541312939889000,2.384888916015625,5.563050270080566,-6.834000110626221,-4.366950035095215
1772541312949799200,2.394799072265625,6.715050220489502,-4.948050022125244,-1.6560001373291016
1772541312959709200,2.404709228515625,7.225050449371338,-4.918950080871582,-0.05205000191926956
1772541312969619700,2.41461962890625,5.962950229644775,-4.44195032119751,-0.5530500411987305
1772541312979529500,2.424529541015625,4.180050373077393,-4.335000038146973,-1.4070000648498535
1772541312989439500,2.434439453125,3.069000244140625,-5.52495002746582,-2.1229500770568848
1772541312999349800,2.444349853515625,4.984050273895264,-8.756999969482422,-6.010950088500977
1772541313009259800,2.454259765625,3.2700002193450928,-8.848050117492676,-10.567950248718262
1772541313019170000,2.464170166015625,1.7970000505447388,-8.212950706481934,-13.243950843811035
1772541313029080000,2.474080078125,0.4519500136375427,-9.169050216674805,-16.47599983215332
1772541313038990300,2.483990234375,1.7610000371932983,-9.702000617980957,-18.009000778198242
1772541313048900400,2.493900390625,3.741000175476074,-8.434050559997559,-18.568950653076172
1772541313058810400,2.503810302734375,4.110000133514404,-9.904050827026367,-14.283000946044922
1772541313068720600,2.513720703125,5.9320502281188965,-12.094050407409668,-13.041000366210938
1772541313078630700,2.523630615234375,7.848000526428223,-10.950000762939453,-11.098950386047363
1772541313088541000,2.533541015625,8.08905029296875,-8.224950790405273,-6.499950408935547
1772541313098451000,2.543450927734375,6.435000419616699,-7.04295015335083,-1.4479501247406006
1772541313108361200,2.553361328125,5.566050052642822,-7.183950424194336,0.9810000658035278
1772541313118271200,2.563271240234375,5.674050331115723,-7.675050258636475,1.603950023651123
1772541313128181500,2.573181396484375,5.391000270843506,-8.224950790405273,0.07395000010728836
1772541313138091500,2.583091552734375,4.764000415802002,-8.545949935913086,-2.788950204849243
1772541313148001800,2.593001708984375,4.339950084686279,-9.316950798034668,-4.9960503578186035
1772541313157911600,2.60291162109375,3.2149500846862793,-9.922950744628906,-6.148050308227539
1772541313167821800,2.61282177734375,1.7760001420974731,-10.39905071258545,-5.853000164031982
1772541313177732000,2.622732177734375,0.1789500117301941,-10.356000900268555,-4.833000183105469
1772541313187642000,2.63264208984375,-0.8899500370025635,-10.159950256347656,-4.644000053405762
1772541313197552400,2.642552490234375,-1.2880500555038452,-10.051950454711914,-5.535000324249268
1772541313207462700,2.652462646484375,-1.1869500875473022,-9.655050277709961,-5.9160003662109375
1772541313217372700,2.66237255859375,-0.7320000529289246,-8.857050895690918,-5.595000267028809
1772541313227283000,2.672282958984375,0.0970500037074089,-7.726950168609619,-5.638050079345703
1772541313237193000,2.68219287109375,0.76500004529953,-6.3510003089904785,-5.779050350189209
1772541313247103000,2.69210302734375,1.1650500297546387,-5.467050075531006,-4.611000061035156
1772541313257013200,2.70201318359375,1.8090001344680786,-5.010000228881836,-3.238950252532959
1772541313266923300,2.71192333984375,1.9170000553131104,-4.773000240325928,-2.16195011138916
1772541313276833500,2.72183349609375,1.8400501012802124,-4.597949981689453,-1.6399500370025635
1772541313286743600,2.73174365234375,1.5460500717163086,-4.2870001792907715,-1.8240001201629639
1772541313296653800,2.74165380859375,0.4830000102519989,-3.643050193786621,-1.9360500574111938
1772541313306564000,2.751564208984375,0.895050048828125,-4.231950283050537,-2.5420501232147217
1772541313316474000,2.76147412109375,1.7160000801086426,-5.082000255584717,-3.217050075531006
1772541313326384000,2.771384033203125,2.290950059890747,-5.908050060272217,-4.182000160217285
1772541313336294100,2.781294189453125,2.590050220489502,-6.814950466156006,-5.317050457000732
1772541313346204700,2.79120458984375,2.817000150680542,-7.581000328063965,-7.1770501136779785
1772541313356114400,2.801114501953125,2.8720500469207764,-7.330050468444824,-8.113950729370117
1772541313366025000,2.81102490234375,2.451000213623047,-7.129050254821777,-7.993950366973877
1772541313375934700,2.820934814453125,1.9840500354766846,-6.8959503173828125,-6.538050174713135
1772541313385845000,2.830844970703125,1.6470000743865967,-6.376950263977051,-5.3580002784729
1772541313395755300,2.84075537109375,0.7800000309944153,-5.656050205230713,-4.639950275421143
1772541313405665300,2.850665283203125,0.6700500249862671,-5.019000053405762,-3.265050172805786
1772541313415575300,2.8605751953125,1.1149500608444214,-4.557000160217285,-1.8619500398635864
1772541313425485600,2.870485595703125,1.7260501384735107,-4.255949974060059,-1.8960001468658447
1772541313435395600,2.8803955078125,1.807050108909607,-4.129050254821777,-3.0210001468658447
1772541313445305900,2.890305908203125,1.4140501022338867,-5.139000415802002,-2.899050235748291
1772541313455215900,2.9002158203125,0.547950029373169,-5.680050373077393,-3.4860000610351562
1772541313465126100,2.910126220703125,-0.22500000894069672,-6.051000118255615,-4.591950416564941
1772541313475036400,2.920036376953125,-0.5070000290870667,-6.2910003662109375,-5.209050178527832
1772541313484946400,2.929946533203125,-1.6609500646591187,-6.243000507354736,-5.062950134277344
1772541313494856700,2.939856689453125,-2.91795015335083,-5.673000335693359,-4.864950180053711
1772541313504766700,2.9497666015625,-2.619000196456909,-4.954950332641602,-3.808950185775757
1772541313514677000,2.959677001953125,-2.344050168991089,-5.271000385284424,-2.788950204849243
1772541313524587000,2.9695869140625,-1.6849501132965088,-5.170050144195557,-1.8049501180648804
1772541313534497300,2.979497314453125,-1.2160500288009644,-4.569000244140625,-0.7680000066757202
1772541313544407300,2.9894072265625,-0.4900500178337097,-3.813000202178955,-0.4710000157356262
1772541313554317600,2.999317626953125,9.646050453186035,-4.5329999923706055,0.013950000517070293
1772541313564227600,3.0092275390625,13.392000198364258,-11.96505069732666,2.140050172805786
1772541313574137900,3.019137939453125,6.59505033493042,-28.16400146484375,16.290000915527344
1772541313584048000,3.029048095703125,-0.4620000123977661,-53.938053131103516,10.771050453186035
1772541313593958400,3.03895849609375,-3.636000156402588,-65.24595642089844,-13.267951011657715
1772541313603868400,3.048868408203125,-10.531950950622559,-39.160953521728516,2.2330501079559326
1772541313613778700,3.05877880859375,-7.14900016784668,-16.549951553344727,1.024049997329712
1772541313623688700,3.068688720703125,-1.3000500202178955,-8.793000221252441,-1.8409501314163208
1772541313633599000,3.078598876953125,1.582050085067749,-10.38705062866211,-2.1060001850128174
1772541313643509200,3.08850927734375,2.476950168609619,-12.384000778198242,0.1290000081062317
1772541313653419300,3.098419189453125,1.88100004196167,-11.491050720214844,3.14805006980896
1772541313663329500,3.10832958984375,1.6150500774383545,-10.69800090789795,6.202950477600098
1772541313673239600,3.118239501953125,2.4630000591278076,-10.86405086517334,7.864050388336182
1772541313683149800,3.12814990234375,3.696000099182129,-11.862000465393066,8.307000160217285
1772541313693059800,3.138059814453125,3.7680001258850098,-12.54900074005127,7.5169501304626465
1772541313702970000,3.14797021484375,4.174950122833252,-12.583050727844238,4.960050106048584
1772541313712880400,3.15788037109375,4.948050022125244,-12.568050384521484,2.4970500469207764
1772541313722790400,3.167790283203125,2.748000144958496,-12.255000114440918,0.7459500432014465
1772541313732700700,3.17770068359375,0.7180500626564026,-12.702000617980957,0.6100500226020813
1772541313742610700,3.187610595703125,-2.004000186920166,-12.312000274658203,0.5190000534057617
1772541313752521000,3.19752099609375,-4.599000453948975,-11.893050193786621,-0.05700000375509262
1772541313762431000,3.207430908203125,-6.684000492095947,-11.754000663757324,0.3439500033855438
1772541313772341500,3.217341552734375,-6.724950313568115,-11.311050415039062,0.7080000042915344
1772541313782251300,3.227251220703125,-2.860950231552124,-11.338050842285156,-1.3810501098632812
1772541313792161800,3.237161865234375,2.3460001945495605,-11.460000991821289,-1.9459501504898071
1772541313802071800,3.24707177734375,4.575000286102295,-11.503050804138184,-1.4479501247406006
1772541313811982000,3.256982177734375,6.049050331115723,-11.806950569152832,-1.2130500078201294
1772541313821892400,3.266892333984375,5.887050151824951,-12.310050964355469,-2.616000175476074
1772541313831802400,3.27680224609375,7.2300004959106445,-12.738000869750977,-4.984050273895264
1772541313841712600,3.286712646484375,6.997950553894043,-13.06605052947998,-6.511950492858887
1772541313851622700,3.29662255859375,0.2580000162124634,-12.372000694274902,-2.4660000801086426
1772541313861533000,3.306532958984375,-3.747000217437744,-10.665000915527344,1.9480501413345337
1772541313871443200,3.316443115234375,-2.311950206756592,-8.766000747680664,1.9240500926971436
1772541313881353500,3.326353515625,2.416950225830078,-7.335000514984131,1.4929500818252563
1772541313891263700,3.336263671875,5.002950191497803,-6.730950355529785,1.5940500497817993
1772541313901173800,3.346173828125,4.386000156402588,-6.676050186157227,1.3669500350952148
1772541313911084000,3.356083984375,2.290950059890747,-6.525000095367432,1.8310500383377075
1772541313920994000,3.365994140625,0.30300000309944153,-5.838000297546387,2.499000072479248
1772541313930904300,3.375904296875,-0.6289500594139099,-4.651050090789795,2.53695011138916
1772541313940814600,3.385814697265625,0.3660000264644623,-3.8970000743865967,2.590050220489502
1772541313950724600,3.395724609375,1.0720500946044922,-3.1660501956939697,2.287950038909912
1772541313960635100,3.40563525390625,1.158000111579895,-2.3710501194000244,1.38795006275177
1772541313970545200,3.415545166015625,0.9280500411987305,-1.158000111579895,0.8470500111579895
1772541313980455400,3.425455322265625,0.8110500574111938,-0.13500000536441803,0.7510500550270081
1772541313990365400,3.435365478515625,0.6940500140190125,0.45795002579689026,1.1530500650405884
1772541314000275700,3.445275634765625,0.6000000238418579,0.4339500069618225,1.4119501113891602
1772541314010185700,3.455185791015625,0.6409500241279602,0.18495000898838043,1.048050045967102
1772541314020096000,3.465095947265625,1.0069500207901,-0.0990000069141388,0.612000048160553
1772541314030006300,3.47500634765625,1.4860501289367676,-0.24300001561641693,-0.1789500117301941
1772541314039916300,3.484916259765625,2.2360501289367676,-0.3270000219345093,-0.5329500436782837
1772541314049826800,3.494826904296875,3.516000270843506,-0.4350000321865082,-1.5610500574111938
1772541314059736800,3.50473681640625,5.214000225067139,-0.9640500545501709,-3.1810500621795654
1772541314069647000,3.514647216796875,7.342050552368164,-2.239950180053711,-6.045000076293945
1772541314079557400,3.524557373046875,9.355950355529785,-4.0159502029418945,-9.997950553894043
1772541314089467400,3.53446728515625,9.877950668334961,-6.454050540924072,-13.753951072692871
1772541314099377700,3.544377685546875,5.676000118255615,-7.8160505294799805,-15.199951171875
1772541314109288000,3.554287841796875,-1.024049997329712,-8.271000862121582,-13.7760009765625
1772541314119198200,3.5641982421875,-4.281000137329102,-7.1449503898620605,-9.660000801086426
1772541314129108200,3.574108154296875,-0.8809500336647034,-4.768050193786621,-4.534049987792969
1772541314139018500,3.5840185546875,9.301050186157227,-1.6840500831604004,1.276050090789795
1772541314148928800,3.5939287109375,45.492000579833984,1.798050045967102,9.82800006866455
1772541314158838800,3.6038388671875,36.263999938964844,-5.862000465393066,-0.559950053691864
1772541314168749300,3.613749267578125,-16.987051010131836,-21.23295021057129,-1.4100000858306885
1772541314178659300,3.623659423828125,-25.93800163269043,-27.645000457763672,11.03895092010498
1772541314188569600,3.633569580078125,18.61695098876953,-25.837051391601562,12.811050415039062
1772541314198479600,3.643479736328125,13.926000595092773,-16.68600082397461,-0.3660000264644623
1772541314208390000,3.653389892578125,-2.3800501823425293,-9.565950393676758,-4.659000396728516
1772541314218300400,3.663300537109375,7.522050380706787,-4.383000373840332,-2.502000093460083
1772541314228210400,3.67321044921875,4.860000133514404,-2.9629502296447754,1.1220000982284546
1772541314238120700,3.68312060546875,-1.4359500408172607,-4.299000263214111,6.732000350952148
1772541314248030700,3.69303076171875,3.555000066757202,-6.717000484466553,8.01300048828125
1772541314257941000,3.70294091796875,3.4830002784729004,-9.834000587463379,4.924050331115723
1772541314267851300,3.712851318359375,4.170000076293945,-12.99000072479248,2.896050214767456
1772541314277761500,3.722761474609375,4.680000305175781,-15.15195083618164,3.0520501136779785
1772541314287671600,3.732671630859375,4.414050102233887,-15.010050773620605,2.02305006980896
1772541314297581800,3.742581787109375,3.907050132751465,-13.404000282287598,0.9019500613212585
1772541314307492400,3.752492431640625,3.0180001258850098,-11.752050399780273,0.6649500131607056
1772541314317402400,3.76240234375,2.5129501819610596,-10.593000411987305,1.7500500679016113
1772541314327312600,3.772312744140625,1.5340501070022583,-9.472949981689453,1.9170000553131104
1772541314337223000,3.782222900390625,1.2420001029968262,-8.920050621032715,1.8840000629425049
1772541314347133000,3.7921328125,0.9400500655174255,-8.809050559997559,1.7850000858306885
1772541314357043200,3.802043212890625,0.11700000613927841,-9.2160005569458,1.828950047492981
1772541314366953500,3.811953369140625,-0.6370500326156616,-9.769950866699219,1.8190500736236572
1772541314376863700,3.82186376953125,-1.4700000286102295,-10.354050636291504,1.6230000257492065
1772541314386774000,3.83177392578125,-1.6849501132965088,-10.672050476074219,1.6800000667572021
1772541314396684300,3.841684326171875,-1.2280501127243042,-10.27500057220459,1.6249500513076782
1772541314406594600,3.851594482421875,-1.1820000410079956,-9.70995044708252,1.1730000972747803
1772541314416504600,3.861504638671875,-1.0669500827789307,-9.121050834655762,0.5070000290870667
1772541314426414800,3.871414794921875,-0.39000001549720764,-9.022950172424316,-0.7680000066757202
1772541314436324900,3.881324951171875,-0.361050009727478,-9.600000381469727,-2.2330501079559326
1772541314446235400,3.8912353515625,-0.505050003528595,-10.32300090789795,-3.4039502143859863
1772541314456145400,3.9011455078125,-1.1490000486373901,-10.300950050354004,-3.7390501499176025
1772541314466055700,3.9110556640625,-1.7740501165390015,-9.871950149536133,-4.198950290679932
1772541314475966000,3.920966064453125,-1.1869500875473022,-9.481950759887695,-4.89300012588501
1772541314485876000,3.9308759765625,-0.9480000734329224,-8.854949951171875,-5.0560503005981445
1772541314495786500,3.940786376953125,-1.327950119972229,-8.10105037689209,-4.885950088500977
1772541314505696800,3.95069677734375,-1.1779500246047974,-7.228950500488281,-4.600950241088867
1772541314515606800,3.960606689453125,-0.5260500311851501,-6.424950122833252,-4.426050186157227
1772541314525517300,3.970517333984375,-0.15495000779628754,-5.794950485229492,-4.510050296783447
1772541314535427300,3.98042724609375,-0.1099500060081482,-5.440950393676758,-4.009950160980225
1772541314545337600,3.990337646484375,-0.46695002913475037,-5.464950084686279,-3.2530500888824463
1772541314555247900,4.000247802734375,-0.1579500138759613,-5.917050361633301,-2.490000009536743
1772541314565158000,4.010157958984375,1.2540000677108765,-6.906000137329102,-1.7260501384735107
1772541314575068400,4.020068359375,2.7310500144958496,-7.9069504737854,-1.2570000886917114
1772541314584978400,4.029978515625,3.1690502166748047,-8.419050216674805,-0.7660500407218933
1772541314594888700,4.039888671875,3.0229501724243164,-9.070050239562988,-0.7510500550270081
1772541314604799000,4.049799072265625,2.556000232696533,-9.889050483703613,-1.4410500526428223
1772541314614709200,4.059709228515625,1.6080000400543213,-10.82295036315918,-2.502000093460083
1772541314624619300,4.069619384765625,0.595050036907196,-11.344950675964355,-3.636000156402588
1772541314634529500,4.079529541015625,-0.3829500079154968,-11.182050704956055,-5.109000205993652
1772541314644440000,4.089440185546875,-0.33195000886917114,-10.717950820922852,-6.532950401306152
1772541314654350000,4.09935009765625,0.28200000524520874,-9.963000297546387,-7.051050186157227
1772541314664260400,4.10926025390625,0.6769500374794006,-9.44895076751709,-6.877950191497803
1772541314674171000,4.1191708984375,0.7680000066757202,-9.118050575256348,-6.265050411224365
1772541314684081000,4.129080810546875,0.6649500131607056,-8.94105052947998,-5.109000205993652
1772541314693991000,4.138990966796875,0.2959500253200531,-9.42495059967041,-3.973950147628784
1772541314703901200,4.148901123046875,0.31800001859664917,-10.447050094604492,-3.495000123977661
1772541314713811700,4.158811767578125,0.8179500102996826,-11.220000267028809,-3.4399502277374268
1772541314723721700,4.1687216796875,1.0170000791549683,-11.419050216674805,-4.05495023727417
1772541314733632000,4.178632080078125,0.6720000505447388,-10.845000267028809,-4.266000270843506
1772541314743542300,4.188542236328125,0.32505002617836,-10.957050323486328,-5.512950420379639
1772541314753452500,4.19845263671875,0.4930500090122223,-11.629950523376465,-5.607000350952148
1772541314763362800,4.20836279296875,2.359950065612793,-12.748050689697266,-4.644000053405762
1772541314773272800,4.21827294921875,5.776950359344482,-13.999950408935547,-2.9350502490997314
1772541314783183400,4.228183349609375,8.970000267028809,-15.01305103302002,-0.9259500503540039
1772541314793093400,4.23809326171875,8.221050262451172,-15.906001091003418,-0.4620000123977661
1772541314803003600,4.248003662109375,4.809000015258789,-15.999000549316406,-1.2540000677108765
1772541314812914200,4.2579140625,3.514050245285034,-15.358050346374512,-0.8970000147819519
1772541314822824200,4.26782421875,6.970950126647949,-14.50005054473877,0.8209500312805176
1772541314832734500,4.277734375,7.318050384521484,-14.074050903320312,0.23895001411437988
1772541314842645000,4.28764501953125,4.314000129699707,-14.260951042175293,-0.8590500354766846
1772541314852555000,4.297554931640625,1.5649501085281372,-15.322051048278809,-1.1299500465393066
1772541314862465300,4.30746533203125,0.48795002698898315,-16.961999893188477,0.38700002431869507
1772541314872375300,4.317375244140625,0.022950001060962677,-18.53205108642578,2.6860501766204834
1772541314882285800,4.327285888671875,0.13095000386238098,-19.485000610351562,5.692950248718262
1772541314892195800,4.33719580078125,0.4759500324726105,-19.71000099182129,8.427000045776367
1772541314902106000,4.347106201171875,0.7890000343322754,-18.621000289916992,9.303000450134277
1772541314912016600,4.3570166015625,1.2370500564575195,-16.468050003051758,7.492950439453125
1772541314921926700,4.3669267578125,0.9040500521659851,-13.734000205993652,3.390000104904175
1772541314931837000,4.3768369140625,0.547950029373169,-11.577000617980957,-1.4860501289367676
1772541314941747200,4.386747314453125,1.231950044631958,-10.528050422668457,-5.56095027923584
1772541314951657500,4.396657470703125,2.4409501552581787,-10.773000717163086,-8.104050636291504
1772541314961567700,4.406567626953125,3.888000249862671,-11.505000114440918,-9.17400074005127
1772541314971478000,4.41647802734375,3.913950204849243,-11.950950622558594,-6.703050136566162
1772541314981388300,4.42638818359375,3.2629501819610596,-10.708050727844238,-2.490000009536743
1772541314991298800,4.436298828125,2.7690000534057617,-9.295050621032715,-0.49800002574920654
1772541315001209000,4.446208984375,2.668950080871582,-8.208000183105469,0.15495000779628754
1772541315011118800,4.456118896484375,2.0850000381469727,-6.8580002784729,0.5070000290870667
1772541315021029400,4.466029296875,1.4980500936508179,-5.944050312042236,0.46095001697540283
1772541315030939400,4.475939453125,1.2709500789642334,-5.395050048828125,0.8010000586509705
1772541315040850000,4.485849853515625,1.3039500713348389,-5.1060004234313965,1.9390500783920288
1772541315050760000,4.495760009765625,1.6489500999450684,-5.11305046081543,3.0040502548217773
1772541315060670200,4.505670166015625,2.0460000038146973,-5.125050067901611,3.366000175476074
1772541315070580500,4.51558056640625,2.3050501346588135,-4.866000175476074,3.0180001258850098
1772541315080490800,4.52549072265625,2.1919500827789307,-4.423050403594971,2.1450002193450928
1772541315090401000,4.535401123046875,2.1090002059936523,-3.910950183868408,1.2079501152038574
1772541315100311300,4.545311279296875,1.9309500455856323,-3.4870500564575195,0.2050500065088272
1772541315110221600,4.5552216796875,1.7830500602722168,-3.138000249862671,-0.7660500407218933
1772541315120131800,4.5651318359375,2.0029501914978027,-2.7109501361846924,-1.3549500703811646
1772541315130042000,4.5750419921875,2.2930500507354736,-2.4049501419067383,-1.7590501308441162
1772541315139952400,4.584952392578125,2.511000156402588,-1.9399501085281372,-2.3749501705169678
1772541315149862700,4.594862548828125,2.887050151824951,-1.540950059890747,-2.3239500522613525
1772541315159773000,4.60477294921875,3.4590001106262207,-1.7749500274658203,-2.8939502239227295
1772541315169683200,4.61468310546875,4.102950096130371,-2.0050501823425293,-2.748000144958496
1772541315179593200,4.62459326171875,4.756950378417969,-2.587050199508667,-4.564949989318848
1772541315189503500,4.63450341796875,5.4340500831604,-3.343050241470337,-6.010950088500977
1772541315199413800,4.644413818359375,5.2759504318237305,-4.1170501708984375,-6.883050441741943
1772541315209324000,4.654323974609375,4.720950126647949,-4.6870503425598145,-7.551000595092773
1772541315219234300,4.664234375,4.278000354766846,-5.115000247955322,-7.173000335693359
1772541315229144300,4.674144287109375,3.8230502605438232,-5.151000022888184,-5.971050262451172
1772541315239054800,4.684054931640625,2.239950180053711,-4.762950420379639,-3.4450502395629883
1772541315248965000,4.693965087890625,-0.9019500613212585,-4.13100004196167,-0.9259500503540039
1772541315258875400,4.70387548828125,-1.6519501209259033,-3.6670501232147217,1.3900500535964966
1772541315268785700,4.71378564453125,7.848000526428223,-2.146050214767456,3.325050115585327
1772541315278695700,4.72369580078125,21.505950927734375,-0.31005001068115234,4.6780500411987305
1772541315288606000,4.73360595703125,10.588950157165527,-4.243950366973877,-0.7900500297546387
1772541315298516200,4.74351611328125,-4.810050010681152,-11.544000625610352,-7.267950534820557
1772541315308426500,4.753426513671875,-3.0259501934051514,-20.617950439453125,-4.507950305938721
1772541315318336800,4.763336669921875,20.281051635742188,-31.741050720214844,2.998950242996216
1772541315328247000,4.7732470703125,8.55405044555664,-36.46500015258789,0.7609500288963318
1772541315338157300,4.7831572265625,-3.4450502395629883,-28.73400115966797,-7.903050422668457
1772541315348067300,4.7930673828125,6.679050445556641,-17.341951370239258,-9.895050048828125
1772541315357977900,4.802977783203125,5.985000133514404,-8.97705078125,-4.429050445556641
1772541315367888100,4.81288818359375,2.4439501762390137,-3.58305025100708,0.6340500116348267
1772541315377798100,4.822798095703125,0.6940500140190125,-1.114050030708313,4.735050201416016
1772541315387708700,4.832708740234375,1.3039500713348389,-2.395050048828125,6.406050205230713
1772541315397618700,4.84261865234375,1.76895010471344,-6.580050468444824,5.00100040435791
1772541315407529000,4.852529052734375,1.0459500551223755,-11.059950828552246,2.5849502086639404
1772541315417439500,4.862439453125,0.9139500260353088,-14.718000411987305,0.856950044631958
1772541315427349500,4.872349609375,1.2160500288009644,-17.47395133972168,0.032999999821186066
1772541315437259800,4.882259765625,0.6169500350952148,-18.279001235961914,0.28200000524520874
1772541315447170000,4.892170166015625,0.37005001306533813,-16.79400062561035,-1.0030500888824463
1772541315457080300,4.902080322265625,0.21705001592636108,-14.464950561523438,-2.0970001220703125
1772541315466990600,4.911990478515625,-0.5620500445365906,-11.958000183105469,-1.6680001020431519
1772541315476900600,4.921900634765625,-1.221000075340271,-10.150050163269043,-0.9240000247955322
1772541315486811100,4.93181103515625,-1.64205002784729,-9.328950881958008,-0.7660500407218933
1772541315496721400,4.941721435546875,-1.7860500812530518,-9.171000480651855,-1.1970000267028809
1772541315506631700,4.951631591796875,-1.8550500869750977,-9.385950088500977,-2.0440499782562256
1772541315516542000,4.9615419921875,-1.4629501104354858,-9.702000617980957,-2.8969502449035645
1772541315526452000,4.971451904296875,-1.3570500612258911,-9.946950912475586,-3.535950183868408
1772541315536362200,4.9813623046875,-1.7860500812530518,-9.858000755310059,-3.7800002098083496
1772541315546272300,4.991272216796875,-1.8340500593185425,-9.40095043182373,-3.9910502433776855
1772541315556182800,5.001182861328125,-0.4810500144958496,-8.802000045776367,-4.474050045013428
1772541315566093000,5.011093017578125,0.4159500300884247,-7.897050380706787,-4.672950267791748
1772541315576003300,5.02100341796875,0.781950056552887,-6.796050548553467,-4.378950119018555
1772541315585913600,5.03091357421875,0.895050048828125,-5.938950061798096,-3.8110501766204834
1772541315595823600,5.04082373046875,0.8179500102996826,-5.640000343322754,-3.5500502586364746
1772541315605734000,5.05073388671875,0.7459500432014465,-5.656050205230713,-3.0400500297546387
1772541315615644200,5.06064404296875,0.5209500193595886,-5.826000213623047,-3.265050172805786
1772541315625554400,5.070554443359375,0.44700002670288086,-5.977050304412842,-2.892000198364258
1772541315635464700,5.080464599609375,0.7219500541687012,-6.1180500984191895,-2.4130501747131348
1772541315645375000,5.090375,0.781950056552887,-6.32895040512085,-1.6009501218795776
1772541315655285200,5.10028515625,0.7249500155448914,-6.681000232696533,-1.0410000085830688
1772541315665195300,5.1101953125,1.3230000734329224,-7.228950500488281,-0.8640000224113464
1772541315675105500,5.12010546875,2.3239500522613525,-7.8949503898620605,-1.258950114250183
1772541315685015800,5.130015869140625,2.6070001125335693,-8.689949989318848,-1.6540501117706299
1772541315694926000,5.139926025390625,2.158950090408325,-9.480000495910645,-2.6620500087738037
1772541315704836400,5.14983642578125,1.1959500312805176,-10.162050247192383,-4.138950347900391
1772541315714746600,5.15974658203125,1.0170000791549683,-10.569000244140625,-5.736000061035156
1772541315724657000,5.169656982421875,0.3679500222206116,-10.809000968933105,-7.138950347900391
1772541315734567200,5.179567138671875,-1.125,-10.710000038146973,-8.3100004196167
1772541315744477200,5.189477294921875,-1.8720000982284546,-11.082000732421875,-8.056050300598145
1772541315754387700,5.1993876953125,0.5670000314712524,-11.872050285339355,-6.6409502029418945
1772541315764297700,5.209297607421875,3.567000150680542,-12.946950912475586,-7.8409504890441895
1772541315774208000,5.2192080078125,5.829000473022461,-13.54995059967041,-9.02595043182373
1772541315784118300,5.2291181640625,4.408950328826904,-13.903950691223145,-8.959050178527832
1772541315794028500,5.239028564453125,1.2300000190734863,-14.485950469970703,-8.535000801086426
1772541315803938800,5.248938720703125,3.526050090789795,-15.003000259399414,-10.252050399780273
1772541315813848800,5.258848876953125,7.27500057220459,-15.84105110168457,-11.017950057983398
1772541315823759400,5.26875927734375,7.246950149536133,-16.111949920654297,-8.041950225830078
1772541315833669400,5.27866943359375,5.038950443267822,-15.091950416564941,-3.4740002155303955
1772541315843579600,5.28857958984375,4.756950378417969,-14.473950386047363,-0.4159500300884247
1772541315853490200,5.298490234375,6.160050392150879,-14.830950736999512,1.6710001230239868
1772541315863400400,5.308400390625,6.8680500984191895,-15.946950912475586,2.896050214767456
1772541315873310500,5.318310546875,6.409050464630127,-16.840051651000977,2.9659502506256104
1772541315883220700,5.328220703125,5.278950214385986,-17.397001266479492,2.688000202178955
1772541315893131000,5.338131103515625,3.724950075149536,-17.46900177001953,3.2629501819610596
1772541315903041000,5.348041015625,3.0019500255584717,-17.19900131225586,3.4330501556396484
1772541315912951300,5.357951416015625,2.4460501670837402,-16.138050079345703,2.7649500370025635
1772541315922861800,5.36786181640625,0.9979500770568848,-14.268000602722168,1.065000057220459
1772541315932771800,5.377771728515625,-0.226950004696846,-12.051000595092773,-1.798050045967102
1772541315942682000,5.38768212890625,-5.353050231933594,-9.841050148010254,-2.997000217437744
1772541315952592400,5.39759228515625,-8.32395076751709,-9.019950866699219,-1.540950059890747
1772541315962502700,5.407502685546875,-6.153000354766846,-10.675050735473633,-2.6140501499176025
1772541315972413000,5.417412841796875,-0.598050057888031,-11.746950149536133,-3.14805006980896
1772541315982323200,5.4273232421875,1.5390000343322754,-11.830950736999512,-2.0470499992370605
1772541315992233200,5.437233154296875,1.467000126838684,-11.041050910949707,-2.1949501037597656
1772541316002143700,5.447143798828125,0.6240000128746033,-10.477950096130371,-2.9920501708984375
1772541316012053800,5.4570537109375,1.062000036239624,-10.52595043182373,-4.656000137329102
1772541316021964000,5.466964111328125,4.278000354766846,-10.773000717163086,-7.062000274658203
1772541316031874000,5.4768740234375,8.134950637817383,-11.239950180053711,-9.169050216674805
1772541316041784600,5.48678466796875,4.837950229644775,-10.437000274658203,-4.9870500564575195
1772541316051694800,5.49669482421875,-0.8779500126838684,-8.854949951171875,1.9200000762939453
1772541316061604900,5.50660498046875,-3.8140501976013184,-7.107000350952148,2.9320502281188965
1772541316071515400,5.516515380859375,-1.798050045967102,-6.445950508117676,3.1690502166748047
1772541316081425400,5.52642529296875,1.1460000276565552,-5.898000240325928,2.4940500259399414
1772541316091335700,5.536335693359375,1.7260501384735107,-5.2009501457214355,2.2759501934051514
1772541316101246000,5.546245849609375,1.2540000677108765,-4.41795015335083,2.3940000534057617
1772541316111156000,5.556156005859375,0.6820500493049622,-3.66195011138916,2.6929500102996826
1772541316121066500,5.56606640625,0.07605000585317612,-3.184950113296509,2.4559500217437744
1772541316130976500,5.5759765625,-0.013950000517070293,-2.716050148010254,1.9320000410079956
1772541316140886800,5.58588671875,0.22395001351833344,-2.5219500064849854,1.024049997329712
1772541316150797000,5.595797119140625,0.2560500204563141,-2.6680500507354736,-0.7320000529289246
1772541316160707300,5.605707275390625,0.0019500000635161996,-2.8410000801086426,-1.5559500455856323
1772541316170617600,5.61561767578125,-0.26100000739097595,-3.1180500984191895,-1.8409501314163208
1772541316180527600,5.625527587890625,-0.19095000624656677,-3.8010001182556152,-1.7590501308441162
1772541316190438000,5.63543798828125,0.1360500007867813,-3.954000234603882,-1.7190001010894775
1772541316200348200,5.64534814453125,-0.2440500110387802,-4.258049964904785,-2.8650002479553223
1772541316210258400,5.655258544921875,-1.4149500131607056,-3.7290000915527344,-3.8140501976013184
1772541316220168700,5.665168701171875,-2.7840001583099365,-3.4200000762939453,-3.4420502185821533
1772541316230079000,5.675078857421875,-3.756000280380249,-3.0919501781463623,-2.9800500869750977
1772541316239989200,5.6849892578125,-1.1610000133514404,-2.8410000801086426,-1.612950086593628
1772541316249899300,5.694899169921875,4.089000225067139,-2.1610500812530518,-0.9499500393867493
1772541316259809500,5.7048095703125,6.226950168609619,-1.002000093460083,-0.7969500422477722
1772541316269719800,5.7147197265625,10.749000549316406,-0.9109500646591187,-0.739050030708313
1772541316279630000,5.724630126953125,-0.5239500403404236,-4.234050273895264,-3.390000104904175
1772541316289540400,5.734540283203125,-3.7350001335144043,-9.829050064086914,-2.1280500888824463
1772541316299450600,5.74445068359375,8.25195026397705,-17.356950759887695,1.9170000553131104
1772541316309360600,5.754360595703125,10.821000099182129,-26.365951538085938,3.0520501136779785
1772541316319270700,5.764270751953125,2.1610500812530518,-32.79195022583008,1.0740000009536743
1772541316329181200,5.77418115234375,6.600000381469727,-31.650001525878906,-7.879050254821777
1772541316339091500,5.784091552734375,11.056050300598145,-22.08795166015625,-13.624950408935547
1772541316349001500,5.79400146484375,6.2220001220703125,-11.260950088500977,-8.233050346374512
1772541316358911700,5.803911865234375,2.431950092315674,-5.497950077056885,-0.4159500300884247
1772541316368822000,5.813822021484375,1.8520500659942627,-2.9100000858306885,4.426050186157227
1772541316378732300,5.823732177734375,0.9139500260353088,-2.5200002193450928,6.406050205230713
1772541316388642600,5.833642578125,0.3150000274181366,-4.654950141906738,5.604000091552734
1772541316398552600,5.843552490234375,0.7890000343322754,-9.588000297546387,3.6630001068115234
1772541316408462800,5.853462890625,2.745000123977661,-14.805000305175781,0.4519500136375427
1772541316418373000,5.863373046875,2.889000177383423,-17.871000289916992,-1.2400500774383545
1772541316428283400,5.873283447265625,0.19095000624656677,-16.693950653076172,-0.29205000400543213
1772541316438193700,5.883193603515625,-1.1700000762939453,-13.444951057434082,0.5910000205039978
1772541316448104000,5.89310400390625,-1.0080000162124634,-10.809000968933105,-0.024000000208616257
1772541316458014000,5.903013916015625,-0.8110500574111938,-9.298050880432129,-1.0720500946044922
1772541316467924200,5.91292431640625,-0.598050057888031,-8.986950874328613,-1.6900501251220703
1772541316477834500,5.92283447265625,-0.4830000102519989,-9.127950668334961,-2.3749501705169678
1772541316487744500,5.93274462890625,-0.5790000557899475,-8.872050285339355,-2.6670000553131104
1772541316497655000,5.942655029296875,-0.27000001072883606,-8.446050643920898,-2.782050132751465
1772541316507565000,5.95256494140625,0.3559500277042389,-7.785000324249268,-2.502000093460083
1772541316517475300,5.962475341796875,0.547950029373169,-6.931950092315674,-2.2960500717163086
1772541316527385600,5.972385498046875,0.505050003528595,-6.166050434112549,-2.4870002269744873
1772541316537295600,5.982295654296875,0.30105000734329224,-5.473950386047363,-2.7769501209259033
1772541316547206100,5.9922060546875,0.23895001411437988,-5.086050033569336,-2.848950147628784
1772541316557116200,6.0021162109375,0.35805001854896545,-5.110050201416016,-2.9760000705718994
1772541316567026400,6.0120263671875,0.6960000395774841,-5.716050148010254,-2.7769501209259033
1772541316576936700,6.021936767578125,0.8779500126838684,-6.115950107574463,-2.379000186920166
1772541316586846700,6.0318466796875,0.6360000371932983,-6.30495023727417,-1.4650501012802124
1772541316596757000,6.041757080078125,0.28905001282691956,-6.469950199127197,-0.5839500427246094
1772541316606667300,6.051667236328125,0.09300000220537186,-6.457950115203857,0.08295000344514847
1772541316616577500,6.06157763671875,0.44505003094673157,-6.66195011138916,0.5190000534057617
1772541316626487600,6.071487548828125,1.467000126838684,-6.991950511932373,0.28005000948905945
1772541316636397800,6.081397705078125,2.8750500679016113,-7.495050430297852,-0.2770500183105469
1772541316646308000,6.09130810546875,1.76895010471344,-8.326050758361816,-0.6480000019073486
1772541316656218400,6.10121826171875,0.32505002617836,-8.857050895690918,-1.76895010471344
1772541316666128600,6.111128662109375,0.2560500204563141,-9.597000122070312,-2.797950029373169
1772541316676038700,6.12103857421875,0.32295000553131104,-10.324950218200684,-2.7840001583099365
1772541316685949000,6.130948974609375,1.3300501108169556,-11.12700080871582,-3.138000249862671
1772541316695859200,6.140859130859375,2.4100501537323,-11.500950813293457,-5.638050079345703
1772541316705769500,6.15076953125,2.7619500160217285,-11.995950698852539,-7.120050430297852
1772541316715679500,6.160679443359375,3.1120500564575195,-12.820050239562988,-7.80495023727417
1772541316725589800,6.17058984375,3.43500018119812,-14.055000305175781,-8.233050346374512
1772541316735500000,6.1805,3.3010501861572266,-15.334051132202148,-8.370000839233398
1772541316745410000,6.19041015625,2.7910501956939697,-16.243051528930664,-8.32395076751709
1772541316755320300,6.2003203125,1.6849501132965088,-17.163000106811523,-7.6710004806518555
1772541316765230600,6.210230712890625,0.5380499958992004,-18.003000259399414,-8.353050231933594
1772541316775140900,6.220140869140625,1.1389501094818115,-18.235050201416016,-9.71505069732666
1772541316785051100,6.230051025390625,2.499000072479248,-17.836050033569336,-8.58495044708252
1772541316794961200,6.239961181640625,3.3799500465393066,-16.878000259399414,-4.503000259399414
1772541316804871400,6.249871337890625,3.7009501457214355,-16.183950424194336,-0.6840000152587891
1772541316814781400,6.259781494140625,4.206000328063965,-15.409950256347656,1.6060501337051392
1772541316824691700,6.269691650390625,4.732950210571289,-15.061050415039062,2.430000066757202
1772541316834602000,6.27960205078125,5.044050216674805,-14.854950904846191,2.8630502223968506
1772541316844512300,6.28951220703125,5.134950160980225,-14.520000457763672,3.5719501972198486
1772541316854422500,6.299422607421875,5.247000217437744,-14.473950386047363,4.398000240325928
1772541316864332500,6.30933251953125,5.281050205230713,-14.548050880432129,4.254000186920166
1772541316874242800,6.319242919921875,5.977950096130371,-14.658000946044922,3.2220001220703125
1772541316884152800,6.32915283203125,5.962950229644775,-14.160000801086426,1.5390000343322754
1772541316894063400,6.3390634765625,4.299000263214111,-12.705000877380371,-1.2469500303268433
1772541316903973400,6.348973388671875,2.5279500484466553,-11.014050483703613,-4.254000186920166
1772541316913883600,6.358883544921875,-1.9800001382827759,-9.801000595092773,-6.0259504318237305
1772541316923794000,6.3687939453125,-8.893950462341309,-9.403050422668457,-3.9810001850128174
1772541316933704000,6.378703857421875,-12.265050888061523,-10.57395076751709,-2.82705020904541
1772541316943614200,6.3886142578125,-6.454050540924072,-12.769050598144531,-1.3210500478744507
1772541316953524200,6.398524169921875,1.4050500392913818,-13.336950302124023,-1.8169500827789307
1772541316963434500,6.4084345703125,4.2870001792907715,-12.073050498962402,-2.0779500007629395
1772541316973344800,6.4183447265625,2.5159502029418945,-10.903950691223145,-1.7470500469207764
1772541316983255000,6.428255126953125,0.7939500212669373,-10.531050682067871,-2.4870002269744873
1772541316993165000,6.4381650390625,1.891050100326538,-10.354050636291504,-5.020050048828125
1772541317003075300,6.448075439453125,6.672000408172607,-10.480950355529785,-8.209050178527832
1772541317012985600,6.457985595703125,8.965950012207031,-10.473000526428223,-6.7009501457214355
1772541317022895600,6.4678955078125,3.9499502182006836,-9.456000328063965,0.37095001339912415
1772541317032806000,6.477805908203125,-3.793950080871582,-7.3660502433776855,2.6950502395629883
1772541317042716000,6.4877158203125,-5.9920501708984375,-5.956050395965576,3.715050220489502
1772541317052626400,6.49762646484375,-2.638050079345703,-5.7210001945495605,4.291950225830078
1772541317062536400,6.507536376953125,0.505050003528595,-4.950000286102295,3.0859501361846924
1772541317072446700,6.51744677734375,2.1349501609802246,-3.9280502796173096,2.053950071334839
1772541317082357000,6.52735693359375,1.9170000553131104,-2.998950242996216,1.5889500379562378
1772541317092267000,6.53726708984375,0.700950026512146,-2.5200002193450928,1.711050033569336
1772541317102177500,6.547177490234375,-0.6130500435829163,-2.2710001468658447,2.1570000648498535
1772541317112087300,6.55708740234375,-0.9450000524520874,-2.055000066757202,2.269050121307373
1772541317121997800,6.566997802734375,-0.32805001735687256,-1.9549500942230225,2.032050132751465
1772541317131907800,6.576907958984375,0.5160000324249268,-2.379000186920166,0.32295000553131104
1772541317141818000,6.586818115234375,0.922950029373169,-2.8500001430511475,-0.21495001018047333
1772541317151728400,6.596728271484375,1.0360500812530518,-3.2689502239227295,-0.09495000541210175
1772541317161638400,6.606638427734375,0.9259500503540039,-3.5899500846862793,0.6000000238418579
1772541317171548700,6.616548583984375,1.120050072669983,-3.825000286102295,0.3559500277042389
1772541317181458700,6.626458740234375,1.4209500551223755,-3.9090001583099365,-0.7110000252723694
1772541317191369000,6.636368896484375,1.7260501384735107,-3.2760002613067627,-1.6200001239776611
1772541317201279000,6.646279052734375,1.4650501012802124,-2.7280502319335938,-2.86995005607605
1772541317211189500,6.656189453125,-1.4719500541687012,-2.719050168991089,-4.513050079345703
1772541317221099300,6.666099365234375,-4.540950298309326,-3.195000171661377,-4.965000152587891
1772541317231009800,6.676009765625,-1.4119501113891602,-2.5729501247406006,-4.740000247955322
1772541317240919800,6.685919921875,7.3969502449035645,-1.3440001010894775,-5.331000328063965
1772541317250830000,6.695830078125,12.183000564575195,-1.8019500970840454,-7.885950565338135
1772541317260740400,6.705740234375,5.250000476837158,-6.789000511169434,-7.624950408935547
1772541317270650400,6.715650390625,3.7200002670288086,-14.199000358581543,-2.748000144958496
1772541317280560600,6.725560546875,7.720950603485107,-22.96200180053711,1.1989500522613525
1772541317290470700,6.735470703125,6.442050457000732,-31.46805191040039,1.9870500564575195
1772541317300381200,6.745381103515625,1.9789501428604126,-34.123050689697266,-1.2280501127243042
1772541317310291200,6.755291259765625,7.660950183868408,-26.80695152282715,-9.85200023651123
1772541317320201500,6.765201416015625,8.503950119018555,-15.8100004196167,-11.5420503616333
1772541317330111500,6.775111572265625,5.986950397491455,-7.332000255584717,-4.510050296783447
1772541317340021800,6.785021728515625,2.7550501823425293,-2.6800501346588135,2.2759501934051514
1772541317349932000,6.79493212890625,0.8830500245094299,0.18000000715255737,6.447000503540039
1772541317359842000,6.804842041015625,0.9430500268936157,0.7930500507354736,8.218950271606445
1772541317369752300,6.81475244140625,0.531000018119812,-2.8120501041412354,7.819050312042236
1772541317379662600,6.82466259765625,0.5790000557899475,-8.788050651550293,4.909950256347656
1772541317389572600,6.834572509765625,1.4980500936508179,-14.863950729370117,1.5010501146316528
1772541317399483000,6.84448291015625,3.3919501304626465,-19.849050521850586,-1.4790000915527344
1772541317409393000,6.854392822265625,2.6640000343322754,-21.32400131225586,-2.739000082015991
1772541317419303200,6.86430322265625,0.28905001282691956,-17.532001495361328,-2.272050142288208
1772541317429213200,6.874213134765625,0.3679500222206116,-13.449000358581543,-2.299950122833252
1772541317439123700,6.884123779296875,0.8230500221252441,-10.464000701904297,-1.8769501447677612
1772541317449033700,6.89403369140625,0.8010000586509705,-8.770950317382812,-1.4980500936508179
1772541317458944000,6.903944091796875,0.24105000495910645,-8.019000053405762,-1.6060501337051392
1772541317468854300,6.913854248046875,-0.016050001606345177,-7.725000381469727,-2.3389501571655273
1772541317478764300,6.923764404296875,0.23895001411437988,-7.603050231933594,-2.7460501194000244
1772541317488674600,6.933674560546875,0.27195000648498535,-7.272000312805176,-3.1810500621795654
1772541317498584600,6.94358447265625,0.39705002307891846,-6.790950298309326,-3.3040502071380615
1772541317508494800,6.953494873046875,0.9739500284194946,-6.025050163269043,-3.1960501670837402
1772541317518404900,6.96340478515625,0.6889500617980957,-5.344950199127197,-2.9850001335144043
1772541317528315100,6.973315185546875,0.26295000314712524,-5.082000255584717,-2.9350502490997314
1772541317538225400,6.983225341796875,-0.43095001578330994,-5.091000080108643,-2.616000175476074
1772541317548135400,6.993135498046875,-0.5530500411987305,-5.173050403594971,-2.4030001163482666
1772541317558045700,7.003045654296875,0.013950000517070293,-5.557950496673584,-2.4940500259399414
1772541317567955700,7.012955810546875,0.8130000233650208,-5.374050140380859,-1.9440001249313354
1772541317577866000,7.022865966796875,1.6920000314712524,-5.460000038146973,-1.3260000944137573
1772541317587776000,7.03277587890625,1.6819500923156738,-5.539050102233887,-1.3399500846862793
1772541317597686300,7.042686279296875,1.5559500455856323,-5.781000137329102,-0.6700500249862671
1772541317607596300,7.05259619140625,1.519950032234192,-6.565950393676758,-0.05700000375509262
1772541317617506600,7.062506591796875,1.5720000267028809,-7.7659502029418945,-0.22200001776218414
1772541317627416800,7.072416748046875,1.7850000858306885,-9.007950782775879,-0.17400000989437103
1772541317637327000,7.0823271484375,1.918950080871582,-9.982950210571289,-0.5239500403404236
1772541317647236900,7.09223681640625,1.4380500316619873,-10.660050392150879,-1.1370000839233398
1772541317657147400,7.1021474609375,1.0549499988555908,-11.224950790405273,-2.6929500102996826
1772541317667057400,7.112057373046875,1.141050100326538,-11.899950981140137,-4.558050155639648
1772541317676967700,7.1219677734375,2.1450002193450928,-12.361950874328613,-5.181000232696533
1772541317686877700,7.131877685546875,2.3430001735687256,-12.577950477600098,-6.439950466156006
1772541317696788000,7.1417880859375,2.9320502281188965,-12.931950569152832,-8.017950057983398
1772541317706698000,7.151697998046875,2.9110500812530518,-13.681950569152832,-8.881950378417969
1772541317716608300,7.161608154296875,2.4529500007629395,-14.515050888061523,-8.758049964904785
1772541317726518500,7.1715185546875,1.4190000295639038,-15.310050964355469,-7.73805046081543
1772541317736428500,7.181428466796875,0.16005000472068787,-16.084951400756836,-6.913950443267822
1772541317746338800,7.1913388671875,0.4930500090122223,-16.666950225830078,-6.985950469970703
1772541317756248800,7.201248779296875,1.3189500570297241,-16.552051544189453,-6.253050327301025
1772541317766159000,7.2111591796875,2.0299501419067383,-15.97800064086914,-3.8140501976013184
1772541317776069000,7.221069091796875,2.5320000648498535,-15.693000793457031,-1.0459500551223755
1772541317785979400,7.2309794921875,3.0019500255584717,-16.308000564575195,0.8899500370025635
1772541317795889400,7.240889404296875,3.58305025100708,-16.87995147705078,2.257050037384033
1772541317805799700,7.250799560546875,4.471950054168701,-17.086050033569336,3.484950065612793
1772541317815709700,7.260709716796875,5.602050304412842,-16.897050857543945,3.9190502166748047
1772541317825620000,7.270619873046875,6.679050445556641,-16.79400062561035,5.074950218200684
1772541317835530200,7.2805302734375,7.464000225067139,-16.777050018310547,6.033000469207764
1772541317845440300,7.290440185546875,7.192050457000732,-16.61505126953125,5.91795015335083
1772541317855350500,7.3003505859375,6.054000377655029,-15.681000709533691,4.43595027923584
1772541317865260500,7.310260498046875,4.330049991607666,-13.894950866699219,2.7120001316070557
1772541317875170800,7.3201708984375,3.2220001220703125,-12.336000442504883,0.10695000737905502
1772541317885080800,7.330080810546875,4.852050304412842,-10.855950355529785,-4.5199503898620605
1772541317894991000,7.3399912109375,4.1509504318237305,-9.825000762939453,-6.904050350189209
1772541317904901000,7.349901123046875,0.9310500621795654,-9.849000930786133,-5.616000175476074
1772541317914811400,7.359811279296875,-3.1620001792907715,-11.377950668334961,-4.279950141906738
1772541317924721400,7.369721435546875,-6.31095027923584,-12.592050552368164,-1.7280000448226929
1772541317934631700,7.379631591796875,-4.80495023727417,-12.72195053100586,-0.0690000057220459
1772541317944542000,7.3895419921875,-0.5140500068664551,-11.850000381469727,-0.7110000252723694
1772541317954452000,7.399451904296875,2.5639500617980957,-10.545000076293945,-0.8659500479698181
1772541317964362200,7.4093623046875,4.579050064086914,-9.991950035095215,-1.5130500793457031
1772541317974272300,7.419272216796875,5.554050445556641,-9.979950904846191,-2.593050241470337
1772541317984182500,7.4291826171875,3.2749502658843994,-10.402050018310547,-3.8209502696990967
1772541317994092500,7.439092529296875,1.8000000715255737,-10.396950721740723,-4.663050174713135
1772541318004002800,7.4490029296875,3.4180500507354736,-9.010950088500977,-4.110000133514404
1772541318013913000,7.4589130859375,3.0330002307891846,-7.14300012588501,0.0019500000635161996
1772541318023823000,7.468822998046875,-0.8880000710487366,-6.025050163269043,2.596950054168701
1772541318033733000,7.478733154296875,-1.963050127029419,-6.11400032043457,2.596950054168701
1772541318043643400,7.488643310546875,-0.3829500079154968,-6.51300048828125,2.202000141143799
1772541318053553700,7.4985537109375,1.0699501037597656,-6.2310004234313965,1.8880500793457031
1772541318063463700,7.508463623046875,1.765950083732605,-5.4120001792907715,1.8190500736236572
1772541318073374000,7.5183740234375,1.527000069618225,-4.8420000076293945,2.053950071334839
1772541318083284000,7.528283935546875,0.9619500637054443,-4.195950031280518,2.092050075531006
1772541318093194200,7.5381943359375,0.23895001411437988,-3.432000160217285,1.7539501190185547
1772541318103104300,7.548104248046875,-0.06405000388622284,-2.785950183868408,1.812000036239624
1772541318113014500,7.5580146484375,0.4849500358104706,-2.1060001850128174,1.5319501161575317
1772541318122924500,7.567924560546875,1.4740500450134277,-1.5670500993728638,0.6720000505447388
1772541318132834800,7.577834716796875,1.8139500617980957,-1.057050108909607,-0.2050500065088272
1772541318142745000,7.5877451171875,1.371000051498413,-0.9850500226020813,-0.9520500302314758
1772541318152655000,7.597655029296875,1.0000500679016113,-1.0039499998092651,-0.8760000467300415
1772541318162565000,7.607565185546875,1.171950101852417,-0.906000018119812,-0.21000000834465027
1772541318172475400,7.617475341796875,1.519950032234192,-1.0549499988555908,-0.6460500359535217
1772541318182385400,7.627385498046875,2.326050043106079,-1.0210500955581665,-1.2610501050949097
1772541318192295700,7.637295654296875,2.7340500354766846,-0.5250000357627869,-2.1660001277923584
1772541318202206000,7.6472060546875,1.765950083732605,-0.40095001459121704,-3.283950090408325
1772541318212116200,7.6571162109375,-0.7870500087738037,-1.1530500650405884,-4.267950057983398
1772541318222026200,7.667026123046875,-2.908950090408325,-1.6990500688552856,-4.510050296783447
1772541318231936500,7.6769365234375,-0.05505000427365303,-0.934950053691864,-4.209000110626221
1772541318241846500,7.686846435546875,13.945950508117676,0.5749500393867493,-3.1579501628875732
1772541318251756500,7.696756591796875,14.974950790405273,-1.0639500617980957,-3.7680001258850098
1772541318261666800,7.706666748046875,-1.7620500326156616,-7.678950309753418,-3.43500018119812
1772541318271576800,7.716576904296875,-2.619000196456909,-14.43795108795166,1.3159500360488892
1772541318281487000,7.726487060546875,9.295950889587402,-22.07805061340332,3.469050168991089
1772541318291396900,7.73639697265625,5.647050380706787,-29.494951248168945,2.8219501972198486
1772541318301307400,7.746307373046875,4.387950420379639,-32.443050384521484,-0.1380000114440918
1772541318311217400,7.756217529296875,7.7059502601623535,-27.373950958251953,-9.505050659179688
1772541318321127700,7.766127685546875,6.174000263214111,-19.35300064086914,-13.47195053100586
1772541318331037700,7.77603759765625,6.070950508117676,-12.058050155639648,-8.02500057220459
1772541318340948000,7.785947998046875,4.159950256347656,-7.2460503578186035,0.8370000123977661
1772541318350858200,7.795858154296875,2.140050172805786,-3.949050188064575,5.961000442504883
1772541318360768300,7.805768310546875,3.0730502605438232,-2.617950201034546,8.085000038146973
1772541318370678500,7.815678466796875,2.896050214767456,-4.375050067901611,7.953000545501709
1772541318380588300,7.82558837890625,1.5870001316070557,-7.993050575256348,6.39900016784668
1772541318390498600,7.83549853515625,0.8419500589370728,-11.362051010131836,4.132050037384033
1772541318400408600,7.84540869140625,0.9619500637054443,-13.81605052947998,1.9699500799179077
1772541318410318800,7.85531884765625,1.1130000352859497,-15.508050918579102,-0.031050002202391624
1772541318420228900,7.865228759765625,1.467000126838684,-15.79800033569336,-0.8500500321388245
1772541318430139100,7.87513916015625,1.117050051689148,-14.37600040435791,-0.8809500336647034
1772541318440049200,7.885049072265625,0.7300500273704529,-12.745950698852539,-0.8850000500679016
1772541318449959400,7.89495947265625,0.1789500117301941,-11.194050788879395,-0.9570000171661377
1772541318459869400,7.904869384765625,-0.1290000081062317,-9.97800064086914,-1.5100500583648682
1772541318469779700,7.91477978515625,-0.11205000430345535,-9.147000312805176,-2.2330501079559326
1772541318479689700,7.924689697265625,-0.09105000644922256,-8.752050399780273,-2.6929500102996826
1772541318489600000,7.93460009765625,0.028050001710653305,-8.447999954223633,-2.9800500869750977
1772541318499510000,7.944510009765625,0.6460500359535217,-8.074049949645996,-3.031050205230713
1772541318509420300,7.954420166015625,1.009950041770935,-7.492950439453125,-3.3919501304626465
1772541318519330300,7.964330322265625,1.1010000705718994,-6.810000419616699,-2.8750500679016113
1772541318529240300,7.974240234375,0.8400000333786011,-6.078000068664551,-2.6040000915527344
1772541318539150600,7.984150634765625,0.7920000553131104,-5.5819501876831055,-2.5470001697540283
1772541318549060600,7.994060546875,0.8089500665664673,-5.53695011138916,-2.4030001163482666
1772541318558971000,8.003970947265625,0.5860500335693359,-5.7019500732421875,-2.6359500885009766
1772541318568881000,8.013880859375,0.19995000958442688,-5.673000335693359,-2.9950501918792725
1772541318578791200,8.023791259765625,0.44505003094673157,-5.766000270843506,-3.2560501098632812
1772541318588701200,8.033701171875,0.697950005531311,-6.063000202178955,-2.442000150680542
1772541318598611500,8.043611572265625,0.547950029373169,-6.592050075531006,-1.2660000324249268
1772541318608521500,8.053521484375,0.47805002331733704,-7.1260504722595215,0.09000000357627869
1772541318618431700,8.063431640625,1.0600500106811523,-7.630950450897217,0.7369500398635864
1772541318628341800,8.073341796875,1.4650501012802124,-8.152950286865234,1.0170000791549683
1772541318638252000,8.083251953125,1.3140000104904175,-8.746950149536133,1.1220000982284546
1772541318648162000,8.093162109375,1.2660000324249268,-9.57300090789795,1.1920500993728638
1772541318658072000,8.103072021484374,1.3860000371932983,-10.057050704956055,-0.2580000162124634
1772541318667982000,8.112982177734375,1.7880001068115234,-10.420950889587402,-1.968000054359436
1772541318677892400,8.122892333984375,2.2330501079559326,-10.866000175476074,-2.740950107574463
1772541318687802400,8.13280224609375,2.4100501537323,-11.800050735473633,-2.628000020980835
1772541318697712600,8.142712646484375,2.9920501708984375,-12.439050674438477,-3.6889500617980957
1772541318707622700,8.15262255859375,3.178950071334839,-12.919950485229492,-4.873950004577637
1772541318717533000,8.162532958984375,3.3990001678466797,-13.429950714111328,-5.65500020980835
1772541318727443000,8.17244287109375,3.457050085067749,-14.005050659179688,-6.31095027923584
1772541318737353200,8.182353271484375,3.205050230026245,-14.421000480651855,-7.012050151824951
1772541318747263200,8.19226318359375,2.7810001373291016,-14.677950859069824,-7.522050380706787
1772541318757173500,8.202173583984376,2.1540000438690186,-15.325950622558594,-7.981950283050537
1772541318767083500,8.21208349609375,1.7779500484466553,-16.251001358032227,-8.394000053405762
1772541318776993500,8.22199365234375,1.7899501323699951,-16.58595085144043,-8.341050148010254
1772541318786903800,8.23190380859375,2.1280500888824463,-16.603050231933594,-6.154950141906738
1772541318796813800,8.241813720703124,2.650050163269043,-16.501951217651367,-2.9440500736236572
1772541318806724000,8.25172412109375,2.9850001335144043,-16.011001586914062,-0.49500003457069397
1772541318816634400,8.26163427734375,3.0810000896453857,-15.076951026916504,1.2420001029968262
1772541318826544400,8.27154443359375,3.2910001277923584,-14.212950706481934,2.620950222015381
1772541318836454400,8.281454345703125,3.5929501056671143,-13.720050811767578,2.986950159072876
1772541318846364700,8.29136474609375,4.243950366973877,-13.729950904846191,3.7609500885009766
1772541318856274700,8.301274658203125,5.413050174713135,-14.469000816345215,4.728000164031982
1772541318866184700,8.311184814453124,5.974950313568115,-15.243000984191895,4.681950092315674
1772541318876095000,8.321094970703125,5.887050151824951,-15.50100040435791,4.14900016784668
1772541318886005000,8.3310048828125,6.475950241088867,-15.073050498962402,2.0370001792907715
1772541318895915000,8.3409150390625,6.837000370025635,-13.13805103302002,-2.290950059890747
1772541318905825300,8.3508251953125,2.887050151824951,-10.593000411987305,-4.258950233459473
1772541318915735300,8.3607353515625,-1.7400001287460327,-9.340950012207031,-2.680950164794922
1772541318925645600,8.3706455078125,-7.503000259399414,-9.643050193786621,-0.6130500435829163
1772541318935555300,8.380555419921874,-8.992050170898438,-11.496000289916992,-0.3730500042438507
1772541318945465900,8.3904658203125,-5.961000442504883,-11.96505069732666,-0.9859500527381897
1772541318955375600,8.400375732421875,0.0880500078201294,-11.43600082397461,-3.1120500564575195
1772541318965286000,8.410285888671876,5.367000102996826,-11.082000732421875,-4.438050270080566
1772541318975196000,8.42019580078125,6.612000465393066,-11.055000305175781,-4.192049980163574
1772541318985106200,8.430106201171874,4.110000133514404,-11.464950561523438,-3.96405029296875
1772541318995016200,8.44001611328125,1.8400501012802124,-11.69895076751709,-4.6369500160217285
1772541319004926500,8.449926513671874,2.5159502029418945,-11.776050567626953,-6.169050216674805
1772541319014836500,8.45983642578125,4.7470502853393555,-11.377950668334961,-7.267950534820557
1772541319024746800,8.469746826171875,4.594050407409668,-10.123950004577637,-5.2860002517700195
1772541319034656800,8.47965673828125,0.9160500168800354,-8.472000122070312,-1.2090001106262207
1772541319044566800,8.48956689453125,-0.9880500435829163,-7.572000503540039,0.8800500631332397
1772541319054476800,8.499476806640626,0.22200001776218414,-7.73205041885376,1.990950107574463
1772541319064387000,8.509386962890625,1.5580500364303589,-7.492950439453125,1.9410001039505005
1772541319074297000,8.519297119140624,2.121000051498413,-7.047000408172607,1.4980500936508179
1772541319084207400,8.529207275390625,2.1250500679016113,-6.466050148010254,1.5340501070022583
1772541319094117400,8.539117431640625,1.5480000972747803,-5.9509501457214355,1.9320000410079956
1772541319104027600,8.549027587890626,0.8040000200271606,-5.52495002746582,1.8000000715255737
1772541319113937400,8.5589375,0.3820500075817108,-5.079000473022461,1.4650501012802124
1772541319123847700,8.56884765625,0.22395001351833344,-4.489950180053711,1.636950135231018
1772541319133757700,8.5787578125,0.41100001335144043,-3.5779502391815186,1.7040001153945923
1772541319143668000,8.58866796875,0.4830000102519989,-2.6299500465393066,1.8430501222610474
1772541319153578000,8.598577880859375,0.5260500311851501,-1.423050045967102,1.4929500818252563
1772541319163488300,8.60848828125,0.31800001859664917,-0.28395000100135803,1.3759500980377197
1772541319173398300,8.618398193359376,-0.0019500000635161996,0.34005001187324524,1.0960500240325928
1772541319183308300,8.628308349609375,-0.26295000314712524,0.675000011920929,1.0170000791549683
1772541319193218600,8.638218505859374,0.28395000100135803,0.775950014591217,0.1570500135421753
1772541319203128600,8.648128662109375,0.8610000610351562,0.6510000228881836,-0.6049500107765198
1772541319213038800,8.658038818359374,1.2559500932693481,0.17295001447200775,-1.27305006980896
1772541319222948900,8.667948974609375,1.9939501285552979,-0.19005000591278076,-2.038950204849243
1772541319232859000,8.67785888671875,2.8339500427246094,-0.38895002007484436,-2.3149502277374268
1772541319242769200,8.68776904296875,3.7390501499176025,-0.8250000476837158,-2.511000156402588
1772541319252679200,8.69767919921875,5.182950019836426,-1.3680000305175781,-3.7680001258850098
1772541319262589200,8.707589111328126,6.598050117492676,-2.545950174331665,-6.829950332641602
1772541319272499500,8.71749951171875,7.651050567626953,-4.51200008392334,-10.920000076293945
1772541319282409500,8.727409423828124,7.9860005378723145,-7.381950378417969,-15.817951202392578
1772541319292319500,8.737319580078125,7.074000358581543,-9.655050277709961,-16.668001174926758
1772541319302229800,8.747229736328125,5.094000339508057,-11.211000442504883,-15.238950729370117
1772541319312139800,8.757139892578126,3.1309502124786377,-11.776050567626953,-13.507950782775879
1772541319322049800,8.7670498046875,0.7080000042915344,-11.3899507522583,-11.779050827026367
1772541319331960000,8.7769599609375,-1.7950501441955566,-10.021050453186035,-9.955050468444824
1772541319341870000,8.7868701171875,2.845950126647949,-7.344000339508057,-6.133950233459473
1772541319351780400,8.7967802734375,22.167001724243164,-4.1860504150390625,3.1309502124786377
1772541319361690400,8.8066904296875,41.04600143432617,-6.8680500984191895,4.089000225067139
1772541319371600600,8.8166005859375,21.040050506591797,-18.7309513092041,-7.168050289154053
1772541319381510400,8.826510498046876,-17.665950775146484,-26.155052185058594,-0.1980000138282776
1772541319391420700,8.836420654296875,-13.31100082397461,-24.93195152282715,9.555000305175781
1772541319401330700,8.84633056640625,14.827051162719727,-15.508050918579102,7.4569501876831055
1772541319411241000,8.856240966796875,3.3919501304626465,-6.657000541687012,-2.8819501399993896
1772541319421151000,8.86615087890625,-1.3050000667572021,-2.704050064086914,-3.2700002193450928
1772541319431061200,8.876061279296875,3.3580501079559326,-0.5350500345230103,0.34905001521110535
1772541319440971300,8.88597119140625,4.62000036239624,-0.8419500589370728,2.899050235748291
1772541319450881300,8.89588134765625,4.443000316619873,-3.2689502239227295,5.487000465393066
1772541319460791300,8.905791259765625,4.062000274658203,-7.591050148010254,6.823050498962402
1772541319470701600,8.91570166015625,3.315000057220459,-12.063000679016113,5.485050201416016
1772541319480611600,8.925611572265625,4.254000186920166,-15.018000602722168,3.5280001163482666
1772541319490521900,8.93552197265625,4.741950035095215,-16.219051361083984,2.0460000038146973
1772541319500432000,8.945431884765625,3.8800501823425293,-15.304950714111328,0.6990000605583191
1772541319510342000,8.955341796875,3.865950107574463,-12.8100004196167,0.14505000412464142
1772541319520252000,8.965251953125,3.037950038909912,-10.476000785827637,0.6000000238418579
1772541319530162200,8.975162109375,1.714050054550171,-9.133049964904785,1.0290000438690186
1772541319540072200,8.985072265625,1.9270501136779785,-8.782950401306152,1.5940500497817993
1772541319549982500,8.994982421875,1.0549499988555908,-8.910000801086426,1.9339500665664673
1772541319559892200,9.004892333984374,0.06195000186562538,-9.133049964904785,1.8550500869750977
1772541319569802500,9.014802490234375,0.08100000023841858,-9.307050704956055,1.6710001230239868
1772541319579712800,9.024712646484375,-0.18195000290870667,-9.44895076751709,1.4100000858306885
1772541319589622800,9.034622802734376,-1.1460000276565552,-9.43005084991455,0.9430500268936157
1772541319599532800,9.04453271484375,-1.9489500522613525,-9.600000381469727,0.19305001199245453
1772541319609442800,9.05444287109375,-1.9870500564575195,-10.038000106811523,-0.8230500221252441
1772541319619352800,9.064352783203125,-1.234950065612793,-10.38705062866211,-0.9880500435829163
1772541319629263000,9.07426318359375,-1.0840500593185425,-10.38705062866211,-0.5430000424385071
1772541319639173400,9.08417333984375,-1.3069500923156738,-10.27695083618164,-0.35895001888275146
1772541319649083400,9.09408349609375,-1.051050066947937,-10.449000358581543,-1.0870500802993774
1772541319658993400,9.103993408203126,-1.0290000438690186,-11.320950508117676,-2.7739500999450684
1772541319668903400,9.1139033203125,-0.30105000734329224,-12.669000625610352,-4.762050151824951
1772541319678813700,9.123813720703126,-0.7279500365257263,-12.553950309753418,-5.506050109863281
1772541319688723700,9.1337236328125,-1.4410500526428223,-10.459050178527832,-5.1660003662109375
1772541319698633700,9.1436337890625,-0.33705002069473267,-9.183000564575195,-5.26200008392334
1772541319708544000,9.1535439453125,-0.08295000344514847,-8.299050331115723,-5.281050205230713
1772541319718454000,9.1634541015625,-0.6270000338554382,-7.845000267028809,-4.639950275421143
1772541319728364000,9.173364013671875,-1.281000018119812,-7.359000205993652,-4.015050411224365
1772541319738274000,9.183274169921875,-1.3810501098632812,-6.814950466156006,-3.787050247192383
1772541319748184300,9.193184326171876,-0.559950053691864,-6.777000427246094,-3.3160500526428223
1772541319758094300,9.20309423828125,0.6720000505447388,-7.504950523376465,-2.92995023727417
1772541319768004600,9.213004638671874,1.0740000009536743,-8.416950225830078,-2.860950231552124
1772541319777914400,9.222914306640625,0.5329500436782837,-9.001049995422363,-2.490000009536743
1772541319787824600,9.23282470703125,-0.3730500042438507,-9.2160005569458,-1.5919500589370728
1772541319797734700,9.242734619140625,-0.44700002670288086,-9.463050842285156,-0.46605002880096436
1772541319807645000,9.25264501953125,1.2750000953674316,-9.777000427246094,-0.16500000655651093
1772541319817554700,9.2625546875,0.8610000610351562,-9.910950660705566,-0.34005001187324524
1772541319827465000,9.27246484375,0.7680000066757202,-9.781050682067871,-2.502000093460083
1772541319837375000,9.282375,0.39900001883506775,-8.821050643920898,-3.9400501251220703
1772541319847285200,9.29228515625,-5.491950035095215,-8.392950057983398,-5.011050224304199
1772541319857195300,9.3021953125,-5.1660003662109375,-8.140950202941895,-2.7840001583099365
1772541319867105500,9.31210546875,0.5140500068664551,-8.599050521850586,-0.20100000500679016
1772541319877015300,9.322015380859375,2.3479502201080322,-9.316950798034668,-0.29205000400543213
1772541319886925600,9.331925537109376,2.053950071334839,-9.334050178527832,-2.431950092315674
1772541319896835600,9.341835693359375,1.2559500932693481,-8.875950813293457,-3.7510502338409424
1772541319906745900,9.351745849609374,0.5400000214576721,-8.447999954223633,-2.956050157546997
1772541319916655900,9.36165576171875,0.4159500300884247,-8.472000122070312,-1.7620500326156616
1772541319926566100,9.371566162109374,0.742050051689148,-8.955000877380371,-1.443000078201294
1772541319936476200,9.38147607421875,0.5640000104904175,-9.826950073242188,-1.9800001382827759
1772541319946386200,9.39138623046875,0.34905001521110535,-10.82805061340332,-2.830050230026245
1772541319956296000,9.4012958984375,0.3559500277042389,-11.521950721740723,-3.1240501403808594
1772541319966206500,9.41120654296875,0.05400000140070915,-11.545950889587402,-3.2410502433776855
1772541319976116200,9.4211162109375,-0.2970000207424164,-11.515050888061523,-3.498000144958496
1772541319986026500,9.431026611328125,0.16500000655651093,-11.898000717163086,-4.05495023727417
1772541319995936300,9.440936279296874,1.3690500259399414,-12.54900074005127,-3.9019501209259033
1772541320005846800,9.4508466796875,2.458050012588501,-13.420950889587402,-3.328050136566162
1772541320015756800,9.4607568359375,2.6110501289367676,-14.155950546264648,-3.258000135421753
1772541320025666800,9.470666748046876,2.4820501804351807,-14.934000968933105,-3.6559500694274902
1772541320035576800,9.480576904296875,1.9750500917434692,-15.385951042175293,-4.491000175476074
1772541320045487000,9.490487060546876,0.5670000314712524,-15.429000854492188,-4.683000087738037
1772541320055396900,9.50039697265625,-0.17400000989437103,-15.51300048828125,-3.498000144958496
1772541320065307100,9.51030712890625,0.15300001204013824,-15.706951141357422,-1.6680001020431519
1772541320075217200,9.520217041015625,2.121000051498413,-15.99000072479248,-0.5650500059127808
1772541320085127400,9.53012744140625,3.579000234603882,-16.428001403808594,0.3349500298500061
1772541320095037200,9.540037109375,3.955050230026245,-16.2580509185791,0.9739500284194946
1772541320104947500,9.549947509765625,3.8490002155303955,-14.737051010131836,0.06195000186562538
1772541320114857500,9.559857421875,3.2989501953125,-13.31295108795166,-1.3690500259399414
1772541320124767700,9.569767822265625,2.3530499935150146,-13.062000274658203,-2.190000057220459
1772541320134677800,9.579677734375,0.9739500284194946,-13.449000358581543,-2.4970500469207764
1772541320144587800,9.589587890625,-0.2650500237941742,-13.507050514221191,-2.671950101852417
1772541320154497800,9.599497802734374,-0.1290000081062317,-13.444951057434082,-2.257050037384033
1772541320164407800,9.60940771484375,-0.7680000066757202,-13.320000648498535,-1.350000023841858
1772541320174317800,9.61931787109375,-1.675950050354004,-12.832050323486328,-0.6600000262260437
1772541320184228000,9.62922802734375,-0.1960500031709671,-12.886950492858887,0.1570500135421753
1772541320194138000,9.63913818359375,0.8610000610351562,-13.2649507522583,1.3590000867843628
1772541320204048100,9.649048095703124,1.0339500904083252,-13.453950881958008,2.367000102996826
1772541320213958100,9.658958251953125,1.8019500970840454,-13.722001075744629,2.3839499950408936
1772541320223868200,9.6688681640625,3.4039502143859863,-14.356950759887695,0.4810500144958496
1772541320233778400,9.6787783203125,1.8000000715255737,-14.42400074005127,-0.43800002336502075
1772541320243688400,9.6886884765625,1.3300501108169556,-14.292000770568848,0.8779500126838684
1772541320253598700,9.6985986328125,1.5649501085281372,-13.69800090789795,0.6529500484466553
1772541320263508500,9.708508544921875,1.6180500984191895,-13.167000770568848,-1.1680500507354736
1772541320273418800,9.718418701171874,2.458050012588501,-12.82905101776123,-2.4079501628875732
1772541320283328800,9.728328857421875,2.9610002040863037,-12.456000328063965,-2.91795015335083
1772541320293239000,9.738239013671874,3.0259501934051514,-11.745000839233398,-3.037950038909912
1772541320303148800,9.748148681640625,2.659050226211548,-10.572000503540039,-2.4340500831604004
1772541320313059000,9.75805908203125,1.374000072479248,-9.484950065612793,-1.0410000085830688
1772541320322969000,9.767968994140626,0.9760500192642212,-8.380949974060059,0.06195000186562538
1772541320332879000,9.777879150390625,2.0820000171661377,-7.224000453948975,1.5079500675201416
1772541320342789000,9.7877890625,1.7830500602722168,-6.063000202178955,2.4060001373291016
1772541320352699400,9.797699462890625,0.598050057888031,-5.067000389099121,2.817000150680542
1772541320362609400,9.807609375,-0.33195000886917114,-4.135950088500977,2.491950035095215
1772541320372519400,9.81751953125,-1.0360500812530518,-3.511050224304199,2.092050075531006
1772541320382429700,9.8274296875,-1.1350500583648682,-2.794950246810913,1.5169501304626465
1772541320392339700,9.837339599609376,-0.6889500617980957,-2.199000120162964,1.0669500827789307
1772541320402249700,9.847249755859375,-0.4069500267505646,-1.6320000886917114,1.2370500564575195
1772541320412160000,9.857159912109376,-0.2650500237941742,-1.1239500045776367,1.1080501079559326
1772541320422070000,9.867070068359375,-0.07605000585317612,-0.8970000147819519,1.2280501127243042
1772541320431980000,9.87697998046875,0.04500000178813934,-0.7890000343322754,0.38700002431869507
1772541320441890000,9.88689013671875,-0.3829500079154968,-1.1239500045776367,-1.7740501165390015
1772541320451800000,9.896800048828124,-0.687000036239624,-1.4899500608444214,-3.5689501762390137
1772541320461710300,9.90671044921875,-0.4140000343322754,-1.5210000276565552,-3.3610501289367676
1772541320471620400,9.916620361328125,-0.3949500322341919,-1.918950080871582,-3.0210001468658447
1772541320481530400,9.9265302734375,-0.3730500042438507,-1.5139501094818115,-2.1739501953125
1772541320491440400,9.9364404296875,-1.1779500246047974,-1.1380500793457031,-1.8480000495910645
1772541320501350700,9.9463505859375,-2.3389501571655273,-1.2889500856399536,-1.4770500659942627
1772541320511260700,9.9562607421875,-2.6959500312805176,-1.5769500732421875,-0.8830500245094299
1772541320521170700,9.966170654296874,-0.6270000338554382,-1.7869501113891602,0.46605002880096436
1772541320531080700,9.976080810546875,2.152050018310547,-1.7179501056671143,1.7929500341415405
1772541320540990700,9.98599072265625,3.085050106048584,-2.0220000743865967,1.7280000448226929
1772541320550901000,9.99590087890625,12.085050582885742,-2.4649500846862793,0.6289500594139099
1772541320560811000,10.00581103515625,0.9810000658035278,-6.88200044631958,-4.525050163269043
1772541320570721000,10.015720947265624,-4.44795036315918,-14.773050308227539,-2.2450501918792725
1772541320580631300,10.02563134765625,4.222949981689453,-27.007951736450195,4.672950267791748
1772541320590541300,10.035541259765624,-0.2749500274658203,-40.422000885009766,-0.23205001652240753
1772541320600451300,10.045451416015625,8.938950538635254,-52.89600372314453,-11.78895092010498
1772541320610361300,10.055361328125,16.582050323486328,-30.9460506439209,-16.40505027770996
1772541320620271400,10.065271240234376,6.478050231933594,-11.461950302124023,-7.174950122833252
1772541320630181600,10.075181640625,2.868000030517578,-4.78695011138916,0.5410500168800354
1772541320640091400,10.08509130859375,0.8329500555992126,-1.6390501260757446,4.110000133514404
1772541320650001700,10.095001708984375,0.5640000104904175,-0.21405000984668732,5.841000080108643
1772541320659911700,10.10491162109375,2.5950000286102295,-0.24300001561641693,5.968050479888916
1772541320669821700,10.11482177734375,3.507000207901001,-3.315000057220459,5.821950435638428
1772541320679731700,10.124731689453125,3.676950216293335,-10.360950469970703,5.133000373840332
1772541320689642000,10.13464208984375,3.6120002269744873,-17.578950881958008,2.7930002212524414
1772541320699552000,10.144552001953125,1.0140000581741333,-19.552051544189453,0.20805001258850098
1772541320709462000,10.1544619140625,-1.1320500373840332,-16.327051162719727,1.7640000581741333
1772541320719372000,10.1643720703125,-1.0990500450134277,-13.200000762939453,2.947050094604492
1772541320729282300,10.1742822265625,-1.3450500965118408,-10.833000183105469,1.3210500478744507
1772541320739192300,10.1841923828125,-1.0990500450134277,-9.717000007629395,-0.742050051689148
1772541320749102300,10.194102294921874,-1.5390000343322754,-9.50100040435791,-2.521050214767456
1772541320759012400,10.204012451171875,-1.3450500965118408,-9.133049964904785,-2.7550501823425293
1772541320768922400,10.21392236328125,-0.45000001788139343,-8.437950134277344,-2.91795015335083
1772541320778832400,10.223832275390626,-0.0019500000635161996,-7.402050495147705,-2.887050151824951
1772541320788742700,10.23374267578125,-0.06000000238418579,-6.580050468444824,-3.945000171661377
1772541320798652700,10.243652587890624,-0.1770000010728836,-5.488950252532959,-4.666050434112549
1772541320808562700,10.253562744140625,-0.35895001888275146,-4.6080002784729,-5.233050346374512
1772541320818472700,10.26347265625,-0.6049500107765198,-4.153050422668457,-5.379000186920166
1772541320828382700,10.2733828125,-0.6130500435829163,-4.1170501708984375,-5.194950103759766
1772541320838293000,10.28329296875,-0.5500500202178955,-4.462050437927246,-4.278000354766846
1772541320848203000,10.293203125,-0.14100000262260437,-5.082000255584717,-3.109950065612793
1772541320858113000,10.303113037109375,0.31800001859664917,-5.464950084686279,-1.960050106048584
1772541320868023000,10.31302294921875,0.4350000321865082,-5.877000331878662,-1.6230000257492065
1772541320877933000,10.32293310546875,0.4350000321865082,-6.184950351715088,-1.1920500993728638
1772541320887843000,10.332843017578124,0.27195000648498535,-6.468000411987305,-0.5500500202178955
1772541320897753300,10.34275341796875,-0.17205001413822174,-6.907950401306152,-0.6340500116348267
1772541320907663000,10.3526630859375,0.7729500532150269,-7.504950523376465,0.43800002336502075
1772541320917573400,10.362573486328126,1.3020000457763672,-8.143950462341309,1.1730000972747803
1772541320927483400,10.3724833984375,0.7699500322341919,-9.207000732421875,0.7320000529289246
1772541320937393400,10.382393310546876,0.39705002307891846,-10.123950004577637,-0.2050500065088272
1772541320947303700,10.3923037109375,0.22200001776218414,-10.903950691223145,-0.5650500059127808
1772541320957213700,10.402213623046874,0.6820500493049622,-11.553000450134277,-1.0909500122070312
1772541320967123700,10.412123779296875,1.8760501146316528,-12.364950180053711,-2.5450501441955566
1772541320977033500,10.422033447265624,2.4439501762390137,-12.690000534057617,-4.218000411987305
1772541320986943700,10.43194384765625,2.1610500812530518,-12.954000473022461,-5.884950160980225
1772541320996853800,10.441853759765625,2.1090002059936523,-13.773000717163086,-6.703050136566162
1772541321006763800,10.451763671875,2.994000196456909,-14.814001083374023,-7.141050338745117
1772541321016673800,10.461673828125,4.110000133514404,-15.649950981140137,-7.197000503540039
1772541321026584000,10.471583984375,3.475950241088867,-16.255050659179688,-7.07895040512085
1772541321036494000,10.481494140625,1.1680500507354736,-16.60995101928711,-7.261050224304199
1772541321046404000,10.491404052734374,1.38795006275177,-16.89495086669922,-8.5489501953125
1772541321056314000,10.501314208984375,3.813000202178955,-16.717050552368164,-9.189000129699707
1772541321066224000,10.51122412109375,5.3620500564575195,-16.452001571655273,-8.020050048828125
1772541321076134100,10.521134033203126,5.038950443267822,-16.09695053100586,-4.684950351715088
1772541321086044200,10.531044189453125,4.3660502433776855,-15.202051162719727,-0.9910500645637512
1772541321095954200,10.5409541015625,4.6080002784729,-14.485950469970703,1.3020000457763672
1772541321105864400,10.550864501953125,5.85105037689209,-14.431050300598145,2.1229500770568848
1772541321115774500,10.5607744140625,6.997950553894043,-14.66295051574707,1.6540501117706299
1772541321125684500,10.5706845703125,7.183950424194336,-14.785050392150879,1.9939501285552979
1772541321135594500,10.580594482421875,6.564000129699707,-14.878951072692871,2.9419500827789307
1772541321145504500,10.59050439453125,6.045000076293945,-15.172950744628906,3.166950225830078
1772541321155414800,10.600414794921875,5.0370001792907715,-15.307050704956055,2.6929500102996826
1772541321165324500,10.610324462890626,3.016050100326538,-14.48805046081543,0.5119500160217285
1772541321175234600,10.620234619140625,1.2780001163482666,-12.883950233459473,-2.0080502033233643
1772541321185144600,10.63014453125,-1.1370000839233398,-11.410050392150879,-3.337050199508667
1772541321195054800,10.640054931640625,-5.635950088500977,-10.663050651550293,-3.2130000591278076
1772541321204964900,10.64996484375,-8.133000373840332,-10.56195068359375,-2.320050001144409
1772541321214875000,10.659875,-3.20805025100708,-12.994050979614258,-1.7760001420974731
1772541321224785000,10.669784912109375,1.3590000867843628,-13.186050415039062,0.09000000357627869
1772541321234695000,10.67969482421875,2.896050214767456,-11.461950302124023,0.23595000803470612
1772541321244605200,10.689605224609375,2.9730000495910645,-10.61205005645752,-0.34905001521110535
1772541321254515000,10.699514892578126,2.152050018310547,-10.588050842285156,-2.6670000553131104
1772541321264425200,10.70942529296875,2.740950107574463,-11.019000053405762,-6.186000347137451
1772541321274335200,10.719335205078124,7.081050395965576,-12.172950744628906,-9.41100025177002
1772541321284245200,10.729245361328125,6.139950275421143,-11.94795036315918,-6.732000350952148
1772541321294155300,10.7391552734375,-1.0150500535964966,-9.556050300598145,0.13305000960826874
1772541321304065300,10.749065185546876,-3.6409502029418945,-8.182050704956055,2.3340001106262207
1772541321313975300,10.758975341796875,-0.2460000067949295,-8.37600040435791,2.193000078201294
1772541321323885300,10.76888525390625,2.9710500240325928,-8.282999992370605,1.3470001220703125
1772541321333795300,10.77879541015625,3.2820000648498535,-8.06505012512207,1.4500501155853271
1772541321343705600,10.78870556640625,1.9720500707626343,-7.540950298309326,1.4190000295639038
1772541321353615600,10.79861572265625,0.7060500383377075,-6.874950408935547,1.76895010471344
1772541321363525600,10.808525634765624,0.09495000541210175,-6.262050151824951,1.6270500421524048
1772541321373435600,10.818435546875,-0.17205001413822174,-5.7300004959106445,1.4980500936508179
1772541321383345700,10.828345703125,-0.22005000710487366,-5.034000396728516,1.4050500392913818
1772541321393256000,10.838255859375,-0.3040500283241272,-4.32705020904541,1.4839500188827515
1772541321403165700,10.848165771484375,-0.15105000138282776,-3.2689502239227295,2.0299501419067383
1772541321413076000,10.858075927734374,0.10005000233650208,-1.998000144958496,2.092050075531006
1772541321422986000,10.867986083984375,0.0880500078201294,-1.0909500122070312,1.3350000381469727
1772541321432896000,10.87789599609375,-0.14295001327991486,-0.7189500331878662,0.3630000054836273
1772541321442806000,10.887805908203125,-0.4759500324726105,-0.8869500160217285,-0.9720000624656677
1772541321452716000,10.897716064453125,-0.5670000314712524,-1.0470000505447388,-1.88100004196167
1772541321462626000,10.9076259765625,0.3130500018596649,-1.6410000324249268,-1.659000039100647
1772541321472536300,10.917536376953125,1.6470000743865967,-1.8349500894546509,-1.336050033569336
1772541321482446300,10.9274462890625,2.8530001640319824,-1.5910500288009644,-1.867050051689148
1772541321492356400,10.9373564453125,3.696000099182129,-1.1359500885009766,-3.2509500980377197
1772541321502266400,10.947266357421874,4.5,-0.5370000004768372,-5.48205041885376
1772541321512176400,10.95717626953125,4.849950313568115,-0.697950005531311,-8.113950729370117
1772541321522086400,10.96708642578125,2.6070001125335693,-2.6899502277374268,-12.957000732421875
1772541321531996700,10.97699658203125,-2.9110500812530518,-4.440000057220459,-15.046950340270996
1772541321541906400,10.986906494140625,-5.257050037384033,-5.316000461578369,-11.145000457763672
1772541321551816400,10.99681640625,-0.3829500079154968,-3.8989500999450684,-5.635950088500977
1772541321561726700,11.006726806640625,16.09800148010254,-0.9010500311851501,-0.10500000417232513
1772541321571636700,11.01663671875,50.935951232910156,1.1759999990463257,6.504000186920166
1772541321581546800,11.026546630859375,8.611050605773926,-9.007950782775879,-8.347949981689453
1772541321591456800,11.036456787109374,-24.756000518798828,-22.261951446533203,2.5660500526428223
1772541321601366800,11.04636669921875,3.136050224304199,-29.818950653076172,11.350050926208496
1772541321611276800,11.05627685546875,8.161050796508789,-28.324951171875,1.0980000495910645
1772541321621186800,11.066186767578126,4.543950080871582,-19.84200096130371,-7.182000160217285
1772541321631096800,11.076096923828125,5.908050060272217,-10.330050468444824,-8.070000648498535
1772541321641007000,11.086007080078126,2.887050151824951,-4.770000457763672,-4.897950172424316
1772541321650917000,11.095917236328125,4.79295015335083,-1.9690500497817993,-0.5959500074386597
1772541321660827000,11.105826904296874,4.1170501708984375,-3.1060502529144287,2.908050060272217
1772541321670737200,11.115737060546875,3.295950174331665,-7.203000545501709,2.5729501247406006
1772541321680647200,11.125647216796875,3.6940500736236572,-11.050050735473633,0.8400000333786011
1772541321690557200,11.13555712890625,3.8800501823425293,-13.903950691223145,0.15300001204013824
1772541321700467200,11.14546728515625,2.302950143814087,-15.397951126098633,0.89205002784729
1772541321710377200,11.155377197265626,0.33000001311302185,-14.560050964355469,-0.22200001776218414
1772541321720287200,11.165287353515625,1.0410000085830688,-12.379050254821777,-2.013000011444092
1772541321730197500,11.175197509765624,0.4230000078678131,-10.162050247192383,-1.3210500478744507
1772541321740107300,11.185107177734375,0.41100001335144043,-9.304950714111328,-0.43095001578330994
1772541321750017500,11.195017578125,0.7699500322341919,-9.547050476074219,-0.04500000178813934
1772541321759927300,11.20492724609375,0.25095000863075256,-10.186050415039062,0.09300000220537186
1772541321769837600,11.214837646484375,-0.10695000737905502,-10.879950523376465,-0.40905001759529114
1772541321779747600,11.22474755859375,0.14505000412464142,-11.40195083618164,-0.7969500422477722
1772541321789657600,11.23465771484375,0.10905000567436218,-11.721000671386719,-1.2250500917434692
1772541321799567600,11.244567626953126,0.2939999997615814,-11.380950927734375,-1.0770000219345093
1772541321809477400,11.254477294921875,0.5929500460624695,-10.69800090789795,-1.102950096130371
1772541321819387600,11.2643876953125,0.8560500144958496,-10.405950546264648,-2.382000207901001
1772541321829297700,11.274297607421875,1.1490000486373901,-9.930000305175781,-3.0520501136779785
1772541321839207700,11.284207763671875,1.01895010471344,-9.442049980163574,-3.3109500408172607
1772541321849117700,11.29411767578125,0.9859500527381897,-8.766000747680664,-3.1459500789642334
1772541321859028000,11.304028076171875,0.4729500114917755,-8.12505054473877,-3.2719502449035645
1772541321868937700,11.313937744140626,0.40605002641677856,-7.864050388336182,-3.6790502071380615
1772541321878848000,11.323847900390625,0.8470500111579895,-7.612050533294678,-4.06695032119751
1772541321888757800,11.3337578125,1.0840500593185425,-7.44195032119751,-4.359000205993652
1772541321898668000,11.34366796875,1.3950001001358032,-7.371000289916992,-4.422000408172607
1772541321908578000,11.353578125,1.2850500345230103,-7.464000225067139,-4.113000392913818
1772541321918488000,11.363488037109375,0.21195000410079956,-7.288950443267822,-3.6630001068115234
1772541321928398000,11.373398193359375,-0.5500500202178955,-7.260000228881836,-3.6120002269744873
1772541321938308000,11.38330810546875,-0.25095000863075256,-7.33905029296875,-3.5530502796173096
1772541321948218000,11.393218017578125,-0.16995000839233398,-7.180950164794922,-3.4260001182556152
1772541321958128000,11.403128173828126,-0.22200001776218414,-6.874950408935547,-3.3490500450134277
1772541321968038100,11.4130380859375,-0.1980000138282776,-6.394050121307373,-2.680950164794922
1772541321977948200,11.4229482421875,-0.2560500204563141,-6.085050106048584,-1.8000000715255737
1772541321987858400,11.4328583984375,-0.40005001425743103,-6.139950275421143,-1.1100000143051147
1772541321997768200,11.442768310546874,-0.33000001311302185,-6.669000148773193,-0.5190000534057617
1772541322007678500,11.452678466796876,-0.04500000178813934,-7.549950122833252,-0.33705002069473267
1772541322017588200,11.462588134765625,0.45900002121925354,-8.52495002746582,-0.26295000314712524
1772541322027498500,11.47249853515625,0.6840000152587891,-9.21405029296875,-0.33195000886917114
1772541322037408500,11.482408447265625,0.7939500212669373,-9.607050895690918,-0.4620000123977661
1772541322047318500,11.492318603515624,0.9670500755310059,-9.559050559997559,-0.4140000343322754
1772541322057228500,11.502228515625,1.311000108718872,-9.355050086975098,-1.2799500226974487
1772541322067138600,11.512138671875,2.050950050354004,-9.046050071716309,-1.711050033569336
1772541322077048600,11.522048583984375,2.5729501247406006,-9.065999984741211,-2.0869500637054443
1772541322086958600,11.53195849609375,2.290950059890747,-9.42495059967041,-2.722050189971924
1772541322096868600,11.54186865234375,1.2850500345230103,-9.825000762939453,-3.7800002098083496
1772541322106778600,11.551778564453125,-0.13905000686645508,-9.813000679016113,-4.600950241088867
1772541322116689000,11.56168896484375,-1.5319501161575317,-9.849000930786133,-4.89300012588501
1772541322126599000,11.571598876953125,-2.170950174331665,-10.00200080871582,-3.9120001792907715
1772541322136509000,11.581509033203124,-1.5370501279830933,-10.117050170898438,-3.2290501594543457
1772541322146418700,11.591418701171875,-0.037950001657009125,-9.754950523376465,-3.3130502700805664
1772541322156328700,11.60132861328125,0.612000048160553,-9.397950172424316,-4.9360504150390625
1772541322166239000,11.611239013671875,0.14100000262260437,-9.931950569152832,-6.576000213623047
1772541322176149000,11.62114892578125,-0.11505000293254852,-10.714950561523438,-7.0410003662109375
1772541322186059000,11.63105908203125,0.739050030708313,-11.505000114440918,-6.856950283050537
1772541322195969000,11.640968994140625,2.299950122833252,-12.247950553894043,-6.004050254821777
1772541322205879000,11.650879150390624,3.547950267791748,-12.77400016784668,-4.2109503746032715
1772541322215789000,11.6607890625,4.002000331878662,-13.345951080322266,-2.640000104904175
1772541322225699000,11.670698974609374,4.2900004386901855,-14.581951141357422,-2.620950222015381
1772541322235609000,11.680609130859375,4.465050220489502,-15.907950401306152,-3.7080001831054688
1772541322245519000,11.69051904296875,4.090950012207031,-16.549951553344727,-4.968000411987305
1772541322255429000,11.70042919921875,3.334050178527832,-15.793050765991211,-4.699050426483154
1772541322265339100,11.710339111328125,3.9019501209259033,-14.52405071258545,-2.9280002117156982
1772541322275249200,11.720249267578126,5.878950119018555,-14.017050743103027,-2.2380001544952393
1772541322285159200,11.7301591796875,6.535050392150879,-14.196001052856445,-1.6300500631332397
1772541322295069200,11.740069091796874,3.8610002994537354,-14.701951026916504,-0.7849500179290771
1772541322304979200,11.749979248046875,0.6600000262260437,-15.586950302124023,-0.3540000021457672
1772541322314889200,11.75988916015625,-0.9960000514984131,-16.452001571655273,1.27305006980896
1772541322324799200,11.76979931640625,-3.0330002307891846,-16.392000198364258,3.5400002002716064
1772541322334709500,11.77970947265625,-4.036050319671631,-15.72900104522705,5.473050117492676
1772541322344619300,11.789619384765626,-0.10305000841617584,-14.838000297546387,8.209050178527832
1772541322354529500,11.799529541015625,4.6180500984191895,-14.295001029968262,9.327000617980957
1772541322364439300,11.809439208984376,4.717950344085693,-13.5600004196167,8.539950370788574
1772541322374349600,11.819349609375,2.5039501190185547,-12.564000129699707,6.967050552368164
1772541322384259600,11.829259521484374,-0.30900001525878906,-11.170050621032715,5.508000373840332
1772541322394169600,11.839169677734375,-2.0590500831604004,-9.793050765991211,3.7219502925872803
1772541322404079600,11.84907958984375,-2.419950008392334,-8.51294994354248,2.190000057220459
1772541322413989600,11.85898974609375,-2.7840001583099365,-7.617000579833984,0.7540500164031982
1772541322423899600,11.868899658203125,-2.490000009536743,-7.023000240325928,-0.4900500178337097
1772541322433809700,11.8788095703125,0.022950001060962677,-6.58305025100708,-1.7280000448226929
1772541322443719700,11.8887197265625,1.4209500551223755,-6.159000396728516,-2.8560001850128174
1772541322453629700,11.898629638671874,1.4070000648498535,-6.133050441741943,-2.688000202178955
1772541322463539700,11.908539794921875,1.7899501323699951,-6.070050239562988,-1.9890000820159912
1772541322473449700,11.91844970703125,1.9030500650405884,-5.983950138092041,-1.7070001363754272
1772541322483360000,11.928360107421875,1.3950001001358032,-5.761950492858887,-1.5940500497817993
1772541322493269800,11.938269775390625,0.8370000123977661,-5.344950199127197,-1.6489500999450684
1772541322503179800,11.9481796875,0.4159500300884247,-4.818000316619873,-1.8000000715255737
1772541322513089800,11.95808984375,0.05400000140070915,-4.359000205993652,-1.585050106048584
1772541322522999800,11.967999755859376,-0.20100000500679016,-3.9400501251220703,-1.158000111579895
1772541322532909800,11.977909912109375,-0.45705002546310425,-3.7069501876831055,-0.7870500087738037
1772541322542819800,11.98781982421875,-0.7830000519752502,-3.5659501552581787,-0.700950026512146
1772541322552730000,11.997730224609375,-0.8929500579833984,-3.4390501976013184,-0.35895001888275146
1772541322562640000,12.007639892578124,-0.7590000629425049,-3.2980501651763916,0.13305000960826874
1772541322572550000,12.0175498046875,-0.2850000262260437,-3.2380502223968506,0.531000018119812
1772541322582460000,12.0274599609375,0.26295000314712524,-3.223950147628784,0.7060500383377075
1772541322592370200,12.0373701171875,0.697950005531311,-3.183000087738037,0.6529500484466553
1772541322602280200,12.0472802734375,1.0909500122070312,-3.145050048828125,0.26295000314712524
1772541322612190200,12.057190185546874,1.651050090789795,-3.403050184249878,0.05205000191926956
1772541322622100200,12.067100341796875,2.2069501876831055,-3.8749501705169678,-0.06405000388622284
1772541322632010000,12.077010009765624,3.6940500736236572,-4.777950286865234,0.15300001204013824
1772541322641920300,12.086920166015625,7.2709503173828125,-6.456000328063965,-0.06405000388622284
1772541322651830000,12.096830078125,12.814950942993164,-8.910000801086426,-1.4029500484466553
1772541322661740300,12.106740234375,17.581951141357422,-12.26205062866211,-4.3090500831604
1772541322671650000,12.116650146484375,18.052051544189453,-16.6960506439209,-8.161050796508789
1772541322681560000,12.12656005859375,12.535050392150879,-20.03295135498047,-9.054000854492188
1772541322691470000,12.136469970703125,9.916050910949707,-20.128950119018555,-9.351000785827637
1772541322701380400,12.14638037109375,9.013050079345703,-18.03404998779297,-9.655050277709961
1772541322711290400,12.156290283203125,9.07800006866455,-15.633000373840332,-9.787050247192383
1772541322721200400,12.166200439453124,9.895050048828125,-12.180000305175781,-7.053000450134277
1772541322731110400,12.1761103515625,8.488950729370117,-5.659050464630127,-1.3210500478744507
1772541322741020400,12.1860205078125,3.765000104904175,-0.5539500117301941,0.687000036239624
1772541322750930400,12.195930419921876,0.1879500150680542,1.5370501279830933,1.3549500703811646
1772541322760840400,12.20584033203125,-1.9560000896453857,1.1490000486373901,1.4620500802993774
1772541322770750500,12.21575048828125,-2.608950138092041,0.23205001652240753,2.491950035095215
1772541322780660200,12.22566015625,3.337050199508667,-2.5009500980377197,6.19605016708374
1772541322790570500,12.235570556640624,7.1170501708984375,-9.757950782775879,9.12600040435791
1772541322800480500,12.24548046875,0.4849500358104706,-20.305950164794922,2.808000087738037
1772541322810390500,12.255390625,-4.73805046081543,-30.499052047729492,-7.717950344085693
1772541322820300500,12.265300537109376,11.55405044555664,-30.63705062866211,-10.32300090789795
1772541322830210600,12.27521044921875,19.705951690673828,-28.056001663208008,-12.43695068359375
1772541322840120600,12.28512060546875,-7.453050136566162,-20.17905044555664,-1.0459500551223755
1772541322850030600,12.295030517578125,-4.639950275421143,-11.131950378417969,7.507950305938721
1772541322859940600,12.304940673828124,7.728000164031982,-4.617000102996826,12.298050880432129
1772541322869850600,12.3148505859375,-9.130949974060059,-2.476950168609619,9.69105052947998
1772541322879760600,12.3247607421875,-11.503950119018555,-4.555050373077393,5.182950019836426
1772541322889670700,12.334670654296875,-2.8560001850128174,-6.712050437927246,3.5119502544403076
1772541322899580700,12.34458056640625,-0.8299500346183777,-8.730000495910645,1.812000036239624
1772541322909490700,12.35449072265625,-2.3910000324249268,-10.074000358581543,0.5550000071525574
1772541322919400700,12.364400634765625,-3.4780502319335938,-10.171950340270996,0.8010000586509705
1772541322929310700,12.374310791015626,-2.1499500274658203,-11.11305046081543,0.6670500040054321
1772541322939220500,12.384220458984375,-1.0049999952316284,-12.865050315856934,-0.5689499974250793
1772541322949130800,12.394130859375,-0.9450000524520874,-13.945050239562988,-1.1899501085281372
1772541322959040800,12.404040771484375,-0.1960500031709671,-14.41200065612793,-1.7760001420974731
1772541322968950800,12.41395068359375,0.5929500460624695,-14.046000480651855,-1.7830500602722168
1772541322978860800,12.42386083984375,0.37995001673698425,-12.81705093383789,-0.8899500370025635
1772541322988770800,12.433770751953125,-0.3439500033855438,-11.152950286865234,-0.14295001327991486
1772541322998680800,12.443680908203126,-1.3690500259399414,-9.57300090789795,-0.44700002670288086
1772541323008590800,12.4535908203125,-1.8460501432418823,-8.271000862121582,-1.221000075340271
1772541323018500900,12.4635009765625,-1.0870500802993774,-7.272000312805176,-2.0560500621795654
1772541323028410600,12.47341064453125,-0.028050001710653305,-6.415050506591797,-2.571000099182129
1772541323038321000,12.48332080078125,0.11400000751018524,-5.778000354766846,-2.688000202178955
1772541323048230700,12.493230712890625,-0.4159500300884247,-5.728050231933594,-2.611950159072876
1772541323058141000,12.503140869140625,-0.4759500324726105,-6.295950412750244,-2.4970500469207764
1772541323068051000,12.513051025390626,-0.05700000375509262,-7.299000263214111,-2.3550000190734863
1772541323077960700,12.522960693359375,0.5640000104904175,-8.422050476074219,-2.121000051498413
1772541323087871000,12.53287109375,0.8250000476837158,-9.622950553894043,-2.02305006980896
1772541323097780700,12.54278076171875,0.5089499950408936,-10.300950050354004,-1.9800001382827759
1772541323107691000,12.55269091796875,0.4710000157356262,-10.162050247192383,-1.7500500679016113
1772541323117601000,12.56260107421875,0.6100500226020813,-9.640050888061523,-1.752000093460083
1772541323127511000,12.572510986328124,0.6840000152587891,-9.199950218200684,-1.9750500917434692
1772541323137420800,12.5824208984375,0.7030500173568726,-9.019950866699219,-2.322000026702881
1772541323147331000,12.5923310546875,0.7030500173568726,-9.031949996948242,-2.4820501804351807
1772541323157240800,12.60224072265625,1.158000111579895,-9.17805004119873,-2.4750001430511475
1772541323167150800,12.61215087890625,1.5240000486373901,-9.267000198364258,-2.5420501232147217
1772541323177060900,12.622060791015626,1.6350001096725464,-9.292950630187988,-2.719050168991089
1772541323186971000,12.631970947265625,1.3140000104904175,-9.25005054473877,-2.9110500812530518
1772541323196881000,12.641880859375,1.0260000228881836,-9.2160005569458,-2.956050157546997
1772541323206791000,12.651791015625,0.9829500317573547,-9.22095012664795,-3.1410000324249268
1772541323216701000,12.661700927734374,1.0930500030517578,-9.517950057983398,-3.280050039291382
1772541323226611000,12.67161083984375,1.0840500593185425,-9.967950820922852,-3.091050148010254
1772541323236521200,12.681521240234375,1.2709500789642334,-9.892050743103027,-2.5489501953125
1772541323246431000,12.691430908203126,1.9750500917434692,-9.397950172424316,-1.5529500246047974
1772541323256341200,12.70134130859375,2.1280500888824463,-9.103950500488281,-0.8689500689506531
1772541323266251000,12.7112509765625,0.9709500670433044,-8.829000473022461,-0.8299500346183777
1772541323276161300,12.721161376953125,0.12600000202655792,-8.683050155639648,-1.048050045967102
1772541323286071000,12.731071044921874,0.5740500092506409,-8.625,-1.4269500970840454
1772541323295981000,12.74098095703125,1.519950032234192,-8.778000831604004,-1.6879501342773438
1772541323305891000,12.75089111328125,1.9000500440597534,-9.10200023651123,-2.4780001640319824
