time,seconds_elapsed,z,y,x
1773145741273387300,0.04638720703125,5.598008632659912,7.99800968170166,0.39122650027275085
1773145741290735900,0.06373583984375,5.584847927093506,7.989634990692139,0.3888336718082428
1773145741308084500,0.08108447265625,5.606383323669434,8.002795219421387,0.3720839321613312
1773145741325433300,0.098433349609375,5.654240131378174,8.042277336120605,0.3565305769443512
1773145741342782200,0.1157822265625,5.657829284667969,8.056633949279785,0.38644084334373474
1773145741360130800,0.133130859375,5.556134223937988,8.032705307006836,0.48095735907554626
1773145741377479400,0.1504794921875,5.478367328643799,8.023134231567383,0.5694918036460876
1773145741394828300,0.167828369140625,5.480760097503662,8.082955360412598,0.6352944374084473
1773145741412177000,0.185177001953125,5.578866004943848,8.082955360412598,0.727418065071106
1773145741429525800,0.20252587890625,5.696114540100098,8.09252643585205,0.7716853022575378
1773145741446874400,0.219874267578125,5.84566593170166,8.066205024719238,0.7525427341461182
1773145741464223200,0.23722314453125,5.942574977874756,8.00638484954834,0.7357929348945618
1773145741481571800,0.25457177734375,5.921039581298828,7.92861795425415,0.7812566161155701
1773145741498920700,0.271920654296875,5.8719868659973145,7.860422611236572,0.8662018179893494
1773145741516269300,0.289269287109375,5.800201892852783,7.814958572387695,0.9427721500396729
1773145741533618000,0.306617919921875,5.709274768829346,7.791030406951904,0.9810572862625122
1773145741550966800,0.323966796875,5.712863922119141,7.832904815673828,0.9750752449035645
1773145741568315400,0.3413154296875,5.714060306549072,7.814958572387695,0.9942178130149841
1773145741585664300,0.358664306640625,5.708078384399414,7.793423175811768,0.9810572862625122
1773145741603012900,0.376012939453125,5.684150218963623,7.848458290100098,0.8949156403541565
1773145741620361700,0.39336181640625,5.590830326080322,7.931010723114014,0.7441678643226624
1773145741637710300,0.41071044921875,5.450850009918213,8.001599311828613,0.6065805554389954
1773145741655059200,0.42805908203125,5.381458282470703,8.00518798828125,0.5491527915000916
1773145741672407800,0.44540771484375,5.327619552612305,8.001599311828613,0.592223584651947
1773145741689756700,0.462756591796875,5.3694939613342285,7.969295978546143,0.6747759580612183
1773145741707105300,0.480105224609375,5.484349727630615,7.950153350830078,0.6927221417427063
1773145741724454000,0.497453857421875,5.523830890655518,7.95134973526001,0.6771687865257263
1773145741741802800,0.514802734375,5.5345988273620605,7.929814338684082,0.6807580590248108
1773145741759151400,0.5321513671875,5.577669620513916,7.921439170837402,0.6879364848136902
1773145741776500200,0.549500244140625,5.711667537689209,7.94297456741333,0.6939185857772827
1773145741793848800,0.566848876953125,5.8061842918396,7.910671710968018,0.7429714202880859
1773145741811197700,0.58419775390625,5.8923258781433105,7.898707389831543,0.8291130661964417
1773145741828546300,0.60154638671875,5.879165172576904,7.9142608642578125,0.8781659007072449
1773145741863243800,0.636243896484375,5.8133625984191895,7.947760581970215,0.8865407705307007
1773145741880592600,0.653592529296875,5.749952793121338,7.947760581970215,0.9032905697822571
1773145741897941200,0.670941162109375,5.711667537689209,7.920242786407471,0.9152546525001526
1773145741915289900,0.688289794921875,5.747560024261475,7.878368377685547,0.9571290612220764
1773145741932638700,0.705638671875,5.781059741973877,7.837690353393555,0.9942178130149841
1773145741949987300,0.7229873046875,5.770291805267334,7.850851058959961,0.989432156085968
1773145741967336200,0.740336181640625,5.723631858825684,7.871190071105957,0.9726824164390564
1773145741984684800,0.757684814453125,5.588437080383301,7.897511005401611,0.9595218896865845
1773145742002033700,0.77503369140625,5.4281182289123535,7.968099594116211,0.8997012972831726
1773145742019382300,0.79238232421875,5.362315654754639,7.989634990692139,0.8709874153137207
1773145742036731100,0.809731201171875,5.357530117034912,8.014759063720703,0.882951557636261
1773145742054079700,0.827079833984375,5.346762180328369,8.018348693847656,0.9080761671066284
1773145742071428400,0.844428466796875,5.327619552612305,8.024331092834473,0.9200403094291687
1773145742088777200,0.861777099609375,5.356333255767822,8.025527000427246,0.9367900490760803
1773145742106125800,0.879125732421875,5.365904808044434,8.030312538146973,0.9822536706924438
1773145742123474700,0.896474609375,5.443671703338623,8.053044319152832,0.9846464991569519
1773145742140823300,0.9138232421875,5.5932230949401855,8.048258781433105,0.9583254456520081
1773145742158172200,0.931172119140625,5.682953834533691,8.007580757141113,0.98703932762146
1773145742175520800,0.948520751953125,5.657829284667969,7.95134973526001,1.0241280794143677
1773145742192869600,0.96586962890625,5.67338228225708,7.926225185394287,1.046859860420227
1773145742210218200,0.98321826171875,5.667400360107422,7.9142608642578125,1.0660024881362915
1773145742227567000,1.000567138671875,5.684150218963623,7.877171993255615,1.1126625537872314
1773145742244915700,1.017915771484375,5.708078384399414,7.895118236541748,1.1318050622940063
1773145742262264600,1.0352646484375,5.697310924530029,7.903493404388428,1.1030912399291992
1773145742279613200,1.05261328125,5.674578666687012,7.903493404388428,1.0671988725662231
1773145742296961800,1.0699619140625,5.608776092529297,7.907082557678223,1.0552347898483276
1773145742314310700,1.087310546875,5.5692949295043945,7.941778182983398,1.0289137363433838
1773145742331659300,1.1046591796875,5.556134223937988,7.950153350830078,1.007378339767456
1773145742349008100,1.122008056640625,5.545366287231445,7.959724426269531,0.9930213689804077
1773145742366356700,1.139356689453125,5.554937839508057,7.92861795425415,0.9774680733680725
1773145742383705600,1.15670556640625,5.614758491516113,7.895118236541748,0.9678967595100403
1773145742401054200,1.17405419921875,5.672185897827148,7.88076114654541,0.9678967595100403
1773145742418402800,1.19140283203125,5.680561065673828,7.8556365966796875,0.97148597240448
1773145742435751700,1.208751708984375,5.6554365158081055,7.868797302246094,0.9834501147270203
1773145742453100500,1.2261005859375,5.637490272521973,7.901100158691406,0.9667003750801086
1773145742470449200,1.24344921875,5.6207404136657715,7.944170951843262,0.9308080077171326
1773145742487797800,1.2607978515625,5.629115104675293,8.00638484954834,0.851844847202301
1773145742505146600,1.278146728515625,5.6099724769592285,8.091329574584961,0.7357929348945618
1773145742522495200,1.2954951171875,5.592026710510254,8.161917686462402,0.641276478767395
1773145742539844000,1.312843994140625,5.583651542663574,8.193024635314941,0.5850451588630676
1773145742557192700,1.330192626953125,5.563312530517578,8.221738815307617,0.537188708782196
1773145742574541600,1.34754150390625,5.515456199645996,8.227720260620117,0.5204389095306396
1773145742591890200,1.36489013671875,5.516652584075928,8.22293472290039,0.5108676552772522
1773145742609239000,1.382239013671875,5.484349727630615,8.188239097595215,0.5455635786056519
1773145742626587600,1.399587646484375,5.423332691192627,8.14516830444336,0.5886343717575073
1773145742643936300,1.416936279296875,5.418546676635742,8.111668586730957,0.6197410821914673
1773145742661285000,1.43428515625,5.413761138916016,8.057829856872559,0.6795616149902344
1773145742678633700,1.4516337890625,5.436492919921875,8.008777618408203,0.7345965504646301
1773145742695982600,1.468982666015625,5.458028316497803,7.99800968170166,0.7417750358581543
1773145742713331200,1.486331298828125,5.461617469787598,7.987242221832275,0.7645068168640137
1773145742730680000,1.50368017578125,5.508277893066406,7.950153350830078,0.836291491985321
1773145742748028700,1.521028564453125,5.527420520782471,7.9250288009643555,0.8697910308837891
1773145742765377500,1.53837744140625,5.5034918785095215,7.952546119689941,0.8709874153137207
1773145742782726100,1.55572607421875,5.552545070648193,7.978867053985596,0.851844847202301
1773145742800075000,1.573074951171875,5.635097503662109,7.992027759552002,0.9032905697822571
1773145742817423600,1.590423583984375,5.735595703125,8.008777618408203,0.9475577473640442
1773145742834772200,1.607772216796875,5.748756408691406,8.023134231567383,0.9631111025810242
1773145742852121000,1.62512109375,5.700900077819824,8.041080474853516,0.9607182741165161
1773145742869469700,1.6424697265625,5.670989513397217,8.053044319152832,1.00259268283844
1773145742886818600,1.659818603515625,5.706881999969482,8.038687705993652,1.0360921621322632
1773145742904167200,1.677167236328125,5.687739372253418,8.009973526000977,1.0648061037063599
1773145742921516000,1.69451611328125,5.636293888092041,7.936992645263672,1.1174482107162476
1773145742938864600,1.71186474609375,5.602794170379639,7.872386455535889,1.1700903177261353
1773145742956213500,1.729213623046875,5.553741455078125,7.852047443389893,1.1724830865859985
1773145742973562000,1.74656201171875,5.5381879806518555,7.824530124664307,1.1509476900100708
1773145742990911000,1.763910888671875,5.629115104675293,7.847261905670166,1.109073281288147
1773145743008259600,1.781259521484375,5.62672233581543,7.853243827819824,1.1545369625091553
1773145743025608200,1.798608154296875,5.636293888092041,7.864011764526367,1.2011969089508057
1773145743042957000,1.81595703125,5.665007591247559,7.88913631439209,1.184447169303894
1773145743060305700,1.8333056640625,5.739185333251953,7.891529083251953,1.196411371231079
1773145743077654500,1.850654541015625,5.693721294403076,7.926225185394287,1.2646067142486572
1773145743095003100,1.868003173828125,5.788238048553467,7.957331657409668,1.2861422300338745
1773145743112352000,1.88535205078125,5.8097734451293945,7.983652591705322,1.2634103298187256
1773145743129700600,1.90270068359375,5.7858452796936035,8.045866012573242,1.2502498626708984
1773145743147049500,1.920049560546875,5.7511491775512695,8.00518798828125,1.2335001230239868
1773145743164398000,1.937398193359375,5.6793646812438965,7.982456207275391,1.2430713176727295
1773145743181747000,1.954746826171875,5.60399055480957,7.952546119689941,1.25144624710083
1773145743199095600,1.972095458984375,5.547759532928467,7.936992645263672,1.3004990816116333
1773145743216444400,1.9894443359375,5.5728840827941895,7.874779224395752,1.4404792785644531
1773145743233793000,2.00679296875,5.565705299377441,7.822137355804443,1.5696916580200195
1773145743251141600,2.0241416015625,5.649454116821289,7.7455668449401855,1.6091731786727905
1773145743268490500,2.041490478515625,5.519045352935791,7.789834022521973,1.588834285736084
1773145743285839000,2.058839111328125,5.375475883483887,7.755138397216797,1.482353687286377
1773145743303188000,2.07618798828125,5.254638671875,8.024331092834473,1.4297115802764893
1773145743320536600,2.09353662109375,5.288137912750244,7.999206066131592,1.4141582250595093
1773145743337885400,2.110885498046875,5.337191104888916,8.044670104980469,1.4632110595703125
1773145743355234000,2.128234130859375,5.450850009918213,8.09970474243164,1.470389485359192
1773145743372583000,2.1455830078125,5.456831932067871,8.201399803161621,1.3471591472625732
1773145743389931500,2.162931640625,5.347958564758301,8.307880401611328,1.168893814086914
1773145743407280000,2.180280029296875,5.123033046722412,8.37009334564209,1.0959128141403198
1773145743424629000,2.19762890625,5.040481090545654,8.329415321350098,1.0660024881362915
1773145743441977600,2.2149775390625,5.19960355758667,8.23250675201416,1.1772687435150146
1773145743459326500,2.232326416015625,5.423332691192627,8.135597229003906,1.3603196144104004
1773145743476675000,2.249675048828125,5.62672233581543,7.994420528411865,1.557727575302124
1773145743494024000,2.26702392578125,5.705685615539551,7.859225749969482,1.7371892929077148
1773145743511372500,2.28437255859375,5.784648895263672,7.732406139373779,1.887937068939209
1773145743528721400,2.301721435546875,5.773880958557129,7.629515171051025,1.9980069398880005
1773145743546070000,2.319070068359375,5.828916072845459,7.5708909034729,2.0231316089630127
1773145743563419000,2.3364189453125,5.8612189292907715,7.561319351196289,2.1296122074127197
1773145743580767500,2.353767578125,5.897111415863037,7.379465103149414,2.252842426300049
1773145743598116000,2.3711162109375,5.8683977127075195,7.386643409729004,2.2911276817321777
1773145743615465000,2.38846484375,5.708078384399414,7.4500532150268555,2.2408783435821533
1773145743632813600,2.4058134765625,5.6099724769592285,7.575676441192627,2.194218397140503
1773145743650162400,2.423162353515625,5.5860443115234375,7.677371501922607,2.197807550430298
1773145743667511000,2.440510986328125,5.61954402923584,7.69531774520874,2.2265214920043945
1773145743684860000,2.45785986328125,5.6793646812438965,7.665407180786133,2.289931297302246
1773145743702208500,2.47520849609375,5.740381717681885,7.64865779876709,2.3700907230377197
1773145743719557400,2.492557373046875,5.799005508422852,7.713263988494873,2.3736801147460938
1773145743736906000,2.509906005859375,5.846862316131592,7.797012805938721,2.311466693878174
1773145743754254800,2.5272548828125,5.7750773429870605,7.848458290100098,2.2097716331481934
1773145743771603500,2.544603515625,5.638686656951904,7.841279983520508,2.183450698852539
1773145743788952300,2.561952392578125,5.430510997772217,7.789834022521973,2.234896421432495
1773145743806301000,2.579301025390625,5.234299659729004,7.694121360778809,2.3054845333099365
1773145743823649500,2.5966494140625,5.113461971282959,7.678567886352539,2.400001049041748
1773145743840998400,2.613998291015625,4.9878387451171875,7.6737823486328125,2.403590440750122
1773145743858347000,2.631346923828125,4.930410861968994,7.795815944671631,2.400001049041748
1773145743875695900,2.64869580078125,4.9124650955200195,7.844869136810303,2.445464849472046
1773145743893044500,2.66604443359375,4.951946258544922,7.916653633117676,2.4646072387695312
1773145743910393300,2.683393310546875,4.975874900817871,7.9585280418396,2.403590440750122
1773145743927742000,2.700741943359375,5.00578498840332,7.8819580078125,2.3126630783081055
1773145743945090800,2.7180908203125,5.032105922698975,7.7730841636657715,2.307877540588379
1773145743962439400,2.735439453125,5.115854740142822,7.714460372924805,2.3820550441741943
1773145743979788000,2.7527880859375,5.134997367858887,7.787441253662109,2.441875457763672
1773145743997137000,2.770136962890625,5.164907455444336,7.94297456741333,2.5220351219177246
1773145744014485500,2.787485595703125,5.119443893432617,8.057829856872559,2.6225335597991943
1773145744031834400,2.80483447265625,5.089533805847168,8.090133666992188,2.63449764251709
1773145744049183000,2.822182861328125,5.222335338592529,8.13798999786377,2.572284460067749
1773145744066531800,2.83953173828125,5.388636589050293,8.132007598876953,2.572284460067749
1773145744083880400,2.85688037109375,5.443671703338623,8.042277336120605,2.641676187515259
1773145744101229300,2.874229248046875,5.391029357910156,7.910671710968018,2.750549554824829
1773145744118578000,2.891577880859375,5.3347978591918945,7.791030406951904,2.89172625541687
1773145744135926800,2.9089267578125,5.102694511413574,7.768298625946045,3.1441688537597656
1773145744153275400,2.926275390625,4.934000492095947,7.731209754943848,3.280559778213501
1773145744170624300,2.943624267578125,4.9124650955200195,7.680960655212402,3.294916868209839
1773145744187972900,2.960972900390625,4.965106964111328,7.613961696624756,3.2578279972076416
1773145744205321500,2.978321533203125,4.898108005523682,7.575676441192627,3.142972469329834
1773145744222670300,2.99567041015625,4.843072891235352,7.704888820648193,3.022135019302368
1773145744240019000,3.01301904296875,4.828716278076172,7.822137355804443,3.0113673210144043
1773145744257367800,3.030367919921875,4.922036170959473,7.871190071105957,3.064009428024292
1773145744274716400,3.04771630859375,5.0811591148376465,7.874779224395752,2.9838497638702393
1773145744292065300,3.065065185546875,5.236692428588867,7.846065521240234,2.748156785964966
1773145744309414000,3.082413818359375,5.292923450469971,7.69531774520874,2.4813570976257324
1773145744326762800,3.0997626953125,5.08355188369751,7.5673017501831055,2.2540390491485596
1773145744344111400,3.117111328125,4.890929698944092,7.523034572601318,2.0685951709747314
1773145744361460200,3.134460205078125,4.883750915527344,7.5912299156188965,1.9489539861679077
1773145744378808800,3.151808837890625,4.95912504196167,7.755138397216797,1.8939191102981567
1773145744396157700,3.16915771484375,5.0464630126953125,7.964509963989258,1.7826528549194336
1773145744413506300,3.18650634765625,5.164907455444336,8.212167739868164,1.5936198234558105
1773145744430855000,3.20385498046875,5.3347978591918945,8.400003433227539,1.4404792785644531
1773145744448203800,3.221203857421875,5.5345988273620605,8.542376518249512,1.3507484197616577
1773145744465552400,3.238552490234375,5.682953834533691,8.550751686096191,1.384247899055481
1773145744482901200,3.2559013671875,5.714060306549072,8.428717613220215,1.4249259233474731
1773145744500249900,3.273249755859375,5.645864963531494,8.271987915039062,1.4428720474243164
1773145744517598700,3.2905986328125,5.466403484344482,8.167900085449219,1.4189438819885254
1773145744534947300,3.307947265625,5.168497085571289,8.066205024719238,1.4524433612823486
1773145744552296200,3.325296142578125,4.935196876525879,7.966903209686279,1.5864413976669312
1773145744569644800,3.342644775390625,4.876572608947754,7.910671710968018,1.7611174583435059
1773145744586993700,3.35999365234375,4.882554531097412,7.8819580078125,1.8077775239944458
1773145744604342300,3.37734228515625,4.835894584655762,7.899903774261475,1.8137595653533936
1773145744621691100,3.394691162109375,4.920839786529541,7.903493404388428,1.8352949619293213
1773145744639039700,3.412039794921875,5.1768717765808105,7.861618995666504,1.9022940397262573
1773145744656388400,3.429388427734375,5.599205017089844,7.868797302246094,1.9226330518722534
1773145744673737200,3.4467373046875,5.880361557006836,7.874779224395752,1.8999011516571045
1773145744691085800,3.4640859375,6.102894306182861,7.915457248687744,1.7443677186965942
1773145744708434700,3.4814345703125,6.302694797515869,8.044670104980469,1.5074782371520996
1773145744725783300,3.498783203125,6.40438985824585,8.161917686462402,1.332802176475525
1773145744743132200,3.516132080078125,6.317051887512207,8.22413158416748,1.3160524368286133
1773145744760480800,3.533480712890625,6.126822471618652,8.228917121887207,1.4428720474243164
1773145744777829400,3.550829345703125,5.851647853851318,8.204988479614258,1.6091731786727905
1773145744795178200,3.56817822265625,5.582455158233643,8.189435958862305,1.7958134412765503
1773145744812527000,3.585527099609375,5.37069034576416,8.117650985717773,1.9908283948898315
1773145744829875700,3.602875732421875,5.179264545440674,8.01356315612793,2.1822543144226074
1773145744847224600,3.620224609375,5.071587562561035,7.927421569824219,2.352144718170166
1773145744864573200,3.6375732421875,4.9986066818237305,7.854440212249756,2.444268226623535
1773145744881921800,3.654921875,5.01296329498291,7.910671710968018,2.4011974334716797
1773145744899270700,3.672270751953125,4.961517810821533,7.957331657409668,2.368894338607788
1773145744916619300,3.689619384765625,4.865804672241211,7.915457248687744,2.403590440750122
1773145744933968100,3.706968017578125,4.859822750091553,7.850851058959961,2.4681966304779053
1773145744951316700,3.724316650390625,4.923232555389404,7.7563347816467285,2.4993033409118652
1773145744968665600,3.74166552734375,5.041677474975586,7.677371501922607,2.544766902923584
1773145744986014200,3.75901416015625,5.157729148864746,7.552944660186768,2.5782663822174072
1773145745003363000,3.776363037109375,5.2283172607421875,7.499105930328369,2.6488547325134277
1773145745020711700,3.793711669921875,5.392225742340088,7.4464640617370605,2.620140790939331
1773145745038060500,3.811060546875,5.377869129180908,7.460821151733398,2.623729944229126
1773145745055409200,3.8284091796875,5.0703911781311035,7.460821151733398,2.5698914527893066
1773145745072758000,3.845758056640625,5.20678186416626,7.345965385437012,2.504088878631592
1773145745090106600,3.863106689453125,5.44008207321167,7.134200572967529,2.4670002460479736
1773145745107455200,3.880455322265625,5.292923450469971,7.781459331512451,2.225325107574463
1773145745124804000,3.89780419921875,4.715056896209717,7.441678524017334,2.504088878631592
1773145745142152700,3.915152587890625,4.122833251953125,7.403393268585205,2.691925525665283
1773145745159501600,3.93250146484375,4.46979284286499,6.589833736419678,3.078366279602051
1773145745176850200,3.94985009765625,3.3930225372314453,7.037291526794434,3.0412776470184326
1773145745194199000,3.967198974609375,3.3415768146514893,6.7345991134643555,2.8893332481384277
1773145745211547600,3.984547607421875,4.979464054107666,7.630711555480957,0.97148597240448
1773145745228896500,4.001896484375,6.3840508460998535,7.53858757019043,0.4007977843284607
1773145745246245000,4.0192451171875,5.971288681030273,7.1473612785339355,0.4713860750198364
1773145745263594000,4.036593994140625,6.071787357330322,7.552944660186768,0.009571290574967861
1773145745280942600,4.053942626953125,6.399604320526123,7.616354465484619,0.07178468257188797
1773145745298291200,4.071291259765625,8.139185905456543,8.127222061157227,-0.8147560954093933
1773145745315640000,4.08864013671875,8.883354187011719,8.331808090209961,-2.14516544342041
1773145745332988700,4.10598876953125,6.7178497314453125,7.7180495262146,-0.5790630578994751
1773145745350337500,4.123337646484375,7.459624767303467,6.232106685638428,1.0947163105010986
1773145745367686100,4.14068603515625,7.288537979125977,5.836094379425049,1.1497513055801392
1773145745385035000,4.158034912109375,6.530013084411621,6.902096748352051,0.35054850578308105
1773145745402383600,4.175383544921875,6.258427619934082,8.328219413757324,-2.032702922821045
1773145745419732500,4.192732421875,6.58265495300293,9.682557106018066,-5.182853698730469
1773145745437081000,4.2100810546875,7.465606689453125,9.232706069946289,-5.54177713394165
1773145745454430000,4.227429931640625,7.423732280731201,7.204789161682129,-0.9020941257476807
1773145745471778600,4.244778564453125,6.799205780029297,6.504888534545898,1.1976077556610107
1773145745489127200,4.262127197265625,6.97268533706665,7.576872825622559,1.7132610082626343
1773145745506476000,4.27947607421875,7.1856465339660645,8.306683540344238,1.6869399547576904
1773145745523824600,4.29682470703125,7.8903326988220215,8.72183895111084,1.4727823734283447
1773145745541173500,4.314173583984375,8.090133666992188,7.8041911125183105,1.4261223077774048
1773145745558522000,4.331522216796875,8.343772888183594,7.240681171417236,0.7130611538887024
1773145745575871000,4.34887109375,8.435895919799805,7.025327205657959,0.1459621787071228
1773145745593219600,4.366219482421875,8.13081169128418,6.722635269165039,-0.11126625537872314
1773145745610568400,4.383568359375,8.017151832580566,6.868597507476807,-0.37806597352027893
1773145745627917000,4.4009169921875,7.646264553070068,6.7932233810424805,-0.5204389095306396
1773145745645266000,4.418265869140625,7.534998416900635,6.356533527374268,-0.6376872062683105
1773145745662614500,4.435614501953125,7.560122966766357,6.16271448135376,-1.0085747241973877
1773145745679963100,4.452963134765625,7.865208148956299,6.260820388793945,-1.5206388235092163
1773145745697312000,4.47031201171875,7.982456207275391,6.300302028656006,-2.328216314315796
1773145745714660900,4.487660888671875,8.303094863891602,6.329015731811523,-2.7661030292510986
1773145745732009500,4.505009521484375,8.039883613586426,6.130411624908447,-2.688336133956909
1773145745749358000,4.522358154296875,7.441678524017334,6.081358909606934,-2.6045875549316406
1773145745766707000,4.53970703125,7.024130821228027,6.4701924324035645,-2.8342983722686768
1773145745784055600,4.5570556640625,6.915257453918457,6.794419765472412,-3.166900873184204
1773145745801404400,4.574404296875,6.781259536743164,7.160521984100342,-3.0664021968841553
1773145745818753000,4.5917529296875,6.567101955413818,7.191628456115723,-2.2995026111602783
1773145745836102000,4.609101806640625,6.492924213409424,7.3914289474487305,-1.9812572002410889
1773145745853450500,4.626450439453125,6.500102519989014,7.653443336486816,-2.204986095428467
1773145745870799400,4.64379931640625,6.375676155090332,7.735995769500732,-2.5435705184936523
1773145745888148000,4.66114794921875,5.92223596572876,8.14636516571045,-2.7972097396850586
1773145745905496800,4.678496826171875,5.431707382202148,8.237292289733887,-2.200200319290161
1773145745922845400,4.695845458984375,5.278566837310791,8.597412109375,-1.3710874319076538
1773145745940194300,4.7131943359375,5.126622676849365,8.652446746826172,-0.4043870270252228
1773145745957543000,4.73054296875,4.911268711090088,8.617751121520996,0.2225325107574463
1773145745974891500,4.7478916015625,4.6061835289001465,8.46341323852539,0.029910283163189888
1773145745992240400,4.765240478515625,4.140779495239258,8.72782039642334,-0.6855437159538269
1773145746009589000,4.782589111328125,3.445664644241333,9.384650230407715,-0.8291130661964417
1773145746026937900,4.799937744140625,3.1453654766082764,9.900303840637207,-0.2919243574142456
1773145746044286500,4.817286376953125,3.184846878051758,10.126425743103027,0.26919254660606384
1773145746061635300,4.83463525390625,3.431307554244995,10.210174560546875,0.259621262550354
1773145746078984000,4.85198388671875,3.9972102642059326,10.293923377990723,-0.18424734473228455
1773145746096332800,4.869332763671875,4.435096740722656,10.206584930419922,-0.5096712112426758
1773145746113681400,4.886681396484375,3.9122650623321533,9.634700775146484,-0.21415762603282928
1773145746131030300,4.9040302734375,3.6921253204345703,9.133403778076172,-0.062213387340307236
1773145746148379000,4.92137890625,4.195814609527588,8.920442581176758,-0.3038884699344635
1773145746165727700,4.938727783203125,5.30847692489624,8.545966148376465,-0.4295116662979126
1773145746183076400,4.956076416015625,5.687739372253418,8.172685623168945,-0.48574298620224
1773145746200425200,4.97342529296875,5.020142078399658,8.3629150390625,-0.7334001660346985
1773145746217773800,4.99077392578125,4.218546390533447,8.4502534866333,-0.41156548261642456
1773145746235122700,5.008122802734375,3.7507495880126953,8.671588897705078,0.18903298676013947
1773145746252471300,5.02547119140625,3.397808074951172,8.717052459716797,0.7106683254241943
1773145746269820000,5.04281982421875,3.383451223373413,8.780462265014648,0.6807580590248108
1773145746287168800,5.060168701171875,4.082155227661133,9.041280746459961,0.29431718587875366
1773145746304517400,5.077517333984375,5.178068161010742,9.238688468933105,-0.01196411345154047
1773145746321866200,5.0948662109375,6.118447303771973,9.31884765625,-0.1818545162677765
1773145746339214800,5.11221484375,6.391229152679443,9.363115310668945,-0.4043870270252228
1773145746356563700,5.129563720703125,6.351747512817383,9.418149948120117,-0.9954141974449158
1773145746373912300,5.146912353515625,6.080162525177002,9.31047248840332,-1.7359927892684937
1773145746391261200,5.16426123046875,5.882754325866699,9.260223388671875,-2.2193429470062256
1773145746408609800,5.18160986328125,5.467599868774414,9.066405296325684,-2.475374937057495
1773145746425958700,5.198958740234375,4.7234320640563965,9.109476089477539,-2.83669114112854
1773145746443307300,5.216307373046875,4.204189300537109,9.09392261505127,-3.0448668003082275
1773145746460656000,5.23365625,3.656233072280884,9.213563919067383,-2.9694929122924805
1773145746478004700,5.251004638671875,2.9718856811523438,9.259027481079102,-2.6943182945251465
1773145746495353600,5.268353515625,1.8951154947280884,9.359525680541992,-2.5423741340637207
1773145746512702200,5.2857021484375,0.9451649188995361,9.419346809387207,-2.4873390197753906
1773145746530051000,5.303051025390625,-0.062213387340307236,9.485149383544922,-2.228914260864258
1773145746547399700,5.320399658203125,-1.0516455173492432,9.455238342285156,-1.6666009426116943
1773145746564748300,5.337748291015625,-1.8041882514953613,9.235098838806152,-0.7405785918235779
1773145746582097200,5.35509716796875,-2.011167526245117,9.270991325378418,0.41874396800994873
1773145746599445800,5.37244580078125,-0.9475577473640442,9.710074424743652,1.2346965074539185
1773145746616794600,5.389794677734375,0.9655039310455322,10.030712127685547,1.3112667798995972
1773145746634143200,5.407143310546875,2.5734808444976807,10.01037311553955,0.867398202419281
1773145746651492000,5.4244921875,3.1728827953338623,9.937392234802246,1.0791629552841187
1773145746668840700,5.4418408203125,3.376272678375244,10.021141052246094,2.0003998279571533
1773145746686189600,5.459189453125,3.5988051891326904,10.48534870147705,3.2004003524780273
1773145746703538200,5.4765380859375,3.5617165565490723,10.790433883666992,3.8775691986083984
1773145746720887000,5.493886962890625,3.4372897148132324,10.657631874084473,3.834498405456543
1773145746738235600,5.511235595703125,3.5270206928253174,10.541580200195312,3.1657042503356934
1773145746755584500,5.52858447265625,3.500699520111084,10.503294944763184,3.0580272674560547
1773145746772933000,5.54593310546875,3.339184045791626,10.494919776916504,3.421736478805542
1773145746790282000,5.563281982421875,3.376272678375244,10.352546691894531,3.783052682876587
1773145746807630600,5.580630615234375,3.528217077255249,9.896714210510254,3.4791641235351562
1773145746824979500,5.5979794921875,3.1549365520477295,9.268598556518555,3.087937593460083
1773145746842328000,5.615328125,2.583052158355713,8.660821914672852,2.963510751724243
1773145746859676700,5.6326767578125,2.128415822982788,8.249256134033203,2.9862427711486816
1773145746877025500,5.650025634765625,1.9932212829589844,7.897511005401611,3.2470602989196777
1773145746894374100,5.6673740234375,1.628315806388855,7.500302791595459,3.625126361846924
1773145746911723000,5.684722900390625,1.031306505203247,6.930810928344727,3.6909289360046387
1773145746929071600,5.702071533203125,0.5324030518531799,6.508477687835693,3.4540395736694336
1773145746946420500,5.71942041015625,0.5132604837417603,6.260820388793945,3.0484559535980225
1773145746963769000,5.73676904296875,0.7920243144035339,6.1950178146362305,2.8283164501190186
1773145746981118000,5.754117919921875,0.7800601720809937,6.45822811126709,3.245863914489746
1773145746998466600,5.771466552734375,0.349352091550827,6.697510719299316,3.8572301864624023
1773145747015815400,5.7888154296875,-0.48095735907554626,6.882954120635986,4.097708702087402
1773145747033164000,5.8061640625,-1.0121639966964722,7.010970115661621,4.086941242218018
1773145747050513000,5.823512939453125,-0.9918249845504761,7.452445983886719,3.9050865173339844
1773145747067861500,5.840861572265625,-0.5958128571510315,7.83410120010376,3.7603209018707275
1773145747085210400,5.85821044921875,-0.5228317379951477,8.133204460144043,3.5437703132629395
1773145747102559000,5.87555908203125,-0.9607182741165161,8.208578109741211,3.2506494522094727
1773145747119907800,5.892907958984375,-1.8951154947280884,8.305487632751465,3.0388846397399902
1773145747137256400,5.91025634765625,-2.012363910675049,8.566305160522461,2.7122645378112793
1773145747154605000,5.92760498046875,-1.4763715267181396,8.812766075134277,2.2707886695861816
1773145747171954000,5.944953857421875,-0.4450650215148926,9.138189315795898,1.7754744291305542
1773145747189302500,5.962302490234375,0.5754738450050354,9.446864128112793,1.5337992906570435
1773145747206651400,5.9796513671875,1.293320655822754,9.664610862731934,1.32921302318573
1773145747224000000,5.997,1.557727575302124,9.884750366210938,1.074377417564392
1773145747241348900,6.014348876953125,1.3555340766906738,9.980463027954102,0.7716853022575378
1773145747258697500,6.031697509765625,1.1736794710159302,10.030712127685547,0.4103690981864929
1773145747276046300,6.04904638671875,1.5002998113632202,9.93978500366211,-0.05503492057323456
1773145747293395000,6.06639501953125,1.734796404838562,9.810572624206543,-0.7668996453285217
1773145747310743800,6.083743896484375,1.726421594619751,9.796216011047363,-1.3196417093276978
1773145747328092400,6.101092529296875,1.852044701576233,10.01994514465332,-1.3914263248443604
1773145747345441300,6.118441162109375,1.9597218036651611,10.179067611694336,-1.262213945388794
1773145747362790000,6.135789794921875,1.6187444925308228,10.046265602111816,-1.1808580160140991
1773145747380138800,6.153138671875,1.073180913925171,9.912267684936523,-1.3962119817733765
1773145747397487400,6.1704873046875,0.5778666734695435,9.755537986755371,-1.6474584341049194
1773145747414836200,6.187836181640625,0.3684946894645691,9.705288887023926,-1.812563180923462
1773145747432184800,6.205184814453125,0.4414757788181305,9.66221809387207,-1.7575281858444214
1773145747449533400,6.222533447265625,0.49292147159576416,9.728020668029785,-1.805384635925293
1773145747466882300,6.23988232421875,0.5252245664596558,9.749555587768555,-1.7730815410614014
1773145747484231000,6.25723095703125,0.5443671345710754,9.714859962463379,-1.9405791759490967
1773145747501579800,6.274579833984375,0.519242525100708,9.602396965026855,-2.17627215385437
1773145747518928400,6.291928466796875,0.4043870270252228,9.603593826293945,-2.094916343688965
1773145747536277200,6.30927734375,0.4378865361213684,9.659825325012207,-1.8089739084243774
1773145747553625900,6.3266259765625,0.7082754969596863,9.686145782470703,-1.6893328428268433
1773145747570974700,6.343974609375,1.1330015659332275,9.716055870056152,-1.8305093050003052
1773145747588323300,6.3613232421875,1.5876377820968628,9.680164337158203,-2.196611166000366
1773145747605672200,6.378672119140625,1.8472590446472168,9.748359680175781,-2.458625316619873
1773145747623020800,6.396020751953125,1.8807586431503296,9.7938232421875,-2.3916261196136475
1773145747640369700,6.41336962890625,1.690529227256775,9.759127616882324,-2.124826431274414
1773145747657718300,6.43071826171875,1.3746765851974487,9.719645500183105,-1.8508483171463013
1773145747675067000,6.44806689453125,1.054038405418396,9.726823806762695,-1.5038890838623047
1773145747692415700,6.465415771484375,0.851844847202301,9.798608779907227,-1.2849457263946533
1773145747709764400,6.482764404296875,0.9559326171875,9.88833999633789,-1.3710874319076538
1773145747727113200,6.50011328125,1.1102696657180786,9.840482711791992,-1.4656038284301758
1773145747744461800,6.5174619140625,1.3196417093276978,9.881160736083984,-1.4763715267181396
1773145747761810700,6.534810791015625,1.4177473783493042,9.900303840637207,-1.3603196144104004
1773145747779159300,6.5521591796875,1.23589289188385,9.92423152923584,-1.2215359210968018
1773145747796508200,6.569508056640625,1.0265209674835205,9.871589660644531,-1.1892328262329102
1773145747813856800,6.586856689453125,0.6831508874893188,9.738788604736328,-1.2131611108779907
1773145747831205600,6.60420556640625,0.4127618968486786,9.682557106018066,-1.1772687435150146
1773145747848554200,6.62155419921875,0.24406790733337402,9.745966911315918,-1.0157532691955566
1773145747865903000,6.638903076171875,0.2871387302875519,9.720842361450195,-0.8315058946609497
1773145747883251700,6.656251708984375,0.576670229434967,9.631111145019531,-0.7896314859390259
1773145747900600600,6.6736005859375,0.898504912853241,9.518648147583008,-0.8171489238739014
1773145747917949200,6.69094921875,1.0552347898483276,9.480362892150879,-0.9320043921470642
1773145747935298000,6.708298095703125,0.9571290612220764,9.53779125213623,-0.9595218896865845
1773145747952646700,6.725646728515625,0.7154539823532104,9.53061294555664,-0.5910272002220154
1773145747969995300,6.742995361328125,0.6113662123680115,9.501898765563965,-0.19381862878799438
1773145747987344100,6.76034423828125,0.7046862840652466,9.433703422546387,-0.12323036789894104
1773145748004693000,6.77769287109375,0.7800601720809937,9.445667266845703,-0.3756731450557709
1773145748022041600,6.79504150390625,0.9104689955711365,9.512666702270508,-0.6101697683334351
1773145748039390200,6.81239013671875,0.9774680733680725,9.610772132873535,-0.6029912829399109
1773145748056739000,6.829739013671875,0.8937192559242249,9.639486312866211,-0.41156548261642456
1773145748074087700,6.847087646484375,0.7884350419044495,9.743574142456055,-0.19142581522464752
1773145748091436500,6.8644365234375,0.9343972206115723,9.759127616882324,-0.04307080805301666
1773145748108785200,6.88178515625,1.0564311742782593,9.724431037902832,-0.05383851006627083
1773145748126134000,6.899134033203125,1.0660024881362915,9.678967475891113,-0.008374879136681557
1773145748143482600,6.916482666015625,0.8889335989952087,9.577272415161133,0.11246266216039658
1773145748160831500,6.93383154296875,0.8434699773788452,9.52941608428955,0.22971096634864807
1773145748178180000,6.95118017578125,0.9092726111412048,9.533005714416504,0.30987054109573364
1773145748195529000,6.968529052734375,1.0612168312072754,9.597611427307129,0.2919243574142456
1773145748212877600,6.985877685546875,1.057627558708191,9.564111709594727,0.24047867953777313
1773145748230226400,7.003226318359375,1.0145567655563354,9.401400566101074,0.037088751792907715
1773145748247575000,7.020574951171875,0.9726824164390564,9.260223388671875,-0.2835494875907898
1773145748264923600,7.037923583984375,0.8051848411560059,9.309276580810547,-0.605384111404419
1773145748282272500,7.0552724609375,0.6472585201263428,9.533005714416504,-0.9690931439399719
1773145748299621000,7.07262109375,0.47258245944976807,9.603593826293945,-1.1150553226470947
1773145748316970000,7.089969970703125,0.5659025311470032,9.548559188842773,-1.1078768968582153
1773145748334318800,7.10731884765625,0.9296116232872009,9.410971641540527,-0.9044869542121887
1773145748351667500,7.12466748046875,1.3866406679153442,9.396614074707031,-0.745364248752594
1773145748369016000,7.14201611328125,1.9154545068740845,9.467203140258789,-0.5084748268127441
1773145748386365000,7.159364990234375,2.341377019882202,9.438488960266113,-0.15074782073497772
1773145748403713500,7.176713623046875,2.5950162410736084,9.305686950683594,0.02273181453347206
1773145748421062400,7.1940625,2.691925525665283,9.190832138061523,-0.14715859293937683
1773145748438411000,7.211410888671875,2.7433712482452393,9.196813583374023,-0.5946164131164551
1773145748455760000,7.228759765625,2.682354211807251,9.340383529663086,-0.9942178130149841
1773145748473108500,7.2461083984375,2.5710878372192383,9.387042999267578,-1.0791629552841187
1773145748490457300,7.263457275390625,2.421536445617676,9.397810935974121,-1.089930772781372
1773145748507806000,7.280805908203125,2.376072883605957,9.44447135925293,-1.100698471069336
1773145748525154800,7.29815478515625,2.231307029724121,9.461220741271973,-1.1353943347930908
1773145748542503400,7.31550341796875,2.142772674560547,9.43609619140625,-1.179661512374878
1773145748559852000,7.33285205078125,2.2133610248565674,9.486345291137695,-1.275374412536621
1773145748577201000,7.350200927734375,2.434697151184082,9.517452239990234,-1.4033905267715454
1773145748594549500,7.367549560546875,2.548356056213379,9.558130264282227,-1.6654045581817627
1773145748611898400,7.3848984375,2.3856441974639893,9.54377269744873,-1.963310956954956
1773145748629247000,7.4022470703125,2.0781664848327637,9.518648147583008,-2.100898265838623
1773145748646595800,7.419595947265625,1.9369899034500122,9.482755661010742,-2.1415762901306152
1773145748663944400,7.4369443359375,2.053041934967041,9.475577354431152,-2.196611166000366
1773145748681293300,7.454293212890625,2.228914260864258,9.482755661010742,-2.2229323387145996
1773145748698642000,7.471641845703125,2.3306093215942383,9.486345291137695,-2.2576282024383545
1773145748715990800,7.48899072265625,2.478964328765869,9.562915802001953,-2.2265214920043945
1773145748733339400,7.50633935546875,2.592623233795166,9.725627899169922,-2.045863389968872
1773145748750688300,7.523688232421875,2.713460922241211,9.80100154876709,-1.7754744291305542
1773145748768036900,7.541036865234375,2.6835505962371826,9.789037704467773,-1.5050854682922363
1773145748785385700,7.5583857421875,2.4646072387695312,9.869196891784668,-1.397408366203308
1773145748802734300,7.575734375,2.348555326461792,9.92542839050293,-1.32921302318573
1773145748820083200,7.593083251953125,2.2636101245880127,9.996016502380371,-1.3184453248977661
1773145748837431800,7.610431884765625,2.234896421432495,10.055837631225586,-1.353141188621521
1773145748854780400,7.627780517578125,2.14516544342041,9.961320877075195,-1.2143574953079224
1773145748872129300,7.64512939453125,1.9369899034500122,9.827322959899902,-1.0791629552841187
1773145748889478000,7.662477783203125,1.8005990982055664,9.639486312866211,-1.3866406679153442
1773145748906826800,7.67982666015625,1.7718851566314697,9.482755661010742,-1.9094724655151367
1773145748924175400,7.69717529296875,1.903490424156189,9.34157943725586,-2.179861545562744
1773145748941524200,7.714524169921875,1.9250258207321167,9.329615592956543,-2.2325034141540527
1773145748958872800,7.731872802734375,1.911865234375,9.300901412963867,-2.128415822982788
1773145748976221700,7.7492216796875,1.9860427379608154,9.381061553955078,-2.146361827850342
1773145748993570300,7.7665703125,2.245664119720459,9.416953086853027,-2.2097716331481934
1773145749010919200,7.783919189453125,2.4849462509155273,9.454042434692383,-2.2396819591522217
1773145749028267800,7.801267822265625,2.5603201389312744,9.393025398254395,-2.225325107574463
1773145749045616600,7.81861669921875,2.427518606185913,9.337990760803223,-2.169093608856201
1773145749062965200,7.83596533203125,2.2851455211639404,9.250652313232422,-2.084148406982422
1773145749080313900,7.85331396484375,2.324627161026001,9.159725189208984,-2.0003998279571533
1773145749097662700,7.870662841796875,2.30069899559021,9.10110092163086,-1.9441684484481812
1773145749115011600,7.888011474609375,2.2193429470062256,9.095118522644043,-1.9357935190200806
1773145749132360200,7.905360107421875,2.1846470832824707,9.129815101623535,-1.954936146736145
1773145749149709000,7.922708984375,2.2959132194519043,9.10827922821045,-1.9489539861679077
1773145749167057700,7.9400576171875,2.444268226623535,9.10827922821045,-1.970489501953125
1773145749184406300,7.95740625,2.5220351219177246,9.061619758605957,-1.9896320104599
1773145749201755100,7.974755126953125,2.6225335597991943,9.07119083404541,-2.1272194385528564
1773145749219103700,7.992103759765625,2.737389087677002,9.047262191772461,-2.335394859313965
1773145749236452600,8.00945263671875,2.8079774379730225,8.994620323181152,-2.550748825073242
1773145749253800400,8.026800537109375,2.89172625541687,8.920442581176758,-2.768495798110962
1773145749271149300,8.0441494140625,2.8773691654205322,8.831908226013184,-2.857030153274536
1773145749288498000,8.061497802734374,2.7314071655273438,8.804390907287598,-2.853440999984741
1773145749305846800,8.0788466796875,2.6225335597991943,8.757730484008789,-2.7565317153930664
1773145749323195600,8.096195556640625,2.5914268493652344,8.723034858703613,-2.7146573066711426
1773145749340544300,8.113544189453124,2.548356056213379,8.660821914672852,-2.691925525665283
1773145749357892900,8.130892822265626,2.4358935356140137,8.676374435424805,-2.733799934387207
1773145749375241700,8.14824169921875,2.2995026111602783,8.672785758972168,-2.788834810256958
1773145749392590300,8.16559033203125,2.1858434677124023,8.70628547668457,-2.874976396560669
1773145749409939200,8.182939208984376,2.324627161026001,8.797212600708008,-2.9826533794403076
1773145749427287800,8.200287841796875,2.5746772289276123,8.840283393859863,-3.0592236518859863
1773145749444636700,8.21763671875,2.6464617252349854,8.922835350036621,-3.128615617752075
1773145749461985300,8.2349853515625,2.6739792823791504,9.047262191772461,-3.102294445037842
1773145749479334100,8.252334228515625,2.8223342895507812,9.147761344909668,-2.957528829574585
1773145749496682800,8.269682861328125,3.0101709365844727,9.253045082092285,-2.744567632675171
1773145749514031600,8.287031494140624,3.087937593460083,9.31166934967041,-2.4610180854797363
1773145749531380200,8.304380126953125,2.985046148300171,9.31047248840332,-2.2576282024383545
1773145749548728800,8.321728759765625,2.788834810256958,9.299705505371094,-2.255235433578491
1773145749566077700,8.33907763671875,2.7146573066711426,9.251849174499512,-2.2791635990142822
1773145749583426300,8.35642626953125,2.7457640171051025,9.237491607666016,-2.287538528442383
1773145749600775200,8.373775146484375,2.827120065689087,9.248259544372559,-2.187039852142334
1773145749618123800,8.391123779296874,2.946761131286621,9.207581520080566,-1.9669002294540405
1773145749635472600,8.40847265625,3.029313564300537,9.177671432495117,-1.7527425289154053
1773145749652821200,8.4258212890625,3.0317063331604004,9.107083320617676,-1.5481562614440918
1773145749670170000,8.443170166015625,2.970689296722412,9.014959335327148,-1.5146567821502686
1773145749687518700,8.460518798828126,2.943171739578247,8.915657043457031,-1.679761528968811
1773145749704867600,8.47786767578125,3.064009428024292,8.82233715057373,-1.9716858863830566
1773145749722216200,8.49521630859375,3.2099716663360596,8.775676727294922,-2.1535403728485107
1773145749739565000,8.51256494140625,3.2279176712036133,8.757730484008789,-2.1607189178466797
1773145749756913700,8.52991357421875,3.229114055633545,8.723034858703613,-2.169093608856201
1773145749774262300,8.54726220703125,3.153740167617798,8.764909744262695,-2.2911276817321777
1773145749791611100,8.564611083984374,3.0556344985961914,8.82114028930664,-2.36291241645813
1773145749808959700,8.581959716796876,3.032902717590332,8.908478736877441,-2.355733871459961
1773145749826308600,8.59930859375,3.025724172592163,8.94556713104248,-2.3150558471679688
1773145749843657200,8.6166572265625,3.022135019302368,8.971888542175293,-2.3270199298858643
1773145749861006000,8.634006103515626,2.9874391555786133,9.061619758605957,-2.3222343921661377
1773145749878354700,8.651354736328125,2.9599215984344482,9.135796546936035,-2.190629243850708
1773145749895703600,8.66870361328125,2.932404041290283,9.223134994506836,-2.0470597743988037
1773145749913052200,8.68605224609375,2.8701908588409424,9.266205787658691,-1.9764715433120728
1773145749930401000,8.703401123046875,2.796013355255127,9.269794464111328,-1.9932212829589844
1773145749947749600,8.72074951171875,2.7421748638153076,9.32722282409668,-2.108076810836792
1773145749965098500,8.738098388671874,2.7278177738189697,9.352347373962402,-2.1547367572784424
1773145749982447000,8.755447021484375,2.744567632675171,9.383454322814941,-2.0673987865448
1773145749999796000,8.7727958984375,2.7218358516693115,9.42054271697998,-1.8855443000793457
1773145750017144600,8.79014453125,2.630908489227295,9.440881729125977,-1.7024933099746704
1773145750034493400,8.807493408203126,2.4909284114837646,9.365508079528809,-1.6007983684539795
1773145750051842000,8.824842041015625,2.389233350753784,9.29611587524414,-1.6319050788879395
1773145750069190700,8.842190673828124,2.4119651317596436,9.247062683105469,-1.7216359376907349
1773145750086539500,8.85953955078125,2.4741785526275635,9.247062683105469,-1.628315806388855
1773145750103888100,8.87688818359375,2.5639095306396484,9.235098838806152,-1.3722838163375854
1773145750121237000,8.894237060546875,2.5698914527893066,9.158528327941895,-1.1904292106628418
1773145750138585600,8.911585693359376,2.5567309856414795,9.081958770751953,-1.2502498626708984
1773145750155934500,8.9289345703125,2.586641311645508,9.037691116333008,-1.4584254026412964
1773145750173283000,8.946282958984375,2.6500511169433594,9.019744873046875,-1.5098711252212524
1773145750190632000,8.9636318359375,2.740978240966797,8.98385238647461,-1.428515076637268
1773145750207980500,8.98098046875,2.792423963546753,9.001798629760742,-1.3710874319076538
1773145750225329400,8.998329345703125,2.8043880462646484,8.96949577331543,-1.4584254026412964
1773145750242678000,9.015677978515624,2.8211379051208496,8.943174362182617,-1.597209095954895
1773145750260027000,9.03302685546875,2.9240293502807617,8.974281311035156,-1.6582261323928833
1773145750277375500,9.05037548828125,2.957528829574585,9.05563735961914,-1.5840486288070679
1773145750294724000,9.06772412109375,2.9694929122924805,9.139386177062988,-1.4775680303573608
1773145750312073000,9.085072998046876,2.9240293502807617,9.192028045654297,-1.4787644147872925
1773145750329421600,9.102421630859375,2.9288148880004883,9.19442081451416,-1.561316728591919
1773145750346770400,9.1197705078125,3.0855448246002197,9.190832138061523,-1.6498512029647827
1773145750364119000,9.137119140625,3.238685369491577,9.000602722167969,-1.550549030303955
1773145750381468000,9.154468017578125,3.4241292476654053,9.510273933410645,-1.7383856773376465
1773145750398816500,9.17181640625,3.5401811599731445,9.226723670959473,-1.5026925802230835
1773145750416165400,9.189165283203126,3.4432718753814697,9.21715259552002,-1.5589239597320557
1773145750433514000,9.206513916015625,3.3750762939453125,9.18006420135498,-1.674975872039795
1773145750450862800,9.22386279296875,3.267399311065674,9.152546882629395,-1.750349760055542
1773145750468211500,9.24121142578125,3.22552490234375,9.141778945922852,-1.7407784461975098
1773145750485560300,9.258560302734375,3.142972469329834,9.151350021362305,-1.6701902151107788
1773145750502909000,9.275908935546875,3.0903303623199463,9.134600639343262,-1.6151553392410278
1773145750520257500,9.293257568359374,3.0185458660125732,9.128618240356445,-1.6223337650299072
1773145750537606400,9.3106064453125,2.9204399585723877,9.095118522644043,-1.6031911373138428
1773145750554955300,9.327955322265625,2.840280532836914,9.111868858337402,-1.6307085752487183
1773145750572304000,9.345303955078125,2.932404041290283,9.120243072509766,-1.6378871202468872
1773145750589652500,9.362652587890626,3.0424740314483643,9.150154113769531,-1.7012969255447388
1773145750607001300,9.38000146484375,3.074777126312256,9.174081802368164,-1.7060825824737549
1773145750624350000,9.397349853515625,3.0269205570220947,9.220742225646973,-1.664208173751831
1773145750641698800,9.41469873046875,3.0029923915863037,9.302098274230957,-1.6558332443237305
1773145750659047400,9.43204736328125,2.8103702068328857,9.032905578613281,-1.454836130142212
1773145750676396300,9.449396240234375,2.9312076568603516,9.375079154968262,-1.8891334533691406
1773145750693745000,9.466744873046874,2.9898319244384766,9.32722282409668,-1.887937068939209
1773145750711093800,9.48409375,3.2554352283477783,9.381061553955078,-1.8664016723632812
1773145750728442400,9.5014423828125,3.5294134616851807,9.121439933776855,-1.597209095954895
1773145750745791000,9.518791015625,3.617947816848755,9.138189315795898,-1.5541383028030396
1773145750763139800,9.536139892578126,3.7112679481506348,9.116654396057129,-1.439282774925232
1773145750780488700,9.55348876953125,3.651447296142578,8.998209953308105,-1.25144624710083
1773145750797837300,9.57083740234375,3.6059837341308594,8.886942863464355,-1.384247899055481
1773145750815186000,9.58818603515625,3.5533416271209717,8.908478736877441,-1.7084753513336182
1773145750832534800,9.60553466796875,3.476771354675293,9.007781028747559,-1.9812572002410889
1773145750849883400,9.62288330078125,3.451646566390991,8.96949577331543,-1.9465612173080444
1773145750867232300,9.640232177734376,3.3966116905212402,8.818747520446777,-1.8185452222824097
1773145750884580900,9.657580810546875,3.4169507026672363,8.730213165283203,-1.8065811395645142
1773145750901929700,9.6749296875,3.394218921661377,8.754141807556152,-1.765903115272522
1773145750919278300,9.6922783203125,3.3092737197875977,8.957531929016113,-1.8065811395645142
1773145750936627200,9.709627197265625,3.5162527561187744,8.898907661437988,-1.8592232465744019
1773145750953975800,9.726975830078125,3.7256247997283936,8.868997573852539,-1.832902193069458
1773145750971324700,9.74432470703125,3.728017568588257,8.884550094604492,-1.5230315923690796
1773145750988673300,9.76167333984375,3.596412420272827,8.880961418151855,-1.1473584175109863
1773145751006022100,9.779022216796875,3.55214524269104,8.857032775878906,-1.0719845294952393
1773145751023370800,9.796370849609374,3.4265220165252686,8.921639442443848,-1.2897313833236694
1773145751040719400,9.81371923828125,3.3894333839416504,8.904889106750488,-1.542174220085144
1773145751058068200,9.831068115234375,3.2542388439178467,8.799605369567871,-1.6259230375289917
1773145751075416800,9.848416748046875,3.311666488647461,9.231510162353516,-2.0650060176849365
1773145751092765700,9.865765625,3.0317063331604004,9.32602596282959,-2.289931297302246
1773145751110114300,9.8831142578125,2.819941520690918,8.994620323181152,-2.059023857116699
1773145751127463200,9.900463134765625,2.7074787616729736,8.811569213867188,-1.9202401638031006
1773145751144811800,9.917811767578126,2.812762975692749,8.828319549560547,-2.0039889812469482
1773145751162160600,9.93516064453125,3.032902717590332,8.833105087280273,-2.118844509124756
1773145751179509200,9.95250927734375,3.486342668533325,8.711071014404297,-2.1607189178466797
1773145751196858000,9.969858154296874,3.830909013748169,8.790034294128418,-2.190629243850708
1773145751214206700,9.987206787109375,3.9601213932037354,8.863015174865723,-2.122433662414551
1773145751231555600,10.0045556640625,3.9254255294799805,8.921639442443848,-2.062613010406494
1773145751248904200,10.021904296875,3.8524444103240967,8.896514892578125,-1.9070796966552734
1773145751266252800,10.039252685546876,3.8727834224700928,8.849854469299316,-1.7886348962783813
1773145751283601700,10.0566015625,3.9565322399139404,8.894122123718262,-1.8592232465744019
1773145751300950300,10.0739501953125,3.8392839431762695,8.876175880432129,-1.8460626602172852
1773145751318299100,10.091299072265626,3.728017568588257,8.943174362182617,-1.9058831930160522
1773145751335647700,10.108647705078125,3.680161237716675,8.988637924194336,-1.9202401638031006
1773145751352996600,10.12599658203125,3.713660717010498,8.956335067749023,-1.8819550275802612
1773145751370345200,10.14334521484375,3.799802303314209,8.967103004455566,-1.8340985774993896
1773145751387694000,10.160694091796875,3.8835511207580566,8.957531929016113,-1.8245272636413574
1773145751405042700,10.178042724609375,3.9421753883361816,8.934800148010254,-1.8065811395645142
1773145751422391600,10.1953916015625,3.970889091491699,8.884550094604492,-1.7467604875564575
1773145751439740200,10.212740234375,3.94097900390625,8.85224723815918,-1.674975872039795
1773145751457089000,10.230089111328125,3.8488552570343018,8.840283393859863,-1.695314884185791
1773145751474437600,10.247437744140624,3.7423746585845947,8.877371788024902,-1.7982062101364136
1773145751491786200,10.2647861328125,3.6466617584228516,8.86660385131836,-1.8077775239944458
1773145751509135000,10.282135009765625,3.568894863128662,8.902496337890625,-1.7228323221206665
1773145751526483700,10.299483642578124,3.5365917682647705,8.884550094604492,-1.5326029062271118
1773145751543832600,10.31683251953125,3.531806230545044,8.8438720703125,-1.3782658576965332
1773145751561181200,10.33418115234375,3.5365917682647705,8.904889106750488,-1.4081761837005615
1773145751578530000,10.351530029296875,3.5736806392669678,8.93838882446289,-1.5469598770141602
1773145751595878700,10.368878662109376,3.603590965270996,9.044869422912598,-1.730010747909546
1773145751613227500,10.3862275390625,3.5605201721191406,9.10110092163086,-1.7383856773376465
1773145751630576000,10.403576171875,3.5748770236968994,8.999405860900879,-1.6941183805465698
1773145751647924700,10.4209248046875,3.61435866355896,9.010173797607422,-1.7682958841323853
1773145751665273600,10.438273681640625,3.748356580734253,8.920442581176758,-1.7228323221206665
1773145751682622500,10.45562255859375,3.7567315101623535,8.791230201721191,-1.5696916580200195
1773145751699971000,10.47297119140625,3.655036687850952,8.85942554473877,-1.5780665874481201
1773145751717319700,10.490319580078125,3.8117663860321045,8.790034294128418,-1.6546368598937988
1773145751734668500,10.50766845703125,3.8739798069000244,8.779266357421875,-1.7204394340515137
1773145751752017200,10.52501708984375,3.8979079723358154,8.6967134475708,-1.7874385118484497
1773145751769366000,10.542365966796876,3.631108283996582,8.72901725769043,-2.0853450298309326
1773145751786714600,10.559714599609375,3.5820555686950684,9.047262191772461,-2.438286304473877
1773145751804063500,10.5770634765625,3.4408788681030273,8.877371788024902,-2.283949136734009
1773145751821412000,10.594412109375,3.8871402740478516,8.660821914672852,-2.0793628692626953
1773145751838761000,10.611760986328125,4.371686935424805,8.72064208984375,-1.8352949619293213
1773145751856109600,10.629109619140625,4.570291042327881,8.782855987548828,-1.3782658576965332
1773145751873458200,10.646458251953124,4.451846599578857,8.57348346710205,-1.089930772781372
1773145751890807000,10.66380712890625,4.768895626068115,8.629714965820312,-1.5314065217971802
1773145751908155600,10.68115576171875,4.65523624420166,8.62014389038086,-1.812563180923462
1773145751925504500,10.69850439453125,4.533202648162842,8.669196128845215,-1.7431713342666626
1773145751942853000,10.71585302734375,4.3788652420043945,8.792427062988281,-1.6893328428268433
1773145751960202000,10.733201904296875,4.2209391593933105,8.793622970581055,-1.6055840253829956
1773145751977550600,10.750550537109374,4.029513359069824,8.719446182250977,-1.4464613199234009
1773145751994899200,10.767899169921876,3.90987229347229,8.679964065551758,-1.3399807214736938
1773145752012248000,10.785248046875,4.098905086517334,8.606983184814453,-1.3663017749786377
1773145752029597000,10.802596923828125,4.450650215148926,8.541180610656738,-1.4727823734283447
1773145752046945500,10.819945556640626,4.777270317077637,8.46341323852539,-1.552941918373108
1773145752064294400,10.83729443359375,4.948357105255127,8.556734085083008,-1.561316728591919
1773145752081643000,10.85464306640625,4.895715236663818,8.560322761535645,-1.333998680114746
1773145752098991600,10.87199169921875,4.67078971862793,8.535198211669922,-1.0480563640594482
1773145752116340500,10.889340576171875,4.363312244415283,8.563912391662598,-0.9631111025810242
1773145752133689000,10.906689208984375,4.145565032958984,8.745766639709473,-1.153340458869934
1773145752151038000,10.924037841796874,4.052245140075684,8.666803359985352,-1.1784651279449463
1773145752168386600,10.941386474609375,3.8919260501861572,8.638090133666992,-1.2729816436767578
1773145752185735400,10.9587353515625,4.098905086517334,8.916853904724121,-1.4895321130752563
1773145752203084000,10.976083984375,4.011567115783691,8.959924697875977,-1.4799607992172241
1773145752220432600,10.9934326171875,3.728017568588257,8.967103004455566,-1.3746765851974487
1773145752237781500,11.010781494140625,3.597608804702759,8.639286041259766,-1.1234302520751953
1773145752255130000,11.028130126953124,3.875176191329956,8.46580696105957,-1.0301101207733154
1773145752272479000,11.04547900390625,4.271188259124756,8.529216766357422,-1.1330015659332275
1773145752289827600,11.06282763671875,4.503292083740234,8.772088050842285,-1.322034478187561
1773145752307176400,11.080176513671875,4.802394866943359,8.675178527832031,-1.2335001230239868
1773145752324525000,11.097525146484376,4.969892501831055,8.538787841796875,-1.062413215637207
1773145752341874000,11.1148740234375,5.009374141693115,8.48734188079834,-0.8566305041313171
1773145752359222500,11.132222412109375,5.096712112426758,8.2695951461792,-0.5958128571510315
1773145752376571400,11.1495712890625,5.231906890869141,7.926225185394287,-0.3086741268634796
1773145752393920000,11.166919921875,5.4795637130737305,7.810173034667969,-0.08733802288770676
1773145752411268900,11.184268798828125,5.60399055480957,7.905886173248291,0.10049854964017868
1773145752428617500,11.201617431640624,5.8372907638549805,7.679764270782471,0.2847459018230438
1773145752445966000,11.218966064453125,6.199803352355957,7.511070251464844,0.27038896083831787
1773145752463315000,11.23631494140625,6.222535133361816,7.664210796356201,-0.07058826833963394
1773145752480663600,11.25366357421875,6.238088607788086,7.707281589508057,-0.31465616822242737
1773145752498012400,11.271012451171876,5.956932067871094,7.779066562652588,-0.5431707501411438
1773145752515361000,11.288361083984375,5.527420520782471,7.970492362976074,-0.7752745151519775
1773145752532710000,11.3057099609375,5.158925533294678,8.076972961425781,-0.9930213689804077
1773145752550058500,11.32305859375,4.899304389953613,8.303094863891602,-1.1676974296569824
1773145752567407400,11.340407470703125,4.65523624420166,8.568697929382324,-1.332802176475525
1773145752584756000,11.357755859375,4.49252462387085,8.773283958435059,-1.4476577043533325
1773145752602104600,11.3751044921875,4.442275047302246,8.970691680908203,-1.5409778356552124
1773145752619453400,11.392453369140625,4.494917392730713,9.125029563903809,-1.5876377820968628
1773145752636802000,11.409802001953125,4.624129772186279,9.08554744720459,-1.5182459354400635
1773145752654151000,11.42715087890625,4.698307037353516,9.129815101623535,-1.4344971179962158
1773145752671499500,11.44449951171875,4.8466620445251465,9.148957252502441,-1.2837493419647217
1773145752688848400,11.461848388671875,4.954339504241943,9.049654960632324,-0.9810572862625122
1773145752706197000,11.479197021484374,4.890929698944092,8.910871505737305,-0.6329016089439392
1773145752723545900,11.4965458984375,4.794020175933838,8.72183895111084,-0.4211367964744568
1773145752740894500,11.51389453125,4.743771076202393,8.530412673950195,-0.4055834412574768
1773145752758243000,11.5312431640625,4.634897232055664,8.426324844360352,-0.5994020700454712
1773145752775592000,11.548592041015626,4.418346881866455,8.384450912475586,-0.8590233325958252
1773145752792940500,11.5659404296875,4.164707660675049,8.35573673248291,-1.0504491329193115
1773145752810289400,11.583289306640625,4.018745422363281,8.324629783630371,-1.184447169303894
1773145752827638000,11.600637939453126,3.8919260501861572,8.311469078063965,-1.2418749332427979
1773145752844987000,11.61798681640625,3.8261234760284424,8.359326362609863,-1.262213945388794
1773145752862335500,11.63533544921875,3.6909289360046387,8.428717613220215,-1.2765709161758423
1773145752879684000,11.65268408203125,3.6777684688568115,8.438288688659668,-1.3268201351165771
1773145752897033000,11.670032958984375,3.744767427444458,8.551948547363281,-1.423729419708252
1773145752914381600,11.687381591796875,3.838087558746338,8.723034858703613,-1.444068431854248
1773145752931730400,11.70473046875,3.8009986877441406,8.880961418151855,-1.2550355195999146
1773145752949079000,11.7220791015625,3.8057844638824463,8.926424980163574,-0.9810572862625122
1773145752966428000,11.739427978515625,3.950550079345703,8.922835350036621,-0.8805587291717529
1773145752983776500,11.756776611328124,4.035495281219482,8.986245155334473,-0.98703932762146
1773145753001125400,11.77412548828125,4.126422882080078,8.963513374328613,-1.1018948554992676
1773145753018474000,11.791473876953125,4.252045631408691,8.96949577331543,-1.098305583000183
1773145753035822800,11.80882275390625,4.328616142272949,9.005388259887695,-0.9511470198631287
1773145753053171500,11.82617138671875,4.353740692138672,9.006584167480469,-0.7585247755050659
1773145753070520300,11.843520263671875,4.299902439117432,8.922835350036621,-0.5599204897880554
1773145753087869000,11.860868896484375,4.286741733551025,8.847461700439453,-0.4618147611618042
1773145753105217500,11.878217529296874,4.3178486824035645,8.793622970581055,-0.47258245944976807
1773145753122566400,11.89556640625,4.268795490264893,8.757730484008789,-0.4498506486415863
1773145753139915000,11.9129150390625,4.2209391593933105,8.762516975402832,-0.4331009089946747
1773145753157264000,11.930263916015624,4.140779495239258,8.752944946289062,-0.38285163044929504
1773145753174612500,11.947612548828126,4.04985237121582,8.757730484008789,-0.29431718587875366
1773145753191961300,11.96496142578125,3.895515203475952,8.763712882995605,-0.16869398951530457
1773145753209310000,11.98231005859375,3.744767427444458,8.768498420715332,-0.10289137065410614
1773145753226658800,11.999658935546876,3.6945180892944336,8.840283393859863,-0.10289137065410614
1773145753244007400,12.01700732421875,3.7112679481506348,8.817551612854004,-0.07776673883199692
1773145753261356000,12.03435595703125,3.7328033447265625,8.82114028930664,-0.10408778488636017
1773145753278705000,12.051704833984376,3.7639100551605225,8.803194046020508,-0.19740787148475647
1773145753296053500,12.069053466796875,3.7818562984466553,8.837890625,-0.32183465361595154
1773145753313402400,12.08640234375,3.7986059188842773,8.846264839172363,-0.39481574296951294
1773145753330751000,12.1037509765625,3.8081772327423096,8.924032211303711,-0.4701896607875824
1773145753348099800,12.121099853515625,3.8153557777404785,8.950352668762207,-0.5132604837417603
1773145753365448400,12.138448486328125,3.82373046875,8.9312105178833,-0.5180460810661316
1773145753382797300,12.15579736328125,3.834498405456543,8.971888542175293,-0.5527420043945312
1773145753400146000,12.17314599609375,3.882354736328125,8.986245155334473,-0.6173482537269592
1773145753417494500,12.19049462890625,3.992424488067627,9.020941734313965,-0.6747759580612183
1773145753434843400,12.207843505859374,4.082155227661133,9.035298347473145,-0.6771687865257263
1773145753452192000,12.22519189453125,4.126422882080078,9.006584167480469,-0.6221339106559753
1773145753469540900,12.242540771484375,4.213760852813721,8.999405860900879,-0.4989035129547119
1773145753486889500,12.259889404296874,4.249652862548828,8.9850492477417,-0.363709032535553
1773145753504238300,12.27723828125,4.277170658111572,8.999405860900879,-0.3242274820804596
1773145753521587000,12.2945869140625,4.309473514556885,8.974281311035156,-0.3290131092071533
1773145753538935600,12.311935546875,4.299902439117432,8.986245155334473,-0.36729827523231506
1773145753556284400,12.329284423828126,4.321437835693359,8.96112060546875,-0.4091726839542389
1773145753573633000,12.346633056640625,4.287938117980957,8.926424980163574,-0.42831525206565857
1773145753590982000,12.36398193359375,4.25084924697876,8.890532493591309,-0.43190449476242065
1773145753608330500,12.38133056640625,4.180261135101318,8.885746955871582,-0.4737788736820221
1773145753625679400,12.398679443359375,4.122833251953125,8.840283393859863,-0.5228317379951477
1773145753643028000,12.416028076171875,4.054637908935547,8.81515884399414,-0.6281159520149231
1773145753660376800,12.433376953125,3.9984066486358643,8.781659126281738,-0.7345965504646301
1773145753677725400,12.450725341796876,3.9457645416259766,8.803194046020508,-0.8195417523384094
1773145753695074000,12.468073974609375,3.895515203475952,8.831908226013184,-0.851844847202301
1773145753712423000,12.4854228515625,3.8081772327423096,8.857032775878906,-0.833898663520813
1773145753729771500,12.502771484375,3.7770705223083496,8.906085968017578,-0.7884350419044495
1773145753747120400,12.520120361328125,3.7782669067382812,8.96949577331543,-0.7034898400306702
1773145753764469000,12.537468994140625,3.867997884750366,8.97667407989502,-0.6532405614852905
1773145753781817900,12.55481787109375,3.964907169342041,8.926424980163574,-0.6711867451667786
1773145753799166500,12.57216650390625,3.9972102642059326,8.902496337890625,-0.7585247755050659
1773145753816515300,12.589515380859375,3.954139471054077,8.907281875610352,-0.794417142868042
1773145753833864000,12.606864013671874,3.8261234760284424,8.914461135864258,-0.7657032608985901
1773145753851212500,12.624212646484375,3.7148571014404297,8.906085968017578,-0.7441678643226624
1773145753868561400,12.6415615234375,3.61435866355896,8.971888542175293,-0.8506484627723694
1773145753885910000,12.658909912109374,3.610769271850586,8.97667407989502,-0.9571290612220764
1773145753903259000,12.6762587890625,3.6059837341308594,8.97787094116211,-1.0301101207733154
1773145753920607500,12.693607421875,3.631108283996582,8.93838882446289,-1.0648061037063599
1773145753937956400,12.710956298828124,3.665804386138916,8.901300430297852,-1.1198409795761108
1773145753955305000,12.728304931640626,3.7196428775787354,8.891729354858398,-1.191625714302063
1773145753972653800,12.74565380859375,3.737588882446289,8.930013656616211,-1.222732424736023
1773145753990002400,12.76300244140625,3.755535125732422,8.926424980163574,-1.0803594589233398
1773145754007351000,12.78035107421875,3.744767427444458,8.898907661437988,-0.9188438653945923
1773145754024700000,12.797699951171875,3.7603209018707275,8.894122123718262,-0.8482556343078613
1773145754042048500,12.815048583984375,3.8045880794525146,8.828319549560547,-0.8817551732063293
1773145754059397400,12.8323974609375,3.830909013748169,8.809176445007324,-0.9990034699440002
1773145754076746000,12.84974609375,3.8356947898864746,8.82951545715332,-1.1042876243591309
1773145754094094800,12.8670947265625,3.7710886001586914,8.834300994873047,-1.1066805124282837
1773145754111443500,12.884443359375,3.731606960296631,8.778069496154785,-1.140179991722107
1773145754128792000,12.9017919921875,3.6981074810028076,8.805587768554688,-1.3208380937576294
1773145754146141000,12.919140869140625,3.596412420272827,8.823533058166504,-1.4799607992172241
1773145754163489500,12.936489501953124,3.438486099243164,8.914461135864258,-1.6618152856826782
1773145754180838400,12.95383837890625,3.266202926635742,8.914461135864258,-1.6845471858978271
1773145754198187000,12.97118701171875,3.0209386348724365,8.70628547668457,-1.5445669889450073
1773145754215535900,12.988535888671874,2.801995277404785,8.446663856506348,-1.5050854682922363
1773145754232884500,13.005884521484376,2.6356940269470215,8.358129501342773,-1.7599210739135742
1773145754250233300,13.0232333984375,2.510071039199829,8.324629783630371,-2.093719720840454
1773145754267582000,13.04058203125,2.3916261196136475,8.382058143615723,-2.372483730316162
1773145754284930600,13.0579306640625,2.3018953800201416,8.439485549926758,-2.6321048736572266
1773145754302279400,13.075279541015625,2.2325034141540527,8.470592498779297,-2.827120065689087
1773145754319628000,13.0926279296875,2.249253273010254,8.383254051208496,-3.014956474304199
1773145754336977000,13.109976806640624,2.348555326461792,8.249256134033203,-3.157329559326172
1773145754354325500,13.127325439453125,2.376072883605957,8.123632431030273,-3.3056845664978027
1773145754371674000,13.144674072265625,2.30069899559021,8.289934158325195,-3.5018959045410156
1773145754389023000,13.16202294921875,2.228914260864258,8.335397720336914,-3.452843189239502
1773145754406371600,13.17937158203125,2.575873613357544,8.252845764160156,-2.9970104694366455
1773145754423720400,13.196720458984375,2.9168508052825928,9.324830055236816,-3.067598581314087
1773145754441069000,13.214069091796874,2.944368362426758,9.672985076904297,-2.579462766647339
1773145754458418000,13.23141796875,2.82951283454895,9.525827407836914,-1.6701902151107788
1773145754475766500,13.2487666015625,2.8809585571289062,9.42891788482666,-1.0205388069152832
1773145754493115100,13.266115234375,3.1142587661743164,9.448060035705566,-0.7202396392822266
1773145754510464000,13.283464111328126,3.321237802505493,9.629914283752441,-0.5551348328590393
1773145754527812600,13.3008125,3.3990044593811035,9.69093132019043,-0.27756741642951965
1773145754545161500,13.318161376953125,3.8297126293182373,9.431310653686523,0.004785645287483931
1773145754562510000,13.335510009765626,4.485345840454102,9.083154678344727,0.08135596662759781
1773145754579859000,13.35285888671875,5.280959606170654,8.717052459716797,-0.004785645287483931
1773145754597207600,13.37020751953125,5.9916276931762695,8.157132148742676,-0.08973085135221481
1773145754614556400,13.387556396484374,6.738188743591309,8.322237014770508,-0.6197410821914673
1773145754631905000,13.404905029296875,6.9475603103637695,8.48853874206543,-0.9379864931106567
1773145754649253600,13.422253662109375,6.888936519622803,8.297112464904785,-1.073180913925171
1773145754666602500,13.4396025390625,6.640082836151123,8.22413158416748,-1.0097711086273193
1773145754683951000,13.456951171875,6.267998695373535,8.233702659606934,-0.882951557636261
1773145754701300000,13.474300048828125,5.834897994995117,8.204988479614258,-0.8063812255859375
1773145754718648600,13.491648681640624,5.43290376663208,8.176275253295898,-0.9188438653945923
1773145754735997400,13.50899755859375,5.373083114624023,8.26241683959961,-1.2059825658798218
1773145754753346000,13.526345947265625,5.565705299377441,8.177471160888672,-1.3854442834854126
1773145754770695000,13.54369482421875,5.6554365158081055,7.992027759552002,-1.4404792785644531
1773145754788043500,13.56104345703125,5.7032928466796875,7.8556365966796875,-1.3962119817733765
1773145754805392100,13.57839208984375,5.842076301574707,7.939385414123535,-1.384247899055481
1773145754822741000,13.595740966796875,6.367300987243652,7.974081516265869,-1.430907964706421
1773145754840089600,13.613089599609374,6.646064758300781,7.902296543121338,-1.3268201351165771
1773145754857438500,13.6304384765625,6.594619274139404,8.118846893310547,-1.3507484197616577
1773145754874787000,13.647787109375,6.711867332458496,8.009973526000977,-1.2179467678070068
1773145754892135700,13.6651357421875,6.756134510040283,7.99800968170166,-1.412961721420288
1773145754909484500,13.682484619140626,6.8482584953308105,8.103293418884277,-1.9070796966552734
1773145754926833200,13.699833251953125,6.486942291259766,8.209774017333984,-2.2540390491485596
1773145754944182000,13.71718212890625,5.85284423828125,8.082955360412598,-2.1786649227142334
1773145754961530600,13.734530517578126,5.181657314300537,7.956135272979736,-1.9764715433120728
1773145754978879500,13.75187939453125,4.3657050132751465,8.169096946716309,-1.7682958841323853
1773145754996228000,13.76922802734375,3.6837503910064697,8.38564682006836,-1.4009976387023926
1773145755013576700,13.78657666015625,3.5090744495391846,8.459824562072754,-0.8937192559242249
1773145755030925600,13.803925537109375,3.70767879486084,8.711071014404297,-0.3409772217273712
1773145755048274200,13.821274169921875,3.9768712520599365,8.916853904724121,-0.029910283163189888
1773145755065623000,13.838623046875,4.238885402679443,8.908478736877441,-0.22971096634864807
1773145755082971600,13.8559716796875,4.512863636016846,8.523234367370605,-0.45104706287384033
1773145755100320500,13.873320556640625,4.931607246398926,7.792226791381836,-0.3194418251514435
1773145755117669000,13.890669189453124,5.434100151062012,7.217949390411377,0.04666004329919815
1773145755135018000,13.90801806640625,5.746363639831543,7.401000499725342,0.3900300860404968
1773145755152366600,13.92536669921875,5.799005508422852,7.401000499725342,1.1892328262329102
1773145755169715200,13.942715087890624,5.641079425811768,7.617550849914551,2.0159530639648438
1773145755187064000,13.96006396484375,5.527420520782471,7.646264553070068,2.5914268493652344
1773145755204412700,13.97741259765625,5.30847692489624,7.616354465484619,2.779263496398926
1773145755221761500,13.994761474609374,5.306084156036377,7.293323516845703,2.5112674236297607
1773145755239110100,14.012110107421876,5.68175745010376,7.159325122833252,1.604387640953064
1773145755256459000,14.029458984375,6.472585201263428,7.2430739402771,0.6819544434547424
1773145755273807600,14.0468076171875,6.973881721496582,7.259823799133301,0.3613162338733673
1773145755291156200,14.06415625,7.168896675109863,6.97986364364624,0.4462614357471466
1773145755308505000,14.081505126953125,7.373483180999756,6.873383045196533,0.39960137009620667
1773145755325853700,14.098853759765625,7.954938888549805,6.94038200378418,0.3158525824546814
1773145755343202600,14.11620263671875,8.739784240722656,7.027719974517822,0.24167509377002716
1773145755360551200,14.13355126953125,9.20997428894043,6.531209468841553,0.4630111753940582
1773145755377899800,14.150899658203125,9.095118522644043,6.439085960388184,0.4977070987224579
1773145755395248600,14.16824853515625,8.921639442443848,6.34217643737793,0.44027936458587646
1773145755412597200,14.18559716796875,9.06999397277832,6.410371780395508,0.275174617767334
1773145755429946000,14.202946044921875,9.422935485839844,6.284748554229736,0.14117653667926788
1773145755447294700,14.220294677734374,9.162117958068848,6.070590972900391,0.2309073805809021
1773145755464643600,14.2376435546875,8.529216766357422,6.047859191894531,0.16749759018421173
1773145755481992200,14.2549921875,7.988438606262207,6.38883638381958,0.0323031060397625
1773145755499340800,14.2723408203125,7.858029365539551,6.502495765686035,0.10887342691421509
1773145755516689700,14.289689697265626,8.199007034301758,6.58265495300293,0.24167509377002716
1773145755534038300,14.307038330078125,8.425128936767578,6.705885410308838,0.48813581466674805
