time,seconds_elapsed,z,y,x
1773145741272617200,0.0456171875,5.593420028686523,8.045706748962402,0.38814911246299744
1773145741289965800,0.0629658203125,5.608974933624268,8.034403800964355,0.3976815938949585
1773145741307314700,0.080314697265625,5.613786697387695,8.030716896057129,0.4042128622531891
1773145741324663300,0.097663330078125,5.6164021492004395,8.028840065002441,0.405129998922348
1773145741342012200,0.11501220703125,5.615969657897949,8.029205322265625,0.4039001166820526
1773145741359360800,0.13236083984375,5.611014366149902,8.032356262207031,0.41006577014923096
1773145741376709400,0.14970947265625,5.599152565002441,8.03958797454834,0.4300185441970825
1773145741394058200,0.167058349609375,5.588468074798584,8.045418739318848,0.4589625298976898
1773145741411406800,0.18440673828125,5.581575870513916,8.048288345336914,0.4913715720176697
1773145741428755700,0.201755615234375,5.584910869598389,8.043760299682617,0.5263750553131104
1773145741446104300,0.219104248046875,5.594788074493408,8.034700393676758,0.5588504672050476
1773145741463453200,0.236453125,5.609319686889648,8.022699356079102,0.5850009322166443
1773145741480801800,0.2538017578125,5.624092102050781,8.010726928710938,0.6068252921104431
1773145741498150700,0.271150634765625,5.634217739105225,8.001895904541016,0.6289970278739929
1773145741515499300,0.288499267578125,5.641081809997559,7.995035171508789,0.6542074084281921
1773145741532848000,0.30584814453125,5.645674228668213,7.989587783813477,0.680623471736908
1773145741550196700,0.32319677734375,5.648743152618408,7.98519229888916,0.7062389254570007
1773145741567545600,0.340545654296875,5.651035785675049,7.981499671936035,0.7292742729187012
1773145741584894200,0.357894287109375,5.65295934677124,7.978257656097412,0.7495704293251038
1773145741602242800,0.375242919921875,5.651772975921631,7.977791786193848,0.763344407081604
1773145741619591700,0.392591796875,5.64476203918457,7.982306003570557,0.7680134773254395
1773145741636940300,0.409940185546875,5.633066177368164,7.9908127784729,0.7654194235801697
1773145741654289200,0.4272890625,5.61952018737793,8.000877380371094,0.7598317265510559
1773145741671637800,0.4446376953125,5.609310150146484,8.008400917053223,0.7560087442398071
1773145741688986600,0.461986572265625,5.602642059326172,8.01312255859375,0.7554224133491516
1773145741706335200,0.479335205078125,5.6005330085754395,8.0144624710083,0.7568433284759521
1773145741723684000,0.49668408203125,5.60245418548584,8.012904167175293,0.7591243982315063
1773145741741032700,0.51403271484375,5.606184005737305,8.01009750366211,0.761193573474884
1773145741758381300,0.53138134765625,5.612369537353516,8.005537986755371,0.7635905742645264
1773145741775730200,0.548730224609375,5.621089935302734,7.999100208282471,0.7668887972831726
1773145741793078800,0.566078857421875,5.631330490112305,7.991444110870361,0.7715742588043213
1773145741810427600,0.583427734375,5.640736103057861,7.984310626983643,0.7767123579978943
1773145741827776300,0.6007763671875,5.648962497711182,7.977774143218994,0.7840479016304016
1773145741845125000,0.618125,5.654684066772461,7.972928524017334,0.7920597791671753
1773145741862473700,0.6354736328125,5.657694339752197,7.969982147216797,0.8001689910888672
1773145741879822600,0.652822509765625,5.66024112701416,7.967226505279541,0.8095454573631287
1773145741897171200,0.670171142578125,5.6621174812316895,7.964800834655762,0.8202241063117981
1773145741914520000,0.68752001953125,5.664326190948486,7.962099552154541,0.8311259746551514
1773145741931868700,0.70486865234375,5.66615629196167,7.959732532501221,0.841256856918335
1773145741949217500,0.722217529296875,5.665236473083496,7.959580421447754,0.8488541841506958
1773145741966566100,0.739566162109375,5.660640716552734,7.962209701538086,0.8548374176025391
1773145741983914800,0.756914794921875,5.654848575592041,7.96564245223999,0.8611752390861511
1773145742001263600,0.774263671875,5.649196624755859,7.968896865844727,0.868134081363678
1773145742018612200,0.7916123046875,5.6437554359436035,7.972005844116211,0.8749537467956543
1773145742035961000,0.808961181640625,5.639019966125488,7.9747161865234375,0.8807638883590698
1773145742053309700,0.826309814453125,5.632490634918213,7.978986740112305,0.8838577270507812
1773145742070658600,0.843658447265625,5.624032020568848,7.984986305236816,0.8835479617118835
1773145742088007200,0.861007080078125,5.615683078765869,7.99106502532959,0.8816795945167542
1773145742105356000,0.87835595703125,5.611437797546387,7.9940667152404785,0.8815048336982727
1773145742122704600,0.89570458984375,5.612627983093262,7.992944717407227,0.8840976357460022
1773145742140053500,0.913053466796875,5.618583679199219,7.988265514373779,0.8885504007339478
1773145742157402000,0.930402099609375,5.627140045166016,7.981577396392822,0.8944851160049438
1773145742174751000,0.9477509765625,5.635121822357178,7.975259780883789,0.9005595445632935
1773145742192099600,0.965099609375,5.639472484588623,7.971815586090088,0.9038218855857849
1773145742209448200,0.9824482421875,5.64143180847168,7.9702467918396,0.9054299592971802
1773145742226797000,0.999797119140625,5.643731594085693,7.968348979949951,0.907800018787384
1773145742244145700,1.017145751953125,5.647599697113037,7.965208530426025,0.9112955331802368
1773145742261494500,1.03449462890625,5.650628566741943,7.962769985198975,0.9138299226760864
1773145742278843100,1.051843017578125,5.6516218185424805,7.961931228637695,0.9149947762489319
1773145742296192000,1.06919189453125,5.650979995727539,7.962443828582764,0.9144927859306335
1773145742313540600,1.08654052734375,5.648863315582275,7.964155673980713,0.9126603007316589
1773145742330889500,1.103889404296875,5.645813465118408,7.966607093811035,0.9101307988166809
1773145742348238000,1.121238037109375,5.643294811248779,7.968664646148682,0.9077394008636475
1773145742365586700,1.138586669921875,5.642164707183838,7.9697370529174805,0.9053532481193542
1773145742382935600,1.155935546875,5.643278121948242,7.9691338539123535,0.9037178158760071
1773145742400284200,1.1732841796875,5.646064281463623,7.967270851135254,0.9027433395385742
1773145742417633000,1.190633056640625,5.647774696350098,7.966273307800293,0.9008386135101318
1773145742434981600,1.207981689453125,5.647124290466309,7.967264175415039,0.8961449861526489
1773145742452330500,1.22533056640625,5.64400053024292,7.970211505889893,0.8895926475524902
1773145742469679000,1.24267919921875,5.640663146972656,7.973387718200684,0.8822663426399231
1773145742487027700,1.26002783203125,5.6378631591796875,7.9762091636657715,0.8746325373649597
1773145742504376600,1.27737646484375,5.635440349578857,7.978905200958252,0.8656090497970581
1773145742521725400,1.294725341796875,5.631018161773682,7.983187198638916,0.8548284769058228
1773145742539074000,1.312073974609375,5.625361919403076,7.988343238830566,0.843839704990387
1773145742556422700,1.329422607421875,5.618783950805664,7.993979454040527,0.8342330455780029
1773145742573771500,1.346771484375,5.610738277435303,8.00055980682373,0.8252580761909485
1773145742591120100,1.3641201171875,5.600792407989502,8.008293151855469,0.8177744746208191
1773145742608469000,1.381468994140625,5.59124231338501,8.015337944030762,0.8140976428985596
1773145742625817600,1.398817626953125,5.583234786987305,8.020905494689941,0.8142169713973999
1773145742643166500,1.41616650390625,5.576383590698242,8.025327682495117,0.817588210105896
1773145742660515000,1.43351513671875,5.5713114738464355,8.028199195861816,0.8239473104476929
1773145742677864000,1.450864013671875,5.568139553070068,8.029542922973633,0.8322545289993286
1773145742695212500,1.468212646484375,5.566577911376953,8.029614448547363,0.8419516086578369
1773145742712561200,1.48556103515625,5.56630277633667,8.028703689575195,0.8523955941200256
1773145742729910000,1.502909912109375,5.566425800323486,8.027437210083008,0.8634489178657532
1773145742747258600,1.520258544921875,5.567812442779541,8.025161743164062,0.875575840473175
1773145742764607500,1.537607421875,5.570315361022949,8.022134780883789,0.887319028377533
1773145742781956000,1.5549560546875,5.573575496673584,8.018619537353516,0.8985477089881897
1773145742799305000,1.572304931640625,5.5788445472717285,8.013623237609863,0.9103419184684753
1773145742816653600,1.589653564453125,5.58486795425415,8.007905960083008,0.9236279726028442
1773145742834002400,1.60700244140625,5.589828014373779,8.002842903137207,0.937403678894043
1773145742851351000,1.62435107421875,5.591985702514648,7.999732494354248,0.9509790539741516
1773145742868700000,1.641699951171875,5.591906547546387,7.998223304748535,0.9640473127365112
1773145742886048500,1.659048583984375,5.591218948364258,7.996924877166748,0.9786994457244873
1773145742903397000,1.676397216796875,5.591094017028809,7.994924545288086,0.9956153035163879
1773145742920746000,1.69374609375,5.59066104888916,7.992864608764648,1.0144010782241821
1773145742938094600,1.711094482421875,5.589156627655029,7.991455554962158,1.033612847328186
1773145742955443500,1.728443359375,5.586825370788574,7.990723609924316,1.0517208576202393
1773145742972792000,1.7457919921875,5.584620952606201,7.990141868591309,1.067725658416748
1773145742990141000,1.763140869140625,5.584627151489258,7.987966537475586,1.083847999572754
1773145743007489500,1.780489501953125,5.587292194366455,7.983778476715088,1.1008323431015015
1773145743024838400,1.79783837890625,5.590301036834717,7.979152202606201,1.1189544200897217
1773145743042187000,1.81518701171875,5.592898845672607,7.97463321685791,1.1380168199539185
1773145743059536000,1.832535888671875,5.595804691314697,7.970014572143555,1.1559538841247559
1773145743076884500,1.849884521484375,5.599300384521484,7.965367794036865,1.170954942703247
1773145743094233000,1.867233154296875,5.600095748901367,7.962698936462402,1.1852225065231323
1773145743111582000,1.88458203125,5.600895881652832,7.960034370422363,1.199257493019104
1773145743128930600,1.9019306640625,5.599441051483154,7.958934783935547,1.2132611274719238
1773145743146279400,1.919279541015625,5.594423770904541,7.960309982299805,1.2273037433624268
1773145743163628000,1.9366279296875,5.587998390197754,7.962456703186035,1.2425551414489746
1773145743180977000,1.953976806640625,5.581414699554443,7.96425199508667,1.2605111598968506
1773145743198325500,1.971325439453125,5.576045513153076,7.964475631713867,1.2826647758483887
1773145743215674400,1.98867431640625,5.572399616241455,7.962798118591309,1.308661699295044
1773145743233023000,2.00602294921875,5.569251537322998,7.960277557373047,1.337084412574768
1773145743250371800,2.023371826171875,5.564881324768066,7.9584808349609375,1.3656774759292603
1773145743267720400,2.040720458984375,5.562074184417725,7.955067157745361,1.396652340888977
1773145743285069000,2.058069091796875,5.560037136077881,7.951071739196777,1.42717707157135
1773145743302418000,2.07541796875,5.558629989624023,7.94709587097168,1.4545425176620483
1773145743319766500,2.0927666015625,5.553030014038086,7.946782112121582,1.4774632453918457
1773145743337115400,2.110115478515625,5.546777248382568,7.947824001312256,1.4952374696731567
1773145743354464000,2.127464111328125,5.537190914154053,7.952234268188477,1.5072773694992065
1773145743371812900,2.144812744140625,5.523261547088623,7.960279941558838,1.5158909559249878
1773145743389161500,2.162161376953125,5.505277633666992,7.971540451049805,1.5221195220947266
1773145743406510300,2.17951025390625,5.488132953643799,7.981764316558838,1.5304316282272339
1773145743423859000,2.19685888671875,5.4760661125183105,7.9875311851501465,1.5435141324996948
1773145743441207800,2.214207763671875,5.471790790557861,7.987202167510986,1.5602844953536987
1773145743458556400,2.231556396484375,5.473110198974609,7.982406139373779,1.5800752639770508
1773145743475905300,2.2489052734375,5.476132392883301,7.975837230682373,1.6026170253753662
1773145743493254000,2.26625390625,5.481076717376709,7.967062950134277,1.6291418075561523
1773145743510602500,2.2836025390625,5.488332271575928,7.955350875854492,1.6616233587265015
1773145743527951400,2.300951416015625,5.499245643615723,7.9398674964904785,1.6991735696792603
1773145743545300000,2.318300048828125,5.51102876663208,7.923216819763184,1.7382713556289673
1773145743562648800,2.33564892578125,5.523033142089844,7.906055927276611,1.7778550386428833
1773145743579997400,2.35299755859375,5.5312604904174805,7.8917436599731445,1.815470576286316
1773145743597346300,2.37034619140625,5.536502361297607,7.880010604858398,1.8501241207122803
1773145743614695000,2.38769482421875,5.537446975708008,7.871958255767822,1.881314992904663
1773145743632043800,2.405043701171875,5.536472320556641,7.865828514099121,1.909609079360962
1773145743649392400,2.422392333984375,5.535068511962891,7.86004638671875,1.9372851848602295
1773145743666741000,2.439740966796875,5.534025192260742,7.854067325592041,1.9643281698226929
1773145743684089900,2.45708984375,5.533740997314453,7.847717761993408,1.9903340339660645
1773145743701438500,2.4744384765625,5.533749580383301,7.841455936431885,2.0148346424102783
1773145743718787300,2.491787353515625,5.532741546630859,7.836343765258789,2.037367820739746
1773145743736136000,2.509135986328125,5.52831506729126,7.8343353271484375,2.0570130348205566
1773145743753484800,2.52648486328125,5.519070148468018,7.836092472076416,2.0750653743743896
1773145743770833400,2.54383349609375,5.504032611846924,7.841948986053467,2.0928120613098145
1773145743788182300,2.561182373046875,5.484327793121338,7.850534915924072,2.1122612953186035
1773145743805531000,2.57853076171875,5.461414337158203,7.860976696014404,2.13269305229187
1773145743822879700,2.595879638671875,5.437839508056641,7.8716816902160645,2.153348684310913
1773145743840228400,2.613228271484375,5.414483070373535,7.882378578186035,2.172987699508667
1773145743857577000,2.630576904296875,5.393464088439941,7.891534805297852,2.191943883895874
1773145743874925800,2.64792578125,5.381351470947266,7.896218299865723,2.2048099040985107
1773145743892274400,2.6652744140625,5.373185634613037,7.898402214050293,2.2168681621551514
1773145743909623300,2.682623291015625,5.367185592651367,7.899788856506348,2.226440668106079
1773145743926972000,2.699971923828125,5.36226224899292,7.901344299316406,2.232776403427124
1773145743944320800,2.71732080078125,5.3535847663879395,7.905612945556641,2.238480567932129
1773145743961669400,2.73466943359375,5.347972393035889,7.908237934112549,2.2426207065582275
1773145743979018200,2.752018310546875,5.344789981842041,7.909339427947998,2.246321201324463
1773145743996366800,2.769366943359375,5.34111213684082,7.910056114196777,2.2525360584259033
1773145744013715700,2.7867158203125,5.336848258972168,7.910442352294922,2.261267900466919
1773145744031064300,2.804064208984375,5.33238410949707,7.910543918609619,2.271425247192383
1773145744048413000,2.821412841796875,5.33021879196167,7.909236431121826,2.281036615371704
1773145744065761800,2.83876171875,5.330115795135498,7.9065961837768555,2.2904105186462402
1773145744083110700,2.856110595703125,5.329173564910889,7.903733253479004,2.302455425262451
1773145744100459300,2.873459228515625,5.325788974761963,7.901627540588379,2.3174657821655273
1773145744117807900,2.890807861328125,5.31790828704834,7.901542663574219,2.3357784748077393
1773145744135156700,2.90815673828125,5.305767059326172,7.903721332550049,2.3559303283691406
1773145744152505300,2.92550537109375,5.288811683654785,7.908942699432373,2.376443386077881
1773145744169854200,2.942854248046875,5.271493434906006,7.915090560913086,2.39438533782959
1773145744187202800,2.960202880859375,5.2563252449035645,7.9206976890563965,2.4091475009918213
1773145744204551700,2.9775517578125,5.2431464195251465,7.926252841949463,2.419567584991455
1773145744221900300,2.994900390625,5.231196880340576,7.932771682739258,2.4240667819976807
1773145744239249200,3.012249267578125,5.2202839851379395,7.9401116371154785,2.423560857772827
1773145744256597800,3.02959765625,5.211713790893555,7.946702003479004,2.420405387878418
1773145744273946400,3.0469462890625,5.207612991333008,7.950904846191406,2.415422201156616
1773145744291295200,3.064295166015625,5.20736837387085,7.954084396362305,2.405458927154541
1773145744308643800,3.081643798828125,5.206948280334473,7.959908485412598,2.3870341777801514
1773145744325992700,3.09899267578125,5.205746173858643,7.969203948974609,2.3584699630737305
1773145744343341300,3.11634130859375,5.203079700469971,7.982254505157471,2.319908380508423
1773145744360690200,3.133690185546875,5.203433513641357,7.994913578033447,2.2750864028930664
1773145744378038800,3.151038818359375,5.209129810333252,8.004253387451172,2.228740930557251
1773145744395387600,3.1683876953125,5.21887731552124,8.01077651977539,2.1820101737976074
1773145744412736300,3.185736328125,5.231310844421387,8.015645980834961,2.1338210105895996
1773145744430085000,3.203085205078125,5.24509859085083,8.019643783569336,2.084381103515625
1773145744447433700,3.220433837890625,5.259171485900879,8.022440910339355,2.0376315116882324
1773145744464782600,3.237782470703125,5.270620822906494,8.02094841003418,2.0137827396392822
1773145744482131200,3.255131103515625,5.2756733894348145,8.02187442779541,1.9967979192733765
1773145744499479800,3.272479736328125,5.2741217613220215,8.026155471801758,1.9836477041244507
1773145744516828700,3.28982861328125,5.266106605529785,8.03384780883789,1.973775863647461
1773145744534177300,3.30717724609375,5.254717826843262,8.04279613494873,1.9676762819290161
1773145744551526100,3.324526123046875,5.244594097137451,8.050252914428711,1.9641883373260498
1773145744568874800,3.341874755859375,5.2389631271362305,8.054539680480957,1.9616400003433228
1773145744586223600,3.3592236328125,5.238082408905029,8.055763244628906,1.9589694738388062
1773145744603572200,3.376572265625,5.243743419647217,8.052777290344238,1.9560989141464233
1773145744620921000,3.393921142578125,5.257587432861328,8.04464340209961,1.952402114868164
1773145744638269700,3.411269775390625,5.279149055480957,8.031997680664062,1.946278691291809
1773145744655618600,3.42861865234375,5.305995464324951,8.016374588012695,1.9376628398895264
1773145744672967200,3.44596728515625,5.3317155838012695,8.001811981201172,1.9272327423095703
1773145744690316000,3.46331591796875,5.35272216796875,7.99151086807251,1.911673903465271
1773145744707664600,3.48066455078125,5.365151882171631,7.987875461578369,1.8919271230697632
1773145744725013200,3.49801318359375,5.367021560668945,7.990779399871826,1.8742763996124268
1773145744742362000,3.515362060546875,5.358125686645508,7.999090194702148,1.8642529249191284
1773145744759710700,3.532710693359375,5.340569019317627,8.011138916015625,1.8628915548324585
1773145744777059600,3.5500595703125,5.316430568695068,8.026089668273926,1.867578387260437
1773145744794408200,3.567408203125,5.289012432098389,8.042214393615723,1.8760390281677246
1773145744811757000,3.584757080078125,5.260487079620361,8.05828857421875,1.8872359991073608
1773145744829105700,3.602105712890625,5.2326741218566895,8.07364273071289,1.8988970518112183
1773145744846454500,3.61945458984375,5.206607818603516,8.08822250366211,1.9084806442260742
1773145744863803100,3.63680322265625,5.182221412658691,8.10297679901123,1.912260890007019
1773145744881152000,3.654152099609375,5.159101486206055,8.118288040161133,1.9098334312438965
1773145744898500600,3.67150048828125,5.136348247528076,8.133875846862793,1.9048315286636353
1773145744915849500,3.688849365234375,5.115731716156006,8.14832592010498,1.8985460996627808
1773145744933198000,3.706197998046875,5.0997467041015625,8.160027503967285,1.8912711143493652
1773145744950546700,3.723546630859375,5.08922004699707,8.168917655944824,1.8812240362167358
1773145744967895600,3.7408955078125,5.082305908203125,8.176175117492676,1.8683440685272217
1773145744985244200,3.758244140625,5.075671195983887,8.184107780456543,1.8515774011611938
1773145745002593000,3.775593017578125,5.0658721923828125,8.195688247680664,1.8270295858383179
1773145745019941600,3.792941650390625,5.049010276794434,8.214215278625488,1.7901265621185303
1773145745037290500,3.81029052734375,5.019354343414307,8.24341869354248,1.7385350465774536
1773145745054639000,3.82763916015625,4.975492000579834,8.285557746887207,1.6626492738723755
1773145745071988000,3.844988037109375,4.923730850219727,8.335384368896484,1.564806342124939
1773145745089336600,3.862336669921875,4.875391006469727,8.380592346191406,1.471945881843567
1773145745106685400,3.879685546875,4.832999229431152,8.419017791748047,1.3902018070220947
1773145745124034000,3.897033935546875,4.779512882232666,8.459940910339355,1.3251557350158691
1773145745141382700,3.914382568359375,4.729824542999268,8.496448516845703,1.2686687707901
1773145745158731500,3.9317314453125,4.687894344329834,8.52623176574707,1.2236865758895874
1773145745176080100,3.949080078125,4.672848701477051,8.54382038116455,1.1567268371582031
1773145745193429000,3.966428955078125,4.644040584564209,8.575860977172852,1.0285298824310303
1773145745210777600,3.983777587890625,4.6155009269714355,8.613412857055664,0.8225932717323303
1773145745228126500,4.00112646484375,4.565710544586182,8.657914161682129,0.6043216586112976
1773145745245475000,4.01847509765625,4.497124195098877,8.705933570861816,0.39113888144493103
1773145745262824000,4.035823974609375,4.4471940994262695,8.738035202026367,0.19899949431419373
1773145745280172500,4.053172607421875,4.476945400238037,8.725007057189941,0.03990062326192856
1773145745297521400,4.070521484375,4.575409412384033,8.673576354980469,-0.07130856066942215
1773145745314870000,4.0878701171875,4.823995590209961,8.537729263305664,-0.0812963992357254
1773145745332219000,4.105218994140625,5.067380428314209,8.395798683166504,-0.051240675151348114
1773145745349567500,4.1225673828125,5.244113922119141,8.286090850830078,-0.1017385795712471
1773145745366916000,4.139916015625,5.385898113250732,8.192306518554688,-0.22046957910060883
1773145745384265000,4.157264892578125,5.536240100860596,8.085402488708496,-0.3830138146877289
1773145745401613600,4.174613525390625,5.706812381744385,7.95604944229126,-0.5513221621513367
1773145745418962400,4.19196240234375,5.859241008758545,7.831050872802734,-0.7171703577041626
1773145745436311000,4.20931103515625,5.916450500488281,7.774059772491455,-0.8543971180915833
1773145745453660000,4.226659912109375,5.899120330810547,7.7755446434021,-0.9548085331916809
1773145745471008500,4.244008544921875,5.870889663696289,7.78241491317749,-1.0663273334503174
1773145745488357400,4.261357421875,5.850227355957031,7.7843918800354,-1.1612348556518555
1773145745505706000,4.2787060546875,5.848264694213867,7.773986339569092,-1.2382769584655762
1773145745523054800,4.296054931640625,5.860385894775391,7.754645347595215,-1.3006706237792969
1773145745540403500,4.313403564453125,5.860974311828613,7.74513578414917,-1.3535983562469482
1773145745557752300,4.33075244140625,5.835446357727051,7.751791000366211,-1.4239741563796997
1773145745575101000,4.348100830078125,5.786438465118408,7.775312900543213,-1.4939934015274048
1773145745592449500,4.365449462890625,5.71613883972168,7.813490867614746,-1.5638127326965332
1773145745609798400,4.38279833984375,5.630044460296631,7.864189624786377,-1.6209582090377808
1773145745627147000,4.40014697265625,5.540437698364258,7.919890880584717,-1.6580926179885864
1773145745644496000,4.417495849609375,5.45519495010376,7.9724955558776855,-1.6883575916290283
1773145745661844500,4.434844482421875,5.378087997436523,8.019550323486328,-1.7127083539962769
1773145745679193300,4.452193359375,5.308773040771484,8.063429832458496,-1.7229102849960327
1773145745696542000,4.4695419921875,5.248616695404053,8.10635757446289,-1.7056915760040283
1773145745713890800,4.486890869140625,5.178562641143799,8.163294792175293,-1.6472681760787964
1773145745731239400,4.504239501953125,5.100894927978516,8.22821044921875,-1.564551830291748
1773145745748588300,4.52158837890625,5.02345085144043,8.29027271270752,-1.4854999780654907
1773145745765937000,4.53893701171875,4.954808712005615,8.340764999389648,-1.4324426651000977
1773145745783285800,4.55628564453125,4.894518852233887,8.382493019104004,-1.3956650495529175
1773145745800634400,4.57363427734375,4.838934898376465,8.423209190368652,-1.343368649482727
1773145745817983000,4.59098291015625,4.790146350860596,8.462876319885254,-1.2667313814163208
1773145745835331800,4.608331787109375,4.749586582183838,8.496896743774414,-1.1893514394760132
1773145745852680400,4.625680419921875,4.709715366363525,8.527716636657715,-1.1256182193756104
1773145745870029300,4.643029296875,4.659575939178467,8.562329292297363,-1.0701725482940674
1773145745887378000,4.6603779296875,4.597622871398926,8.603248596191406,-1.0081449747085571
1773145745904726800,4.677726806640625,4.534036159515381,8.644824981689453,-0.9380336403846741
1773145745922075400,4.695075439453125,4.477586269378662,8.68114185333252,-0.871435821056366
1773145745939424300,4.71242431640625,4.42751932144165,8.71190357208252,-0.818659245967865
1773145745956772900,4.72977294921875,4.379480361938477,8.737947463989258,-0.7992645502090454
1773145745974121700,4.747121826171875,4.3297271728515625,8.76105785369873,-0.8171387910842896
1773145745991470300,4.76447021484375,4.275233745574951,8.784472465515137,-0.8519394397735596
1773145746008819200,4.781819091796875,4.2194390296936035,8.808319091796875,-0.8833218812942505
1773145746026167800,4.799167724609375,4.176539897918701,8.8255033493042,-0.9150888919830322
1773145746043516400,4.816516357421875,4.152923107147217,8.831708908081055,-0.9615248441696167
1773145746060865300,4.833865234375,4.14608907699585,8.827651977539062,-1.0261070728302002
1773145746078214000,4.8512138671875,4.1450700759887695,8.820932388305664,-1.0862482786178589
1773145746095562800,4.868562744140625,4.125964164733887,8.826555252075195,-1.1129790544509888
1773145746112911400,4.885911376953125,4.0874528884887695,8.84375286102295,-1.1185479164123535
1773145746130260200,4.90326025390625,4.059347629547119,8.855321884155273,-1.1293236017227173
1773145746147608800,4.92060888671875,4.052474021911621,8.857030868530273,-1.1405411958694458
1773145746164957700,4.937957763671875,4.047172546386719,8.861221313476562,-1.1267346143722534
1773145746182306300,4.955306396484375,4.004387378692627,8.887640953063965,-1.0701055526733398
1773145746199655200,4.9726552734375,3.914060115814209,8.9400053024292,-0.9627261161804199
1773145746217003800,4.990003662109375,3.79360032081604,9.006330490112305,-0.815480649471283
1773145746234352600,5.0073525390625,3.6624059677124023,9.074615478515625,-0.6391670107841492
1773145746251701200,5.024701171875,3.5381619930267334,9.135003089904785,-0.451137512922287
1773145746269050000,5.042050048828125,3.4391608238220215,9.17979907989502,-0.27174973487854004
1773145746286398700,5.059398681640625,3.372678518295288,9.207812309265137,-0.10777915269136429
1773145746303747600,5.07674755859375,3.3249738216400146,9.225725173950195,0.03064708039164543
1773145746321096200,5.09409619140625,3.271648645401001,9.243775367736816,0.13896611332893372
1773145746338444800,5.11144482421875,3.204425573348999,9.26578426361084,0.21738968789577484
1773145746355793700,5.128793701171875,3.1203739643096924,9.29305362701416,0.26983436942100525
1773145746373142300,5.146142333984375,3.0230422019958496,9.324077606201172,0.3052588999271393
1773145746390491100,5.1634912109375,2.914970874786377,9.357338905334473,0.3369596302509308
1773145746407839700,5.18083984375,2.7890543937683105,9.394481658935547,0.36778295040130615
1773145746425188600,5.198188720703125,2.6552610397338867,9.432063102722168,0.39517518877983093
1773145746442537200,5.215537109375,2.5207972526550293,9.467551231384277,0.4259653389453888
1773145746459886000,5.232885986328125,2.3835134506225586,9.500802040100098,0.4733000695705414
1773145746477234700,5.250234619140625,2.237994432449341,9.532520294189453,0.5411407351493835
1773145746494583600,5.26758349609375,2.0840373039245605,9.562005043029785,0.6286759972572327
1773145746511932200,5.28493212890625,1.9287856817245483,9.586543083190918,0.7405211329460144
1773145746529281000,5.302281005859375,1.7780604362487793,9.60407543182373,0.8778568506240845
1773145746546629600,5.319629638671875,1.6380634307861328,9.613112449645996,1.0369154214859009
1773145746563978500,5.336978515625,1.526085376739502,9.611617088317871,1.2075906991958618
1773145746581327000,5.3543271484375,1.4776511192321777,9.59776782989502,1.367396354675293
1773145746598676000,5.371676025390625,1.509704828262329,9.573970794677734,1.4934066534042358
1773145746616024600,5.389024658203125,1.5892045497894287,9.546769142150879,1.582405686378479
1773145746633373200,5.406373291015625,1.6641396284103394,9.519411087036133,1.6678855419158936
1773145746650722000,5.42372216796875,1.7014344930648804,9.491954803466797,1.7827763557434082
1773145746668070700,5.441070556640625,1.7122297286987305,9.462406158447266,1.923933982849121
1773145746685419500,5.45841943359375,1.7046236991882324,9.433919906616211,2.065380096435547
1773145746702768000,5.47576806640625,1.6716018915176392,9.412367820739746,2.1871166229248047
1773145746720117000,5.493116943359375,1.6187996864318848,9.400592803955078,2.2756781578063965
1773145746737465600,5.510465576171875,1.5480397939682007,9.394936561584473,2.347153663635254
1773145746754814500,5.527814453125,1.4581605195999146,9.391636848449707,2.4168810844421387
1773145746772163000,5.5451630859375,1.3561592102050781,9.390115737915039,2.481318473815918
1773145746789512000,5.562511962890625,1.2535213232040405,9.393835067749023,2.520902395248413
1773145746806860500,5.579860595703125,1.1437047719955444,9.405620574951172,2.5291528701782227
1773145746824209400,5.59720947265625,1.018336296081543,9.4232759475708,2.5169930458068848
1773145746841558000,5.61455810546875,0.8814600110054016,9.443047523498535,2.49444842338562
1773145746858907000,5.631906982421875,0.7467302083969116,9.464212417602539,2.4579365253448486
1773145746876255500,5.64925537109375,0.6166499257087708,9.487245559692383,2.4046413898468018
1773145746893604400,5.666604248046875,0.48783016204833984,9.514565467834473,2.3249659538269043
1773145746910953000,5.683952880859375,0.3755086362361908,9.546258926391602,2.21321439743042
1773145746928301600,5.701301513671875,0.29109352827072144,9.580060005187988,2.075594186782837
1773145746945650400,5.718650390625,0.23633581399917603,9.611666679382324,1.9314204454421997
1773145746962999300,5.735999267578125,0.1919865608215332,9.63789176940918,1.8012672662734985
1773145746980348000,5.753347900390625,0.13548794388771057,9.65776538848877,1.6969375610351562
1773145746997696500,5.770696533203125,0.05419917404651642,9.672611236572266,1.6149448156356812
1773145747015045400,5.78804541015625,-0.035829734057188034,9.6841459274292,1.5448025465011597
1773145747032394000,5.80539404296875,-0.10660028457641602,9.693465232849121,1.481804370880127
1773145747049742800,5.822742919921875,-0.14455465972423553,9.700947761535645,1.4286707639694214
1773145747067091500,5.840091552734375,-0.16515864431858063,9.706857681274414,1.3856457471847534
1773145747084440300,5.8574404296875,-0.19262944161891937,9.711118698120117,1.3518357276916504
1773145747101789000,5.874788818359375,-0.23505093157291412,9.714789390563965,1.3183382749557495
1773145747119137800,5.8921376953125,-0.2695213258266449,9.719013214111328,1.2800477743148804
1773145747136486400,5.909486328125,-0.2638818025588989,9.725829124450684,1.2284091711044312
1773145747153835300,5.926835205078125,-0.20796743035316467,9.73540210723877,1.161500334739685
1773145747171183900,5.944183837890625,-0.11305072903633118,9.745562553405762,1.0870285034179688
1773145747188532700,5.96153271484375,-0.004563209600746632,9.75446605682373,1.01032555103302
1773145747205881300,5.97888134765625,0.09436233341693878,9.762192726135254,0.9279454946517944
1773145747223230000,5.99622998046875,0.17125043272972107,9.76915454864502,0.8394368290901184
1773145747240578800,6.013578857421875,0.22691617906093597,9.776045799255371,0.7401540279388428
1773145747257927700,6.030927734375,0.2848305106163025,9.782615661621094,0.6242595911026001
1773145747275276300,6.0482763671875,0.3567717671394348,9.787884712219238,0.4903094172477722
1773145747292625000,6.065625,0.4278973340988159,9.791190147399902,0.346235990524292
1773145747309973800,6.082973876953125,0.49810728430747986,9.791740417480469,0.20997335016727448
1773145747327322400,6.100322265625,0.5656235218048096,9.78989028930664,0.09220923483371735
1773145747344671200,6.117671142578125,0.6137534379959106,9.787415504455566,-0.014096980914473534
1773145747362019800,6.135019775390625,0.6350685954093933,9.785344123840332,-0.11875699460506439
1773145747379368700,6.15236865234375,0.6413725018501282,9.783038139343262,-0.22625426948070526
1773145747396717300,6.16971728515625,0.6504256129264832,9.779349327087402,-0.3341767191886902
1773145747414066200,6.187066162109375,0.6706280708312988,9.774045944213867,-0.4343756437301636
1773145747431414800,6.204414794921875,0.6971290707588196,9.767881393432617,-0.5223886370658875
1773145747448763600,6.221763671875,0.7244725227355957,9.761297225952148,-0.602151095867157
1773145747466112300,6.2391123046875,0.7512840628623962,9.754500389099121,-0.6750468015670776
1773145747483461000,6.256461181640625,0.773745596408844,9.74760627746582,-0.7455621957778931
1773145747500809700,6.273809814453125,0.7934015393257141,9.741153717041016,-0.8067382574081421
1773145747518158300,6.291158447265625,0.8162989616394043,9.735514640808105,-0.850757360458374
1773145747535507200,6.308507080078125,0.8512850999832153,9.729729652404785,-0.8820756077766418
1773145747552856000,6.32585595703125,0.8997976183891296,9.722497940063477,-0.913127601146698
1773145747570204700,6.34320458984375,0.955583393573761,9.713666915893555,-0.9497003555297852
1773145747587553300,6.36055322265625,1.00838303565979,9.704821586608887,-0.9848775267601013
1773145747604902100,6.377902099609375,1.044359803199768,9.698966979980469,-1.0048612356185913
1773145747622250800,6.395250732421875,1.0517864227294922,9.698628425598145,-1.0003666877746582
1773145747639599600,6.412599609375,1.0328280925750732,9.703370094299316,-0.9737894535064697
1773145747656948200,6.4299482421875,0.998196542263031,9.711054801940918,-0.9324259757995605
1773145747674297000,6.447297119140625,0.9628497362136841,9.71905517578125,-0.8850305080413818
1773145747691645700,6.464645751953125,0.9380333423614502,9.725131034851074,-0.843976616859436
1773145747708994600,6.48199462890625,0.9276682734489441,9.728628158569336,-0.8146227598190308
1773145747726343200,6.49934326171875,0.9254960417747498,9.730567932128906,-0.7936602234840393
1773145747743691800,6.51669189453125,0.9258396625518799,9.732166290283203,-0.773390531539917
1773145747761040600,6.53404052734375,0.9170279502868652,9.734742164611816,-0.7511473894119263
1773145747778389500,6.551389404296875,0.8957663178443909,9.738401412963867,-0.7290573120117188
1773145747795738000,6.568738037109375,0.8668217062950134,9.742523193359375,-0.7086842060089111
1773145747813086700,6.586086669921875,0.8348978757858276,9.74666690826416,-0.6897855997085571
1773145747830435600,6.603435546875,0.8070430159568787,9.750543594360352,-0.6678096652030945
1773145747847784200,6.6207841796875,0.792069137096405,9.753515243530273,-0.6418423652648926
1773145747865133000,6.638133056640625,0.792303740978241,9.755024909973145,-0.6181657910346985
1773145747882482000,6.65548193359375,0.8040955662727356,9.755352020263672,-0.5974298715591431
1773145747899830500,6.67283056640625,0.8178400993347168,9.755436897277832,-0.5770414471626282
1773145747917179100,6.69017919921875,0.8213884234428406,9.756616592407227,-0.5514863133430481
1773145747934528000,6.707528076171875,0.815689206123352,9.759021759033203,-0.5162785649299622
1773145747951876600,6.724876708984375,0.8098627328872681,9.761622428894043,-0.4745977520942688
1773145747969225500,6.7422255859375,0.8126740455627441,9.76324462890625,-0.43473881483078003
1773145747986574000,6.759573974609375,0.8257251977920532,9.763480186462402,-0.40377068519592285
1773145748003923000,6.7769228515625,0.8448334336280823,9.76275634765625,-0.38110655546188354
1773145748021271600,6.794271484375,0.8656114935874939,9.76186466217041,-0.35650843381881714
1773145748038620200,6.8116201171875,0.8818948864936829,9.761492729187012,-0.32544243335723877
1773145748055969000,6.828968994140625,0.8913841843605042,9.76170825958252,-0.29133370518684387
1773145748073318000,6.84631787109375,0.9020503163337708,9.761643409729004,-0.2588668167591095
1773145748090666500,6.86366650390625,0.917853057384491,9.760825157165527,-0.23284579813480377
1773145748108015000,6.88101513671875,0.933833658695221,9.759753227233887,-0.2134297788143158
1773145748125364000,6.898364013671875,0.9448043704032898,9.759042739868164,-0.19701021909713745
1773145748142712600,6.915712646484375,0.9559249877929688,9.75819206237793,-0.18516309559345245
1773145748160061400,6.9330615234375,0.9738793969154358,9.756564140319824,-0.17718453705310822
1773145748177410000,6.95041015625,0.9982237219810486,9.754171371459961,-0.17345312237739563
1773145748194759000,6.967759033203125,1.0247470140457153,9.751397132873535,-0.1747313290834427
1773145748212107500,6.985107421875,1.0510237216949463,9.748420715332031,-0.18445611000061035
1773145748229456400,7.002456298828125,1.0777788162231445,9.74507999420166,-0.2054327428340912
1773145748246805000,7.019804931640625,1.104076623916626,9.74149227142334,-0.23393259942531586
1773145748264153900,7.03715380859375,1.1270228624343872,9.738064765930176,-0.2651517987251282
1773145748281502500,7.05450244140625,1.1476380825042725,9.73478889465332,-0.29527875781059265
1773145748298851300,7.071851318359375,1.160194754600525,9.731888771057129,-0.3386130928993225
1773145748316200000,7.089199951171875,1.1818548440933228,9.727701187133789,-0.38137367367744446
1773145748333548800,7.106548828125,1.221064567565918,9.721323013305664,-0.4186626970767975
1773145748350897400,7.1238974609375,1.2791478633880615,9.712600708007812,-0.4467201232910156
1773145748368246300,7.141246337890625,1.3532649278640747,9.701700210571289,-0.46482643485069275
1773145748385595000,7.158594970703125,1.4367642402648926,9.689066886901855,-0.4775586426258087
1773145748402943700,7.17594384765625,1.522560715675354,9.67519760131836,-0.4926949143409729
1773145748420292400,7.193292236328125,1.5784640312194824,9.663947105407715,-0.535690426826477
1773145748437641000,7.210640869140625,1.622536301612854,9.653290748596191,-0.5930663347244263
1773145748454989800,7.22798974609375,1.6539924144744873,9.644007682800293,-0.6540769934654236
1773145748472338400,7.24533837890625,1.6766035556793213,9.63595199584961,-0.7126155495643616
1773145748489687300,7.262687255859375,1.6973623037338257,9.627799034118652,-0.7712522745132446
1773145748507036000,7.280035888671875,1.7216163873672485,9.618268966674805,-0.8338624238967896
1773145748524384800,7.297384765625,1.7497121095657349,9.606778144836426,-0.90482097864151
1773145748541733400,7.3147333984375,1.7813067436218262,9.593132019042969,-0.9844566583633423
1773145748559082200,7.332082275390625,1.8168798685073853,9.577507019042969,-1.0680365562438965
1773145748576430800,7.349430908203125,1.8537368774414062,9.560684204101562,-1.1521140336990356
1773145748593779700,7.36677978515625,1.8812575340270996,9.544840812683105,-1.235825777053833
1773145748611128300,7.38412841796875,1.8985451459884644,9.530767440795898,-1.3154371976852417
1773145748628477000,7.401476806640625,1.9159435033798218,9.516775131225586,-1.3894381523132324
1773145748645825800,7.41882568359375,1.9415279626846313,9.501229286193848,-1.4585975408554077
1773145748663174400,7.43617431640625,1.9783278703689575,9.48383617401123,-1.5210061073303223
1773145748680523300,7.453523193359375,2.0261855125427246,9.464866638183594,-1.575198769569397
1773145748697872100,7.4708720703125,2.0830671787261963,9.444979667663574,-1.619747519493103
1773145748715220700,7.488220703125,2.1430623531341553,9.425924301147461,-1.6521559953689575
1773145748732569300,7.5055693359375,2.2002248764038086,9.409212112426758,-1.6721577644348145
1773145748749918200,7.522918212890625,2.247622489929199,9.3961763381958,-1.6823896169662476
1773145748767266800,7.540266845703125,2.2827014923095703,9.387088775634766,-1.6858898401260376
1773145748784615700,7.55761572265625,2.3091959953308105,9.380581855773926,-1.6860226392745972
1773145748801964300,7.57496435546875,2.3307061195373535,9.375513076782227,-1.6846178770065308
1773145748819313200,7.592313232421875,2.3483426570892334,9.371109008789062,-1.6846356391906738
1773145748836661800,7.609661865234375,2.3614859580993652,9.36741828918457,-1.6867893934249878
1773145748854010400,7.62701025390625,2.366710662841797,9.365108489990234,-1.692283034324646
1773145748871359200,7.644359130859375,2.363236427307129,9.362604141235352,-1.7108896970748901
1773145748888708000,7.6617080078125,2.361790418624878,9.356106758117676,-1.7480307817459106
1773145748906056700,7.679056640625,2.372750997543335,9.345036506652832,-1.7918506860733032
1773145748923405600,7.696405517578125,2.3919243812561035,9.333186149597168,-1.8277614116668701
1773145748940754200,7.713754150390625,2.4076974391937256,9.323809623718262,-1.854715347290039
1773145748958102800,7.731102783203125,2.419175386428833,9.316192626953125,-1.8779069185256958
1773145748975451600,7.74845166015625,2.435349464416504,9.307064056396484,-1.9021085500717163
1773145748992800300,7.76580029296875,2.445033073425293,9.298717498779297,-1.930301547050476
1773145749010149000,7.783149169921875,2.4537861347198486,9.291213035583496,-1.9551708698272705
1773145749027497700,7.800497802734375,2.4524056911468506,9.28735065460205,-1.9751465320587158
1773145749044846600,7.8178466796875,2.441612720489502,9.286748886108398,-1.991283893585205
1773145749062195200,7.8351953125,2.4285902976989746,9.287388801574707,-2.0041797161102295
1773145749079544000,7.8525439453125,2.417177438735962,9.287399291992188,-2.0178844928741455
1773145749096892700,7.869892578125,2.4104321002960205,9.285443305969238,-2.0348806381225586
1773145749114241500,7.887241455078125,2.406439781188965,9.281072616577148,-2.0594000816345215
1773145749131590100,7.904590087890625,2.409291982650757,9.273221015930176,-2.0911900997161865
1773145749148939000,7.92193896484375,2.423276424407959,9.26061725616455,-2.1305158138275146
1773145749166287600,7.93928759765625,2.4477434158325195,9.24338150024414,-2.176886558532715
1773145749183636500,7.956636474609375,2.476135492324829,9.223462104797363,-2.228651762008667
1773145749200985000,7.973985107421875,2.506889581680298,9.201534271240234,-2.2842178344726562
1773145749218334000,7.991333984375,2.540745735168457,9.17665958404541,-2.346043586730957
1773145749235682600,8.0086826171875,2.574195384979248,9.149772644042969,-2.413620710372925
1773145749253030700,8.02603076171875,2.6010358333587646,9.123538970947266,-2.4831526279449463
1773145749270379300,8.043379150390624,2.6142418384552,9.103195190429688,-2.5432207584381104
1773145749287728000,8.06072802734375,2.623791217803955,9.086297988891602,-2.5933144092559814
1773145749305076700,8.07807666015625,2.634073257446289,9.07067584991455,-2.637211799621582
1773145749322425600,8.095425537109374,2.6454615592956543,9.054893493652344,-2.6797056198120117
1773145749339774200,8.112774169921876,2.6567223072052,9.039525032043457,-2.7201478481292725
1773145749357123000,8.130123046875,2.6662003993988037,9.025307655334473,-2.7578253746032715
1773145749374471700,8.1474716796875,2.6771507263183594,9.012007713317871,-2.790513038635254
1773145749391820500,8.164820556640626,2.696280002593994,8.998943328857422,-2.8141567707061768
1773145749409169200,8.182169189453125,2.7273385524749756,8.986173629760742,-2.825011730194092
1773145749426517800,8.199517822265625,2.7547245025634766,8.9774751663208,-2.826097011566162
1773145749443866600,8.21686669921875,2.784184694290161,8.972895622253418,-2.8117339611053467
1773145749461215200,8.23421533203125,2.8117876052856445,8.97353744506836,-2.7820589542388916
1773145749478564000,8.251564208984375,2.8368167877197266,8.979828834533691,-2.735966920852661
1773145749495912700,8.26891259765625,2.859098434448242,8.991929054260254,-2.672292709350586
1773145749513261600,8.286261474609375,2.8726940155029297,9.010420799255371,-2.5942907333374023
1773145749530610200,8.303610107421875,2.87410044670105,9.033862113952637,-2.5098342895507812
1773145749547959000,8.320958984375,2.867565870285034,9.05866813659668,-2.4265191555023193
1773145749565307600,8.3383076171875,2.859955310821533,9.081889152526855,-2.347412109375
1773145749582656500,8.355656494140625,2.856091260910034,9.102201461791992,-2.2722349166870117
1773145749600005000,8.373005126953124,2.857755184173584,9.119547843933105,-2.199425220489502
1773145749617353700,8.390353759765626,2.863610029220581,9.134204864501953,-2.1298913955688477
1773145749634702600,8.40770263671875,2.8710291385650635,9.146400451660156,-2.066624164581299
1773145749652051200,8.42505126953125,2.877859354019165,9.155600547790527,-2.0157630443573
1773145749669400000,8.442400146484376,2.886423349380493,9.160235404968262,-1.9821773767471313
1773145749686749000,8.4597490234375,2.9000375270843506,9.158987998962402,-1.9680233001708984
1773145749704097500,8.47709765625,2.9191861152648926,9.152901649475098,-1.9680243730545044
1773145749721446100,8.494446044921874,2.9417223930358887,9.144489288330078,-1.973567247390747
1773145749738795000,8.511794921875,2.962587833404541,9.136582374572754,-1.9789690971374512
1773145749756143600,8.5291435546875,2.976313591003418,9.130748748779297,-1.9852900505065918
1773145749773492500,8.546492431640624,2.985762357711792,9.125804901123047,-1.9938185214996338
1773145749790841000,8.563841064453126,2.99126935005188,9.121841430664062,-2.0036745071411133
1773145749808190000,8.58118994140625,2.9945068359375,9.118938446044922,-2.012032985687256
1773145749825538600,8.59853857421875,2.996398448944092,9.11717414855957,-2.0172035694122314
1773145749842887200,8.61588720703125,2.9971277713775635,9.116842269897461,-2.0176217555999756
1773145749860236000,8.633236083984375,2.997865676879883,9.117962837219238,-2.0114505290985107
1773145749877585000,8.6505849609375,2.9968669414520264,9.12130069732666,-1.9977620840072632
1773145749894933500,8.66793359375,2.994080066680908,9.126507759094238,-1.978057861328125
1773145749912282400,8.685282470703125,2.9894015789031982,9.132688522338867,-1.9564943313598633
1773145749929631000,8.702630859375,2.9827895164489746,9.139104843139648,-1.9365209341049194
1773145749946979600,8.7199794921875,2.9754371643066406,9.145376205444336,-1.918138861656189
1773145749964328400,8.737328369140625,2.9683773517608643,9.151695251464844,-1.8988410234451294
1773145749981677000,8.754677001953125,2.959935426712036,9.159341812133789,-1.874996304512024
1773145749999026000,8.77202587890625,2.9484004974365234,9.169232368469238,-1.844589352607727
1773145750016374500,8.78937451171875,2.9324307441711426,9.180999755859375,-1.8112081289291382
1773145750033723400,8.806723388671875,2.9129085540771484,9.193428039550781,-1.7793928384780884
1773145750051072000,8.824072021484374,2.89357852935791,9.204458236694336,-1.7537214756011963
1773145750068420900,8.8414208984375,2.8783211708068848,9.213333129882812,-1.7320947647094727
1773145750085769500,8.85876953125,2.8687374591827393,9.220711708068848,-1.7085671424865723
1773145750103118300,8.876118408203125,2.8611185550689697,9.227757453918457,-1.6831170320510864
1773145750120467000,8.893467041015626,2.8549649715423584,9.233884811401367,-1.6597981452941895
1773145750137815600,8.910815673828125,2.85195255279541,9.237804412841797,-1.6430803537368774
1773145750155164400,8.928164306640625,2.853559970855713,9.238971710205078,-1.6337014436721802
1773145750172513000,8.945512939453126,2.860100269317627,9.237954139709473,-1.628013253211975
1773145750189862000,8.96286181640625,2.869209051132202,9.23617172241211,-1.6220862865447998
1773145750207210500,8.98021044921875,2.880554676055908,9.233614921569824,-1.6165246963500977
1773145750224559400,8.997559326171874,2.894425868988037,9.229803085327148,-1.6135121583938599
1773145750241908000,9.014907958984375,2.9120237827301025,9.224483489990234,-1.6122714281082153
1773145750259256800,9.0322568359375,2.9329943656921387,9.218453407287598,-1.608742117881775
1773145750276605400,9.04960546875,2.9543344974517822,9.213234901428223,-1.5995643138885498
1773145750293954300,9.066954345703126,2.971428394317627,9.20988655090332,-1.5871275663375854
1773145750311303000,9.084302978515625,2.987574338912964,9.206849098205566,-1.574393630027771
1773145750328651800,9.10165185546875,3.0086116790771484,9.201680183410645,-1.564517617225647
1773145750346000400,9.11900048828125,3.0386784076690674,9.19320011138916,-1.5562478303909302
1773145750363349200,9.136349365234375,3.073833465576172,9.182659149169922,-1.5494178533554077
1773145750380697900,9.15369775390625,3.107611656188965,9.17245101928711,-1.5424898862838745
1773145750398046700,9.171046630859376,3.1324312686920166,9.165045738220215,-1.5362924337387085
1773145750415395300,9.188395263671875,3.1527936458587646,9.159384727478027,-1.5283793210983276
1773145750432744000,9.205743896484375,3.1649703979492188,9.156123161315918,-1.5227504968643188
1773145750450092800,9.2230927734375,3.1737232208251953,9.15378189086914,-1.5185967683792114
1773145750467441400,9.24044140625,3.177370071411133,9.153118133544922,-1.5149670839309692
1773145750484790300,9.257790283203125,3.178166389465332,9.153475761413574,-1.5111355781555176
1773145750502139000,9.275138916015624,3.176348924636841,9.154603958129883,-1.5081181526184082
1773145750519487700,9.29248779296875,3.1744790077209473,9.155669212341309,-1.5055869817733765
1773145750536836400,9.30983642578125,3.17309308052063,9.15620231628418,-1.5052717924118042
1773145750554185200,9.327185302734375,3.1752946376800537,9.155214309692383,-1.5066372156143188
1773145750571533800,9.344533935546876,3.1809773445129395,9.152689933776855,-1.5099821090698242
1773145750588882700,9.361882568359375,3.1901168823242188,9.148967742919922,-1.513250470161438
1773145750606231300,9.379231201171875,3.1998097896575928,9.145243644714355,-1.5152997970581055
1773145750623580200,9.396580078125,3.2113044261932373,9.14114761352539,-1.515690803527832
1773145750640928800,9.4139287109375,3.2268831729888916,9.135795593261719,-1.5148738622665405
1773145750658277400,9.43127734375,3.247042655944824,9.128231048583984,-1.5173989534378052
1773145750675626200,9.448626220703124,3.269731283187866,9.117743492126465,-1.5316684246063232
1773145750692974800,9.465974853515625,3.3172993659973145,9.099668502807617,-1.5368633270263672
1773145750710323700,9.48332373046875,3.3683958053588867,9.081357955932617,-1.534023404121399
1773145750727672300,9.50067236328125,3.421387195587158,9.06277084350586,-1.5266532897949219
1773145750745021200,9.518021240234376,3.4744694232940674,9.045019149780273,-1.5119796991348267
1773145750762369800,9.535369873046875,3.5164926052093506,9.030638694763184,-1.5007439851760864
1773145750779718700,9.55271875,3.5490214824676514,9.018209457397461,-1.4989112615585327
1773145750797067300,9.5700673828125,3.568838357925415,9.008675575256348,-1.5091553926467896
1773145750814416100,9.587416015625,3.5806381702423096,9.000435829162598,-1.5302212238311768
1773145750831764700,9.6047646484375,3.588660955429077,8.993768692016602,-1.5504945516586304
1773145750849113600,9.622113525390626,3.5943708419799805,8.988829612731934,-1.565827488899231
1773145750866462200,9.639462158203125,3.600921392440796,8.984158515930176,-1.5775431394577026
1773145750883810800,9.656810791015625,3.6087231636047363,8.97901725769043,-1.5889472961425781
1773145750901159700,9.67415966796875,3.6157889366149902,8.972942352294922,-1.6070982217788696
1773145750918508300,9.69150830078125,3.624389410018921,8.965298652648926,-1.6302149295806885
1773145750935857200,9.708857177734375,3.6300926208496094,8.95886516571045,-1.652744174003601
1773145750953205800,9.726205810546874,3.6385555267333984,8.953042030334473,-1.6656341552734375
1773145750970554600,9.7435546875,3.6421475410461426,8.950936317443848,-1.6690948009490967
1773145750987903200,9.7609033203125,3.635817766189575,8.953685760498047,-1.66815185546875
1773145751005252000,9.778252197265624,3.6185309886932373,8.959755897521973,-1.6731367111206055
1773145751022600700,9.7956005859375,3.5940659046173096,8.965991973876953,-1.692358136177063
1773145751039949600,9.812949462890625,3.5611677169799805,8.972843170166016,-1.7252744436264038
1773145751057298200,9.830298095703125,3.52272891998291,8.979948043823242,-1.7667187452316284
1773145751074647000,9.84764697265625,3.47817063331604,8.989543914794922,-1.805770993232727
1773145751091995600,9.86499560546875,3.4476683139801025,8.99591064453125,-1.8323689699172974
1773145751109344300,9.88234423828125,3.427881956100464,9.000401496887207,-1.84737229347229
1773145751126693000,9.899693115234374,3.42478084564209,8.999687194824219,-1.856583833694458
1773145751144041700,9.917041748046875,3.436328649520874,8.992587089538574,-1.869597315788269
1773145751161390600,9.934390625,3.4631741046905518,8.97861385345459,-1.8871450424194336
1773145751178739200,9.9517392578125,3.4984049797058105,8.961443901062012,-1.9037024974822998
1773145751196088000,9.969088134765625,3.533372402191162,8.94549560546875,-1.9140955209732056
1773145751213436700,9.986436767578125,3.56111216545105,8.933913230895996,-1.9167829751968384
1773145751230785500,10.00378564453125,3.584027051925659,8.926220893859863,-1.909897804260254
1773145751248134100,10.021134033203126,3.602470874786377,8.921561241149902,-1.8969281911849976
1773145751265483000,10.03848291015625,3.6189990043640137,8.91806697845459,-1.881834864616394
1773145751282831600,10.05583154296875,3.635504961013794,8.914658546447754,-1.8661068677902222
1773145751300180500,10.073180419921876,3.6483707427978516,8.9115629196167,-1.8557568788528442
1773145751317529000,10.090529052734375,3.6576597690582275,8.909303665161133,-1.8482990264892578
1773145751334877700,10.107877685546875,3.668050527572632,8.905994415283203,-1.8436533212661743
1773145751352226600,10.1252265625,3.6817996501922607,8.901634216308594,-1.8372942209243774
1773145751369575200,10.1425751953125,3.697787284851074,8.896890640258789,-1.8281421661376953
1773145751386924000,10.159924072265625,3.7118256092071533,8.893538475036621,-1.8159540891647339
1773145751404272600,10.177272705078124,3.7230076789855957,8.891951560974121,-1.8007746934890747
1773145751421621500,10.19462158203125,3.7306599617004395,8.892305374145508,-1.783106803894043
1773145751438970000,10.21197021484375,3.7334742546081543,8.894610404968262,-1.765631914138794
1773145751456319000,10.229319091796874,3.7299909591674805,8.89929485321045,-1.7493174076080322
1773145751473667600,10.24666748046875,3.7214019298553467,8.906232833862305,-1.7322158813476562
1773145751491016400,10.264016357421875,3.7102766036987305,8.914937019348145,-1.7111756801605225
1773145751508365000,10.281364990234374,3.7007977962493896,8.923839569091797,-1.6851023435592651
1773145751525713700,10.298713623046876,3.6937901973724365,8.931859016418457,-1.6577723026275635
1773145751543062500,10.3160625,3.68988037109375,8.93787670135498,-1.6338696479797363
1773145751560411100,10.3334111328125,3.6896605491638184,8.941054344177246,-1.6168935298919678
1773145751577760000,10.350760009765626,3.6902925968170166,8.942120552062988,-1.6095342636108398
1773145751595108600,10.368108642578125,3.691087484359741,8.941924095153809,-1.6088011264801025
1773145751612457500,10.38545751953125,3.6908986568450928,8.941917419433594,-1.6092743873596191
1773145751629806000,10.40280615234375,3.688960313796997,8.942987442016602,-1.607773780822754
1773145751647155000,10.420155029296875,3.689638137817383,8.943520545959473,-1.6032472848892212
1773145751664503600,10.437503662109375,3.691622734069824,8.943370819091797,-1.5995110273361206
1773145751681852400,10.454852294921874,3.6947476863861084,8.94163990020752,-1.601968765258789
1773145751699201000,10.472200927734375,3.6983132362365723,8.938060760498047,-1.6136683225631714
1773145751716549600,10.489549560546875,3.700014352798462,8.933414459228516,-1.6353585720062256
1773145751733898500,10.5068984375,3.704639434814453,8.926372528076172,-1.6630979776382446
1773145751751247000,10.5242470703125,3.7060420513153076,8.920310974121094,-1.692246437072754
1773145751768596000,10.541595947265625,3.7062315940856934,8.91580867767334,-1.7153962850570679
1773145751785944600,10.558944580078125,3.7129220962524414,8.910313606262207,-1.729420781135559
1773145751803293400,10.57629345703125,3.743995189666748,8.897385597229004,-1.7289865016937256
1773145751820642000,10.59364208984375,3.7948012351989746,8.879462242126465,-1.710271954536438
1773145751837991000,10.610990966796875,3.86159348487854,8.8574800491333,-1.6743766069412231
1773145751855339500,10.628339599609374,3.928006410598755,8.836150169372559,-1.6320570707321167
1773145751872688400,10.6456884765625,3.974510669708252,8.82005786895752,-1.606313943862915
1773145751890037000,10.663037109375,4.006486415863037,8.80834674835205,-1.5910604000091553
1773145751907385900,10.6803857421875,4.034602642059326,8.799056053161621,-1.5712957382202148
1773145751924734500,10.697734375,4.048989295959473,8.798008918762207,-1.5398389101028442
1773145751942083000,10.7150830078125,4.05409574508667,8.802215576171875,-1.5018993616104126
1773145751959432000,10.732431884765624,4.056285858154297,8.80736255645752,-1.465362548828125
1773145751976780500,10.749780517578126,4.062145233154297,8.809568405151367,-1.435572624206543
1773145751994129400,10.76712939453125,4.078752040863037,8.804882049560547,-1.4171178340911865
1773145752011478000,10.78447802734375,4.10811185836792,8.792800903320312,-1.4072885513305664
1773145752028827000,10.801826904296876,4.148384094238281,8.775348663330078,-1.3980516195297241
1773145752046175500,10.819175537109375,4.186173915863037,8.759560585021973,-1.3843510150909424
1773145752063524400,10.8365244140625,4.214357852935791,8.749592781066895,-1.3616857528686523
1773145752080873000,10.853873046875,4.226657867431641,8.748068809509277,-1.3330551385879517
1773145752098221800,10.871221923828125,4.2221574783325195,8.754314422607422,-1.30605149269104
1773145752115570400,10.8885703125,4.204122543334961,8.765826225280762,-1.286872148513794
1773145752132919000,10.9059189453125,4.180972576141357,8.779232025146484,-1.270804762840271
1773145752150268000,10.923267822265625,4.158677101135254,8.792460441589355,-1.2523720264434814
1773145752167616500,10.940616455078125,4.142984867095947,8.803290367126465,-1.2280625104904175
1773145752184965400,10.95796533203125,4.117741584777832,8.81728744506836,-1.2124496698379517
1773145752202314000,10.97531396484375,4.108384132385254,8.824350357055664,-1.1926476955413818
1773145752219662800,10.992662841796875,4.11868143081665,8.822160720825195,-1.1731730699539185
1773145752237011500,11.010011474609374,4.148617744445801,8.809784889221191,-1.1606214046478271
1773145752254360300,11.0273603515625,4.202247619628906,8.784870147705078,-1.1565263271331787
1773145752271709000,11.044708984375,4.2829694747924805,8.74658489227295,-1.1505792140960693
1773145752289057500,11.0620576171875,4.375639915466309,8.702159881591797,-1.138664722442627
1773145752306406400,11.079406494140626,4.4650092124938965,8.659455299377441,-1.1171091794967651
1773145752323755000,11.096755126953125,4.551192283630371,8.6189546585083,-1.0819694995880127
1773145752341103900,11.114103759765625,4.635563373565674,8.580140113830566,-1.031087040901184
1773145752358452500,11.131452392578124,4.716121196746826,8.543170928955078,-0.9709912538528442
1773145752375801300,11.14880126953125,4.797570705413818,8.504829406738281,-0.9064214825630188
1773145752393150000,11.16614990234375,4.882791519165039,8.463447570800781,-0.8359317779541016
1773145752410498800,11.183498779296874,4.948647499084473,8.430299758911133,-0.78187096118927
1773145752427847400,11.200847412109376,4.997191905975342,8.405179023742676,-0.7425810098648071
1773145752445196300,11.2181962890625,5.021559715270996,8.392355918884277,-0.7229779362678528
1773145752462545000,11.235544921875,5.014932632446289,8.396321296691895,-0.7229205369949341
1773145752479893800,11.252893798828126,4.969810485839844,8.421282768249512,-0.7438938021659851
1773145752497242400,11.270242431640625,4.89491081237793,8.462316513061523,-0.7742354869842529
1773145752514591000,11.287591064453125,4.8040452003479,8.51117992401123,-0.8070641756057739
1773145752531939800,11.30493994140625,4.708344459533691,8.56131362915039,-0.8401197195053101
1773145752549288400,11.322288330078125,4.617044448852539,8.607887268066406,-0.870374858379364
1773145752566637300,11.33963720703125,4.5376996994018555,8.647133827209473,-0.8981943726539612
1773145752583986000,11.35698583984375,4.473556041717529,8.677865028381348,-0.923222541809082
1773145752601334800,11.374334716796875,4.425630569458008,8.700130462646484,-0.9444101452827454
1773145752618683400,11.391683349609375,4.392024040222168,8.715435028076172,-0.9600551724433899
1773145752636032300,11.4090322265625,4.367730617523193,8.726616859436035,-0.9692651629447937
1773145752653380900,11.426380859375,4.349338054656982,8.735602378845215,-0.9710315465927124
1773145752670729500,11.4437294921875,4.332376003265381,8.744932174682617,-0.9628438949584961
1773145752688078300,11.461078369140624,4.312258243560791,8.75688648223877,-0.9443219900131226
1773145752705427000,11.478427001953126,4.284601211547852,8.772645950317383,-0.9237208366394043
1773145752722775800,11.49577587890625,4.24813985824585,8.791524887084961,-0.9125684499740601
1773145752740124400,11.51312451171875,4.2010955810546875,8.813570022583008,-0.9176838994026184
1773145752757473300,11.530473388671876,4.141986846923828,8.839485168457031,-0.9369293451309204
1773145752774822000,11.54782177734375,4.0732879638671875,8.86871337890625,-0.9615789651870728
1773145752792170800,11.565170654296875,4.0014872550964355,8.89885139465332,-0.9843420386314392
1773145752809519400,11.582519287109376,3.9330215454101562,8.927451133728027,-1.001164197921753
1773145752826868000,11.599867919921875,3.8710503578186035,8.953380584716797,-1.0111048221588135
1773145752844216800,11.617216796875,3.815962553024292,8.976566314697266,-1.0149282217025757
1773145752861565400,11.6345654296875,3.770504951477051,8.995532035827637,-1.016890525817871
1773145752878914300,11.651914306640625,3.7350380420684814,9.010141372680664,-1.0184431076049805
1773145752896263000,11.669262939453125,3.708589792251587,9.021394729614258,-1.0154718160629272
1773145752913611800,11.68661181640625,3.688701868057251,9.031005859375,-1.0024020671844482
1773145752930960400,11.70396044921875,3.6760520935058594,9.038641929626465,-0.9797844886779785
1773145752948309000,11.72130908203125,3.671501874923706,9.043112754821777,-0.9552887678146362
1773145752965657900,11.738657958984374,3.673499584197998,9.044279098510742,-0.9363802075386047
1773145752983006700,11.7560068359375,3.6797733306884766,9.043137550354004,-0.9226664900779724
1773145753000355300,11.773355224609375,3.686826705932617,9.041751861572266,-0.9079750776290894
1773145753017704000,11.790703857421875,3.6926980018615723,9.041561126708984,-0.8857448101043701
1773145753035052800,11.808052734375,3.6957154273986816,9.04334545135498,-0.8543885946273804
1773145753052401400,11.8254013671875,3.6946165561676025,9.047146797180176,-0.8181247115135193
1773145753069750300,11.842750244140625,3.690349817276001,9.051913261413574,-0.7839453816413879
1773145753087099000,11.860098876953124,3.6842923164367676,9.056791305541992,-0.7555840015411377
1773145753104447700,11.87744775390625,3.6902501583099365,9.05694580078125,-0.7240056395530701
1773145753121796400,11.89479638671875,3.692430019378662,9.058445930480957,-0.6934766173362732
1773145753139145200,11.912145263671874,3.6725270748138428,9.068474769592285,-0.6675938963890076
1773145753156493800,11.929493896484376,3.6605918407440186,9.075586318969727,-0.6357566714286804
1773145753173842400,11.946842529296875,3.6437883377075195,9.084603309631348,-0.602629542350769
1773145753191191300,11.96419140625,3.626567840576172,9.09355640411377,-0.5706337094306946
1773145753208540000,11.981539794921876,3.6117513179779053,9.101128578186035,-0.5432303547859192
1773145753225888800,11.998888671875,3.6019885540008545,9.106216430664062,-0.5223804712295532
1773145753243237400,12.0162373046875,3.5985796451568604,9.108394622802734,-0.507706880569458
1773145753260586200,12.033586181640626,3.6024534702301025,9.107386589050293,-0.49822649359703064
1773145753277934800,12.050934814453125,3.611539840698242,9.104033470153809,-0.49370214343070984
1773145753295283500,12.068283447265625,3.6241376399993896,9.099061012268066,-0.49306002259254456
1773145753312632300,12.08563232421875,3.636636257171631,9.093908309936523,-0.49606645107269287
1773145753329981000,12.10298095703125,3.6495230197906494,9.088518142700195,-0.5002120733261108
1773145753347329800,12.120329833984375,3.662834882736206,9.08288288116455,-0.5052359700202942
1773145753364678400,12.137678466796874,3.676908254623413,9.07686996459961,-0.5110264420509338
1773145753382027300,12.15502734375,3.6940557956695557,9.069561958312988,-0.5170913934707642
1773145753399376000,12.1723759765625,3.713491916656494,9.06120491027832,-0.5243541598320007
1773145753416724700,12.189724853515624,3.7348780632019043,9.051961898803711,-0.5320395827293396
1773145753434073300,12.2070732421875,3.757859468460083,9.042105674743652,-0.5377804040908813
1773145753451422200,12.224422119140625,3.7820870876312256,9.031856536865234,-0.5401608943939209
1773145753468770800,12.241770751953124,3.8060495853424072,9.02181339263916,-0.5396634936332703
1773145753486119400,12.259119384765626,3.8302202224731445,9.011741638183594,-0.5369327068328857
1773145753503468300,12.27646826171875,3.852520704269409,9.002313613891602,-0.5355421304702759
1773145753520817000,12.29381689453125,3.8728020191192627,8.993505477905273,-0.5372819304466248
1773145753538165800,12.311165771484376,3.891026735305786,8.985334396362305,-0.5422725677490234
1773145753555514400,12.328514404296875,3.9043729305267334,8.979033470153809,-0.550645649433136
1773145753572863200,12.34586328125,3.9138073921203613,8.974282264709473,-0.5610297918319702
1773145753590211800,12.3632119140625,3.9180660247802734,8.971680641174316,-0.5728093981742859
1773145753607560400,12.380560546875,3.9177982807159424,8.970969200134277,-0.5856313705444336
1773145753624909300,12.397909423828125,3.9122917652130127,8.97234058380127,-0.6012322306632996
1773145753642258000,12.4152578125,3.903818130493164,8.974809646606445,-0.6191715002059937
1773145753659606800,12.432606689453126,3.8929598331451416,8.978103637695312,-0.6394637227058411
1773145753676955400,12.449955322265625,3.8814926147460938,8.981582641601562,-0.6599786281585693
1773145753694304300,12.46730419921875,3.870079517364502,8.985190391540527,-0.677672266960144
1773145753711652900,12.48465283203125,3.8597421646118164,8.988541603088379,-0.6920195817947388
1773145753729001700,12.502001708984375,3.8512606620788574,8.99123764038086,-0.7041472792625427
1773145753746350300,12.519350341796875,3.846595525741577,8.99238109588623,-0.7149665951728821
1773145753763699000,12.536698974609376,3.8455801010131836,8.991848945617676,-0.7270179390907288
1773145753781047800,12.5540478515625,3.846954822540283,8.990131378173828,-0.7408503890037537
1773145753798396400,12.571396484375,3.8467516899108887,8.988757133483887,-0.7583770155906677
1773145753815745300,12.588745361328124,3.8410332202911377,8.989455223083496,-0.7788137197494507
1773145753833094000,12.606093994140625,3.830991268157959,8.991851806640625,-0.8003066182136536
1773145753850442800,12.62344287109375,3.818753480911255,8.994937896728516,-0.8237765431404114
1773145753867791400,12.640791259765624,3.807155132293701,8.997217178344727,-0.8520833849906921
1773145753885140200,12.65814013671875,3.7965855598449707,8.998434066772461,-0.8857221603393555
1773145753902488800,12.67548876953125,3.79083514213562,8.997264862060547,-0.9215143918991089
1773145753919837400,12.69283740234375,3.7888638973236084,8.994377136230469,-0.957118570804596
1773145753937186300,12.710186279296876,3.791022539138794,8.989912033081055,-0.9899546504020691
1773145753954535000,12.727534912109375,3.79550838470459,8.984848976135254,-1.0183300971984863
1773145753971883800,12.7448837890625,3.8009111881256104,8.98011302947998,-1.0397274494171143
1773145753989232400,12.762232421875,3.8055012226104736,8.97661018371582,-1.0530980825424194
1773145754006581000,12.7795810546875,3.810605525970459,8.973745346069336,-1.0590416193008423
1773145754023929900,12.796929931640625,3.816359519958496,8.971004486083984,-1.0615373849868774
1773145754041278500,12.814278564453126,3.8229494094848633,8.967727661132812,-1.0654999017715454
1773145754058627300,12.83162744140625,3.8295931816101074,8.964183807373047,-1.0714542865753174
1773145754075976000,12.848975830078125,3.8364758491516113,8.960471153259277,-1.077866554260254
1773145754093324800,12.86632470703125,3.8441929817199707,8.956308364868164,-1.0849467515945435
1773145754110673400,12.88367333984375,3.849315643310547,8.953038215637207,-1.0937291383743286
1773145754128022300,12.901022216796875,3.849525213241577,8.95159912109375,-1.1047288179397583
1773145754145371000,12.918370849609374,3.8431365489959717,8.95290756225586,-1.1162984371185303
1773145754162719700,12.9357197265625,3.828296184539795,8.958349227905273,-1.1236175298690796
1773145754180068400,12.953068359375,3.8071506023406982,8.967578887939453,-1.1218290328979492
1773145754197417000,12.9704169921875,3.7848503589630127,8.978058815002441,-1.113455057144165
1773145754214765800,12.987765869140626,3.764620304107666,8.987316131591797,-1.1073216199874878
1773145754232114400,13.005114501953125,3.7461907863616943,8.994233131408691,-1.1136531829833984
1773145754249463300,13.02246337890625,3.7258923053741455,8.999324798583984,-1.1402872800827026
1773145754266812000,13.03981201171875,3.7053768634796143,9.001738548278809,-1.1871248483657837
1773145754284160500,13.057160400390625,3.7073745727539062,8.996308326721191,-1.221561312675476
1773145754301509400,13.07450927734375,3.7128796577453613,8.98762035369873,-1.2679046392440796
1773145754318858000,13.09185791015625,3.719799757003784,8.976832389831543,-1.322860598564148
1773145754336206800,13.109206787109375,3.721357583999634,8.967085838317871,-1.3832058906555176
1773145754353555500,13.126555419921875,3.710642099380493,8.961993217468262,-1.4436743259429932
1773145754370904300,13.143904296875,3.6871981620788574,8.963427543640137,-1.493959903717041
1773145754388253000,13.1612529296875,3.652838706970215,8.971611976623535,-1.5288376808166504
1773145754405601800,13.178601806640625,3.626502275466919,8.980433464050293,-1.53970468044281
1773145754422950400,13.195950439453124,3.6025049686431885,8.98892593383789,-1.546462059020996
1773145754440299000,13.213299072265626,3.5902109146118164,8.995427131652832,-1.5372251272201538
1773145754457647900,13.23064794921875,3.60366153717041,8.991765975952148,-1.5271422863006592
1773145754474996500,13.24799658203125,3.6504154205322266,8.973875999450684,-1.5213185548782349
1773145754492345300,13.265345458984376,3.727837324142456,8.943195343017578,-1.5142260789871216
1773145754509694000,13.28269384765625,3.833024024963379,8.901585578918457,-1.4966974258422852
1773145754527042800,13.300042724609375,3.9678115844726562,8.846826553344727,-1.4698725938796997
1773145754544391400,13.317391357421876,4.133993148803711,8.774489402770996,-1.4452794790267944
1773145754561740000,13.334739990234375,4.324624061584473,8.684602737426758,-1.43027663230896
1773145754579089000,13.3520888671875,4.520094871520996,8.585103988647461,-1.426578164100647
1773145754596437500,13.3694375,4.698176383972168,8.487458229064941,-1.4354710578918457
1773145754613786400,13.386786376953125,4.829992771148682,8.408775329589844,-1.4608405828475952
1773145754631135000,13.404135009765625,4.911629676818848,8.357224464416504,-1.4842784404754639
1773145754648483800,13.42148388671875,4.95067024230957,8.331877708435059,-1.4970108270645142
1773145754665832400,13.43883251953125,4.954466342926025,8.329233169555664,-1.4991750717163086
1773145754683181300,13.456181396484375,4.934493541717529,8.342449188232422,-1.4915437698364258
1773145754700530000,13.473530029296874,4.9093523025512695,8.358820915222168,-1.4828163385391235
1773145754717878500,13.49087841796875,4.899845600128174,8.365203857421875,-1.478266716003418
1773145754735227400,13.508227294921875,4.921310901641846,8.352651596069336,-1.4779354333877563
1773145754752576000,13.525575927734375,4.965972900390625,8.326009750366211,-1.4788669347763062
1773145754769924900,13.5429248046875,5.021974563598633,8.291820526123047,-1.4818428754806519
1773145754787273500,13.5602734375,5.081524848937988,8.255845069885254,-1.4797033071517944
1773145754804622300,13.577622314453125,5.150380611419678,8.216667175292969,-1.4595736265182495
1773145754821971000,13.594970947265624,5.226710796356201,8.177167892456055,-1.4091846942901611
1773145754839319600,13.612319580078125,5.297140598297119,8.144912719726562,-1.3308186531066895
1773145754856668400,13.62966845703125,5.354431629180908,8.121803283691406,-1.23965585231781
1773145754874017000,13.64701708984375,5.397469520568848,8.105655670166016,-1.1558798551559448
1773145754891366000,13.664365966796876,5.423900127410889,8.096104621887207,-1.0976274013519287
1773145754908714500,13.681714599609375,5.4141526222229,8.106925010681152,-1.0654088258743286
1773145754926063000,13.69906298828125,5.355808734893799,8.14891242980957,-1.0396791696548462
1773145754943412000,13.716411865234376,5.251740455627441,8.220736503601074,-1.0045419931411743
1773145754960760600,13.733760498046875,5.12026309967041,8.309895515441895,-0.9481167793273926
1773145754978109400,13.751109375,4.984131336212158,8.401209831237793,-0.8651593327522278
1773145754995458000,13.7684580078125,4.865689277648926,8.480018615722656,-0.764681875705719
1773145755012807000,13.785806884765625,4.7757086753845215,8.540077209472656,-0.655809223651886
1773145755030155500,13.803155517578125,4.710562229156494,8.58410358428955,-0.5423621535301208
1773145755047504400,13.82050439453125,4.658766746520996,8.618188858032227,-0.43943795561790466
1773145755064853000,13.83785302734375,4.616415977478027,8.644827842712402,-0.35502195358276367
1773145755082201600,13.85520166015625,4.5921125411987305,8.660696029663086,-0.2742914855480194
1773145755099550500,13.872550537109374,4.59782075881958,8.660110473632812,-0.18144498765468597
1773145755116899000,13.889899169921875,4.62721586227417,8.645946502685547,-0.08292246609926224
1773145755134248000,13.907248046875,4.668305397033691,8.6242094039917,0.017886433750391006
1773145755151596500,13.924596435546874,4.708343029022217,8.601584434509277,0.12093040347099304
1773145755168945200,13.941945068359376,4.756189823150635,8.573159217834473,0.22354480624198914
1773145755186294000,13.9592939453125,4.820164203643799,8.534516334533691,0.31373468041419983
1773145755203642600,13.976642578125,4.916914939880371,8.476689338684082,0.37425509095191956
1773145755220991500,13.993991455078126,5.051529407501221,8.39682674407959,0.38175487518310547
1773145755238340000,14.011340087890625,5.220242977142334,8.294658660888672,0.34365013241767883
1773145755255689000,14.02868896484375,5.402153015136719,8.179043769836426,0.3006425201892853
1773145755273037600,14.04603759765625,5.580749034881592,8.0585298538208,0.2927686870098114
1773145755290386200,14.06338623046875,5.754717826843262,7.934664726257324,0.30774083733558655
1773145755307735000,14.080735107421875,5.924639701843262,7.8078389167785645,0.32662296295166016
1773145755325083600,14.098083740234374,6.093590259552002,7.676006317138672,0.3427148163318634
1773145755342432500,14.1154326171875,6.25505256652832,7.544358253479004,0.3568858504295349
1773145755359781000,14.132781005859375,6.38435173034668,7.4355597496032715,0.35056838393211365
1773145755377130000,14.1501298828125,6.475709915161133,7.357994556427002,0.30901122093200684
1773145755394478600,14.167478515625,6.541715145111084,7.302160263061523,0.23410463333129883
1773145755411827500,14.184827392578125,6.6001129150390625,7.2515082359313965,0.15664301812648773
1773145755429176000,14.202176025390624,6.644801616668701,7.211519241333008,0.10480988025665283
1773145755446524700,14.219524658203126,6.664502143859863,7.1935715675354,0.08555877953767776
1773145755463873500,14.23687353515625,6.660594940185547,7.197286605834961,0.0770188421010971
1773145755481222100,14.25422216796875,6.651535987854004,7.205761432647705,0.06686335802078247
1773145755498571000,14.271571044921876,6.656105041503906,7.201627254486084,0.05667893961071968
1773145755515919600,14.288919677734375,6.677678108215332,7.181641101837158,0.05506671220064163
1773145755533268200,14.306268310546875,6.722534656524658,7.139368534088135,0.08563016355037689
