time,seconds_elapsed,z,y,x
1772698643987491800,0.088491943359375,8.044670104980469,5.804987907409668,-0.8973084688186646
1772698644004838400,0.10583837890625,8.71226692199707,6.017949104309082,1.4979069232940674
1772698644022185000,0.12318505859375,8.508877754211426,5.587240695953369,0.28953152894973755
1772698644039531500,0.140531494140625,7.6498541831970215,5.826523303985596,0.09092725813388824
1772698644056878000,0.157878173828125,6.666403770446777,5.515456199645996,-0.5120640397071838
1772698644074225000,0.175224853515625,5.594419479370117,5.422136306762695,-0.3852444589138031
1772698644091571500,0.192571533203125,5.017749309539795,5.680561065673828,0.2967100143432617
1772698644108918000,0.20991796875,5.453242778778076,5.412564754486084,-0.016749758273363113
1772698644126264600,0.2272646484375,4.878965377807617,5.111069202423096,-0.02632104977965355
1772698644143611100,0.244611083984375,4.811966419219971,4.393222332000732,0.6963114142417908
1772698644160957700,0.261957763671875,5.587240695953369,4.156332969665527,1.9860427379608154
1772698644178304300,0.27930419921875,5.802595138549805,3.689732551574707,2.723032236099243
1772698644195650800,0.29665087890625,5.527420520782471,2.730210542678833,2.6488547325134277
1772698644212997400,0.313997314453125,4.924428939819336,1.8951154947280884,1.6510475873947144
1772698644230344000,0.331343994140625,3.7878382205963135,1.2370892763137817,1.0600204467773438
1772698644247690500,0.3486904296875,2.8450660705566406,-0.04785645380616188,1.9621145725250244
1772698644265037000,0.366037109375,2.8354947566986084,-1.832902193069458,2.2444677352905273
1772698644282384000,0.3833837890625,2.6225335597991943,-2.581855535507202,3.060420274734497
1772698644299730400,0.40073046875,2.1918256282806396,-4.362115859985352,3.6705899238586426
1772698644317077000,0.418076904296875,1.7778671979904175,-5.0464630126953125,3.658625841140747
1772698644334423600,0.435423583984375,-1.191625714302063,-6.941578388214111,5.618347644805908
1772698644351770000,0.45277001953125,-0.6436693072319031,-8.176275253295898,6.850651264190674
1772698644369116700,0.47011669921875,0.4977070987224579,-9.927821159362793,7.850851058959961
1772698644386463200,0.487463134765625,2.3856441974639893,-11.162517547607422,7.558926582336426
1772698644403809800,0.504809814453125,2.9790642261505127,-12.41396427154541,8.24566650390625
1772698644421156400,0.52215625,5.37906551361084,-14.428720474243164,10.13599681854248
1772698644438503000,0.5395029296875,9.430113792419434,-15.16331672668457,11.621939659118652
1772698644455849500,0.556849365234375,12.088540077209473,-15.345171928405762,11.858829498291016
1772698644473196300,0.5741962890625,12.100503921508789,-15.251851081848145,12.148360252380371
1772698644490542800,0.59154296875,10.72702407836914,-15.546168327331543,11.23190975189209
1772698644507889400,0.608889404296875,12.500105857849121,-16.637296676635742,9.698110580444336
1772698644525236000,0.626236083984375,15.136996269226074,-16.97707748413086,10.140782356262207
1772698644542582500,0.64358251953125,15.890735626220703,-16.11326789855957,12.32542896270752
1772698644559929000,0.66092919921875,14.538790702819824,-15.926627159118652,12.708281517028809
1772698644577275600,0.678275634765625,14.349757194519043,-14.636896133422852,10.272387504577637
1772698644594622200,0.695622314453125,13.093525886535645,-13.95254898071289,7.858029365539551
1772698644611968800,0.71296875,11.284551620483398,-12.825529098510742,5.97727108001709
1772698644629315300,0.7303154296875,10.8969144821167,-11.983255386352539,5.941378593444824
1772698644646662000,0.747661865234375,9.738788604736328,-10.528419494628906,5.3455657958984375
1772698644664008700,0.7650087890625,7.735995769500732,-9.193224906921387,4.910071849822998
1772698644681355300,0.782355224609375,5.905486106872559,-7.436892986297607,3.8883368968963623
1772698644698701800,0.799701904296875,4.156332969665527,-6.695117950439453,3.572484254837036
1772698644716048400,0.81704833984375,2.761317253112793,-5.962913990020752,2.0267207622528076
1772698644733395000,0.83439501953125,1.703689694404602,-4.914857864379883,1.0121639966964722
1772698644750741500,0.851741455078125,-0.9690931439399719,-4.0319061279296875,0.24885354936122894
1772698644768088000,0.869088134765625,-4.4243292808532715,-4.163511276245117,1.1988041400909424
1772698644785434600,0.8864345703125,-2.3856441974639893,-4.0797624588012695,-0.08853443711996078
1772698644802781200,0.90378125,-2.148754835128784,-5.015356063842773,-1.8424733877182007
1772698644820128000,0.9211279296875,0.2679961323738098,-6.254838466644287,-4.551148891448975
1772698644837474600,0.938474609375,2.0578274726867676,-7.250252723693848,-6.585047721862793
1772698644854821000,0.955821044921875,2.3473589420318604,-6.850651264190674,-5.484349727630615
1772698644872167700,0.973167724609375,2.0817556381225586,-6.173482418060303,-3.838087558746338
1772698644889514200,0.99051416015625,0.6245267391204834,-5.302495002746582,-0.13639089465141296
1772698644906860800,1.00786083984375,2.3976082801818848,-8.015955924987793,1.222732424736023
1772698644924207400,1.025207275390625,11.897113800048828,-13.466805458068848,-3.2470602989196777
1772698644941554000,1.042553955078125,1.1078768968582153,-13.170095443725586,-4.275974273681641
1772698644958900500,1.059900390625,6.530013084411621,-13.722837448120117,-4.326223373413086
1772698644976247300,1.077247314453125,1.7730815410614014,-12.813565254211426,-3.9744784832000732
1772698644993593900,1.09459375,0.607776939868927,-13.122239112854004,-4.553541660308838
1772698645010940400,1.1119404296875,0.02632104977965355,-12.117254257202148,-3.452843189239502
1772698645028287000,1.129286865234375,0.3206382393836975,-12.490533828735352,-2.0554347038269043
1772698645045633500,1.146633544921875,2.4502503871917725,-12.251252174377441,-1.2179467678070068
1772698645062980000,1.16397998046875,3.713660717010498,-11.49512004852295,1.797009825706482
1772698645080326700,1.18132666015625,0.9547362327575684,-9.970891952514648,2.8139593601226807
1772698645097673200,1.198673095703125,2.115255117416382,-6.668796539306641,-4.924428939819336
1772698645115019800,1.216019775390625,-4.041477680206299,-11.148160934448242,10.04985523223877
1772698645132366300,1.233366455078125,4.053441524505615,-3.0867412090301514,10.212567329406738
1772698645149713000,1.250712890625,6.735795974731445,-6.726224422454834,-4.833501815795898
1772698645167059700,1.268059814453125,0.12203395366668701,-7.051648139953613,-9.274580955505371
1772698645184406300,1.28540625,0.4570291340351105,-7.1856465339660645,-6.001199245452881
1772698645201752800,1.3027529296875,1.4069796800613403,-6.709474563598633,-2.675175666809082
1772698645219099400,1.320099365234375,1.4380863904953003,-5.615954875946045,-0.7345965504646301
1772698645236446000,1.337446044921875,0.22013968229293823,-5.843272686004639,-4.194618225097656
1772698645253792500,1.35479248046875,1.246660590171814,-9.013762474060059,-2.0650060176849365
1772698645271139000,1.37213916015625,2.0865414142608643,-10.693524360656738,-1.526620864868164
1772698645288485600,1.389485595703125,2.854637384414673,-14.871393203735352,0.4259224236011505
1772698645305832400,1.40683251953125,3.029313564300537,-14.330615043640137,0.9092726111412048
1772698645323179000,1.424178955078125,1.887937068939209,-12.090932846069336,1.9286150932312012
1772698645340525600,1.441525634765625,1.588834285736084,-12.399606704711914,3.933800458908081
1772698645357872000,1.4588720703125,1.7252250909805298,-15.66820240020752,4.1347975730896
1772698645375218700,1.47621875,1.7084753513336182,-14.526825904846191,3.3164522647857666
1772698645392565200,1.493565185546875,1.3854442834854126,-13.701302528381348,2.857030153274536
1772698645409911800,1.510911865234375,2.2468605041503906,-12.543176651000977,2.4502503871917725
1772698645427258400,1.52825830078125,2.589034080505371,-12.234501838684082,1.6558332443237305
1772698645444605000,1.54560498046875,1.4261223077774048,-10.183853149414062,1.9836499691009521
1772698645461951500,1.562951416015625,1.1485549211502075,-6.537191390991211,1.9262222051620483
1772698645479298000,1.580298095703125,2.196611166000366,-2.8426733016967773,0.20338992774486542
1772698645496644900,1.597644775390625,2.0721843242645264,-8.382058143615723,0.6699903607368469
1772698645513991400,1.614991455078125,2.0650060176849365,-10.222138404846191,1.9764715433120728
1772698645531338000,1.632337890625,0.4570291340351105,-8.513663291931152,-0.15553347766399384
1772698645548684500,1.6496845703125,-0.12921242415905,-7.357929706573486,-0.5335994362831116
1772698645566031000,1.667031005859375,1.7563318014144897,-8.654839515686035,-0.4426721930503845
1772698645583377700,1.684377685546875,2.555534601211548,-11.274980545043945,0.014356935396790504
1772698645600724200,1.70172412109375,1.9573289155960083,-12.241681098937988,1.3758729696273804
1772698645618070800,1.71907080078125,0.9667003750801086,-12.478569984436035,1.2059825658798218
1772698645635417600,1.73641748046875,0.729810893535614,-12.141181945800781,0.882951557636261
1772698645652764200,1.75376416015625,0.9906286001205444,-9.45164966583252,1.3591232299804688
1772698645670110700,1.77111083984375,2.218146562576294,-8.86780071258545,1.098305583000183
1772698645687457300,1.788457275390625,1.8975083827972412,-8.405985832214355,0.6269195079803467
1772698645704803800,1.805803955078125,2.8905298709869385,1.7922241687774658,-3.926621913909912
1772698645722150400,1.823150390625,1.0049854516983032,-1.8807586431503296,-1.0289137363433838
1772698645739497000,1.8404970703125,1.4835500717163086,-18.84108543395996,4.242474555969238
1772698645756843500,1.857843505859375,3.4408788681030273,-22.47578239440918,3.900300979614258
1772698645774190000,1.875190185546875,2.730210542678833,-12.832707405090332,0.397208571434021
1772698645791536600,1.89253662109375,1.6869399547576904,-10.255638122558594,0.8279166221618652
1772698645808883200,1.90988330078125,0.41156548261642456,-8.726624488830566,0.7082754969596863
1772698645826230000,1.92722998046875,1.0480563640594482,-7.956135272979736,0.007178467698395252
1772698645843576600,1.94457666015625,1.5720844268798828,-7.934599876403809,0.16031911969184875
1772698645860923100,1.961923095703125,2.234896421432495,-8.212167739868164,0.6149554252624512
1772698645878269700,1.979269775390625,2.3258235454559326,-8.470592498779297,0.8303094506263733
1772698645895616300,1.9966162109375,1.7730815410614014,-8.49452018737793,0.9260223507881165
1772698645912962800,2.013962890625,0.9906286001205444,-8.382058143615723,0.9451649188995361
1772698645930309400,2.031309326171875,0.7800601720809937,-8.09970474243164,0.6939185857772827
1772698645947656000,2.048656005859375,1.098305583000183,-7.76470947265625,0.35413774847984314
1772698645965002800,2.066002685546875,1.5194423198699951,-7.568498134613037,0.12681959569454193
1772698645982349300,2.083349365234375,1.7228323221206665,-7.429714202880859,0.014356935396790504
1772698645999696000,2.10069580078125,1.6079767942428589,-7.219145774841309,-0.12203395366668701
1772698646017042400,2.11804248046875,1.2538390159606934,-6.853044033050537,-0.3732803463935852
1772698646034389000,2.135388916015625,1.0169496536254883,-6.441478729248047,-0.5958128571510315
1772698646051735600,2.152735595703125,1.0815558433532715,-6.027520179748535,-0.5790630578994751
1772698646069082000,2.17008203125,1.5361921787261963,-5.580062389373779,-0.2799602448940277
1772698646086428700,2.1874287109375,1.8975083827972412,-5.19960355758667,-0.05024927482008934
1772698646103775200,2.204775146484375,2.455035924911499,-5.4556355476379395,0.27756741642951965
1772698646121122000,2.2221220703125,2.885744094848633,-6.570691108703613,0.9332008361816406
1772698646138468600,2.239468505859375,2.837887763977051,-8.078168869018555,1.770688772201538
1772698646155815200,2.256815185546875,2.368894338607788,-8.987442016601562,2.366501569747925
1772698646173161700,2.27416162109375,1.947757601737976,-8.264809608459473,2.091326951980591
1772698646190508300,2.29150830078125,-0.15074782073497772,-8.788837432861328,2.1655044555664062
1772698646207854800,2.308854736328125,-1.7730815410614014,-18.037097930908203,2.4909284114837646
1772698646225201400,2.326201416015625,-2.148754835128784,-23.741586685180664,-4.792823791503906
1772698646242548000,2.3435478515625,-1.5696916580200195,-14.474184036254883,-6.496513366699219
1772698646259894500,2.36089453125,0.8350951075553894,-7.130611419677734,-2.179861545562744
1772698646277241300,2.378241455078125,4.814359188079834,-9.332008361816406,3.555734395980835
1772698646294588000,2.395587890625,7.700103282928467,-17.479568481445312,4.261617183685303
1772698646311934500,2.4129345703125,1.887937068939209,-17.33839225769043,6.029912948608398
1772698646329281000,2.430281005859375,0.8327022790908813,-16.000804901123047,5.280959606170654
1772698646346627600,2.447627685546875,-1.2729816436767578,-16.44826316833496,1.007378339767456
1772698646363974100,2.46497412109375,-0.5886343717575073,-15.838092803955078,-2.2205393314361572
1772698646381320700,2.48232080078125,1.4811571836471558,-14.153546333312988,-2.8426733016967773
1772698646398667300,2.499667236328125,3.2279176712036133,-11.152946472167969,-2.4646072387695312
1772698646416013800,2.517013916015625,2.770888566970825,-8.511270523071289,-1.306481122970581
1772698646433360600,2.534360595703125,1.2323036193847656,-6.685546398162842,-1.098305583000183
1772698646450707200,2.551707275390625,0.5455635786056519,-6.522834300994873,-1.3854442834854126
1772698646468053800,2.5690537109375,1.2681959867477417,-7.401000499725342,-1.7132610082626343
1772698646485400300,2.586400390625,1.8472590446472168,-8.511270523071289,-1.2801600694656372
1772698646502747000,2.603746826171875,1.5936198234558105,-9.614361763000488,-0.04785645380616188
1772698646520093400,2.621093505859375,0.9547362327575684,-10.01874828338623,0.9978070259094238
1772698646537440000,2.63843994140625,0.5910272002220154,-9.41336441040039,1.6103696823120117
1772698646554786800,2.655786865234375,0.9930213689804077,-8.437092781066895,1.8975083827972412
1772698646572133400,2.67313330078125,1.7635103464126587,-7.704888820648193,1.6031911373138428
1772698646589480000,2.69047998046875,2.3736801147460938,-7.444071292877197,1.1581261157989502
1772698646606826500,2.707826416015625,2.4765713214874268,-7.037291526794434,0.9092726111412048
1772698646624173000,2.725173095703125,2.359323024749756,-6.448657035827637,0.8111668825149536
1772698646641519600,2.74251953125,2.280359983444214,-6.50608491897583,0.8183453679084778
1772698646658866200,2.7598662109375,2.1439690589904785,-6.735795974731445,1.0265209674835205
1772698646676212700,2.777212646484375,1.954936146736145,-6.530013084411621,1.2658032178878784
1772698646693559300,2.794559326171875,2.0673987865448,-5.699703693389893,1.0839486122131348
1772698646710906000,2.811906005859375,2.266003131866455,-4.694717884063721,0.19142581522464752
1772698646728252700,2.829252685546875,2.2301106452941895,-4.058227062225342,-0.22492532432079315
1772698646745599200,2.84659912109375,1.8041882514953613,-4.364508628845215,0.8781659007072449
1772698646762945800,2.86394580078125,0.5862415432929993,-7.022934436798096,2.445464849472046
1772698646780292400,2.881292236328125,0.576670229434967,-9.851250648498535,2.4502503871917725
1772698646797639000,2.898638916015625,1.550549030303955,-10.679167747497559,1.7012969255447388
1772698646814985500,2.9159853515625,2.6225335597991943,-9.750752449035645,0.7393822073936462
1772698646832332300,2.933332275390625,2.9862427711486816,-8.918049812316895,-0.4019941985607147
1772698646849678800,2.950678955078125,2.3856441974639893,-8.37727165222168,-1.9453648328781128
1772698646867025400,2.968025390625,1.8376877307891846,-8.018348693847656,-4.661218643188477
1772698646884372000,2.9853720703125,3.139383316040039,-9.748359680175781,-6.735795974731445
1772698646901718500,3.002718505859375,3.328416347503662,-11.466405868530273,-5.388636589050293
1772698646919065000,3.020065185546875,2.495713949203491,-13.452448844909668,0.26081767678260803
1772698646936411600,3.03741162109375,1.2897313833236694,-18.805192947387695,3.3547372817993164
1772698646953758200,3.05475830078125,0.20099709928035736,-25.1485652923584,4.864608287811279
1772698646971105000,3.07210498046875,0.5120640397071838,-26.08176612854004,5.522634506225586
1772698646988451600,3.08945166015625,0.44745782017707825,-19.51346778869629,5.216353416442871
1772698647005798100,3.106798095703125,2.5770699977874756,-13.04088306427002,3.680161237716675
1772698647023144700,3.124144775390625,5.010570526123047,-9.198010444641113,1.7874385118484497
1772698647040491300,3.1414912109375,5.314459323883057,-8.233702659606934,0.9978070259094238
1772698647057837800,3.158837890625,3.9625144004821777,-9.664610862731934,1.0121639966964722
1772698647075184600,3.1761845703125,1.9453648328781128,-10.030712127685547,1.4691931009292603
1772698647092531200,3.19353125,0.4211367964744568,-9.9469633102417,1.9142581224441528
1772698647109877800,3.210877685546875,0.22013968229293823,-9.42772102355957,1.9597218036651611
1772698647127224300,3.228224365234375,0.727418065071106,-8.154739379882812,1.3830515146255493
1772698647144571000,3.24557080078125,1.1054840087890625,-6.809973239898682,0.1818545162677765
1772698647161917400,3.26291748046875,1.6606189012527466,-5.946164131164551,-1.2299108505249023
1772698647179264000,3.280263916015625,2.0985054969787598,-5.910272121429443,-2.3258235454559326
1772698647196610600,3.297610595703125,2.203789710998535,-6.305087566375732,-2.675175666809082
1772698647213957400,3.314957275390625,2.076970100402832,-6.589833736419678,-2.368894338607788
1772698647231304000,3.332303955078125,1.8400806188583374,-7.101897716522217,-1.4979069232940674
1772698647248650500,3.349650390625,1.7324036359786987,-7.664210796356201,-0.7657032608985901
1772698647265997000,3.3669970703125,1.7826528549194336,-8.118846893310547,0.01196411345154047
1772698647283343600,3.384343505859375,1.7515461444854736,-8.248059272766113,0.7872386574745178
1772698647300690200,3.401690185546875,1.734796404838562,-8.228917121887207,1.4165509939193726
1772698647318036700,3.41903662109375,1.8807586431503296,-8.35573673248291,1.8161523342132568
1772698647335383300,3.43638330078125,1.6247265338897705,-8.602197647094727,1.7443677186965942
1772698647352730000,3.453730224609375,1.7515461444854736,-8.551948547363281,1.2275179624557495
1772698647370076700,3.47107666015625,1.1365907192230225,-8.425128936767578,0.9762716293334961
1772698647387423200,3.48842333984375,0.7800601720809937,-7.960920810699463,1.0504491329193115
1772698647404769800,3.505769775390625,1.0432707071304321,-7.164111137390137,1.196411371231079
1772698647422116400,3.523116455078125,1.9214365482330322,-6.020341873168945,1.526620864868164
1772698647439463200,3.540463134765625,3.2781670093536377,-4.898108005523682,1.8376877307891846
1772698647456809700,3.557809814453125,4.374079704284668,-4.5822553634643555,2.8833513259887695
1772698647474156300,3.57515625,3.735196113586426,-5.931807518005371,3.84765887260437
1772698647491502800,3.5925029296875,2.6464617252349854,-7.884350776672363,3.9218363761901855
1772698647508849400,3.609849365234375,1.9310078620910645,-9.075976371765137,3.184846878051758
1772698647526196000,3.627196044921875,1.7611174583435059,-9.207581520080566,1.6654045581817627
1772698647543542500,3.64454248046875,-0.17228323221206665,-11.810972213745117,1.7754744291305542
1772698647560889000,3.66188916015625,1.397408366203308,-22.217357635498047,2.256431818008423
1772698647578236000,3.67923583984375,-7.264609336853027,-30.850662231445312,-5.26899528503418
1772698647595582500,3.69658251953125,-3.3547372817993164,-16.307086944580078,-5.407779216766357
1772698647612929000,3.713928955078125,2.2779672145843506,-8.209774017333984,-3.6394832134246826
1772698647630275600,3.731275634765625,5.682953834533691,-5.44845724105835,-1.825723648071289
1772698647647622100,3.7486220703125,8.798408508300781,-10.920842170715332,-1.2011969089508057
1772698647664968700,3.76596875,4.005585193634033,-15.254244804382324,0.11724831163883209
1772698647682315300,3.783315185546875,-1.8113667964935303,-12.468998908996582,-1.5385849475860596
1772698647699662000,3.800662109375,-0.6795616149902344,-12.772887229919434,-2.2205393314361572
1772698647717008600,3.818008544921875,0.17228323221206665,-13.823336601257324,-1.1892328262329102
1772698647734355200,3.835355224609375,1.3304094076156616,-13.648660659790039,0.040677983313798904
1772698647751701800,3.85270166015625,2.6775684356689453,-11.885149955749512,0.24406790733337402
1772698647769048300,3.87004833984375,2.431107759475708,-10.04985523223877,-0.11246266216039658
1772698647786395000,3.887394775390625,1.828116536140442,-8.82951545715332,0.34217363595962524
1772698647803741400,3.904741455078125,1.423729419708252,-7.843672752380371,0.7513462901115417
1772698647821088300,3.922088134765625,1.4141582250595093,-7.549355506896973,1.4261223077774048
1772698647838434800,3.939434814453125,1.5050854682922363,-7.7455668449401855,1.9214365482330322
1772698647855781400,3.956781494140625,1.6558332443237305,-8.070990562438965,2.3306093215942383
1772698647873128000,3.9741279296875,1.3184453248977661,-8.496912956237793,2.3306093215942383
1772698647890474500,3.991474609375,1.2921242713928223,-8.606983184814453,2.495713949203491
1772698647907821000,4.008821044921875,1.2562319040298462,-8.011170387268066,2.4023938179016113
1772698647925167600,4.026167724609375,1.5314065217971802,-7.3675007820129395,2.3617160320281982
1772698647942514400,4.043514404296875,1.947757601737976,-6.742974281311035,2.4909284114837646
1772698647959861000,4.060861083984375,1.8233308792114258,-6.498906135559082,2.337787628173828
1772698647977207600,4.07820751953125,1.7850457429885864,-6.374479293823242,1.648654818534851
1772698647994554000,4.09555419921875,1.8161523342132568,-6.850651264190674,0.9116654396057129
1772698648011900700,4.112900634765625,1.6582261323928833,-7.341179847717285,-0.33499518036842346
1772698648029247200,4.130247314453125,1.28255295753479,-8.13081169128418,-1.4835500717163086
1772698648046593800,4.14759375,0.3158525824546814,-8.556734085083008,-1.5170495510101318
1772698648063940600,4.164940673828125,-0.18424734473228455,-8.23848819732666,-0.20578274130821228
1772698648081287200,4.182287109375,0.9667003750801086,-8.00638484954834,0.5790630578994751
1772698648098633700,4.1996337890625,1.892722725868225,-7.609176158905029,0.5335994362831116
1772698648115980300,4.216980224609375,2.620140790939331,-7.226324558258057,0.4785645306110382
1772698648133326800,4.234326904296875,2.5698914527893066,-6.97268533706665,-0.41874396800994873
1772698648150673400,4.25167333984375,2.3090739250183105,-7.769495010375977,-1.057627558708191
1772698648168020200,4.269020263671875,2.926422119140625,-8.248059272766113,-0.9188438653945923
1772698648185366800,4.28636669921875,3.239881753921509,-8.654839515686035,-0.11006984114646912
1772698648202713300,4.30371337890625,1.8616160154342651,-9.315258979797363,-0.3732803463935852
1772698648220060000,4.321059814453125,1.4691931009292603,-9.164510726928711,-1.1988041400909424
1772698648237406500,4.338406494140625,1.7850457429885864,-10.470992088317871,-1.9214365482330322
1772698648254753000,4.3557529296875,1.2059825658798218,-12.736994743347168,-1.1054840087890625
1772698648272099800,4.373099853515625,1.1868400573730469,-13.701302528381348,2.541177749633789
1772698648289446400,4.3904462890625,0.7585247755050659,-15.230316162109375,4.6372904777526855
1772698648306793000,4.40779296875,0.9882357716560364,-17.151752471923828,4.816751956939697
1772698648324139500,4.425139404296875,1.301695466041565,-18.137596130371094,3.321237802505493
1772698648341486000,4.442486083984375,2.9048867225646973,-17.01775550842285,1.581655740737915
1772698648358832600,4.45983251953125,3.2853455543518066,-14.34736442565918,2.139183521270752
1772698648376179200,4.47717919921875,2.5363919734954834,-13.060026168823242,2.9240293502807617
1772698648393526000,4.494526123046875,2.5220351219177246,-12.454642295837402,2.4981069564819336
1772698648410872600,4.51187255859375,2.421536445617676,-11.265409469604492,0.9858429431915283
1772698648428219100,4.52921923828125,2.5674986839294434,-10.076175689697266,-0.04785645380616188
1772698648445565700,4.546565673828125,1.9381862878799438,-9.45882797241211,-0.2632105052471161
1772698648462912300,4.563912353515625,2.4741785526275635,-8.571090698242188,0.007178467698395252
1772698648480258800,4.5812587890625,2.919243574142456,-8.0350980758667,0.7226324677467346
1772698648497605600,4.598605712890625,2.423929452896118,-7.597211837768555,0.7800601720809937
1772698648514952200,4.6159521484375,1.710868239402771,-7.582854747772217,0.30149564146995544
1772698648532298800,4.633298828125,1.5122638940811157,-7.740781307220459,-0.3086741268634796
1772698648549645300,4.650645263671875,1.6606189012527466,-8.001599311828613,-0.6795616149902344
1772698648566992000,4.667991943359375,2.00518536567688,-8.176275253295898,-0.6436693072319031
1772698648584338700,4.685338623046875,2.203789710998535,-8.176275253295898,-0.5024927258491516
1772698648601685200,4.702685302734375,2.4502503871917725,-7.960920810699463,-0.12203395366668701
1772698648619031800,4.72003173828125,2.3306093215942383,-7.700103282928467,0.4618147611618042
1772698648636378400,4.73737841796875,2.1846470832824707,-7.599604606628418,0.638883650302887
1772698648653725000,4.754724853515625,2.0243279933929443,-7.9585280418396,1.0648061037063599
1772698648671071500,4.772071533203125,1.9645073413848877,-8.209774017333984,1.1198409795761108
1772698648688418300,4.789418212890625,1.6295121908187866,-8.561519622802734,1.368694543838501
1772698648705764900,4.806764892578125,1.430907964706421,-8.748159408569336,1.3040883541107178
1772698648723111400,4.824111328125,1.1341979503631592,-8.444271087646484,1.2418749332427979
1772698648740458000,4.8414580078125,0.27756741642951965,-7.805387496948242,1.3208380937576294
1772698648757804500,4.858804443359375,0.6197410821914673,-6.405586242675781,1.3184453248977661
1772698648775151000,4.876151123046875,2.2779672145843506,-3.8883368968963623,1.2251251935958862
1772698648792498000,4.893497802734375,3.8979079723358154,-1.428515076637268,1.210768222808838
1772698648809844500,4.910844482421875,3.9864425659179688,-2.7254250049591064,2.390429735183716
1772698648827191000,4.92819091796875,4.022335052490234,-6.1950178146362305,2.778067111968994
1772698648844537600,4.94553759765625,2.837887763977051,-10.607382774353027,3.139383316040039
1772698648861884200,4.96288427734375,0.9547362327575684,-13.203595161437988,2.620140790939331
1772698648879231000,4.98023095703125,0.8039883971214294,-12.026326179504395,0.6867401003837585
1772698648896577500,4.99757763671875,0.4713860750198364,-9.643074989318848,-0.22971096634864807
1772698648913924000,5.014924072265625,-0.41874396800994873,-9.903892517089844,0.35892340540885925
1772698648931270700,5.032270751953125,-0.3086741268634796,-16.11326789855957,-0.17706887423992157
1772698648948617200,5.0496171875,-1.612762451171875,-22.466211318969727,-4.522434711456299
1772698648965963800,5.0669638671875,-2.122433662414551,-16.847864151000977,-5.481956481933594
1772698648983310600,5.084310546875,2.0243279933929443,-8.898907661437988,-2.7637102603912354
1772698649000657200,5.1016572265625,5.218746185302734,-7.216753005981445,0.7657032608985901
1772698649018003700,5.119003662109375,6.97986364364624,-13.335200309753418,2.667997360229492
1772698649035350300,5.136350341796875,2.0482561588287354,-13.995619773864746,3.926621913909912
1772698649052696800,5.15369677734375,0.9116654396057129,-12.624532699584961,2.256431818008423
1772698649070043600,5.171043701171875,-0.33020952343940735,-14.467005729675293,1.0456634759902954
1772698649087390200,5.18839013671875,-1.153340458869934,-16.01276969909668,0.4091726839542389
1772698649104736800,5.20573681640625,-0.014356935396790504,-14.1918306350708,0.23688943684101105
1772698649122083300,5.223083251953125,2.3186452388763428,-11.84447193145752,-0.16031911969184875
1772698649139430000,5.240429931640625,3.1513473987579346,-9.34875774383545,-0.6675975322723389
1772698649156776400,5.2577763671875,2.1032910346984863,-8.097311973571777,-0.42352959513664246
1772698649174123300,5.275123291015625,0.9978070259094238,-8.398807525634766,0.349352091550827
1772698649191469800,5.2924697265625,0.7920243144035339,-9.205188751220703,1.0791629552841187
1772698649208816400,5.30981640625,0.7106683254241943,-9.705288887023926,1.2346965074539185
1772698649226163000,5.327162841796875,0.8949156403541565,-9.571290969848633,0.9810572862625122
1772698649243509500,5.344509521484375,1.155733346939087,-8.941978454589844,1.0791629552841187
1772698649260856000,5.36185595703125,1.4572290182113647,-8.2695951461792,1.2346965074539185
1772698649278203000,5.379202880859375,1.8041882514953613,-7.747959613800049,1.3830515146255493
1772698649304222700,5.40522265625,2.148754835128784,-7.444071292877197,1.3543375730514526
1772698649321569300,5.4225693359375,2.392822742462158,-7.3746795654296875,0.9020941257476807
1772698649338915800,5.439915771484375,2.6392834186553955,-7.341179847717285,0.3924229145050049
1772698649356262400,5.457262451171875,2.6464617252349854,-7.642675399780273,0.48095735907554626
1772698649373609200,5.474609130859375,2.0889341831207275,-7.908278942108154,0.7752745151519775
1772698649390955800,5.491955810546875,1.191625714302063,-8.293522834777832,0.7872386574745178
1772698649408302300,5.50930224609375,0.8207381963729858,-8.539983749389648,0.46899324655532837
1772698649425649000,5.52664892578125,1.1270195245742798,-8.300702095031738,0.44027936458587646
1772698649442995500,5.543995361328125,1.2346965074539185,-7.747959613800049,0.8183453679084778
1772698649460342000,5.561342041015625,1.0911271572113037,-7.2335028648376465,0.9212366938591003
1772698649477688800,5.578688720703125,1.3591232299804688,-6.941578388214111,0.7393822073936462
1772698649495035400,5.596035400390625,1.7060825824737549,-7.0683979988098145,0.24167509377002716
1772698649512382000,5.6133818359375,2.170290231704712,-7.214360237121582,-0.5599204897880554
1772698649529728500,5.630728515625,2.9288148880004883,-7.472784996032715,-0.7896314859390259
1772698649547075000,5.648074951171875,3.2997024059295654,-7.479963779449463,-0.8183453679084778
1772698649564421600,5.665421630859375,3.187239646911621,-6.771687984466553,-0.7896314859390259
1772698649581768400,5.6827685546875,3.122633457183838,-6.192625045776367,-0.6340979933738708
1772698649599115000,5.700114990234375,3.13220477104187,-5.843272686004639,-0.5359922647476196
1772698649616461600,5.717461669921875,2.6871397495269775,-7.058826923370361,-0.2584248483181
1772698649633808100,5.73480810546875,2.1990039348602295,-9.93260669708252,-0.10289137065410614
1772698649651155000,5.752155029296875,1.978864312171936,-15.804593086242676,0.10289137065410614
1772698649668501500,5.76950146484375,1.703689694404602,-21.741186141967773,2.5770699977874756
1772698649685848000,5.78684814453125,-0.02871387079358101,-18.398412704467773,5.024927616119385
1772698649703194600,5.804194580078125,0.05742774158716202,-14.390435218811035,3.7782669067382812
1772698649720541200,5.821541259765625,1.0336993932724,-13.36870002746582,2.091326951980591
1772698649737887700,5.8388876953125,3.122633457183838,-13.706088066101074,1.0480563640594482
1772698649755234600,5.856234619140625,4.957928657531738,-13.816158294677734,2.493321180343628
1772698649772581000,5.8735810546875,3.3858439922332764,-12.799208641052246,4.668396949768066
1772698649789927700,5.890927734375,1.5146567821502686,-11.69851016998291,5.125426292419434
1772698649807274200,5.908274169921875,1.0456634759902954,-10.61695384979248,3.8261234760284424
1772698649824620800,5.925620849609375,1.7132610082626343,-9.513862609863281,2.2707886695861816
1772698649841967600,5.942967529296875,2.0171494483947754,-8.906085968017578,0.9571290612220764
1772698649859314200,5.960314208984375,1.8759729862213135,-8.994620323181152,0.32542386651039124
1772698649876660700,5.97766064453125,2.0410776138305664,-8.920442581176758,0.08374879509210587
1772698649894007300,5.99500732421875,2.148754835128784,-8.276773452758789,0.5407779216766357
1772698649911353900,6.012353759765625,1.852044701576233,-7.659425258636475,0.760917603969574
1772698649928700700,6.02970068359375,1.6773686408996582,-7.496713161468506,0.519242525100708
1772698649946047200,6.047047119140625,1.7850457429885864,-7.731209754943848,0.08374879509210587
1772698649963393800,6.064393798828125,2.0865414142608643,-8.257631301879883,-0.16749759018421173
1772698649980740400,6.081740234375,2.2061824798583984,-8.688339233398438,-0.02392822690308094
1772698649998087000,6.0990869140625,2.1343977451324463,-8.6907320022583,0.3684946894645691
1772698650015433700,6.116433837890625,1.9142581224441528,-8.34138011932373,0.7561319470405579
1772698650032780300,6.1337802734375,1.7060825824737549,-7.81974458694458,0.9786644577980042
1772698650050126800,6.151126953125,1.5984054803848267,-7.322037220001221,1.1389836072921753
1772698650067473400,6.168473388671875,1.7276179790496826,-6.766902446746826,1.581655740737915
1772698650084820000,6.185820068359375,1.8089739084243774,-6.173482418060303,2.1774685382843018
1772698650102166800,6.203166748046875,1.550549030303955,-5.687739372253418,2.0578274726867676
1772698650119513300,6.220513427734375,1.404586911201477,-6.087340831756592,1.1413763761520386
1772698650136860000,6.23785986328125,1.5385849475860596,-7.386643409729004,0.0933200865983963
1772698650154206500,6.25520654296875,2.258824586868286,-8.6907320022583,-0.641276478767395
1772698650171553300,6.27255322265625,2.5842485427856445,-8.48016357421875,-0.3732803463935852
1772698650188899800,6.28989990234375,3.077169895172119,-7.456035137176514,1.6414763927459717
1772698650206246400,6.307246337890625,3.565305709838867,-6.2189459800720215,3.3954153060913086
1772698650223593000,6.324593017578125,3.981656789779663,-5.434100151062012,3.9792640209198
1772698650240939500,6.341939453125,3.792623996734619,-6.764509677886963,4.828716278076172
1772698650258286300,6.359286376953125,2.7421748638153076,-8.437092781066895,4.833501815795898
1772698650275633000,6.3766328125,2.029113531112671,-9.870393753051758,4.4482574462890625
1772698650292979500,6.3939794921875,1.730010747909546,-10.96869945526123,3.9433717727661133
1772698650310326000,6.411325927734375,-0.9834501147270203,-12.739387512207031,4.280759811401367
1772698650327672600,6.428672607421875,2.1655044555664062,-20.145174026489258,5.44845724105835
1772698650345019100,6.44601904296875,-6.1328043937683105,-26.31626319885254,-1.3878371715545654
1772698650362366000,6.463365966796875,-2.242074728012085,-16.747365951538086,-4.960321426391602
1772698650379712500,6.48071240234375,3.1130621433258057,-8.544769287109375,-4.5822553634643555
1772698650397059000,6.49805908203125,6.996613502502441,-6.604190349578857,-2.871387243270874
1772698650414405600,6.515405517578125,11.291729927062988,-11.236695289611816,-0.672383189201355
1772698650431752200,6.532752197265625,3.304488182067871,-10.753344535827637,3.0077781677246094
1772698650449099000,6.55009912109375,-1.6247265338897705,-9.968499183654785,2.163111686706543
1772698650466445600,6.567445556640625,-2.2229323387145996,-11.880364418029785,-1.1318050622940063
1772698650483792100,6.584792236328125,-1.6366907358169556,-15.732809066772461,-3.0484559535980225
1772698650501138700,6.602138671875,0.7130611538887024,-17.709280014038086,-3.4241292476654053
1772698650518485200,6.6194853515625,1.7539390325546265,-14.050654411315918,-2.7421748638153076
1772698650535832000,6.63683203125,2.146361827850342,-10.521241188049316,-1.3232308626174927
1772698650553178600,6.6541787109375,2.5986053943634033,-8.111668586730957,0
1772698650570525200,6.671525146484375,2.1367905139923096,-6.984649181365967,0.7322037220001221
1772698650587871700,6.688871826171875,1.852044701576233,-7.848458290100098,0.8255237936973572
1772698650605218300,6.70621826171875,1.7443677186965942,-8.81515884399414,0.8781659007072449
1772698650622565000,6.723565185546875,1.8185452222824097,-9.126225471496582,1.1318050622940063
1772698650639911700,6.74091162109375,2.0003998279571533,-9.025727272033691,1.8711873292922974
1772698650657258200,6.75825830078125,2.124826431274414,-8.398807525634766,2.8761727809906006
1772698650674604800,6.775604736328125,2.1678972244262695,-7.221538543701172,3.321237802505493
1772698650691951400,6.792951416015625,2.713460922241211,-6.147161483764648,3.0077781677246094
1772698650709298200,6.810298095703125,3.572484254837036,-5.529813289642334,2.510071039199829
1772698650726644700,6.827644775390625,3.9146578311920166,-5.639883041381836,2.581855535507202
1772698650743991300,6.8449912109375,3.304488182067871,-6.331408500671387,2.6009981632232666
1772698650761337900,6.862337890625,1.8951154947280884,-7.015756130218506,2.368894338607788
1772698650778684400,6.879684326171875,1.3591232299804688,-7.269395351409912,1.4333007335662842
1772698650796031200,6.89703125,1.3184453248977661,-7.221538543701172,0.28953152894973755
1772698650813377800,6.914377685546875,1.911865234375,-7.36032247543335,0.4259224236011505
1772698650830724400,6.931724365234375,2.3952155113220215,-7.302894592285156,0.7992027401924133
1772698650848071000,6.94907080078125,3.1992039680480957,-7.913064479827881,1.1054840087890625
1772698650865417700,6.966417724609375,3.4002010822296143,-8.346165657043457,1.2658032178878784
1772698650882764300,6.983764404296875,3.1417760848999023,-8.654839515686035,1.3280165195465088
1772698650900110800,7.00111083984375,2.4717857837677,-9.061619758605957,0.6819544434547424
1772698650917457400,7.01845751953125,2.4358935356140137,-9.20279598236084,-0.6245267391204834
1772698650934804000,7.035803955078125,3.098705291748047,-9.037691116333008,-1.7419748306274414
1772698650952150800,7.05315087890625,3.3571300506591797,-8.58784008026123,-3.1106693744659424
1772698650969497300,7.070497314453125,3.7423746585845947,-9.482755661010742,-4.48414945602417
1772698650986844000,7.087843994140625,2.9144580364227295,-12.368500709533691,-4.541577339172363
1772698651004190500,7.1051904296875,0.6197410821914673,-13.99801254272461,-2.366501569747925
1772698651021537000,7.122537109375,0.2105683982372284,-14.55793285369873,0.8949156403541565
1772698651038883800,7.1398837890625,-0.42831525206565857,-17.517854690551758,3.5126636028289795
1772698651056230400,7.15723046875,-1.428515076637268,-20.130817413330078,5.254638671875
1772698651073577000,7.174576904296875,-1.0049854516983032,-18.86979866027832,5.257031440734863
1772698651090923500,7.191923583984375,1.7156537771224976,-15.972090721130371,5.247459888458252
1772698651108270000,7.20927001953125,4.754538536071777,-12.775279998779297,3.510270833969116
1772698651125617000,7.226616943359375,5.340780258178711,-11.219944953918457,2.234896421432495
1772698651142963500,7.24396337890625,3.0556344985961914,-10.430314064025879,1.7204394340515137
1772698651160310000,7.26131005859375,0.31824541091918945,-9.681360244750977,1.2681959867477417
1772698651177656600,7.278656494140625,-0.2584248483181,-8.886942863464355,1.0648061037063599
1772698651195003100,7.296003173828125,-0.5455635786056519,-8.044670104980469,0.7010970115661621
1772698651212350000,7.313349853515625,0.22492532432079315,-7.283751964569092,0.064606212079525
1772698651229696500,7.330696533203125,1.6965112686157227,-6.8171515464782715,-0.9284151792526245
1772698651247043000,7.34804296875,2.4047868251800537,-6.719046115875244,-1.8376877307891846
1772698651264390000,7.365389892578125,1.9956140518188477,-7.051648139953613,-2.1272194385528564
1772698651281736400,7.382736328125,1.4620146751403809,-7.2430739402771,-1.7180466651916504
1772698651299083000,7.4000830078125,1.3878371715545654,-7.690532207489014,-0.7489534616470337
1772698651316429600,7.4174296875,1.9357935190200806,-8.221738815307617,0.5551348328590393
1772698651333776100,7.434776123046875,2.4430718421936035,-8.803194046020508,1.6295121908187866
1772698651351123000,7.452123046875,2.6153552532196045,-9.312865257263184,2.3856441974639893
1772698651368469500,7.469469482421875,2.6321048736572266,-9.506684303283691,2.6249263286590576
1772698651385816000,7.486816162109375,2.5914268493652344,-9.554540634155273,2.53399920463562
1772698651403162600,7.50416259765625,2.912065267562866,-9.853643417358398,2.6153552532196045
1772698651420509200,7.52150927734375,2.8450660705566406,-10.152746200561523,2.5363919734954834
1772698651437856000,7.53885595703125,1.7994025945663452,-9.595218658447266,1.8496519327163696
1772698651455202600,7.55620263671875,1.8113667964935303,-9.21715259552002,1.552941918373108
1772698651472549000,7.573549072265625,3.122633457183838,-9.355937004089355,1.1581261157989502
1772698651489896000,7.59089599609375,4.890929698944092,-10.320243835449219,1.9836499691009521
1772698651507242500,7.608242431640625,5.029713153839111,-11.057233810424805,3.8572301864624023
1772698651524589000,7.625589111328125,3.0580272674560547,-11.992827415466309,4.986642360687256
1772698651541935600,7.642935546875,1.0791629552841187,-13.634303092956543,4.163511276245117
1772698651559282200,7.6602822265625,-0.8709874153137207,-13.596017837524414,0.27038896083831787
1772698651576629000,7.67762890625,0.4450650215148926,-14.6608247756958,-2.9455647468566895
1772698651593975600,7.6949755859375,1.552941918373108,-14.026726722717285,-4.479363918304443
1772698651611322000,7.712322021484375,-0.5216353535652161,-12.547962188720703,-1.3758729696273804
1772698651628668700,7.729668701171875,-4.48414945602417,-12.205788612365723,0.24406790733337402
1772698651646015500,7.747015380859375,-3.8572301864624023,-10.77966594696045,1.277767300605774
1772698651663362000,7.764362060546875,-1.9956140518188477,-7.467999458312988,0.42831525206565857
1772698651680708600,7.78170849609375,-0.7776673436164856,-5.398207664489746,-0.5670989751815796
1772698651698055200,7.79905517578125,-0.8709874153137207,-5.938985824584961,-0.5670989751815796
1772698651715402000,7.816402099609375,-0.8805587291717529,-6.632904529571533,-1.797009825706482
1772698651732748500,7.83374853515625,-1.521835207939148,-7.630711555480957,-3.7256247997283936
1772698651750095000,7.85109521484375,-1.3423734903335571,-10.77966594696045,-5.661418437957764
1772698651767441700,7.868441650390625,0.8398807644844055,-13.416556358337402,-5.312066078186035
1772698651784788200,7.885788330078125,0.40677985548973083,-10.643275260925293,-2.957528829574585
1772698651802135000,7.903135009765625,-0.638883650302887,-7.8819580078125,-1.7778671979904175
1772698651819481600,7.920481689453125,-0.4211367964744568,-7.436892986297607,-1.3471591472625732
1772698651836828200,7.937828125,0.2153540402650833,-8.906085968017578,-1.0121639966964722
1772698651854174700,7.9551748046875,0.22013968229293823,-10.504491806030273,-0.23210379481315613
1772698651871521500,7.972521484375,0.1986042857170105,-11.44247817993164,0.4426721930503845
1772698651888868000,7.9898681640625,0.2679961323738098,-10.935199737548828,0.8207381963729858
1772698651906214700,8.007214599609375,0.29431718587875366,-9.879964828491211,0.6843472719192505
1772698651923561200,8.024561279296876,0.7680960893630981,-9.4061861038208,0.519242525100708
1772698651940907800,8.04190771484375,1.0480563640594482,-9.44447135925293,0.45224347710609436
1772698651958254600,8.059254638671876,1.0289137363433838,-9.681360244750977,0.7728816866874695
1772698651975601200,8.07660107421875,0.8470591902732849,-9.863214492797852,1.3782658576965332
1772698651992947700,8.09394775390625,0.5312066078186035,-9.994820594787598,1.8640087842941284
1772698652010294300,8.111294189453124,0.5431707501411438,-9.820143699645996,2.0578274726867676
1772698652027641000,8.12864111328125,0.8949156403541565,-9.533005714416504,2.100898265838623
1772698652044987600,8.145987548828124,1.3232308626174927,-9.272188186645508,2.084148406982422
1772698652062334200,8.163334228515625,1.5649060010910034,-8.918049812316895,2.0985054969787598
1772698652079680800,8.1806806640625,1.428515076637268,-8.50169849395752,1.7395820617675781
1772698652097027300,8.19802734375,1.1054840087890625,-8.439485549926758,1.0528420209884644
1772698652114374100,8.2153740234375,0.8111668825149536,-8.874979019165039,0.4091726839542389
1772698652131720700,8.232720703125,0.6532405614852905,-9.607182502746582,-0.10767702013254166
1772698652149067300,8.2500673828125,0.9379864931106567,-9.982855796813965,-0.30149564146995544
1772698652166413800,8.267413818359374,1.275374412536621,-9.705288887023926,-0.26081767678260803
1772698652183760400,8.284760498046875,1.3710874319076538,-9.504291534423828,0.26560330390930176
1772698652201107200,8.302107177734374,1.4213366508483887,-9.600004196166992,0.7250252366065979
1772698652218453800,8.319453857421875,1.215553879737854,-9.767501831054688,0.8781659007072449
1772698652235800300,8.33680029296875,0.37806597352027893,-10.494919776916504,0.8350951075553894
1772698652253147100,8.354147216796875,0.519242525100708,-11.519047737121582,1.1581261157989502
1772698652270493700,8.37149365234375,0.08614161610603333,-10.863414764404297,0.8733802437782288
1772698652287840300,8.38884033203125,-0.11964113265275955,-9.741181373596191,0.47617170214653015
1772698652305186800,8.406186767578125,-0.8398807644844055,-8.930013656616211,-0.08374879509210587
1772698652322533400,8.423533447265624,-1.6462619304656982,-8.824729919433594,-1.3567304611206055
1772698652339880200,8.440880126953125,-2.122433662414551,-9.571290969848633,-2.5842485427856445
1772698652357226800,8.458226806640624,-1.9669002294540405,-10.097711563110352,-3.445664644241333
1772698652374573300,8.4755732421875,-1.8831514120101929,-9.817750930786133,-3.4576287269592285
1772698652391919900,8.492919921875,-1.679761528968811,-9.351150512695312,-2.8211379051208496
1772698652409266700,8.5102666015625,-1.4380863904953003,-9.095118522644043,-1.4165509939193726
1772698652426613200,8.52761328125,-1.2969099283218384,-10.071390151977539,0.8877372145652771
1772698652443959800,8.544959716796875,-0.7585247755050659,-12.40439224243164,3.6466617584228516
1772698652461306400,8.562306396484376,-0.07657032459974289,-15.081960678100586,6.233303070068359
1772698652478653200,8.579653076171875,-0.8709874153137207,-15.409777641296387,6.69990348815918
1772698652495999700,8.596999755859375,-1.1437692642211914,-13.25145149230957,4.359723091125488
1772698652513346300,8.61434619140625,-0.14117653667926788,-11.09073257446289,1.9621145725250244
1772698652530692900,8.63169287109375,0.5647061467170715,-9.504291534423828,0.7154539823532104
1772698652548039700,8.649039794921874,1.1389836072921753,-9.075976371765137,0.05024927482008934
1772698652565386200,8.66638623046875,1.069591760635376,-9.408578872680664,-0.17706887423992157
1772698652582732800,8.68373291015625,1.4380863904953003,-9.43489933013916,-0.19381862878799438
1772698652600079400,8.701079345703125,1.5553346872329712,-9.33440113067627,0.16749759018421173
1772698652617426200,8.71842626953125,1.3519448041915894,-9.061619758605957,0.6197410821914673
1772698652634772700,8.735772705078125,1.0887342691421509,-8.752944946289062,1.0049854516983032
1772698652652119300,8.753119384765625,1.062413215637207,-8.506484031677246,1.1820544004440308
1772698652669465900,8.7704658203125,1.2969099283218384,-8.492127418518066,1.4141582250595093
1772698652686812700,8.787812744140625,1.306481122970581,-8.630910873413086,1.6390835046768188
1772698652704159200,8.8051591796875,1.4213366508483887,-8.621339797973633,1.7204394340515137
1772698652721505800,8.822505859375,1.3040883541107178,-8.537590980529785,1.4404792785644531
1772698652738852600,8.8398525390625,1.3710874319076538,-8.752944946289062,0.9786644577980042
1772698652756199200,8.85719921875,1.5840486288070679,-9.128618240356445,0.605384111404419
1772698652773545700,8.874545654296876,1.8855443000793457,-9.399007797241211,0.7489534616470337
1772698652790892300,8.891892333984375,2.3018953800201416,-9.245866775512695,0.7824530005455017
1772698652808239000,8.909239013671876,1.2442678213119507,-8.599804878234863,1.6606189012527466
1772698652825585700,8.926585693359375,-0.23688943684101105,-9.729216575622559,3.060420274734497
1772698652842932200,8.94393212890625,2.368894338607788,-10.028319358825684,2.9958138465881348
1772698652860278800,8.96127880859375,4.960321426391602,-9.856036186218262,2.2683959007263184
1772698652877625600,8.97862548828125,4.749752998352051,-9.207581520080566,2.225325107574463
1772698652894972200,8.99597216796875,2.861815929412842,-8.800801277160645,2.478964328765869
1772698652912318700,9.013318603515625,1.6223337650299072,-8.779266357421875,2.861815929412842
1772698652929665300,9.030665283203126,1.9764715433120728,-9.190832138061523,2.9312076568603516
1772698652947012000,9.04801220703125,2.830709218978882,-9.449256896972656,2.746960401535034
1772698652964358700,9.065358642578126,2.7086751461029053,-9.966106414794922,2.3234307765960693
1772698652981705200,9.082705322265625,2.218146562576294,-10.164710998535156,1.7778671979904175
1772698652999052000,9.100052001953125,2.029113531112671,-9.896714210510254,1.4404792785644531
1772698653016398600,9.117398681640625,1.9357935190200806,-9.207581520080566,0.9284151792526245
1772698653033745200,9.1347451171875,1.794616937637329,-8.764909744262695,0.6364908218383789
1772698653051091700,9.152091796875,1.588834285736084,-8.894122123718262,0.6269195079803467
1772698653068438300,9.169438232421875,1.550549030303955,-8.963513374328613,0.44745782017707825
1772698653085785000,9.18678515625,1.6103696823120117,-8.922835350036621,0.1698904037475586
1772698653103131600,9.204131591796875,1.5936198234558105,-8.764909744262695,-0.014356935396790504
1772698653120478200,9.221478271484376,1.5744773149490356,-8.34138011932373,0.05742774158716202
1772698653137825000,9.238824951171875,1.5840486288070679,-7.922635555267334,0.2225325107574463
1772698653155171600,9.256171630859376,1.3471591472625732,-7.963313579559326,0.6628118753433228
1772698653172518100,9.27351806640625,0.9978070259094238,-7.989634990692139,1.007378339767456
1772698653189864700,9.29086474609375,0.5623133182525635,-7.599604606628418,1.1868400573730469
1772698653207211500,9.30821142578125,0.11006984114646912,-6.821937561035156,1.1724830865859985
1772698653224558000,9.32555810546875,0.2512463629245758,-5.814558982849121,0.7752745151519775
1772698653241904600,9.342904541015624,0.8470591902732849,-5.13739013671875,0.46899324655532837
1772698653259251200,9.360251220703125,1.667797327041626,-4.9531426429748535,0.10767702013254166
1772698653276598000,9.377597900390626,2.335394859313965,-5.32403039932251,-0.4091726839542389
1772698653293944600,9.394944580078125,3.098705291748047,-6.161518096923828,-0.9523434042930603
1772698653311291100,9.412291015625,3.218346357345581,-7.381857872009277,-1.4093725681304932
1772698653328638000,9.429637939453125,2.455035924911499,-8.74337387084961,-0.9212366938591003
1772698653345984500,9.446984619140625,1.730010747909546,-9.678967475891113,-0.3900300860404968
1772698653363331000,9.4643310546875,1.6223337650299072,-9.956535339355469,-0.02392822690308094
1772698653380677600,9.481677734375,1.6342978477478027,-9.164510726928711,-0.19621145725250244
1772698653398024400,9.4990244140625,2.069791555404663,-8.329415321350098,0.16271193325519562
1772698653415371000,9.51637109375,2.1774685382843018,-8.484949111938477,0.8374879360198975
1772698653432717600,9.533717529296876,0.8374879360198975,-11.600403785705566,2.7254250049591064
1772698653450064100,9.551064208984375,0.7896314859390259,-18.15434455871582,2.651247501373291
1772698653467411000,9.568410888671876,-3.3403804302215576,-23.58605194091797,1.6414763927459717
1772698653484757500,9.585757568359375,-5.757131099700928,-19.271793365478516,1.0504491329193115
1772698653502104000,9.60310400390625,-2.4047868251800537,-14.050654411315918,1.6151553392410278
1772698653519451000,9.620450927734375,1.246660590171814,-13.615160942077637,0.7106683254241943
1772698653536797400,9.63779736328125,4.474578380584717,-11.375478744506836,-0.9834501147270203
1772698653554144000,9.65514404296875,6.144768714904785,-9.827322959899902,-0.5216353535652161
1772698653571490600,9.672490478515625,2.878565549850464,-11.3778715133667,-0.34695929288864136
1772698653588837400,9.68983740234375,-0.31824541091918945,-14.20140266418457,-1.1676974296569824
1772698653606184000,9.707183837890625,-1.0289137363433838,-15.096318244934082,-1.9716858863830566
1772698653623530500,9.724530517578126,-0.6819544434547424,-14.175081253051758,-1.3280165195465088
1772698653640877000,9.741876953125,0.6317051649093628,-11.552547454833984,-0.2727817893028259
1772698653658223900,9.759223876953126,1.3758729696273804,-8.60459041595459,-0.4570291340351105
1772698653675570400,9.7765703125,1.2011969089508057,-6.31944465637207,-1.2203395366668701
1772698653692917000,9.7939169921875,0.7513462901115417,-6.187839508056641,-1.5290136337280273
1772698653710263800,9.811263916015625,0.2991028428077698,-7.628318786621094,-1.124626636505127
1772698653727610400,9.8286103515625,0.33020952343940735,-9.382257461547852,0.13160525262355804
1772698653744957000,9.84595703125,0.973878800868988,-10.351350784301758,1.4117653369903564
1772698653762303500,9.863303466796875,1.2897313833236694,-9.834501266479492,2.287538528442383
1772698653779650300,9.880650390625,1.5744773149490356,-8.731410026550293,3.0245277881622314
1772698653796996900,9.897996826171875,1.5720844268798828,-7.733603000640869,3.3332018852233887
1772698653814343400,9.915343505859376,1.6319050788879395,-7.64028263092041,3.3068809509277344
1772698653831690000,9.93268994140625,2.251646041870117,-8.298309326171875,3.2207393646240234
1772698653849036800,9.950036865234376,2.306680917739868,-8.74337387084961,3.4169507026672363
1772698653866383400,9.96738330078125,2.062613010406494,-9.365508079528809,3.1657042503356934
1772698653883730000,9.98472998046875,1.9166508913040161,-9.78664493560791,2.421536445617676
1772698653901076500,10.002076416015624,1.703689694404602,-9.55214786529541,1.679761528968811
1772698653918423300,10.01942333984375,0.7226324677467346,-8.791230201721191,0.8470591902732849
1772698653935769900,10.036769775390624,-0.605384111404419,-7.872386455535889,0.21774685382843018
1772698653953116400,10.054116455078125,-0.031106693670153618,-6.97986364364624,0.42352959513664246
1772698653970463200,10.071463134765626,0.763310432434082,-6.151947021484375,1.124626636505127
1772698653987809800,10.088809814453125,1.191625714302063,-5.72123908996582,1.0552347898483276
1772698654005156400,10.10615625,1.6630117893218994,-5.86002254486084,1.0336993932724
1772698654022503000,10.1235029296875,1.8711873292922974,-6.9344000816345215,0.7561319470405579
1772698654039849700,10.140849609375,1.5098711252212524,-8.420342445373535,0.5934200286865234
1772698654057196300,10.1581962890625,1.6869399547576904,-8.614161491394043,0.5407779216766357
1772698654074542800,10.17554296875,1.4859428405761719,-8.252845764160156,0.11964113265275955
1772698654091889700,10.1928896484375,1.306481122970581,-7.76470947265625,-0.5144568681716919
1772698654109236200,10.210236328125,1.3615161180496216,-7.142575740814209,-1.332802176475525
1772698654126582800,10.227582763671874,0.5982056856155396,-6.994220733642578,-1.5098711252212524
1772698654143929300,10.244929443359375,-0.9116654396057129,-9.128618240356445,-0.8566305041313171
1772698654161276200,10.262276123046876,-1.7730815410614014,-12.751352310180664,-0.5599204897880554
1772698654178622700,10.279622802734375,-1.062413215637207,-15.455241203308105,0.5335994362831116
1772698654195969300,10.29696923828125,-0.6771687865257263,-15.053247451782227,1.8687944412231445
1772698654213316000,10.314316162109375,-0.8303094506263733,-14.746966361999512,3.0005996227264404
1772698654230662700,10.33166259765625,-0.3158525824546814,-15.893128395080566,3.864408493041992
1772698654248009200,10.34900927734375,0.20817556977272034,-17.12303924560547,4.749752998352051
1772698654265356000,10.36635595703125,0.02392822690308094,-15.866806983947754,4.4482574462890625
1772698654282702600,10.38370263671875,0.8638089895248413,-12.330215454101562,2.847458839416504
1772698654300049200,10.401049072265625,1.6893328428268433,-9.839286804199219,1.2705888748168945
1772698654317395700,10.418395751953126,2.2468605041503906,-8.80798053741455,-0.14835500717163086
1772698654334742500,10.435742431640625,1.9884356260299683,-8.583054542541504,-0.5359922647476196
1772698654352089000,10.453089111328126,1.2203395366668701,-8.7505521774292,0.1746760457754135
1772698654369435600,10.470435546875,0.4833501875400543,-9.499505996704102,1.0815558433532715
1772698654386782500,10.487782470703126,0.2967100143432617,-9.868000984191895,1.9932212829589844
1772698654404129000,10.50512890625,0.6963114142417908,-9.20997428894043,2.210968017578125
1772698654421475600,10.5224755859375,1.1509476900100708,-8.166703224182129,1.2969099283218384
1772698654438822400,10.539822509765624,1.5002998113632202,-7.23589563369751,0.11246266216039658
1772698654456169000,10.5571689453125,1.8472590446472168,-6.719046115875244,-1.0217353105545044
1772698654473515500,10.574515625,2.1990039348602295,-6.4941205978393555,-1.887937068939209
1772698654490862000,10.591862060546875,2.4598217010498047,-6.199803352355957,-2.1296122074127197
1772698654508209000,10.609208984375,2.4741785526275635,-6.0777692794799805,-1.7467604875564575
1772698654525555500,10.626555419921875,2.3808584213256836,-6.5252275466918945,-1.093519926071167
1772698654542902000,10.643902099609376,2.3736801147460938,-7.118647575378418,-0.5718846321105957
1772698654560248800,10.661248779296875,2.155933141708374,-7.690532207489014,0.09092725813388824
1772698654577595400,10.678595458984375,2.0195422172546387,-8.37727165222168,0.9044869542121887
1772698654594942000,10.69594189453125,2.148754835128784,-9.19561767578125,1.8999011516571045
1772698654612288800,10.713288818359375,2.2779672145843506,-10.100104331970215,2.7397818565368652
1772698654629635300,10.73063525390625,2.2683959007263184,-10.954341888427734,3.3930225372314453
1772698654646982000,10.74798193359375,2.4526431560516357,-10.88016414642334,3.311666488647461
1772698654664328700,10.76532861328125,2.234896421432495,-9.832108497619629,2.6057839393615723
1772698654681675300,10.78267529296875,2.1296122074127197,-8.94676399230957,2.251646041870117
1772698654699021800,10.800021728515626,2.3186452388763428,-8.154739379882812,1.8999011516571045
1772698654716368400,10.817368408203125,2.857030153274536,-7.654639720916748,1.5601203441619873
1772698654733715200,10.834715087890626,3.1441688537597656,-7.5326056480407715,1.179661512374878
1772698654751061800,10.852061767578125,3.098705291748047,-7.886743545532227,1.1126625537872314
1772698654768408300,10.869408203125,1.1126625537872314,-9.707681655883789,1.4931213855743408
1772698654785755100,10.886755126953124,-1.6917256116867065,-15.881163597106934,1.0049854516983032
1772698654803101700,10.904101806640625,-1.5050854682922363,-23.770299911499023,-1.6462619304656982
1772698654820448300,10.9214482421875,-4.871787071228027,-19.30768585205078,-3.1968109607696533
1772698654837795000,10.938795166015625,-1.007378339767456,-9.358329772949219,-3.5581271648406982
1772698654855141600,10.9561416015625,1.5074782371520996,-5.998806476593018,-1.5649060010910034
1772698654872488200,10.97348828125,3.5988051891326904,-9.056833267211914,-0.0023928226437419653
1772698654889835000,10.9908349609375,5.824130535125732,-15.213566780090332,-0.10049854964017868
1772698654907181600,11.008181640625,2.933600664138794,-15.562918663024902,-0.7968099117279053
1772698654924528000,11.025528076171875,-0.031106693670153618,-12.593425750732422,-1.6103696823120117
1772698654941875000,11.042875,-0.8255237936973572,-12.248859405517578,-1.6342978477478027
1772698654959221500,11.060221435546875,-0.4450650215148926,-11.782258987426758,-0.6364908218383789
1772698654976568000,11.077568115234374,1.1485549211502075,-10.937592506408691,0.1459621787071228
1772698654993914600,11.09491455078125,2.366501569747925,-10.437492370605469,0.729810893535614
1772698655011261400,11.112261474609374,2.251646041870117,-9.937392234802246,0.9667003750801086
1772698655028608000,11.12960791015625,1.4715858697891235,-9.370293617248535,1.2658032178878784
1772698655045954600,11.14695458984375,1.0169496536254883,-9.008976936340332,1.7252250909805298
1772698655063301400,11.16430126953125,1.301695466041565,-8.855836868286133,1.8903298377990723
1772698655080648000,11.18164794921875,1.6199408769607544,-8.731410026550293,2.093719720840454
1772698655097994500,11.198994384765625,1.466800332069397,-8.752944946289062,2.3880369663238525
1772698655115341300,11.21634130859375,1.1700903177261353,-8.791230201721191,2.5914268493652344
1772698655132688000,11.23368798828125,1.031306505203247,-8.57348346710205,2.5148565769195557
1772698655150034400,11.251034423828125,1.2203395366668701,-8.410771369934082,2.4502503871917725
1772698655167381200,11.26838134765625,1.5481562614440918,-8.511270523071289,2.359323024749756
1772698655184727800,11.285727783203125,1.6342978477478027,-8.441878318786621,2.0745773315429688
1772698655202074400,11.303074462890624,1.6079767942428589,-7.733603000640869,1.5792629718780518
1772698655219421200,11.320421142578125,1.5649060010910034,-6.900900363922119,0.6101697683334351
1772698655236767700,11.337767822265626,1.9405791759490967,-6.678368091583252,-0.3158525824546814
1772698655254114300,11.3551142578125,2.2612173557281494,-6.355337142944336,-1.2969099283218384
1772698655271460900,11.3724609375,2.014756679534912,-5.793023586273193,-1.4500504732131958
1772698655288807700,11.3898076171875,1.643869161605835,-5.680561065673828,-0.42831525206565857
1772698655306154200,11.407154296875,1.1222338676452637,-6.565905570983887,1.5696916580200195
1772698655323500800,11.424500732421874,0.38285163044929504,-8.221738815307617,2.998206853866577
1772698655340847600,11.44184765625,1.098305583000183,-8.989834785461426,2.2325034141540527
1772698655358194200,11.459194091796874,2.3090739250183105,-9.020941734313965,1.3878371715545654
1772698655375541000,11.476541015625,2.3952155113220215,-8.999405860900879,1.2897313833236694
1772698655392887600,11.493887451171876,1.4715858697891235,-8.786444664001465,1.3902299404144287
1772698655410234000,11.511234130859375,0.7704889178276062,-8.197810173034668,0.5623133182525635
1772698655427580700,11.52858056640625,0.9667003750801086,-7.752745151519775,-0.3278166949748993
1772698655444927500,11.545927490234375,1.2394821643829346,-8.384450912475586,-0.7680960893630981
1772698655462274000,11.563274169921876,1.0839486122131348,-8.15234661102295,-1.7324036359786987
1772698655479620600,11.58062060546875,0.519242525100708,-8.906085968017578,-2.715853691101074
1772698655496967400,11.597967529296875,0.8207381963729858,-11.059626579284668,-3.7256247997283936
1772698655514314000,11.61531396484375,1.7754744291305542,-12.04786205291748,-2.541177749633789
1772698655531660500,11.63266064453125,1.698904037475586,-13.404592514038086,0.7968099117279053
1772698655549007400,11.65000732421875,0.6005984544754028,-17.276180267333984,3.421736478805542
1772698655566354000,11.66735400390625,0.7968099117279053,-22.425533294677734,4.900500774383545
1772698655583700500,11.684700439453126,-0.7082754969596863,-24.366113662719727,7.3675007820129395
1772698655601047300,11.70204736328125,0.33499518036842346,-16.388442993164062,5.776273727416992
1772698655618393900,11.719393798828126,2.1822543144226074,-11.406585693359375,3.6155550479888916
1772698655635740400,11.736740478515625,2.675175666809082,-9.43489933013916,2.4119651317596436
1772698655653087200,11.754087158203125,2.8450660705566406,-8.425128936767578,1.153340458869934
1772698655670433800,11.771433837890624,2.0195422172546387,-7.2430739402771,0.2105683982372284
1772698655687780400,11.7887802734375,0.4378865361213684,-6.8410797119140625,-0.23688943684101105
1772698655705127200,11.806127197265624,0.47617170214653015,-7.776673793792725,0.20099709928035736
1772698655722473700,11.8234736328125,1.34476637840271,-8.4562349319458,0.7968099117279053
1772698655739820300,11.8408203125,1.9932212829589844,-8.61894702911377,0.5886343717575073
1772698655757167000,11.8581669921875,2.4646072387695312,-8.23848819732666,-0.17706887423992157
1772698655774513700,11.875513671875,2.6009981632232666,-7.5565338134765625,-1.179661512374878
1772698655791860200,11.892860107421875,2.4047868251800537,-7.178467750549316,-1.9262222051620483
1772698655809207000,11.91020703125,1.820937991142273,-7.142575740814209,-2.045863389968872
1772698655826553600,11.9275537109375,1.2035897970199585,-7.271788120269775,-1.5074782371520996
1772698655843900400,11.944900390625,1.0097711086273193,-7.4464640617370605,-0.47617170214653015
1772698655861247000,11.9622470703125,0.7872386574745178,-7.654639720916748,0.519242525100708
1772698655878593500,11.979593505859375,0.7034898400306702,-7.621140003204346,1.4093725681304932
1772698655895940400,11.9969404296875,0.6221339106559753,-7.1234331130981445,1.892722725868225
1772698655913287000,12.014286865234375,0.7800601720809937,-6.314659118652344,1.2418749332427979
1772698655930633500,12.031633544921876,1.1389836072921753,-5.912664890289307,-0.038285162299871445
1772698655947980300,12.048980224609375,2.2157537937164307,-6.405586242675781,-1.1413763761520386
1772698655965326800,12.066326904296876,3.13220477104187,-8.044670104980469,-1.9573289155960083
1772698655982673400,12.08367333984375,3.81655216217041,-10.26760196685791,-1.3663017749786377
1772698656000020200,12.101020263671876,2.7014968395233154,-11.533405303955078,0.9044869542121887
1772698656017366800,12.11836669921875,1.1485549211502075,-10.195816993713379,1.7395820617675781
1772698656034713600,12.135713623046875,1.5481562614440918,-7.8388872146606445,1.8855443000793457
1772698656052060200,12.15306005859375,2.455035924911499,-5.979663848876953,2.5938198566436768
1772698656069406700,12.17040673828125,3.7734813690185547,-5.115854740142822,3.2446675300598145
1772698656086753500,12.18775341796875,5.730810165405273,-5.711667537689209,3.2781670093536377
1772698656104100000,12.20510009765625,5.632704734802246,-8.22413158416748,3.5772697925567627
1772698656121446700,12.22244677734375,1.9669002294540405,-13.765908241271973,5.424529075622559
1772698656138793500,12.23979345703125,-2.0673987865448,-23.99522590637207,4.039084434509277
1772698656156140000,12.25714013671875,-10.107282638549805,-26.804399490356445,-1.3782658576965332
1772698656173486600,12.274486572265625,-3.397808074951172,-14.088939666748047,-1.215553879737854
1772698656190833400,12.29183349609375,2.383251428604126,-11.186446189880371,1.6055840253829956
1772698656208180000,12.309179931640625,11.227124214172363,-14.057832717895508,0.6125625967979431
1772698656225526500,12.326526611328125,9.817750930786133,-10.612168312072754,0.26081767678260803
1772698656242873300,12.343873291015624,3.507878065109253,-6.247660160064697,1.1461620330810547
1772698656260220000,12.361219970703125,-0.7106683254241943,-8.315058708190918,0.24167509377002716
1772698656277566500,12.37856640625,-2.3234307765960693,-14.778072357177734,-0.97148597240448
1772698656294913300,12.395913330078125,0.7082754969596863,-18.106489181518555,-2.68953275680542
1772698656312259800,12.413259765625,2.1032910346984863,-16.764116287231445,-3.34995174407959
1772698656329606400,12.4306064453125,1.8999011516571045,-11.71286678314209,-2.187039852142334
1772698656346953200,12.447953125,2.5459632873535156,-8.532805442810059,-0.24406790733337402
1772698656364299800,12.4652998046875,2.3784656524658203,-6.898507595062256,0.4977070987224579
1772698656381646300,12.482646240234375,2.0721843242645264,-7.434499740600586,0.97148597240448
1772698656398993200,12.4999931640625,1.789831280708313,-9.19561767578125,1.2610175609588623
1772698656416339700,12.517339599609375,1.643869161605835,-10.353743553161621,1.7204394340515137
1772698656433686300,12.534686279296874,1.6199408769607544,-10.470992088317871,2.1918256282806396
1772698656451033000,12.552033203125,1.710868239402771,-9.619147300720215,2.770888566970825
1772698656468379600,12.569379638671874,2.179861545562744,-8.358129501342773,3.1489546298980713
1772698656485726500,12.5867265625,2.63449764251709,-7.381857872009277,3.249453067779541
1772698656503073000,12.604072998046876,2.940778970718384,-7.04207706451416,2.981456995010376
1772698656520419600,12.621419677734375,3.34995174407959,-7.200003147125244,2.65842604637146
1772698656537766400,12.638766357421876,3.3547372817993164,-7.470392227172852,2.589034080505371
1772698656555113000,12.656113037109375,2.9048867225646973,-8.171489715576172,2.9168508052825928
1772698656572459500,12.67345947265625,2.304288148880005,-9.269794464111328,3.373879909515381
1772698656589806300,12.690806396484374,1.2873386144638062,-10.363314628601074,3.486342668533325
1772698656607153000,12.70815283203125,0.0023928226437419653,-10.85862922668457,2.991028308868408
1772698656624499500,12.72549951171875,-1.2059825658798218,-10.265209197998047,2.218146562576294
1772698656641846300,12.74284619140625,-0.8063812255859375,-8.22413158416748,1.6917256116867065
1772698656659192800,12.76019287109375,0.6580262184143066,-5.575276851654053,0.8757730722427368
1772698656676539600,12.77753955078125,1.8496519327163696,-4.235296249389648,-0.4163511395454407
1772698656693886200,12.79488623046875,2.6009981632232666,-4.759324073791504,-1.0432707071304321
1772698656711232800,12.812232666015625,2.400001049041748,-6.702296257019043,-0.7154539823532104
1772698656728579600,12.82957958984375,1.5242279767990112,-8.532805442810059,-0.8207381963729858
1772698656745926100,12.846926025390625,1.6079767942428589,-8.937192916870117,-0.6604190468788147
1772698656763273000,12.86427294921875,2.03629207611084,-7.04925537109375,0.30149564146995544
1772698656780619500,12.88161962890625,2.4646072387695312,-7.408178806304932,1.5984054803848267
1772698656797966000,12.898966064453125,2.029113531112671,-8.676374435424805,1.612762451171875
1772698656815313000,12.91631298828125,1.2610175609588623,-8.882157325744629,0.763310432434082
1772698656832659500,12.933659423828125,0.7226324677467346,-9.267401695251465,0.2153540402650833
1772698656850006000,12.951006103515626,0.1579262912273407,-10.619346618652344,-0.13160525262355804
1772698656867352800,12.968352783203125,-0.21296121180057526,-12.617353439331055,-0.6364908218383789
1772698656884699400,12.985699462890626,-0.363709032535553,-12.5742826461792,-0.763310432434082
1772698656902046000,13.0030458984375,-1.0863415002822876,-10.028319358825684,0.4737788736820221
1772698656919392800,13.020392822265626,-0.6340979933738708,-10.119247436523438,2.586641311645508
1772698656936739300,13.0377392578125,-0.1866401731967926,-12.610175132751465,3.9912281036376953
1772698656954086100,13.055086181640625,-0.4043870270252228,-15.929019927978516,5.350351333618164
1772698656971432700,13.0724326171875,-0.34695929288864136,-17.130216598510742,4.852644443511963
1772698656988779300,13.089779296875,0.5288137793540955,-13.739587783813477,2.974278450012207
1772698657006126000,13.1071259765625,1.4261223077774048,-11.076375961303711,1.588834285736084
1772698657023472600,13.12447265625,2.0338993072509766,-9.147761344909668,1.0360921621322632
1772698657040819500,13.1418193359375,2.108076810836792,-8.724231719970703,1.6510475873947144
1772698657058166000,13.159166015625,1.7012969255447388,-8.86780071258545,2.282752752304077
1772698657075512600,13.1765126953125,1.3088740110397339,-8.700303077697754,2.1439690589904785
1772698657092859400,13.193859375,1.0600204467773438,-9.028120040893555,1.5433706045150757
1772698657110206000,13.2112060546875,1.3112667798995972,-9.34875774383545,0.9092726111412048
1772698657127552500,13.228552490234375,1.7826528549194336,-9.023334503173828,0.5000999569892883
1772698657144899300,13.2458994140625,2.258824586868286,-8.683553695678711,0.363709032535553
1772698657162246000,13.263245849609374,2.5292134284973145,-8.525627136230469,0.13878370821475983
1772698657179592700,13.2805927734375,2.5746772289276123,-8.34855842590332,0.040677983313798904
1772698657196939300,13.297939208984374,2.56510591506958,-8.044670104980469,0.08374879509210587
1772698657214286000,13.3152861328125,2.5148565769195557,-7.877171993255615,0.3732803463935852
1772698657231632600,13.332632568359376,2.2755744457244873,-7.8388872146606445,0.7465606927871704
1772698657248979200,13.349979248046875,2.139183521270752,-7.685746192932129,1.00259268283844
1772698657266326000,13.367325927734376,2.2779672145843506,-7.441678524017334,1.038485050201416
1772698657283672600,13.384672607421875,2.63449764251709,-7.29093074798584,1.0241280794143677
1772698657301019100,13.40201904296875,2.9599215984344482,-7.2574310302734375,1.2729816436767578
1772698657318366000,13.419365966796875,3.160918712615967,-7.252645492553711,1.8305093050003052
1772698657335712500,13.43671240234375,3.1345977783203125,-7.448856830596924,2.531606435775757
1772698657353059300,13.454059326171874,3.13220477104187,-8.116454124450684,2.823530673980713
1772698657370406000,13.471406005859375,2.7254250049591064,-9.013762474060059,2.344966173171997
1772698657387752700,13.488752685546874,1.789831280708313,-10.100104331970215,2.0027925968170166
1772698657405099300,13.506099365234375,1.5840486288070679,-9.686145782470703,1.2083754539489746
1772698657422445800,13.52344580078125,3.680161237716675,-9.181260108947754,2.1583259105682373
1772698657439792600,13.540792724609375,6.850651264190674,-8.118846893310547,3.603590965270996
1772698657457139200,13.55813916015625,8.401200294494629,-7.09711217880249,5.1804609298706055
1772698657474486000,13.575486083984375,6.91765022277832,-7.491927623748779,6.747759819030762
1772698657491832600,13.59283251953125,3.531806230545044,-9.513862609863281,7.554141044616699
1772698657509179100,13.61017919921875,0.8398807644844055,-10.681560516357422,6.4701924324035645
1772698657526526000,13.62752587890625,-0.9858429431915283,-17.848064422607422,8.02791976928711
1772698657543872500,13.64487255859375,-1.5146567821502686,-29.781070709228516,4.536791801452637
1772698657561219300,13.66221923828125,-8.051848411560059,-24.35893440246582,-3.476771354675293
1772698657578566000,13.67956591796875,0.18424734473228455,-12.507284164428711,-3.720839262008667
1772698657595912400,13.696912353515625,5.053641319274902,-7.324429988861084,-3.87876558303833
1772698657613259300,13.71425927734375,5.955735683441162,-8.080561637878418,-4.7401814460754395
1772698657630605800,13.731605712890625,1.923829436302185,-9.047262191772461,-4.938786029815674
1772698657647952600,13.74895263671875,-2.038684844970703,-9.384650230407715,-6.723831653594971
1772698657665299200,13.76629931640625,-2.0338993072509766,-11.387442588806152,-6.929614543914795
1772698657682645800,13.783645751953125,-0.45942193269729614,-12.301501274108887,-5.278566837310791
1772698657699992600,13.80099267578125,0.45942193269729614,-11.461620330810547,-3.555734395980835
1772698657717339100,13.818339111328125,0.2560320198535919,-11.413763999938965,-2.6057839393615723
1772698657734685700,13.835685791015624,0.7058826684951782,-11.140982627868652,-1.7850457429885864
1772698657752032500,13.853032470703125,1.3950155973434448,-10.2747802734375,-0.5359922647476196
1772698657769379000,13.870379150390624,1.5337992906570435,-9.260223388671875,0.6532405614852905
1772698657786726000,13.887725830078125,1.4213366508483887,-8.678768157958984,1.6223337650299072
1772698657804072400,13.905072509765626,1.7467604875564575,-8.516056060791016,2.2947168350219727
1772698657821419300,13.922419189453125,2.196611166000366,-8.757730484008789,2.950350284576416
1772698657838765800,13.939765869140626,2.3306093215942383,-9.221938133239746,3.3858439922332764
1772698657856112400,13.9571123046875,2.6297121047973633,-9.238688468933105,2.9216363430023193
1772698657873459200,13.974459228515625,2.6560330390930176,-9.09990406036377,2.4741785526275635
1772698657890805800,13.9918056640625,2.2157537937164307,-8.958727836608887,2.0961127281188965
1772698657908152300,14.00915234375,1.9621145725250244,-8.93240737915039,1.911865234375
1772698657925499100,14.0264990234375,1.7850457429885864,-8.870193481445312,1.8855443000793457
1772698657942845700,14.043845703125,1.9669002294540405,-8.839086532592773,1.7276179790496826
1772698657960192500,14.061192626953124,2.366501569747925,-8.628518104553223,1.2131611108779907
1772698657977539000,14.0785390625,2.50289249420166,-8.602197647094727,0.7010970115661621
1772698657994886000,14.095885986328126,2.280359983444214,-9.06401252746582,0.5670989751815796
1772698658012232400,14.113232421875,1.6414763927459717,-10.329814910888672,0.7896314859390259
1772698658029579000,14.1305791015625,1.2873386144638062,-11.676974296569824,1.1653046607971191
1772698658046925800,14.14792578125,1.6390835046768188,-12.059825897216797,1.153340458869934
1772698658064272400,14.1652724609375,2.3952155113220215,-10.985448837280273,0.7417750358581543
1772698658081619200,14.182619140625,3.1034910678863525,-9.401400566101074,0.6460621356964111
1772698658098965800,14.1999658203125,3.5916268825531006,-8.195417404174805,0.729810893535614
1772698658116312300,14.217312255859374,3.445664644241333,-7.989634990692139,0.9403793215751648
1772698658133659100,14.2346591796875,2.5196423530578613,-8.233702659606934,1.2370892763137817
1772698658151005700,14.252005615234374,1.184447169303894,-9.312865257263184,1.222732424736023
1772698658168352500,14.2693525390625,0.5264210104942322,-9.903892517089844,1.3112667798995972
1772698658185699000,14.286698974609376,-0.05024927482008934,-9.068798065185547,1.3519448041915894
1772698658203046000,14.3040458984375,-0.4307080805301666,-8.408378601074219,1.1198409795761108
1772698658220392400,14.321392333984376,-0.8422735929489136,-8.279166221618652,0.0933200865983963
1772698658237739000,14.338739013671875,-1.2035897970199585,-8.047062873840332,-1.2634103298187256
1772698658255085800,14.3560859375,-1.3184453248977661,-7.372286796569824,-2.5770699977874756
1772698658272432400,14.373432373046874,-1.892722725868225,-7.264609336853027,-3.4887354373931885
1772698658289779200,14.390779296875,-1.552941918373108,-8.958727836608887,-3.9218363761901855
1772698658307125800,14.408125732421874,-1.098305583000183,-12.076576232910156,-3.486342668533325
1772698658324472300,14.425472412109375,0.16749759018421173,-15.139389038085938,-1.9286150932312012
1772698658341819100,14.442819091796874,1.0887342691421509,-16.453048706054688,1.5936198234558105
1772698658359165700,14.460165771484375,-0.02632104977965355,-16.060625076293945,5.027320384979248
1772698658376512500,14.477512451171876,-1.5720844268798828,-14.330615043640137,5.953342914581299
1772698658393859000,14.494859130859375,-1.1126625537872314,-11.660224914550781,4.479363918304443
1772698658411206000,14.512205810546876,0.9834501147270203,-9.432506561279297,3.335594654083252
1772698658428552400,14.529552490234375,2.667997360229492,-8.530412673950195,1.160519003868103
1772698658445899300,14.546899169921875,3.7328033447265625,-9.114261627197266,-0.1052841991186142
1772698658463245800,14.564245849609375,3.4743785858154297,-9.944570541381836,-0.5383850932121277
1772698658480592400,14.58159228515625,2.6632115840911865,-9.839286804199219,-0.3732803463935852
1772698658497939200,14.598939208984374,1.557727575302124,-9.107083320617676,0.3326023519039154
1772698658515285800,14.61628564453125,0.763310432434082,-8.417949676513672,0.882951557636261
1772698658532632600,14.633632568359374,0.9403793215751648,-7.992027759552002,0.6867401003837585
1772698658549979100,14.650979248046875,1.7012969255447388,-7.611568927764893,-0.007178467698395252
1772698658567325700,14.66832568359375,2.524427890777588,-7.460821151733398,-0.8207381963729858
1772698658584672500,14.685672607421875,2.988635540008545,-7.477570533752441,-1.3351950645446777
1772698658602019300,14.703019287109376,3.2614171504974365,-7.601997375488281,-1.1485549211502075
1772698658619366000,14.720365966796875,3.2590243816375732,-7.6977105140686035,-0.3397808074951172
1772698658636712400,14.73771240234375,3.462414264678955,-7.850851058959961,0.6317051649093628
1772698658654059300,14.755059326171875,3.601198196411133,-8.023134231567383,1.3758729696273804
1772698658671405800,14.77240576171875,3.924229145050049,-8.343772888183594,2.0003998279571533
1772698658688752600,14.789752685546874,3.314059257507324,-8.934800148010254,2.806781053543091
1772698658706099200,14.80709912109375,2.163111686706543,-9.214759826660156,2.912065267562866
1772698658723446000,14.824446044921874,2.234896421432495,-9.42772102355957,1.648654818534851
1772698658740792600,14.84179248046875,3.7471601963043213,-9.55214786529541,1.0456634759902954
1772698658758139400,14.859139404296876,4.900500774383545,-9.166903495788574,2.359323024749756
1772698658775486000,14.87648583984375,3.8979079723358154,-10.059426307678223,3.153740167617798
1772698658792832500,14.89383251953125,1.1365907192230225,-13.02652645111084,1.9310078620910645
1772698658810179300,14.911179443359375,-0.7465606927871704,-15.352350234985352,0.275174617767334
1772698658827526000,14.92852587890625,-1.4524433612823486,-19.278972625732422,0.5910272002220154
1772698658844872700,14.945872802734375,-3.208775281906128,-23.782264709472656,0.9212366938591003
1772698658862219300,14.96321923828125,-4.453042984008789,-14.909677505493164,1.210768222808838
1772698658879566000,14.980566162109374,-1.3184453248977661,-5.819344520568848,0.916451096534729
1772698658896912600,14.99791259765625,0.6173482537269592,-0.727418065071106,-0.009571290574967861
1772698658914259500,15.015259521484374,1.2299108505249023,0.8159525394439697,-1.0552347898483276
1772698658931606000,15.03260595703125,0.9930213689804077,-2.7804598808288574,-1.4883357286453247
1772698658948952600,15.04995263671875,-0.8015955686569214,-7.511070251464844,-2.4670002460479736
1772698658966299400,15.06729931640625,-0.8207381963729858,-15.424135208129883,-4.426722049713135
1772698658983646000,15.08464599609375,1.4165509939193726,-22.437498092651367,-3.84765887260437
1772698659000992800,15.10199267578125,-0.698704183101654,-14.711073875427246,-2.4119651317596436
1772698659018339300,15.11933935546875,-0.3517449200153351,-6.379265308380127,-1.3112667798995972
1772698659035686100,15.13668603515625,0.9571290612220764,-2.60339093208313,-0.5000999569892883
1772698659053032700,15.15403271484375,1.5170495510101318,-4.934000492095947,0.33738797903060913
1772698659070379500,15.171379638671874,1.6941183805465698,-8.882157325744629,1.2323036193847656
1772698659087726000,15.18872607421875,1.1198409795761108,-11.801401138305664,2.50289249420166
1772698659105072600,15.20607275390625,-0.0933200865983963,-12.44267749786377,2.737389087677002
1772698659122419500,15.22341943359375,-0.3086741268634796,-11.069197654724121,1.828116536140442
1772698659139766000,15.24076611328125,0.5479564070701599,-9.513862609863281,1.3854442834854126
1772698659157112800,15.25811279296875,1.4859428405761719,-8.365307807922363,1.7754744291305542
1772698659174459400,15.27545947265625,1.703689694404602,-7.463213920593262,2.227717876434326
1772698659191806200,15.29280615234375,1.2873386144638062,-6.819544315338135,2.359323024749756
1772698659209152800,15.31015283203125,0.9379864931106567,-6.661618232727051,2.3808584213256836
1772698659226499600,15.32749951171875,0.8422735929489136,-7.302894592285156,1.825723648071289
1772698659243846100,15.34484619140625,1.332802176475525,-8.042277336120605,1.1341979503631592
1772698659261193000,15.36219287109375,1.2131611108779907,-7.814958572387695,0.09810572862625122
1772698659278539500,15.37953955078125,0.004785645287483931,-6.778866767883301,-1.093519926071167
1772698659295886000,15.396885986328124,0.3613162338733673,-5.982056617736816,-1.0719845294952393
1772698659313233000,15.41423291015625,1.7611174583435059,-6.434299945831299,0.7178468108177185
1772698659330579500,15.431579345703126,2.4646072387695312,-8.602197647094727,2.335394859313965
1772698659347926300,15.44892626953125,1.4715858697891235,-10.250852584838867,3.25663161277771
1772698659365272800,15.46627294921875,0.14835500717163086,-10.64088249206543,3.25663161277771
1772698659382619600,15.48361962890625,1.3710874319076538,-8.891729354858398,1.6271194219589233
1772698659399966200,15.50096630859375,3.2063822746276855,-6.946363925933838,0.882951557636261
1772698659417313000,15.51831298828125,4.362115859985352,-5.352744102478027,0.9260223507881165
1772698659434659600,15.53565966796875,4.096512317657471,-5.72841739654541,1.1868400573730469
1772698659452006400,15.55300634765625,3.6323046684265137,-7.860422611236572,1.5720844268798828
1772698659469353000,15.57035302734375,3.115455150604248,-8.982656478881836,1.4931213855743408
1772698659486699800,15.58769970703125,3.263810157775879,-9.408578872680664,1.5290136337280273
1772698659504046300,15.60504638671875,3.5365917682647705,-9.470791816711426,1.794616937637329
1772698659521393200,15.62239306640625,2.713460922241211,-9.882357597351074,1.399801254272461
1772698659538739700,15.63973974609375,1.794616937637329,-9.846465110778809,-0.5144568681716919
1772698659556086300,15.657086181640626,1.5314065217971802,-10.53799057006836,-2.1032910346984863
1772698659573433000,15.67443310546875,-0.275174617767334,-10.595418930053711,-3.524627685546875
1772698659590779600,15.691779541015626,-0.9786644577980042,-14.337793350219727,-3.8739798069000244
1772698659608126500,15.70912646484375,0.7920243144035339,-19.640287399291992,-6.498906135559082
1772698659625473300,15.726473388671875,4.125226020812988,-18.18784523010254,-3.5222349166870117
1772698659642819800,15.74381982421875,4.668396949768066,-14.993426322937012,4.431507587432861
1772698659660166700,15.761166748046875,-0.4737788736820221,-15.1417818069458,14.153546333312988
1772698659677513200,15.77851318359375,-1.2921242713928223,-19.939390182495117,12.387642860412598
1772698659694859800,15.79585986328125,0.04307080805301666,-15.342779159545898,5.024927616119385
1772698659712206600,15.81320654296875,3.019742250442505,-12.04068374633789,1.9214365482330322
1772698659729553200,15.83055322265625,3.9314076900482178,-9.91107177734375,-0.17946170270442963
1772698659746900000,15.84789990234375,2.6081767082214355,-7.5637125968933105,-1.0193424224853516
1772698659764246500,15.86524658203125,0.8207381963729858,-6.3122663497924805,-1.9310078620910645
1772698659781593300,15.88259326171875,0.7202396392822266,-5.443671703338623,-2.416750907897949
1772698659798940000,15.89993994140625,1.94297194480896,-5.278566837310791,-1.7635103464126587
1772698659816286700,15.91728662109375,2.3018953800201416,-5.5345988273620605,-1.459621787071228
1772698659833633300,15.93463330078125,2.0338993072509766,-5.826523303985596,-1.2681959867477417
1772698659850980000,15.95197998046875,1.7228323221206665,-6.16391134262085,-0.6915257573127747
1772698659868326700,15.96932666015625,1.5625132322311401,-6.589833736419678,-0.016749758273363113
1772698659885673500,15.986673583984375,1.3926228284835815,-7.130611419677734,0.40677985548973083
1772698659903020000,16.00402001953125,1.6941183805465698,-6.98704195022583,0.607776939868927
1772698659920366800,16.021366943359375,2.6225335597991943,-6.154339790344238,0.7872386574745178
1772698659937713400,16.03871337890625,3.074777126312256,-5.649454116821289,1.581655740737915
1772698659955060200,16.056060302734377,2.6009981632232666,-6.2189459800720215,2.7828526496887207
1772698659972406800,16.07340673828125,1.4213366508483887,-7.188039302825928,3.8261234760284424
1772698659989753600,16.090753662109375,0.43549370765686035,-7.712067604064941,3.34995174407959
1772698660007100200,16.10810009765625,0.4211367964744568,-8.477770805358887,1.5625132322311401
1772698660024447000,16.125447021484376,0.9427721500396729,-9.923035621643066,0.5455635786056519
1772698660041793500,16.14279345703125,1.9764715433120728,-10.688738822937012,0.5264210104942322
1772698660059140400,16.160140380859374,3.2039895057678223,-9.53779125213623,1.7539390325546265
1772698660076487000,16.17748681640625,4.053441524505615,-7.537391185760498,2.667997360229492
1772698660093833700,16.194833740234376,4.005585193634033,-6.238088607788086,2.60339093208313
1772698660111180300,16.21218017578125,0.8973084688186646,-7.477570533752441,3.88594388961792
1772698660128527000,16.229527099609374,-0.12921242415905,-14.505290985107422,5.0943193435668945
1772698660145873700,16.246873779296877,-0.6795616149902344,-23.136201858520508,-1.9262222051620483
1772698660163220500,16.264220458984376,-4.18983268737793,-26.105695724487305,-6.838686943054199
1772698660180567000,16.281567138671875,0.7800601720809937,-15.586846351623535,-5.326423168182373
1772698660197913900,16.298913818359374,7.865208148956299,-17.584854125976562,-3.85483717918396
1772698660215260400,16.316260498046876,7.592426300048828,-13.198809623718262,-1.2610175609588623
1772698660232607200,16.333607177734375,5.190032482147217,-6.764509677886963,0.6771687865257263
1772698660249953800,16.350953857421874,2.2612173557281494,-4.6372904777526855,-0.9332008361816406
1772698660267300600,16.368300537109373,-2.7038896083831787,-10.131211280822754,-3.046063184738159
1772698660284647200,16.385647216796876,-2.548356056213379,-14.569896697998047,-4.548755645751953
1772698660301994000,16.402993896484375,0.8111668825149536,-17.16371726989746,-3.0077781677246094
1772698660319340500,16.420340576171874,1.399801254272461,-14.244473457336426,-0.2560320198535919
1772698660336687400,16.437687255859377,1.4380863904953003,-9.645467758178711,1.521835207939148
1772698660354034000,16.455033935546876,1.923829436302185,-6.675975322723389,2.3018953800201416
1772698660371380500,16.47238037109375,1.2131611108779907,-5.630311489105225,2.0506489276885986
1772698660388727300,16.489727294921874,1.674975872039795,-6.367300987243652,1.8113667964935303
1772698660406074000,16.50707421875,2.495713949203491,-6.664011001586914,1.4476577043533325
1772698660423420700,16.524420654296875,2.746960401535034,-7.3986077308654785,1.4811571836471558
1772698660440767500,16.541767578125,2.146361827850342,-8.635697364807129,3.1441688537597656
1772698660458114000,16.559114013671874,1.4428720474243164,-8.956335067749023,5.125426292419434
1772698660475460600,16.576460693359376,1.5720844268798828,-8.025527000427246,5.879165172576904
1772698660492807400,16.593807373046875,1.9669002294540405,-5.924628734588623,5.441278457641602
1772698660510154000,16.611154052734374,2.2947168350219727,-3.814159393310547,4.280759811401367
1772698660527500800,16.628500732421877,2.9766714572906494,-2.9359934329986572,2.517249345779419
1772698660544847400,16.645847412109376,3.3930225372314453,-3.4791641235351562,0.4713860750198364
1772698660562194200,16.663194091796875,3.680161237716675,-4.886143684387207,-0.8111668825149536
1772698660579541000,16.680541015625,2.5052852630615234,-6.439085960388184,-1.612762451171875
1772698660596887600,16.697887451171876,0.09092725813388824,-8.731410026550293,-1.612762451171875
1772698660614234400,16.715234375,-0.45942193269729614,-10.353743553161621,-1.0169496536254883
1772698660631581000,16.732580810546875,1.2634103298187256,-10.39202880859375,1.0217353105545044
1772698660648927700,16.749927734375,3.345165967941284,-7.018148899078369,1.25144624710083
1772698660666274300,16.7672744140625,2.8666014671325684,-5.527420520782471,1.3040883541107178
1772698660683621000,16.78462109375,1.8089739084243774,-6.075376510620117,-0.26081767678260803
1772698660700967700,16.8019677734375,1.9669002294540405,-7.168896675109863,-2.586641311645508
1772698660718314500,16.819314453125,3.5222349166870117,-10.430314064025879,-5.048855781555176
1772698660735661000,16.8366611328125,5.522634506225586,-16.744972229003906,-5.084748268127441
1772698660753007900,16.8540078125,3.1896326541900635,-19.030118942260742,0.275174617767334
1772698660770354400,16.8713544921875,0.8446664214134216,-18.53480339050293,4.7401814460754395
1772698660787701200,16.888701171875,0.5240281820297241,-20.779272079467773,5.359922885894775
1772698660805047800,16.9060478515625,0.5431707501411438,-23.51187515258789,6.331408500671387
1772698660822394600,16.92339453125,0.7202396392822266,-20.248065948486328,6.484549522399902
1772698660839741200,16.9407412109375,1.8975083827972412,-15.029318809509277,4.9531426429748535
1772698660857088000,16.958087890625,4.323830604553223,-10.097711563110352,3.8500516414642334
1772698660874434600,16.9754345703125,5.182853698730469,-7.551748275756836,1.4524433612823486
1772698660891781400,16.992781494140626,4.493721008300781,-7.936992645263672,-0.5264210104942322
1772698660909128000,17.0101279296875,2.6703901290893555,-8.298309326171875,-1.1030912399291992
1772698660926474800,17.027474853515624,0.6604190468788147,-8.039883613586426,-0.397208571434021
1772698660943821300,17.0448212890625,-0.12921242415905,-8.13081169128418,0.5670989751815796
1772698660961168100,17.062168212890626,0.607776939868927,-7.750352382659912,1.5194423198699951
1772698660978515000,17.079514892578125,1.5337992906570435,-7.015756130218506,1.7084753513336182
1772698660995861500,17.096861572265624,1.8640087842941284,-6.606583118438721,1.2681959867477417
1772698661013208300,17.114208251953126,2.2085752487182617,-6.446264266967773,0.5886343717575073
1772698661030555000,17.131554931640625,2.407179594039917,-6.618547439575195,0
1772698661047901700,17.148901611328125,2.335394859313965,-7.020541667938232,-0.29431718587875366
1772698661065248300,17.166248291015624,2.287538528442383,-7.259823799133301,-0.23210379481315613
1772698661082595000,17.183594970703126,2.3545374870300293,-7.121040344238281,0.019142581149935722
1772698661099941600,17.200941650390625,2.1846470832824707,-6.798008918762207,0.41874396800994873
1772698661117288400,17.218288330078124,2.038684844970703,-6.259624004364014,1.3256237506866455
1772698661134635000,17.235635009765623,2.053041934967041,-5.7164530754089355,1.9381862878799438
1772698661151981800,17.25298193359375,1.7802600860595703,-5.656632900238037,2.2468605041503906
1772698661169328400,17.270328369140625,1.7060825824737549,-6.446264266967773,1.5002998113632202
1772698661186675200,17.28767529296875,1.9812572002410889,-8.267202377319336,-0.2105683982372284
1772698661204022000,17.30502197265625,2.045863389968872,-10.427921295166016,-0.9906286001205444
1772698661221368600,17.32236865234375,2.146361827850342,-10.164710998535156,-0.6580262184143066
1772698661238715100,17.339715087890625,2.5914268493652344,-7.8317084312438965,1.7084753513336182
1772698661256062000,17.35706201171875,3.570091485977173,-5.163711071014404,3.029313564300537
1772698661273408800,17.37440869140625,3.9122650623321533,-3.4887354373931885,3.3619158267974854
1772698661290755300,17.39175537109375,3.9984066486358643,-5.082355499267578,3.893122434616089
1772698661308102100,17.40910205078125,3.744767427444458,-6.585047721862793,3.7567315101623535
1772698661325448700,17.42644873046875,1.4141582250595093,-8.97787094116211,4.376472473144531
1772698661342795500,17.44379541015625,-0.13160525262355804,-18.766908645629883,5.608776092529297
1772698661360142000,17.46114208984375,-7.5086774826049805,-33.592838287353516,0.2225325107574463
1772698661377489000,17.478489013671876,-6.991827964782715,-25.356740951538086,-6.269195556640625
1772698661394835500,17.49583544921875,-0.20817556977272034,-13.665410041809082,-6.446264266967773
1772698661412182300,17.513182373046874,7.5708909034729,-15.90987777709961,-4.443471431732178
1772698661429528800,17.53052880859375,9.875179290771484,-12.208181381225586,-0.5670989751815796
1772698661446875600,17.547875732421875,5.525027275085449,-6.955935478210449,2.3090739250183105
1772698661464222200,17.56522216796875,1.552941918373108,-7.101897716522217,1.495514154434204
1772698661481569000,17.582569091796874,-1.8113667964935303,-13.213166236877441,0.6293123364448547
1772698661498915800,17.599915771484376,-1.0528420209884644,-15.766308784484863,-1.2849457263946533
1772698661516262400,17.617262451171875,1.5601203441619873,-14.002798080444336,-1.1676974296569824
1772698661533609200,17.634609130859374,1.466800332069397,-9.853643417358398,-1.3758729696273804
1772698661550955800,17.651955810546873,1.5242279767990112,-6.874579429626465,-1.4380863904953003
1772698661568302600,17.669302490234376,0.8303094506263733,-5.357530117034912,-1.0193424224853516
1772698661585649200,17.686649169921875,0.6005984544754028,-5.142175674438477,-0.24885354936122894
1772698661602996000,17.703995849609374,0.7872386574745178,-5.201996326446533,0.6293123364448547
1772698661620342500,17.721342529296876,1.3351950645446777,-5.606383323669434,1.8496519327163696
1772698661637689300,17.738689453125,2.03629207611084,-6.652047157287598,3.649054527282715
1772698661655036000,17.756035888671875,2.7014968395233154,-7.915457248687744,5.484349727630615
1772698661672382700,17.7733828125,2.4598217010498047,-8.437092781066895,6.429514408111572
1772698661689729500,17.7907294921875,1.4333007335662842,-7.04207706451416,5.182853698730469
1772698661707076000,17.808076171875,1.6654045581817627,-5.26181697845459,2.59621262550354
1772698661724423000,17.8254228515625,2.943171739578247,-4.5583271980285645,-0.32542386651039124
1772698661741769500,17.84276953125,4.287938117980957,-5.982056617736816,-1.9956140518188477
1772698661759116300,17.8601162109375,4.122833251953125,-6.608976364135742,-2.1822543144226074
1772698661776462800,17.877462890625,2.8211379051208496,-6.515655994415283,-0.5168496966362
1772698661793809700,17.8948095703125,1.2729816436767578,-8.056633949279785,1.6055840253829956
1772698661811156200,17.91215625,0.5886343717575073,-10.928021430969238,3.2231321334838867
1772698661828503000,17.9295029296875,0.5072783827781677,-11.143375396728516,2.021935224533081
1772698661845849600,17.946849609375,1.6654045581817627,-8.817551612854004,0.5168496966362
1772698661863196400,17.964196533203125,2.63449764251709,-8.056633949279785,-0.5575276613235474
1772698661880543200,17.981543212890625,3.10109806060791,-8.918049812316895,-1.0121639966964722
1772698661897889800,17.998889892578124,3.806980848312378,-10.389636039733887,-0.9786644577980042
1772698661915236600,18.016236572265626,3.404986619949341,-10.944770812988281,-1.1653046607971191
1772698661932583200,18.033583251953125,2.9383862018585205,-11.306086540222168,-1.7132610082626343
1772698661949930000,18.050929931640624,2.4909284114837646,-11.81336498260498,-1.7395820617675781
1772698661967276500,18.068276611328123,0.9020941257476807,-11.538190841674805,-0.9882357716560364
1772698661984623400,18.085623291015626,1.31365966796875,-12.693923950195312,0.8662018179893494
1772698662001970000,18.102969970703125,1.2346965074539185,-15.62991714477539,2.8905298709869385
1772698662019316700,18.120316650390624,0.33020952343940735,-19.98246192932129,4.453042984008789
1772698662036663300,18.137663330078126,0.04785645380616188,-21.17887306213379,5.5968122482299805
1772698662054010000,18.155010009765626,1.373480200767517,-18.458234786987305,5.003392219543457
1772698662071357000,18.17235693359375,3.5341989994049072,-12.904492378234863,4.254438877105713
1772698662088703500,18.189703369140624,3.988835334777832,-8.161917686462402,2.991028308868408
1772698662106050300,18.20705029296875,2.6608188152313232,-7.941778182983398,2.0338993072509766
1772698662123396900,18.22439697265625,1.5002998113632202,-8.420342445373535,1.1724830865859985
1772698662140743700,18.24174365234375,2.4765713214874268,-8.305487632751465,-0.1698904037475586
1772698662158090200,18.25909033203125,0.5862415432929993,-7.121040344238281,-0.16271193325519562
1772698662175437000,18.27643701171875,1.0169496536254883,-6.738188743591309,-1.801795482635498
1772698662192784000,18.293783935546877,1.3926228284835815,-6.262016773223877,-2.0315065383911133
1772698662210130400,18.31113037109375,1.490728497505188,-6.029912948608398,-2.1439690589904785
1772698662227477200,18.328477294921875,1.4691931009292603,-6.618547439575195,-1.2897313833236694
1772698662244823800,18.34582373046875,0.8638089895248413,-6.632904529571533,-0.6699903607368469
1772698662262170600,18.363170654296876,0.8638089895248413,-6.750152587890625,-0.2105683982372284
1772698662279517200,18.38051708984375,0.9236295223236084,-6.652047157287598,0.607776939868927
1772698662296864000,18.397864013671875,1.28255295753479,-5.702096462249756,1.4404792785644531
1772698662314210800,18.4152109375,2.100898265838623,-4.596612453460693,1.8472590446472168
1772698662331557400,18.432557373046876,1.8616160154342651,-4.388436794281006,1.8305093050003052
1772698662348904200,18.449904296875,1.246660590171814,-4.704289436340332,1.3232308626174927
1772698662366250800,18.467250732421874,2.146361827850342,-7.3746795654296875,0.6005984544754028
1772698662383597600,18.48459765625,1.5696916580200195,-11.643474578857422,-0.31106695532798767
1772698662400944000,18.501944091796876,1.215553879737854,-13.552947044372559,-0.8733802437782288
1772698662418291000,18.519291015625,2.1918256282806396,-9.961320877075195,1.3160524368286133
1772698662435637800,18.5366376953125,3.730410575866699,-6.503692150115967,2.242074728012085
1772698662452984300,18.553984375,4.701896667480469,-4.867001056671143,2.4765713214874268
1772698662470331100,18.5713310546875,3.2374889850616455,-5.694917678833008,2.7421748638153076
1772698662487677700,18.588677734375,0.8255237936973572,-11.758330345153809,3.8021950721740723
1772698662505024500,18.6060244140625,-0.6029912829399109,-23.933012008666992,1.1820544004440308
1772698662522371000,18.62337109375,-4.527220249176025,-29.05843734741211,-2.7828526496887207
1772698662539718000,18.6407177734375,-2.0793628692626953,-14.490934371948242,-1.459621787071228
1772698662557064700,18.658064697265626,3.7782669067382812,-8.898907661437988,0.28953152894973755
1772698662574411300,18.675411376953125,6.510870456695557,-10.693524360656738,0.18903298676013947
1772698662591758000,18.692758056640624,6.391229152679443,-14.323436737060547,1.337587833404541
1772698662609104600,18.710104736328127,2.3234307765960693,-14.605789184570312,0.24406790733337402
1772698662626451500,18.727451416015626,-0.0933200865983963,-14.505290985107422,-0.9332008361816406
1772698662643798300,18.74479833984375,0.5048855543136597,-13.215559005737305,-1.2179467678070068
1772698662661144800,18.762144775390624,1.7922241687774658,-11.320444107055664,-1.3280165195465088
1772698662678491600,18.77949169921875,2.526820659637451,-9.937392234802246,-0.851844847202301
1772698662695838200,18.796838134765625,2.014756679534912,-9.248259544372559,-0.40677985548973083
1772698662713185000,18.81418505859375,1.31365966796875,-8.640482902526855,-0.3326023519039154
1772698662730531600,18.831531494140624,1.5984054803848267,-8.274380683898926,0.3924229145050049
1772698662747878400,18.84887841796875,1.5792629718780518,-7.6737823486328125,1.0336993932724
1772698662765225000,18.866224853515625,1.6462619304656982,-7.357929706573486,1.7156537771224976
1772698662782571800,18.88357177734375,1.5290136337280273,-7.140182971954346,2.2396819591522217
1772698662799918600,18.900918701171875,1.3830515146255493,-7.001399040222168,2.7182464599609375
1772698662817265200,18.91826513671875,1.2035897970199585,-6.920042991638184,2.6321048736572266
1772698662834612000,18.935612060546877,1.2083754539489746,-6.563512325286865,2.1822543144226074
1772698662851958500,18.95295849609375,1.5864413976669312,-5.862415313720703,2.0793628692626953
1772698662869305300,18.970305419921875,1.9980069398880005,-4.960321426391602,1.7682958841323853
1772698662886652200,18.987652099609374,1.7324036359786987,-4.1419758796691895,1.1868400573730469
1772698662903998700,19.004998779296876,2.251646041870117,-4.027120590209961,-0.07417750358581543
1772698662921345500,19.022345458984375,1.8041882514953613,-4.517649173736572,-0.7441678643226624
1772698662938692000,19.039692138671874,2.3641088008880615,-5.283352375030518,-1.734796404838562
1772698662956039000,19.057038818359374,2.2779672145843506,-6.271588325500488,-1.6103696823120117
1772698662973385700,19.0743857421875,1.8352949619293213,-7.738388538360596,-0.10049854964017868
1772698662990732300,19.091732177734375,2.4885356426239014,-11.021341323852539,2.069791555404663
1772698663008079000,19.1090791015625,2.888136863708496,-12.346964836120605,2.801995277404785
1772698663025425700,19.12642578125,3.5270206928253174,-10.112068176269531,1.5026925802230835
1772698663042772500,19.1437724609375,3.85483717918396,-8.566305160522461,-0.5431707501411438
1772698663060119000,19.161119140625,3.1728827953338623,-9.207581520080566,-2.146361827850342
1772698663077465900,19.1784658203125,2.3258235454559326,-12.454642295837402,-2.7517459392547607
1772698663094812700,19.195812744140625,1.275374412536621,-14.885749816894531,-0.729810893535614
1772698663112159200,19.2131591796875,0.7680960893630981,-15.728023529052734,1.6079767942428589
1772698663129506000,19.230506103515626,0.6795616149902344,-17.28096580505371,2.132004976272583
1772698663146852600,19.2478525390625,0.3852444589138031,-18.348163604736328,0.7992027401924133
1772698663164199400,19.265199462890624,1.098305583000183,-19.613967895507812,2.1439690589904785
1772698663181546200,19.282546142578123,3.10109806060791,-16.165910720825195,4.429114818572998
1772698663198892800,19.299892822265626,4.311866283416748,-11.83729362487793,4.192225456237793
1772698663216239600,19.317239501953125,3.7328033447265625,-9.781859397888184,2.699103832244873
1772698663233586200,19.334586181640624,2.038684844970703,-9.595218658447266,1.5864413976669312
1772698663250933000,19.35193310546875,0.4977070987224579,-9.360722541809082,1.9956140518188477
1772698663268279600,19.369279541015626,-0.641276478767395,-8.46341323852539,1.7371892929077148
1772698663285626400,19.38662646484375,-0.24406790733337402,-8.310273170471191,0.6628118753433228
1772698663302973200,19.40397314453125,1.1748759746551514,-6.97268533706665,-0.7657032608985901
1772698663320319700,19.42131982421875,1.4715858697891235,-7.482356548309326,-0.5359922647476196
1772698663337666600,19.43866650390625,1.6295121908187866,-7.35314416885376,-1.306481122970581
1772698663355013400,19.456013427734376,1.3088740110397339,-7.338787078857422,-1.6223337650299072
1772698663372360000,19.47335986328125,1.2490534782409668,-8.02791976928711,-1.3830515146255493
1772698663389706800,19.490706787109374,1.0001999139785767,-10.262816429138184,-1.2729816436767578
1772698663407053300,19.50805322265625,0.20817556977272034,-15.14896011352539,0.09092725813388824
1772698663424400100,19.525400146484376,2.6057839393615723,-15.488740921020508,-0.18424734473228455
1772698663441747000,19.542746826171875,2.940778970718384,-16.09651756286621,1.3232308626174927
1772698663459093500,19.560093505859374,5.319244861602783,-15.905092239379883,4.6372904777526855
1772698663476440300,19.5774404296875,3.091526746749878,-13.627124786376953,8.305487632751465
1772698663493787100,19.594787109375,-0.34695929288864136,-10.470992088317871,8.48016357421875
1772698663511133700,19.6121337890625,-7.939385414123535,-10.310672760009766,11.327622413635254
1772698663528480500,19.62948046875,11.885149955749512,-6.400800704956055,18.338592529296875
1772698663545827000,19.6468271484375,17.06321907043457,-6.329015731811523,19.211973190307617
1772698663563174000,19.664173828125,8.628518104553223,-3.3882367610931396,16.474584579467773
1772698663580520700,19.681520751953126,10.353743553161621,-2.376072883605957,16.14437484741211
1772698663597867300,19.6988671875,19.226329803466797,-4.902893543243408,12.399606704711914
1772698663615214000,19.716214111328124,29.338397979736328,-10.777273178100586,5.453242778778076
1772698663632560600,19.733560546875,33.36552047729492,-14.306686401367188,-0.39481574296951294
1772698663649907500,19.750907470703126,29.362327575683594,-14.359328269958496,1.3280165195465088
1772698663667254300,19.768254150390625,25.60080909729004,-11.763115882873535,7.83410120010376
1772698663684601000,19.78560107421875,21.217159271240234,-14.981462478637695,8.090133666992188
1772698663701947600,19.80294775390625,18.29073715209961,-17.19482421875,5.795416355133057
1772698663719294500,19.82029443359375,15.50549030303955,-16.922040939331055,2.3306093215942383
1772698663736641000,19.83764111328125,11.621939659118652,-14.904891967773438,1.3615161180496216
1772698663753987800,19.85498779296875,10.250852584838867,-12.705887794494629,2.579462766647339
1772698663771334700,19.872334716796875,8.2695951461792,-9.829715728759766,4.390829563140869
1772698663788681200,19.88968115234375,4.989035129547119,-8.037490844726562,6.063412666320801
1772698663806028000,19.907028076171876,1.454836130142212,-6.5419769287109375,3.924229145050049
1772698663823374800,19.924374755859375,1.4380863904953003,-4.400400638580322,1.8496519327163696
1772698663840721400,19.941721435546874,2.029113531112671,-2.2636101245880127,0.34217363595962524
1772698663858068200,19.959068115234373,3.6323046684265137,-0.7178468108177185,0.9403793215751648
1772698663875415000,19.9764150390625,5.347958564758301,1.6223337650299072,1.1724830865859985
1772698663892761600,19.99376171875,4.491328239440918,3.2350962162017822,1.093519926071167
1772698663910108400,20.0111083984375,4.089334011077881,3.4337005615234375,1.7156537771224976
1772698663927455000,20.028455078125,4.063013076782227,4.113262176513672,1.0815558433532715
1772698663944801800,20.0458017578125,4.780859470367432,5.032105922698975,0.2584248483181
1772698663962148600,20.063148681640627,2.438286304473877,4.297509670257568,0.22971096634864807
1772698663979495200,20.0804951171875,0.20338992774486542,4.926821708679199,-0.4378865361213684
1772698663996842000,20.097842041015625,1.9310078620910645,6.324230194091797,-0.8063812255859375
1772698664014188800,20.115188720703124,9.528220176696777,8.556734085083008,-1.856830358505249
1772698664031535400,20.132535400390626,6.314659118652344,7.348358154296875,-2.122433662414551
1772698664048882200,20.149882080078125,6.285944938659668,6.795616149902344,-2.3808584213256836
1772698664066228700,20.167228759765624,6.781259536743164,6.16391134262085,-1.9262222051620483
1772698664083575600,20.184575439453123,7.379465103149414,5.216353416442871,-1.1030912399291992
1772698664100922400,20.20192236328125,5.1565327644348145,6.324230194091797,-0.17946170270442963
1772698664118269000,20.21926904296875,5.525027275085449,6.623332977294922,0.45224347710609436
1772698664135615700,20.23661572265625,6.632904529571533,5.7164530754089355,0.6915257573127747
1772698664152962300,20.25396240234375,7.41535758972168,7.1234331130981445,-1.1820544004440308
1772698664170309000,20.27130908203125,7.216753005981445,8.709874153137207,-2.531606435775757
1772698664187656000,20.288656005859377,5.924628734588623,8.630910873413086,-1.1748759746551514
1772698664205002500,20.30600244140625,5.307280540466309,8.219346046447754,0.4331009089946747
1772698664222349300,20.323349365234375,5.391029357910156,8.094919204711914,0.7657032608985901
1772698664239696100,20.340696044921874,4.957928657531738,7.8388872146606445,0.11485548317432404
1772698664257042700,20.358042724609376,4.4650068283081055,7.980063438415527,-0.6293123364448547
1772698664274389500,20.375389404296875,4.383651256561279,7.747959613800049,-1.069591760635376
1772698664291736300,20.392736328125,4.797609329223633,7.642675399780273,-1.4069796800613403
1772698664309083000,20.410082763671873,5.848058700561523,7.984848976135254,-1.2035897970199585
1772698664326429700,20.4274296875,5.513063430786133,7.056434154510498,-0.09810572862625122
1772698664343776500,20.444776611328123,5.175675392150879,6.721438884735107,0.064606212079525
1772698664361123000,20.462123046875,5.2977094650268555,7.3292155265808105,-0.4713860750198364
