time,seconds_elapsed,z,y,x
1772698643965621200,0.066621337890625,0,0,0
1772698643975621000,0.07662109375,-0.05816936492919922,0.27931976318359375,-0.15652137994766235
1772698643985621200,0.086621337890625,-0.12087821960449219,-0.10083246231079102,-0.22504949569702148
1772698643995621000,0.09662109375,-0.16989421844482422,-0.46467113494873047,0.10356196761131287
1772698644005621200,0.106621337890625,0.5005073547363281,0.0832209587097168,1.574354648590088
1772698644015621000,0.11662109375,0.5320625305175781,-0.1464071273803711,0.5217347741127014
1772698644025621200,0.126621337890625,-0.034516334533691406,-0.26737308502197266,0.18380816280841827
1772698644035621000,0.13662109375,-0.49281787872314453,-0.09055662155151367,0.06103169918060303
1772698644045621200,0.146621337890625,-0.7794961929321289,-0.044617652893066406,-0.2371545433998108
1772698644055621000,0.15662109375,-1.264091968536377,-0.32415294647216797,-0.6694321632385254
1772698644065621200,0.166621337890625,-1.7020912170410156,-0.5415840148925781,-0.8849175572395325
1772698644075621000,0.17662109375,-2.0694589614868164,-0.39089441299438477,-0.6591781377792358
1772698644085621200,0.186621337890625,-2.265347480773926,-0.1463642120361328,-0.28278863430023193
1772698644095621000,0.19662109375,-2.204929828643799,-0.31233739852905273,-0.30816587805747986
1772698644105621200,0.206621337890625,-1.7205414772033691,-0.42366695404052734,-0.5321924686431885
1772698644115621000,0.21662109375,-1.716932773590088,-0.27489757537841797,-0.794006884098053
1772698644125621200,0.226621337890625,-1.9630446434020996,-0.5495233535766602,-0.7516671419143677
1772698644135621000,0.23662109375,-2.0289268493652344,-0.9352355003356934,-0.5001809597015381
1772698644145621200,0.246621337890625,-1.6974034309387207,-1.0834846496582031,-0.01212167739868164
1772698644155621000,0.25662109375,-1.2590641975402832,-1.06583833694458,0.6967284679412842
1772698644165621200,0.266621337890625,-0.9434723854064941,-1.1126980781555176,0.9719913005828857
1772698644175621000,0.27662109375,-0.8785877227783203,-1.2353878021240234,1.2513000965118408
1772698644185621200,0.286621337890625,-1.07078218460083,-1.6110773086547852,1.2026002407073975
1772698644195621000,0.29662109375,-1.1416587829589844,-1.991145133972168,0.8687660694122314
1772698644205621200,0.306621337890625,-1.3576459884643555,-2.2851059436798096,0.16593635082244873
1772698644215621000,0.31662109375,-1.7708830833435059,-2.587019920349121,-0.6065375804901123
1772698644225621200,0.326621337890625,-2.3168177604675293,-2.7648816108703613,-1.1614246368408203
1772698644235621000,0.33662109375,-2.874143123626709,-3.04305362701416,-1.217472791671753
1772698644245621200,0.346621337890625,-3.2773919105529785,-3.6027417182922363,-0.7779295444488525
1772698644255621000,0.35662109375,-3.2508010864257812,-4.281630516052246,-0.29169178009033203
1772698644265621200,0.366621337890625,-3.132805109024048,-4.983222007751465,-0.6971335411071777
1772698644275621000,0.37662109375,-3.1162352561950684,-4.871500015258789,-0.36739397048950195
1772698644285621200,0.386621337890625,-3.1615662574768066,-5.434104919433594,-0.3316318988800049
1772698644295621000,0.39662109375,-3.187180519104004,-6.125853061676025,-0.227569580078125
1772698644305621200,0.406621337890625,-3.1061081886291504,-6.250525951385498,-0.2673616409301758
1772698644315621000,0.41662109375,-3.2029199600219727,-6.2422871589660645,-0.5545811653137207
1772698644325621200,0.426621337890625,-4.781161785125732,-6.595460414886475,0.08680152893066406
1772698644335621000,0.43662109375,-5.6794939041137695,-7.435174465179443,1.1588616371154785
1772698644345621200,0.446621337890625,-5.136468410491943,-7.618196964263916,1.7933402061462402
1772698644355621000,0.45662109375,-4.574519634246826,-7.834272384643555,2.3052268028259277
1772698644365621200,0.466621337890625,-3.7539525032043457,-8.308435440063477,2.830249309539795
1772698644375621000,0.47662109375,-2.407252311706543,-8.420397758483887,2.866802215576172
1772698644385621200,0.486621337890625,-1.2231872081756592,-8.527783393859863,2.6267261505126953
1772698644395621000,0.49662109375,-0.6584799289703369,-8.641144752502441,2.777796745300293
1772698644405621200,0.506621337890625,0.05974578857421875,-8.790807723999023,3.5703678131103516
1772698644415621000,0.51662109375,1.5526695251464844,-9.352275848388672,4.779410362243652
1772698644425621200,0.526621337890625,3.852754592895508,-9.692235946655273,5.927032947540283
1772698644435621000,0.53662109375,6.40236759185791,-9.397109985351562,6.980646133422852
1772698644445621200,0.546621337890625,8.566740036010742,-8.960649490356445,7.406973361968994
1772698644455621000,0.55662109375,9.954252243041992,-8.483194351196289,7.85572624206543
1772698644465621200,0.566621337890625,10.287100791931152,-8.028766632080078,8.444427490234375
1772698644475621000,0.57662109375,9.88992691040039,-7.44795036315918,8.59913158416748
1772698644485621200,0.586621337890625,8.96762752532959,-7.181870460510254,8.379105567932129
1772698644495621000,0.59662109375,8.942413330078125,-7.396445274353027,8.206732749938965
1772698644505621200,0.606621337890625,10.225692749023438,-7.661677360534668,7.656730651855469
1772698644515621000,0.61662109375,12.356154441833496,-7.410079002380371,7.318473815917969
1772698644525621200,0.626621337890625,13.364303588867188,-7.491449356079102,8.80020523071289
1772698644535621000,0.63662109375,13.858510971069336,-6.868697166442871,10.698301315307617
1772698644545621200,0.646621337890625,13.692485809326172,-6.180997848510742,11.964593887329102
1772698644555621000,0.65662109375,12.773785591125488,-6.033600807189941,12.64949893951416
1772698644565621200,0.666621337890625,11.977750778198242,-5.485682487487793,12.275238990783691
1772698644575621000,0.67662109375,11.825749397277832,-4.651616096496582,11.087098121643066
1772698644585621200,0.686621337890625,10.966531753540039,-4.075943946838379,9.853724479675293
1772698644595621000,0.69662109375,9.94067668914795,-3.7938451766967773,8.984285354614258
1772698644605621200,0.706621337890625,8.573299407958984,-3.241969108581543,8.119144439697266
1772698644615621000,0.71662109375,7.533801078796387,-2.584975242614746,7.8470563888549805
1772698644625621200,0.726621337890625,7.061210632324219,-2.2148237228393555,8.212411880493164
1772698644635621000,0.73662109375,6.498683452606201,-2.0200576782226562,8.372519493103027
1772698644645621200,0.746621337890625,5.437497138977051,-1.1295795440673828,8.269844055175781
1772698644655621000,0.75662109375,4.329992294311523,-0.42955970764160156,8.35590934753418
1772698644665621200,0.766621337890625,2.9728808403015137,0.11670684814453125,8.269790649414062
1772698644675621000,0.77662109375,1.8519983291625977,0.8896818161010742,7.877680778503418
1772698644685621200,0.786621337890625,0.4666914939880371,1.585794448852539,7.836538314819336
1772698644695621000,0.79662109375,-0.6123003959655762,1.658895492553711,7.8973612785339355
1772698644705621200,0.806621337890625,-1.4045681953430176,1.7944145202636719,7.314215660095215
1772698644715621000,0.81662109375,-2.380533218383789,2.009962558746338,6.513073444366455
1772698644725621200,0.826621337890625,-3.1141223907470703,2.3894224166870117,5.915956020355225
1772698644735621000,0.83662109375,-4.237331390380859,2.873020648956299,5.618461608886719
1772698644745621200,0.846621337890625,-5.9623308181762695,3.379138946533203,5.359212398529053
1772698644755621000,0.85662109375,-7.3669023513793945,3.343319892883301,4.87201452255249
1772698644765621200,0.866621337890625,-8.885553359985352,3.2016959190368652,5.671189785003662
1772698644775621000,0.87662109375,-8.009845733642578,3.4181413650512695,5.287446022033691
1772698644785621200,0.886621337890625,-6.946717262268066,3.1302618980407715,4.726393222808838
1772698644795621000,0.89662109375,-6.819514274597168,2.638186454772949,3.943972110748291
1772698644805621200,0.906621337890625,-6.092169761657715,2.0881118774414062,2.518731117248535
1772698644815621000,0.91662109375,-4.591163635253906,1.5472712516784668,0.8977847099304199
1772698644825621200,0.926621337890625,-2.6841588020324707,0.6591105461120605,-0.3876509666442871
1772698644835621000,0.93662109375,-1.7979499101638794,0.241790771484375,-1.5534052848815918
1772698644845621200,0.946621337890625,-1.0912210941314697,0.3127102851867676,-1.5111079216003418
1772698644855621000,0.95662109375,-1.242901086807251,0.6543698310852051,-0.5760197639465332
1772698644865621200,0.966621337890625,-1.2929918766021729,0.9420499801635742,0.32764101028442383
1772698644875621000,0.97662109375,-1.560255527496338,1.7715153694152832,1.3123760223388672
1772698644885621200,0.986621337890625,-2.390383720397949,2.686664581298828,3.337394952774048
1772698644895621000,0.99662109375,-2.363180637359619,0.9336166381835938,5.544574737548828
1772698644905621200,1.006621337890625,-0.8662009239196777,-0.12483835220336914,5.608110427856445
1772698644915621000,1.01662109375,9.331796646118164,-3.8876357078552246,2.4828884601593018
1772698644925621200,1.026621337890625,6.525946617126465,-5.837982177734375,1.2239117622375488
1772698644935621000,1.03662109375,-2.5055453777313232,-6.140874862670898,1.0744264125823975
1772698644945621200,1.046621337890625,0.2825171947479248,-4.575451850891113,-0.25479602813720703
1772698644955621000,1.05662109375,3.723876953125,-5.279029846191406,-0.19040203094482422
1772698644965621200,1.066621337890625,2.8835391998291016,-4.759454727172852,-0.36507654190063477
1772698644975621000,1.07662109375,-0.30456531047821045,-4.175024032592773,-0.047307491302490234
1772698644985621200,1.086621337890625,-1.1752690076828003,-4.535572052001953,-0.15024638175964355
1772698644995621000,1.09662109375,-1.5333749055862427,-4.12841796875,-0.723876953125
1772698645005621200,1.106621337890625,-1.6923376321792603,-3.3179988861083984,-0.2738173007965088
1772698645015621000,1.11662109375,-1.9258142709732056,-3.1292724609375,0.8690440654754639
1772698645025621200,1.126621337890625,-1.5605099201202393,-3.328907012939453,1.4637987613677979
1772698645035621000,1.13662109375,-0.6455020904541016,-3.5432968139648438,1.8240070343017578
1772698645045621200,1.146621337890625,0.6749083995819092,-3.101003646850586,2.311473846435547
1772698645055621000,1.15662109375,1.4392155408859253,-2.898076057434082,4.170867443084717
1772698645065621200,1.166621337890625,1.6837276220321655,-1.961029052734375,5.082536220550537
1772698645075621000,1.17662109375,-0.05973994731903076,-1.1364307403564453,5.426461696624756
1772698645085621200,1.186621337890625,-1.5555306673049927,0.6181507110595703,5.323556423187256
1772698645095621000,1.19662109375,-0.6020472049713135,2.4754514694213867,0.03523445129394531
1772698645105621200,1.206621337890625,2.286543607711792,1.499868392944336,-13.125563621520996
1772698645115621000,1.21662109375,-5.124328136444092,-0.4684486389160156,12.688711166381836
1772698645125621200,1.226621337890625,0.5087419748306274,9.64875602722168,16.497116088867188
1772698645135621000,1.23662109375,3.490088939666748,4.199160099029541,7.928566932678223
1772698645145621200,1.246621337890625,5.060433387756348,2.948709487915039,-2.753018379211426
1772698645155621000,1.25662109375,1.8211911916732788,2.662019729614258,-6.922855854034424
1772698645165621200,1.266621337890625,-1.4082634449005127,2.6251344680786133,-8.924964904785156
1772698645175621000,1.27662109375,-0.8670840263366699,2.900815486907959,-7.8821187019348145
1772698645185621200,1.286621337890625,-0.8057526350021362,2.469470977783203,-5.239480018615723
1772698645195621000,1.29662109375,-0.3089284896850586,2.8430895805358887,-3.3809447288513184
1772698645205621200,1.306621337890625,0.3697338104248047,2.7933459281921387,-1.9172191619873047
1772698645215621000,1.31662109375,0.48820459842681885,3.538302421569824,-0.7489289045333862
1772698645225621200,1.326621337890625,-0.3654019832611084,4.121531963348389,-2.651773691177368
1772698645235621000,1.33662109375,-0.9010220766067505,3.688371181488037,-4.386073112487793
1772698645245621200,1.346621337890625,-0.6307073831558228,1.9503850936889648,-3.2649691104888916
1772698645255621000,1.35662109375,0.26144957542419434,0.1605052947998047,-2.3216116428375244
1772698645265621200,1.366621337890625,0.7783607244491577,-0.8849306106567383,-2.000844717025757
1772698645275621000,1.37662109375,1.2621843814849854,-1.195077896118164,-2.018282890319824
1772698645285621200,1.386621337890625,1.8253836631774902,-3.66925048828125,-0.6144245862960815
1772698645295621000,1.39662109375,1.392756462097168,-5.724159240722656,-1.5600531101226807
1772698645305621200,1.406621337890625,1.7465765476226807,-4.812300682067871,0.004769444465637207
1772698645315621000,1.41662109375,0.6254396438598633,-4.156824111938477,0.840097963809967
1772698645325621200,1.426621337890625,0.5433835983276367,-2.2154312133789062,1.2764194011688232
1772698645335621000,1.43662109375,-0.11860013008117676,-1.9333343505859375,2.361361265182495
1772698645345621200,1.446621337890625,0.4078662395477295,-4.356027603149414,3.7297215461730957
1772698645355621000,1.45662109375,0.3174244165420532,-5.969454765319824,3.472618579864502
1772698645365621200,1.466621337890625,0.08917438983917236,-5.328434944152832,1.5569320917129517
1772698645375621000,1.47662109375,0.12159669399261475,-4.86672306060791,1.9176307916641235
1772698645385621200,1.486621337890625,-0.2265547513961792,-4.503134727478027,1.7657620906829834
1772698645395621000,1.49662109375,0.0018413066864013672,-3.65689754486084,1.148451566696167
1772698645405621200,1.506621337890625,0.5287052392959595,-2.8105106353759766,0.8789100646972656
1772698645415621000,1.51662109375,1.1466190814971924,-2.9102916717529297,0.5608359575271606
1772698645425621200,1.526621337890625,1.1792935132980347,-2.560588836669922,0.06690084934234619
1772698645435621000,1.53662109375,0.5973680019378662,-1.617232322692871,0.15704262256622314
1772698645445621200,1.546621337890625,-0.19499170780181885,-0.34346771240234375,0.3764774799346924
1772698645455621000,1.55662109375,-0.5574479103088379,0.43493080139160156,0.8053455352783203
1772698645465621200,1.566621337890625,-0.21367430686950684,7.691964626312256,-1.245415449142456
1772698645475621000,1.57662109375,0.5832873582839966,9.010210037231445,-1.9597632884979248
1772698645485621200,1.586621337890625,0.7898638248443604,3.9307422637939453,-0.6722828149795532
1772698645495621000,1.59662109375,0.6117486953735352,1.462677001953125,-0.5020220279693604
1772698645505621200,1.606621337890625,0.6188520193099976,-0.12363815307617188,0.31986725330352783
1772698645515621000,1.61662109375,0.4879782199859619,-0.47040653228759766,1.1182434558868408
1772698645525621200,1.626621337890625,-0.1806027889251709,0.09868144989013672,0.48640769720077515
1772698645535621000,1.63662109375,-1.729670763015747,1.871809959411621,-1.53583562374115
1772698645545621200,1.646621337890625,-1.9122952222824097,2.0949153900146484,-1.0916199684143066
1772698645555621000,1.65662109375,-0.07846033573150635,1.5756874084472656,-1.1881183385849
1772698645565621200,1.666621337890625,0.23102998733520508,1.0063743591308594,-0.868983268737793
1772698645575621000,1.67662109375,0.43119096755981445,-0.34193897247314453,-1.0612486600875854
1772698645585621200,1.686621337890625,1.0430593490600586,-1.7456350326538086,-0.16010120511054993
1772698645595621000,1.69662109375,0.7649961709976196,-2.3435020446777344,0.6998443603515625
1772698645605621200,1.706621337890625,0.14874649047851562,-2.585202217102051,0.9751891493797302
1772698645615621000,1.71662109375,-0.4379241466522217,-2.67647647857666,0.8006027936935425
1772698645625621200,1.726621337890625,-0.6154131889343262,-2.8457860946655273,0.5738399028778076
1772698645635621000,1.73662109375,-0.8072428703308105,-2.2892322540283203,0.4141223132610321
1772698645645621200,1.746621337890625,-1.1735186576843262,-0.5230550765991211,0.7476903200149536
1772698645655621000,1.75662109375,-0.21964025497436523,0.5977973937988281,0.8540399074554443
1772698645665621200,1.766621337890625,0.6837718486785889,0.8132562637329102,0.8422735929489136
1772698645675621000,1.77662109375,0.6746658086776733,1.1112899780273438,0.4007372260093689
1772698645685621200,1.786621337890625,0.5280534029006958,1.3703384399414062,0.1961497664451599
1772698645695621000,1.79662109375,1.1491130590438843,3.7917327880859375,-1.091124176979065
1772698645705621200,1.806621337890625,1.353150725364685,12.135552406311035,-4.5313029289245605
1772698645715621000,1.81662109375,-0.2961461544036865,13.65045166015625,-4.292293548583984
1772698645725621200,1.826621337890625,-0.11851108074188232,3.773418426513672,0.4429493546485901
1772698645735621000,1.83662109375,0.07339000701904297,-5.906675338745117,3.3767106533050537
1772698645745621200,1.846621337890625,0.7129760980606079,-12.363975524902344,4.183783054351807
1772698645755621000,1.85662109375,1.8749316930770874,-13.106402397155762,3.7666666507720947
1772698645765621200,1.866621337890625,1.3442083597183228,-6.590611457824707,1.310768961906433
1772698645775621000,1.87662109375,1.25852370262146,-2.6813230514526367,0.07693621516227722
1772698645785621200,1.886621337890625,0.9432051181793213,-1.065812110900879,0.22625941038131714
1772698645795621000,1.89662109375,-0.2968798875808716,0.07513713836669922,0.5852425694465637
1772698645805621200,1.906621337890625,-0.9093049764633179,0.9332942962646484,0.49274325370788574
1772698645815621000,1.91662109375,-0.722031831741333,1.4417057037353516,0.07846114039421082
1772698645825621200,1.926621337890625,-0.27044689655303955,1.84952974319458,-0.28717783093452454
1772698645835621000,1.93662109375,-0.013116955757141113,1.9396705627441406,-0.30752184987068176
1772698645845621200,1.946621337890625,0.4193800687789917,1.8477210998535156,-0.08750355243682861
1772698645855621000,1.95662109375,0.8605519533157349,1.687973976135254,0.18538278341293335
1772698645865621200,1.966621337890625,1.1249252557754517,1.498748779296875,0.37406545877456665
1772698645875621000,1.97662109375,1.1631836891174316,1.3544206619262695,0.48292791843414307
1772698645885621200,1.986621337890625,0.967510461807251,1.2720117568969727,0.5488284230232239
1772698645895621000,1.99662109375,0.5976012945175171,1.2881145477294922,0.5820805430412292
1772698645905621200,2.006621337890625,0.1383378505706787,1.3273696899414062,0.5991798043251038
1772698645915621000,2.01662109375,-0.24806904792785645,1.4270811080932617,0.5582228899002075
1772698645925621200,2.026621337890625,-0.37420302629470825,1.5722389221191406,0.426313191652298
1772698645935621000,2.03662109375,-0.2747509479522705,1.7751693725585938,0.2156708836555481
1772698645945621200,2.046621337890625,-0.04275655746459961,1.9508752822875977,0.03359988331794739
1772698645955621000,2.05662109375,0.2246471643447876,2.0885705947875977,-0.12518686056137085
1772698645965621200,2.066621337890625,0.4760291576385498,2.170652389526367,-0.18955321609973907
1772698645975621000,2.07662109375,0.6362287998199463,2.2396697998046875,-0.22639064490795135
1772698645985621200,2.086621337890625,0.7171601057052612,2.32967472076416,-0.25057047605514526
1772698645995621000,2.09662109375,0.6635895371437073,2.4342260360717773,-0.2829902470111847
1772698646015621000,2.11662109375,0.3416171669960022,2.807896614074707,-0.4554070234298706
1772698646025621200,2.126621337890625,0.17181366682052612,3.0287694931030273,-0.5575525760650635
1772698646035621000,2.13662109375,0.11293983459472656,3.2553763389587402,-0.6083049178123474
1772698646045621200,2.146621337890625,0.13049715757369995,3.4763731956481934,-0.5768603682518005
1772698646055621000,2.15662109375,0.30765384435653687,3.716045379638672,-0.4442218244075775
1772698646065621200,2.166621337890625,0.6048191785812378,3.9549779891967773,-0.22740644216537476
1772698646075621000,2.17662109375,0.8638010025024414,4.1973981857299805,0.010679036378860474
1772698646085621200,2.186621337890625,1.0862221717834473,4.365984916687012,0.15222251415252686
1772698646095621000,2.19662109375,1.3642783164978027,4.331757545471191,0.28514596819877625
1772698646105621200,2.206621337890625,1.7501555681228638,3.988694667816162,0.6159555315971375
1772698646115621000,2.21662109375,2.035216808319092,3.366786003112793,1.0114972591400146
1772698646125621200,2.226621337890625,2.1489639282226562,2.5556082725524902,1.4677700996398926
1772698646135621000,2.23662109375,2.0973033905029297,1.6685752868652344,1.978049397468567
1772698646145621200,2.246621337890625,1.8685433864593506,0.8996725082397461,2.4466538429260254
1772698646155621000,2.25662109375,1.5842549800872803,0.5210018157958984,2.7067198753356934
1772698646165621200,2.266621337890625,1.3754236698150635,0.7860546112060547,2.62026309967041
1772698646175621000,2.27662109375,0.9191779494285583,1.3529605865478516,2.3566372394561768
1772698646185621200,2.286621337890625,-0.16810643672943115,1.356496810913086,2.2576756477355957
1772698646195621000,2.29662109375,-2.1883957386016846,-1.1027860641479492,2.970418930053711
1772698646205621200,2.306621337890625,-2.9901483058929443,-7.09086799621582,3.0493357181549072
1772698646215621000,2.31662109375,-1.7455847263336182,-12.38341999053955,-0.3591422438621521
1772698646225621200,2.326621337890625,-3.4866738319396973,-14.04673957824707,-4.847202777862549
1772698646235621000,2.33662109375,-4.2204060554504395,-10.13492488861084,-6.920347213745117
1772698646245621200,2.346621337890625,-2.4751529693603516,-2.866692543029785,-6.050212383270264
1772698646255621000,2.35662109375,-1.2014621496200562,1.4142236709594727,-3.741598129272461
1772698646265621200,2.366621337890625,0.42012178897857666,3.154322624206543,-0.5239347815513611
1772698646275621000,2.37662109375,2.8956551551818848,0.9551982879638672,2.6634361743927
1772698646285621200,2.386621337890625,6.294755458831787,-4.614188194274902,3.8825387954711914
1772698646295621000,2.39662109375,5.757465362548828,-7.987531661987305,3.6624982357025146
1772698646305621200,2.406621337890625,2.2143664360046387,-8.330209732055664,4.430933952331543
1772698646315621000,2.41662109375,-0.48390495777130127,-7.193979263305664,5.426026344299316
1772698646325621200,2.426621337890625,-0.9812990427017212,-6.435675621032715,4.831411838531494
1772698646335621000,2.43662109375,-1.7422174215316772,-6.544090270996094,3.045570135116577
1772698646345621200,2.446621337890625,-3.1117286682128906,-6.776802062988281,0.3088797926902771
1772698646355621000,2.45662109375,-3.0673980712890625,-6.511655807495117,-2.031559705734253
1772698646365621200,2.466621337890625,-2.26556134223938,-5.99668025970459,-3.267458200454712
1772698646375621000,2.47662109375,-1.0656299591064453,-5.108907699584961,-3.6742496490478516
1772698646385621200,2.486621337890625,0.4260939359664917,-3.623593330383301,-3.6728901863098145
1772698646395621000,2.49662109375,1.5026708841323853,-1.827092170715332,-3.3896005153656006
1772698646405621200,2.506621337890625,1.6923516988754272,-0.18890762329101562,-2.74206805229187
1772698646415621000,2.51662109375,1.3107668161392212,1.2992420196533203,-2.0204710960388184
1772698646425621200,2.526621337890625,0.560356616973877,2.5197391510009766,-1.7244548797607422
1772698646435621000,2.53662109375,-0.3511924743652344,3.2634267807006836,-1.7364975214004517
1772698646445621200,2.546621337890625,-0.7877081632614136,3.408095359802246,-1.834226369857788
1772698646455621000,2.55662109375,-0.6632359027862549,3.1222543716430664,-2.0371010303497314
1772698646465621200,2.566621337890625,-0.1451476812362671,2.579922676086426,-2.1483006477355957
1772698646475621000,2.57662109375,0.3835480213165283,1.943211555480957,-2.0337893962860107
1772698646485621200,2.586621337890625,0.6132279634475708,1.302351951599121,-1.569046974182129
1772698646495621000,2.59662109375,0.515868067741394,0.6483612060546875,-0.8144643306732178
1772698646505621200,2.606621337890625,0.2792809009552002,0.08287525177001953,-0.00509016215801239
1772698646515621000,2.61662109375,-0.09344291687011719,-0.1848602294921875,0.670996904373169
1772698646525621200,2.626621337890625,-0.4370654821395874,-0.05118370056152344,1.1531891822814941
1772698646535621000,2.63662109375,-0.6036374568939209,0.34720611572265625,1.5291494131088257
1772698646545621200,2.646621337890625,-0.45413029193878174,0.875213623046875,1.8133975267410278
1772698646555621000,2.65662109375,-0.12345099449157715,1.4482364654541016,1.9137275218963623
1772698646565621200,2.666621337890625,0.35083091259002686,1.9190893173217773,1.8052722215652466
1772698646575621000,2.67662109375,0.8282265663146973,2.2041735649108887,1.5194169282913208
1772698646585621200,2.686621337890625,1.2165783643722534,2.3361072540283203,1.257290005683899
1772698646595621000,2.69662109375,1.4347941875457764,2.4699978828430176,1.0475008487701416
1772698646605621200,2.706621337890625,1.4640552997589111,2.734130382537842,0.9103636145591736
1772698646615621000,2.71662109375,1.412015438079834,3.095888614654541,0.833806037902832
1772698646625621200,2.726621337890625,1.3485908508300781,3.357358932495117,0.7698568105697632
1772698646635621000,2.73662109375,1.3012120723724365,3.3582992553710938,0.7349803447723389
1772698646645621200,2.746621337890625,1.2944623231887817,3.1733531951904297,0.7891774773597717
1772698646655621000,2.75662109375,1.2011034488677979,3.0370116233825684,0.8899739980697632
1772698646665621200,2.766621337890625,1.0680115222930908,3.024754524230957,1.0023623704910278
1772698646675621000,2.77662109375,0.9731749892234802,3.1895265579223633,1.0915496349334717
1772698646685621200,2.786621337890625,0.9835358262062073,3.5844831466674805,1.0359971523284912
1772698646695621000,2.79662109375,1.1255035400390625,4.13370418548584,0.7254196405410767
1772698646705621200,2.806621337890625,1.2515089511871338,4.68919563293457,0.16503798961639404
1772698646715621000,2.81662109375,1.2356112003326416,5.19901180267334,-0.41215792298316956
1772698646725621200,2.826621337890625,1.200373888015747,5.525628089904785,-0.6377597451210022
1772698646735621000,2.83662109375,1.1190696954727173,5.6259660720825195,-0.3818763196468353
1772698646745621200,2.846621337890625,0.7365976572036743,5.209220886230469,0.4335220158100128
1772698646755621000,2.85662109375,0.031687378883361816,3.9697537422180176,1.3988455533981323
1772698646765621200,2.866621337890625,-0.5555046796798706,1.9854192733764648,2.0126307010650635
1772698646775621000,2.87662109375,-0.5761139988899231,0.2741117477416992,1.9790579080581665
1772698646785621200,2.886621337890625,-0.1383398175239563,-0.7280855178833008,1.5872395038604736
1772698646795621000,2.89662109375,0.4857969880104065,-1.080301284790039,1.0765469074249268
1772698646805621200,2.906621337890625,1.1668500900268555,-0.7817516326904297,0.5870557427406311
1772698646815621000,2.91662109375,1.7335710525512695,-0.1325998306274414,-0.1098054051399231
1772698646825621200,2.926621337890625,1.9898531436920166,0.3934497833251953,-0.832086443901062
1772698646835621000,2.93662109375,2.0070548057556152,0.7474842071533203,-1.4963760375976562
1772698646845621200,2.946621337890625,1.6520211696624756,1.0383567810058594,-2.3942136764526367
1772698646855621000,2.95662109375,0.9377396106719971,1.3698749542236328,-3.64027738571167
1772698646865621200,2.966621337890625,0.6911299228668213,1.5090065002441406,-5.307135105133057
1772698646875621000,2.97662109375,1.1888808012008667,0.910552978515625,-6.964745044708252
1772698646885621200,2.986621337890625,1.862221360206604,-0.4321308135986328,-7.583287239074707
1772698646895621000,2.99662109375,1.9731411933898926,-1.5705690383911133,-7.20232629776001
1772698646905621200,3.006621337890625,1.3174797296524048,-2.2423200607299805,-4.880816459655762
1772698646915621000,3.01662109375,0.6598584651947021,-3.409674644470215,-1.4152467250823975
1772698646925621200,3.026621337890625,-0.18355536460876465,-5.737269401550293,1.2263342142105103
1772698646935621000,3.03662109375,-1.0933706760406494,-9.167950630187988,2.6946516036987305
1772698646945621200,3.046621337890625,-1.9956157207489014,-13.142187118530273,3.6723649501800537
1772698646955621000,3.05662109375,-2.6145455837249756,-16.24016571044922,4.287074089050293
1772698646965621200,3.066621337890625,-2.58602237701416,-17.384666442871094,4.590444564819336
1772698646975621000,3.07662109375,-2.7170073986053467,-15.22522258758545,4.796619415283203
1772698646985621200,3.086621337890625,-2.823939323425293,-11.20710277557373,4.542387008666992
1772698646995621000,3.09662109375,-1.9520223140716553,-7.2952775955200195,3.736889123916626
1772698647005621200,3.106621337890625,-0.5006265640258789,-3.6564550399780273,2.75118350982666
1772698647015621000,3.11662109375,1.117901086807251,-1.0057544708251953,1.447182297706604
1772698647025621200,3.126621337890625,2.14201283454895,0.4923686981201172,0.551311731338501
1772698647035621000,3.13662109375,2.5103750228881836,1.1607303619384766,0.14655721187591553
1772698647045621200,3.146621337890625,1.9612417221069336,0.9234333038330078,-0.29045748710632324
1772698647055621000,3.15662109375,1.1481828689575195,-0.04842948913574219,-0.23196333646774292
1772698647065621200,3.166621337890625,0.09488272666931152,-0.5978059768676758,-0.08638572692871094
1772698647075621000,3.17662109375,-1.1149709224700928,-0.6127233505249023,0.1931169033050537
1772698647085621200,3.186621337890625,-2.104267120361328,-0.5555496215820312,0.46439599990844727
1772698647095621000,3.19662109375,-2.635742664337158,-0.48561763763427734,0.5758203268051147
1772698647105621200,3.206621337890625,-2.711625099182129,-0.20491695404052734,0.5757373571395874
1772698647115621000,3.21662109375,-2.410499095916748,0.3884143829345703,0.4664860963821411
1772698647125621200,3.226621337890625,-2.029364585876465,1.1807184219360352,0.023737788200378418
1772698647135621000,3.23662109375,-1.745108723640442,2.0177125930786133,-0.6370630264282227
1772698647145621200,3.246621337890625,-1.4211639165878296,2.752509117126465,-1.36860191822052
1772698647155621000,3.25662109375,-1.023118019104004,3.328052520751953,-2.180360794067383
1772698647165621200,3.266621337890625,-0.6297740936279297,3.636059284210205,-2.934182643890381
1772698647175621000,3.27662109375,-0.32079339027404785,3.6639604568481445,-3.5224428176879883
1772698647185621200,3.286621337890625,-0.13249945640563965,3.4463729858398438,-3.8457088470458984
1772698647195621000,3.29662109375,-0.036591291427612305,3.247959613800049,-3.9215047359466553
1772698647205621200,3.306621337890625,-0.037288665771484375,3.104832649230957,-3.7775440216064453
1772698647215621000,3.31662109375,-0.09126996994018555,2.922053337097168,-3.3922863006591797
1772698647225621200,3.326621337890625,-0.19000613689422607,2.6439809799194336,-2.8035037517547607
1772698647235621000,3.33662109375,-0.284130334854126,2.325803756713867,-2.2460696697235107
1772698647245621200,3.346621337890625,-0.2951812744140625,2.0108914375305176,-1.7522993087768555
1772698647255621000,3.35662109375,-0.2604176998138428,1.7117314338684082,-1.2406861782073975
1772698647265621200,3.366621337890625,-0.19426918029785156,1.4824838638305664,-0.7216135263442993
1772698647275621000,3.37662109375,-0.17470288276672363,1.3507442474365234,-0.18786132335662842
1772698647285621200,3.386621337890625,-0.1673564910888672,1.3687314987182617,0.2869788408279419
1772698647295621000,3.39662109375,-0.15421974658966064,1.3953933715820312,0.719210147857666
1772698647305621200,3.406621337890625,-0.06796932220458984,1.3533601760864258,1.1177177429199219
1772698647315621000,3.41662109375,0.08272039890289307,1.2791557312011719,1.4153637886047363
1772698647325621200,3.426621337890625,0.07172203063964844,1.1753568649291992,1.489786982536316
1772698647335621000,3.43662109375,-0.07763195037841797,1.040928840637207,1.4486082792282104
1772698647345621200,3.446621337890625,0.02532649040222168,1.0705690383911133,1.2372428178787231
1772698647355621000,3.45662109375,0.06685841083526611,1.1115741729736328,0.9776509404182434
1772698647365621200,3.466621337890625,-0.27274656295776367,1.178009033203125,0.8780112266540527
1772698647375621000,3.47662109375,-0.5437302589416504,1.3534059524536133,0.9130862355232239
1772698647385621200,3.486621337890625,-0.7409358024597168,1.6340045928955078,0.9894094467163086
1772698647395621000,3.49662109375,-0.8006290197372437,2.001436710357666,1.0469871759414673
1772698647405621200,3.506621337890625,-0.48995494842529297,2.5353808403015137,1.1983591318130493
1772698647415621000,3.51662109375,-0.006951332092285156,3.174494743347168,1.4160830974578857
1772698647425621200,3.526621337890625,0.5734820365905762,3.8602514266967773,1.503638505935669
1772698647435621000,3.53662109375,1.3716756105422974,4.5129475593566895,1.6461752653121948
1772698647445621200,3.546621337890625,2.265267848968506,4.936142921447754,2.0520896911621094
1772698647455621000,3.55662109375,2.779757499694824,5.005043029785156,2.6942496299743652
1772698647465621200,3.566621337890625,2.640141487121582,4.461592674255371,3.3152732849121094
1772698647475621000,3.57662109375,2.056149482727051,3.443553924560547,3.7637548446655273
1772698647485621200,3.586621337890625,1.4052305221557617,2.278402805328369,3.889368772506714
1772698647495621000,3.59662109375,0.7445352077484131,1.2727556228637695,3.595268964767456
1772698647505621200,3.606621337890625,0.31650304794311523,0.6081829071044922,3.122309684753418
1772698647515621000,3.61662109375,0.1636638641357422,0.3768939971923828,2.5939853191375732
1772698647525621200,3.626621337890625,0.03720211982727051,0.31374454498291016,1.548079013824463
1772698647535621000,3.63662109375,-0.7587846517562866,-0.4084491729736328,1.0217525959014893
1772698647545621200,3.646621337890625,-1.9793627262115479,-3.306513786315918,1.8913131952285767
1772698647555621000,3.65662109375,-1.0465168952941895,-9.078962326049805,2.6420838832855225
1772698647565621200,3.666621337890625,-0.8494003415107727,-16.162105560302734,0.38171693682670593
1772698647575621000,3.67662109375,-7.158426761627197,-20.989505767822266,-4.494557857513428
1772698647585621200,3.686621337890625,-9.203119277954102,-15.537081718444824,-6.7717485427856445
1772698647595621000,3.69662109375,-4.898204803466797,-6.5591840744018555,-5.96748685836792
1772698647605621200,3.706621337890625,-1.0405510663986206,-1.1082096099853516,-5.078650951385498
1772698647615621000,3.71662109375,1.4624837636947632,2.2344799041748047,-4.039759635925293
1772698647625621200,3.726621337890625,3.514324188232422,4.094061851501465,-3.0028257369995117
1772698647635621000,3.73662109375,5.46633243560791,3.3958606719970703,-2.476055145263672
1772698647645621200,3.746621337890625,7.223931312561035,-0.37962913513183594,-2.1935789585113525
1772698647655621000,3.75662109375,6.427219867706299,-3.965033531188965,-1.5057964324951172
1772698647665621200,3.766621337890625,2.164036512374878,-5.494061470031738,-0.8778021335601807
1772698647675621000,3.77662109375,-2.1335442066192627,-4.16690731048584,-1.568143367767334
1772698647685621200,3.786621337890625,-3.438093900680542,-2.417764663696289,-2.8326354026794434
1772698647695621000,3.79662109375,-2.6959762573242188,-2.6594972610473633,-3.1681952476501465
1772698647705621200,3.806621337890625,-1.931565284729004,-3.6075925827026367,-2.889134407043457
1772698647715621000,3.81662109375,-1.5211910009384155,-4.056360244750977,-2.139749526977539
1772698647725621200,3.826621337890625,-1.0253610610961914,-4.182025909423828,-1.2790930271148682
1772698647735621000,3.83662109375,-0.13897597789764404,-3.7812538146972656,-0.6568764448165894
1772698647745621200,3.846621337890625,0.7957948446273804,-2.8127517700195312,-0.41174745559692383
1772698647755621000,3.85662109375,1.1383633613586426,-1.6315650939941406,-0.5226057767868042
1772698647765621200,3.866621337890625,0.9878876209259033,-0.5581989288330078,-0.6740466356277466
1772698647775621000,3.87662109375,0.6411792039871216,0.24744415283203125,-0.5769853591918945
1772698647785621200,3.886621337890625,0.34738171100616455,0.9277944564819336,-0.19495689868927002
1772698647795621000,3.89662109375,0.09686660766601562,1.5732669830322266,0.05522480607032776
1772698647805621200,3.906621337890625,-0.03074169158935547,2.0132884979248047,0.38315853476524353
1772698647815621000,3.91662109375,-0.030675053596496582,2.21018123626709,0.7990978956222534
1772698647825621200,3.926621337890625,-0.0212557315826416,2.227484703063965,1.1189475059509277
1772698647835621000,3.93662109375,0.1418602466583252,2.1097755432128906,1.4609123468399048
1772698647845621200,3.946621337890625,0.2884390354156494,1.9480915069580078,1.7422962188720703
1772698647855621000,3.95662109375,0.4072016477584839,1.740675926208496,1.9366779327392578
1772698647865621200,3.966621337890625,0.2444922924041748,1.493661880493164,1.926794171333313
1772698647875621000,3.97662109375,0.13990604877471924,1.266988754272461,1.9556729793548584
1772698647885621200,3.986621337890625,0.15522754192352295,1.1636476516723633,2.0533087253570557
1772698647895621000,3.99662109375,0.17210960388183594,1.3453969955444336,2.0937912464141846
1772698647905621200,4.006621337890625,0.1746077537536621,1.7182416915893555,1.9907559156417847
1772698647915621000,4.01662109375,0.2794060707092285,2.108001708984375,1.8867841958999634
1772698647925621200,4.026621337890625,0.5007768869400024,2.45391845703125,1.8714863061904907
1772698647935621000,4.03662109375,0.760627269744873,2.811324119567871,1.9092706441879272
1772698647945621200,4.046621337890625,0.9608054161071777,3.143233299255371,1.9032537937164307
1772698647955621000,4.05662109375,0.876517653465271,3.269040107727051,1.7854232788085938
1772698647965621200,4.066621337890625,0.747453510761261,3.4171199798583984,1.398644208908081
1772698647975621000,4.07662109375,0.7767196297645569,3.400296211242676,0.9404136538505554
1772698647985621200,4.086621337890625,0.9671463370323181,3.094514846801758,0.5915351510047913
1772698647995621000,4.09662109375,0.8077400922775269,2.866852283477783,-0.05346047878265381
1772698648005621200,4.106621337890625,0.6932035684585571,2.675233840942383,-0.8328346610069275
1772698648015621000,4.11662109375,0.6248843669891357,2.1348137855529785,-1.5225539207458496
1772698648025621200,4.126621337890625,0.37420904636383057,1.729443073272705,-2.246562957763672
1772698648035621000,4.13662109375,0.25396448373794556,1.1970949172973633,-2.517890214920044
1772698648045621200,4.146621337890625,-0.5422564744949341,1.138946533203125,-2.4591867923736572
1772698648055621000,4.15662109375,-0.9114319086074829,1.305464744567871,-1.7371549606323242
1772698648065621200,4.166621337890625,-0.972233772277832,1.506734848022461,-0.9025700688362122
1772698648075621000,4.17662109375,-0.16736823320388794,1.6605987548828125,-0.27587807178497314
1772698648085621200,4.186621337890625,0.34533149003982544,1.7613563537597656,-0.21740269660949707
1772698648095621000,4.19662109375,0.8986482620239258,2.0004796981811523,-0.2696353793144226
1772698648105621200,4.206621337890625,1.34299635887146,2.351067543029785,-0.2986854314804077
1772698648115621000,4.21662109375,1.752679467201233,2.4744958877563477,-0.37829071283340454
1772698648125621200,4.226621337890625,1.5700794458389282,2.7527313232421875,-1.0008264780044556
1772698648135621000,4.23662109375,1.6375315189361572,2.613213539123535,-1.4570096731185913
1772698648145621200,4.246621337890625,1.3510429859161377,2.12746524810791,-1.940727710723877
1772698648155621000,4.25662109375,1.6171231269836426,1.6876444816589355,-1.9495068788528442
1772698648165621200,4.266621337890625,1.977342128753662,1.4433403015136719,-1.867977261543274
1772698648175621000,4.27662109375,2.138587713241577,1.25823974609375,-1.5696280002593994
1772698648185621200,4.286621337890625,2.2878010272979736,0.9303350448608398,-0.9993916153907776
1772698648195621000,4.29662109375,1.6094112396240234,0.29047584533691406,-0.9602622985839844
1772698648205621200,4.306621337890625,0.7989288568496704,0.3529491424560547,-1.3118393421173096
1772698648215621000,4.31662109375,0.5030896663665771,0.5004863739013672,-1.772087812423706
1772698648225621200,4.326621337890625,0.34021425247192383,0.20474624633789062,-2.282958507537842
1772698648235621000,4.33662109375,0.4893670082092285,-0.6524953842163086,-2.567694664001465
1772698648245621200,4.346621337890625,0.01653122901916504,-1.9996509552001953,-2.5108885765075684
1772698648255621000,4.35662109375,-0.496787428855896,-3.224397659301758,-1.5737667083740234
1772698648265621200,4.366621337890625,-0.8352280259132385,-3.8271074295043945,0.34137314558029175
1772698648275621000,4.37662109375,-0.7539060115814209,-4.471233367919922,2.8993911743164062
1772698648285621200,4.386621337890625,-1.3361269235610962,-5.406757354736328,4.051568984985352
1772698648295621000,4.39662109375,-1.4960352182388306,-6.429518699645996,4.6753363609313965
1772698648305621200,4.406621337890625,-1.5097612142562866,-7.55635929107666,4.503590106964111
1772698648315621000,4.41662109375,-1.6731722354888916,-8.377923011779785,3.7085206508636475
1772698648325621200,4.426621337890625,-1.302520751953125,-8.660726547241211,2.7075438499450684
1772698648335621000,4.43662109375,-0.45121264457702637,-8.146599769592285,1.5305895805358887
1772698648345621200,4.446621337890625,0.40042972564697266,-6.938881874084473,1.115942120552063
1772698648355621000,4.45662109375,0.4761769771575928,-5.316125869750977,1.4154880046844482
1772698648365621200,4.466621337890625,0.000400543212890625,-4.265530586242676,1.9484611749649048
1772698648375621000,4.47662109375,-0.4486539363861084,-3.6587142944335938,2.2727320194244385
1772698648385621200,4.486621337890625,-0.5305709838867188,-3.338329315185547,2.1976828575134277
1772698648395621000,4.49662109375,-0.4978044033050537,-2.8953857421875,1.6056077480316162
1772698648405621200,4.506621337890625,-0.5426919460296631,-2.201730728149414,0.7065708637237549
1772698648415621000,4.51662109375,-0.5304965972900391,-1.4803237915039062,-0.25051766633987427
1772698648425621200,4.526621337890625,-0.4344911575317383,-0.7946758270263672,-0.8645691871643066
1772698648435621000,4.53662109375,-0.6507265567779541,-0.2753725051879883,-1.1131647825241089
1772698648445621200,4.546621337890625,-0.8943525552749634,0.034572601318359375,-1.188423752784729
1772698648455621000,4.55662109375,-0.7409296035766602,0.5910615921020508,-1.186002492904663
1772698648465621200,4.566621337890625,-0.10445785522460938,1.0513477325439453,-0.819275975227356
1772698648475621000,4.57662109375,0.28992652893066406,1.162205696105957,-0.2762388586997986
1772698648485621200,4.586621337890625,0.31259584426879883,1.7840590476989746,-0.15297573804855347
1772698648495621000,4.59662109375,-0.01944279670715332,1.9444952011108398,-0.13794314861297607
1772698648505621200,4.606621337890625,-0.4486815929412842,1.9544963836669922,-0.28717583417892456
1772698648515621000,4.61662109375,-0.7513096332550049,1.9772076606750488,-0.625198483467102
1772698648525621200,4.626621337890625,-0.8691372871398926,1.9225378036499023,-0.9880589246749878
1772698648535621000,4.63662109375,-0.8448240756988525,1.7723922729492188,-1.2549936771392822
1772698648545621200,4.646621337890625,-0.7138617038726807,1.643568992614746,-1.433361530303955
1772698648555621000,4.65662109375,-0.5038928985595703,1.5213642120361328,-1.4918321371078491
1772698648565621200,4.666621337890625,-0.24814379215240479,1.436366081237793,-1.3932934999465942
1772698648575621000,4.67662109375,-0.027720928192138672,1.4120512008666992,-1.2869970798492432
1772698648585621200,4.686621337890625,0.12260699272155762,1.4603004455566406,-1.120017409324646
1772698648595621000,4.69662109375,0.3660581111907959,1.576019287109375,-0.8420577645301819
1772698648605621200,4.706621337890625,0.46483051776885986,1.7689142227172852,-0.5939143896102905
1772698648615621000,4.71662109375,0.4483513832092285,1.9357595443725586,-0.23860862851142883
1772698648625621200,4.726621337890625,0.37303459644317627,2.0557641983032227,0.15632084012031555
1772698648635621000,4.73662109375,0.35686421394348145,2.0791797637939453,0.24930688738822937
1772698648645621200,4.746621337890625,0.2971937656402588,1.8711042404174805,0.5881180763244629
1772698648655621000,4.75662109375,0.2760869264602661,1.7157111167907715,0.7549724578857422
1772698648665621200,4.766621337890625,0.27954673767089844,1.5902252197265625,0.7818814516067505
1772698648675621000,4.77662109375,0.25493669509887695,1.3844947814941406,1.0177829265594482
1772698648685621200,4.786621337890625,0.06626570224761963,1.177332878112793,1.18621027469635
1772698648695621000,4.79662109375,-0.11267220973968506,1.0557165145874023,1.2435548305511475
1772698648705621200,4.806621337890625,-0.1389751434326172,0.9620265960693359,1.209877371788025
1772698648715621000,4.81662109375,-0.12654340267181396,1.0697822570800781,1.207684874534607
1772698648725621200,4.826621337890625,-0.5832934975624084,1.3432140350341797,1.1624300479888916
1772698648735621000,4.83662109375,-1.127557635307312,1.672978401184082,1.2053966522216797
1772698648745621200,4.846621337890625,-1.3792381286621094,2.2098135948181152,1.2714165449142456
1772698648755621000,4.85662109375,-1.0957521200180054,3.063608169555664,1.2456481456756592
1772698648765621200,4.866621337890625,-0.3717597723007202,4.244790554046631,1.207398533821106
1772698648775621000,4.87662109375,0.7560309171676636,5.859714984893799,1.118669867515564
1772698648785621200,4.886621337890625,1.8904997110366821,7.473716735839844,1.0442113876342773
1772698648795621000,4.89662109375,2.3870344161987305,8.241567611694336,1.2414867877960205
1772698648805621200,4.906621337890625,2.424603223800659,7.504239082336426,1.9478654861450195
1772698648815621000,4.91662109375,2.520630121231079,5.820913314819336,2.5337696075439453
1772698648825621200,4.926621337890625,2.495851516723633,3.722519874572754,2.6572461128234863
1772698648835621000,4.93662109375,2.0895514488220215,1.227229118347168,2.771655797958374
1772698648845621200,4.946621337890625,1.083719253540039,-1.2884864807128906,3.0497689247131348
1772698648855621000,4.95662109375,-0.15523314476013184,-3.111410140991211,2.9503896236419678
1772698648865621200,4.966621337890625,-0.783462643623352,-3.616969108581543,2.093536615371704
1772698648875621000,4.97662109375,-0.9142813682556152,-2.847109794616699,0.8828138113021851
1772698648885621200,4.986621337890625,-0.8110611438751221,-1.5168342590332031,0.06605054438114166
1772698648895621000,4.99662109375,-1.0252963304519653,-0.14165878295898438,-0.35985904932022095
1772698648905621200,5.006621337890625,-1.5188584327697754,0.5836448669433594,-0.37965506315231323
1772698648915621000,5.01662109375,-1.912848711013794,-0.8864002227783203,0.2723262310028076
1772698648925621200,5.026621337890625,-1.890866994857788,-4.571817398071289,0.33548232913017273
1772698648935621000,5.03662109375,-1.5961312055587769,-8.015297889709473,-1.563055157661438
1772698648945621200,5.046621337890625,-2.45519757270813,-11.859431266784668,-4.229198455810547
1772698648955621000,5.05662109375,-4.519960880279541,-12.851884841918945,-6.194684028625488
1772698648965621200,5.066621337890625,-3.719973564147949,-7.357569694519043,-6.190485000610352
1772698648975621000,5.07662109375,-1.0411198139190674,-2.0321359634399414,-4.865316867828369
1772698648985621200,5.086621337890625,0.8195620775222778,1.4555692672729492,-3.3229990005493164
1772698648995621000,5.09662109375,2.5707225799560547,3.0696287155151367,-1.3968572616577148
1772698649005621200,5.106621337890625,4.785623550415039,0.5821323394775391,0.2960379123687744
1772698649015621000,5.11662109375,5.49288272857666,-3.05224609375,1.160784363746643
1772698649025621200,5.126621337890625,3.243288516998291,-4.770028114318848,2.16587233543396
1772698649035621000,5.13662109375,0.16365265846252441,-4.341331481933594,2.576295852661133
1772698649045621200,5.146621337890625,-1.005444049835205,-3.212132453918457,1.6260191202163696
1772698649055621000,5.15662109375,-1.2038012742996216,-3.1944942474365234,0.7536778450012207
1772698649065621200,5.166621337890625,-2.020883560180664,-4.237185478210449,0.0445171594619751
1772698649075621000,5.17662109375,-2.755650520324707,-5.665138244628906,-0.30788683891296387
1772698649085621200,5.186621337890625,-3.183946132659912,-6.362982749938965,-0.6723158359527588
1772698649095621000,5.19662109375,-3.0429563522338867,-5.618961334228516,-0.8781907558441162
1772698649105621200,5.206621337890625,-1.8714303970336914,-4.405168533325195,-0.8925196528434753
1772698649115621000,5.21662109375,-0.3715980052947998,-3.0850296020507812,-1.0586071014404297
1772698649125621200,5.226621337890625,0.7402787208557129,-1.5905942916870117,-1.381502389907837
1772698649135621000,5.23662109375,1.2837382555007935,-0.1134796142578125,-1.667599081993103
1772698649145621200,5.246621337890625,1.0584062337875366,0.9771080017089844,-1.6581521034240723
1772698649155621000,5.25662109375,0.39226722717285156,1.584787368774414,-1.431396245956421
1772698649165621200,5.266621337890625,-0.32943665981292725,1.6826982498168945,-1.0061932802200317
1772698649175621000,5.27662109375,-0.7581461071968079,1.26336669921875,-0.4795870780944824
1772698649185621200,5.286621337890625,-0.8511398434638977,0.7809877395629883,0.008590221405029297
1772698649195621000,5.29662109375,-0.846422553062439,0.40607643127441406,0.32848870754241943
1772698649205621200,5.306621337890625,-0.856930136680603,0.13825321197509766,0.43897974491119385
1772698649215621000,5.31662109375,-0.7792025804519653,0.05130577087402344,0.3403216004371643
1772698649225621200,5.326621337890625,-0.5999633073806763,0.20769977569580078,0.21336966753005981
1772698649235621000,5.33662109375,-0.3922790288925171,0.5408601760864258,0.23631465435028076
1772698649245621200,5.346621337890625,-0.2084500789642334,0.9369487762451172,0.35328543186187744
1772698649255621000,5.35662109375,0.005959272384643555,1.3303289413452148,0.44821298122406006
1772698649265621200,5.366621337890625,0.25629305839538574,1.7173681259155273,0.5281060338020325
1772698649275621000,5.37662109375,0.507103681564331,2.002560615539551,0.6136457920074463
1772698649285621200,5.386621337890625,0.6875085830688477,2.1867613792419434,0.6677412390708923
1772698649295621000,5.39662109375,0.8534283638000488,2.2955188751220703,0.6638106107711792
1772698649305621200,5.406621337890625,1.0391734838485718,2.3624186515808105,0.5386112928390503
1772698649315621000,5.41662109375,1.2023403644561768,2.4037747383117676,0.28253382444381714
1772698649325621200,5.426621337890625,1.3751493692398071,2.432145118713379,-0.07428121566772461
1772698649335621000,5.43662109375,1.5210223197937012,2.4512805938720703,-0.39872533082962036
1772698649345621200,5.446621337890625,1.5747379064559937,2.3499813079833984,-0.5238592028617859
1772698649355621000,5.45662109375,1.5533876419067383,2.136355400085449,-0.43801045417785645
1772698649365621200,5.466621337890625,1.3412175178527832,1.9712905883789062,-0.30563002824783325
1772698649375621000,5.47662109375,0.8727736473083496,1.8032970428466797,-0.1828376054763794
1772698649385621200,5.486621337890625,0.3412271738052368,1.5763511657714844,-0.17910265922546387
1772698649395621000,5.49662109375,-0.07328736782073975,1.3305912017822266,-0.3019752502441406
1772698649405621200,5.506621337890625,-0.26019376516342163,1.2054014205932617,-0.5224464535713196
1772698649415621000,5.51662109375,-0.19681483507156372,1.2398481369018555,-0.6406289339065552
1772698649425621200,5.526621337890625,0.015956759452819824,1.4306087493896484,-0.5712677836418152
1772698649435621000,5.53662109375,0.1349780559539795,1.7286624908447266,-0.33056455850601196
1772698649445621200,5.546621337890625,0.05698525905609131,2.0678272247314453,-0.12148326635360718
1772698649455621000,5.55662109375,-0.06178998947143555,2.3662524223327637,-0.027915239334106445
1772698649465621200,5.566621337890625,-0.026595354080200195,2.600184917449951,-0.07984566688537598
1772698649475621000,5.57662109375,0.16176927089691162,2.743239402770996,-0.17605650424957275
1772698649485621200,5.586621337890625,0.3895432949066162,2.7124977111816406,-0.3572195768356323
1772698649495621000,5.59662109375,0.5766265392303467,2.614288330078125,-0.7525314688682556
1772698649505621200,5.606621337890625,0.8404185771942139,2.5291614532470703,-1.2708326578140259
1772698649515621000,5.61662109375,1.1679209470748901,2.4182205200195312,-1.6579389572143555
1772698649525621200,5.626621337890625,1.6293851137161255,2.2575950622558594,-1.8309295177459717
1772698649535621000,5.63662109375,2.0110039710998535,2.093815803527832,-1.8678076267242432
1772698649545621200,5.646621337890625,2.1725010871887207,2.120439052581787,-1.9213438034057617
1772698649555621000,5.65662109375,2.1160459518432617,2.5010557174682617,-1.9983214139938354
1772698649565621200,5.666621337890625,2.054354667663574,2.919185161590576,-1.9414700269699097
1772698649575621000,5.67662109375,1.9862107038497925,3.4042835235595703,-1.904502034187317
1772698649585621200,5.686621337890625,1.9604648351669312,3.423110008239746,-1.749114990234375
1772698649595621000,5.69662109375,1.8837312459945679,3.7553834915161133,-1.7462444305419922
1772698649605621200,5.706621337890625,1.7555594444274902,3.455674171447754,-1.6148507595062256
1772698649615621000,5.71662109375,1.3204628229141235,2.570106029510498,-1.4143288135528564
1772698649625621200,5.726621337890625,1.021131992340088,1.2381982803344727,-1.2363996505737305
1772698649635621000,5.73662109375,0.5412923097610474,-0.8949394226074219,-1.2161915302276611
1772698649645621200,5.746621337890625,0.23888826370239258,-4.049283027648926,-1.1588351726531982
1772698649655621000,5.75662109375,0.17867207527160645,-8.226505279541016,-0.6182485818862915
1772698649665621200,5.766621337890625,-0.14204192161560059,-11.604670524597168,0.97714763879776
1772698649675621000,5.77662109375,-1.029676914215088,-11.938749313354492,3.17136287689209
1772698649685621200,5.786621337890625,-2.239122152328491,-8.923469543457031,4.141641616821289
1772698649695621000,5.79662109375,-2.7130720615386963,-6.158392906188965,3.8196990489959717
1772698649705621200,5.806621337890625,-2.24027943611145,-4.624455451965332,2.592280626296997
1772698649715621000,5.81662109375,-1.8955808877944946,-4.0159149169921875,1.4068288803100586
1772698649725621200,5.826621337890625,-1.0365099906921387,-3.87569522857666,0.965115487575531
1772698649735621000,5.83662109375,0.12735557556152344,-4.15740966796875,0.2698780298233032
1772698649745621200,5.846621337890625,1.5219097137451172,-4.489442825317383,0.33074021339416504
1772698649755621000,5.85662109375,2.1899209022521973,-4.311079025268555,1.7173967361450195
1772698649765621200,5.866621337890625,1.4160220623016357,-3.735128402709961,3.1979174613952637
1772698649775621000,5.87662109375,0.20775508880615234,-3.1517601013183594,3.987215280532837
1772698649785621200,5.886621337890625,-0.914691686630249,-2.509701728820801,4.285625457763672
1772698649795621000,5.89662109375,-1.7335879802703857,-1.8678264617919922,3.85800838470459
1772698649805621200,5.906621337890625,-1.8546417951583862,-1.2622385025024414,2.977003574371338
1772698649815621000,5.91662109375,-1.4909093379974365,-0.5883426666259766,2.017385959625244
1772698649825621200,5.926621337890625,-1.1064428091049194,0.00323486328125,1.0874892473220825
1772698649835621000,5.93662109375,-0.862968921661377,0.4366607666015625,0.22232508659362793
1772698649845621200,5.946621337890625,-0.730661153793335,0.586390495300293,-0.3611446022987366
1772698649855621000,5.95662109375,-0.6767544746398926,0.5821390151977539,-0.6808938980102539
1772698649865621200,5.966621337890625,-0.8661714792251587,0.4182891845703125,-1.0622471570968628
1772698649875621000,5.97662109375,-0.6472244262695312,0.5445899963378906,-1.1204129457473755
1772698649885621200,5.986621337890625,-0.42942023277282715,0.8823251724243164,-0.8773692846298218
1772698649895621000,5.99662109375,-0.4737091064453125,1.2954206466674805,-0.6278373003005981
1772698649905621200,6.006621337890625,-0.6277015209197998,1.6739044189453125,-0.48888206481933594
1772698649915621000,6.01662109375,-0.7894861698150635,1.9186267852783203,-0.47666847705841064
1772698649925621200,6.026621337890625,-0.8619959354400635,1.9975061416625977,-0.6313118934631348
1772698649935621000,6.03662109375,-0.8552849292755127,1.9444856643676758,-0.8616564273834229
1772698649945621200,6.046621337890625,-0.7450268268585205,1.7691435813903809,-1.1012154817581177
1772698649955621000,6.05662109375,-0.5548661947250366,1.4921913146972656,-1.2659192085266113
1772698649965621200,6.066621337890625,-0.3576011657714844,1.1721868515014648,-1.3046910762786865
1772698649975621000,6.07662109375,-0.24619126319885254,0.9147348403930664,-1.1942603588104248
1772698649985621200,6.086621337890625,-0.19853854179382324,0.7855396270751953,-0.9729179739952087
1772698649995621000,6.09662109375,-0.21930861473083496,0.8270120620727539,-0.6866430640220642
1772698650005621200,6.106621337890625,-0.28828978538513184,0.987457275390625,-0.4137709140777588
1772698650015621000,6.11662109375,-0.3825969696044922,1.2293882369995117,-0.13152676820755005
1772698650025621200,6.126621337890625,-0.47984790802001953,1.5286798477172852,0.0838654637336731
1772698650035621000,6.13662109375,-0.529329776763916,1.8526320457458496,0.2398364543914795
1772698650045621200,6.146621337890625,-0.5596237182617188,2.149928569793701,0.391501247882843
1772698650055621000,6.15662109375,-0.5395796298980713,2.4512906074523926,0.6202452182769775
1772698650065621200,6.166621337890625,-0.4145280122756958,2.778594970703125,0.9704882502555847
1772698650075621000,6.17662109375,-0.2559957504272461,3.1492791175842285,1.4258695840835571
1772698650085621200,6.186621337890625,-0.23301362991333008,3.457000732421875,1.8244447708129883
1772698650095621000,6.19662109375,-0.337247371673584,3.771949291229248,1.9960849285125732
1772698650105621200,6.206621337890625,-0.42364799976348877,3.9193735122680664,1.647417426109314
1772698650115621000,6.21662109375,-0.4677964448928833,3.6919021606445312,1.1670831441879272
1772698650125621200,6.226621337890625,-0.5443040132522583,3.118556022644043,0.5796048045158386
1772698650135621000,6.23662109375,-0.37536680698394775,2.3164076805114746,0.0021949857473373413
1772698650145621200,6.246621337890625,0.02865159511566162,1.4292993545532227,-0.5024428367614746
1772698650155621000,6.25662109375,0.43632638454437256,0.8837976455688477,-0.8192123770713806
1772698650165621200,6.266621337890625,0.6357084512710571,0.9138498306274414,-0.8005825281143188
1772698650175621000,6.27662109375,0.8046200275421143,1.325364112854004,-0.2964418828487396
1772698650185621200,6.286621337890625,1.0851469039916992,1.9078640937805176,0.8647509813308716
1772698650195621000,6.29662109375,1.317975401878357,2.59193754196167,2.0679969787597656
1772698650205621200,6.306621337890625,1.5946986675262451,3.2938618659973145,2.846022844314575
1772698650215621000,6.31662109375,1.8560456037521362,3.895918846130371,3.1719000339508057
1772698650225621200,6.326621337890625,1.9739389419555664,4.018726825714111,3.413862705230713
1772698650235621000,6.33662109375,1.908327579498291,3.299342155456543,3.9080722332000732
1772698650245621200,6.346621337890625,1.4315876960754395,2.2017083168029785,4.208219528198242
1772698650255621000,6.35662109375,0.7875392436981201,1.2708911895751953,4.166579246520996
1772698650265621200,6.366621337890625,0.26582932472229004,0.4004020690917969,4.010217666625977
1772698650275621000,6.37662109375,-0.06545042991638184,-0.39164066314697266,3.7697951793670654
1772698650285621200,6.386621337890625,-0.32819414138793945,-1.0630674362182617,3.447446346282959
1772698650295621000,6.39662109375,-0.4458804130554199,-1.6100702285766602,3.2250452041625977
1772698650305621200,6.406621337890625,-1.8348522186279297,-2.3733139038085938,3.259589195251465
1772698650315621000,6.41662109375,-3.3014914989471436,-4.97580623626709,4.154879570007324
1772698650325621200,6.426621337890625,-0.40301263332366943,-9.576354026794434,4.707320690155029
1772698650335621000,6.43662109375,-1.0297415256500244,-14.36746883392334,2.514227867126465
1772698650345621200,6.446621337890625,-8.030082702636719,-16.478641510009766,-2.679391860961914
1772698650355621000,6.45662109375,-6.9664812088012695,-11.834404945373535,-5.780596733093262
1772698650365621200,6.466621337890625,-2.7041637897491455,-5.096019744873047,-6.2264862060546875
1772698650375621000,6.47662109375,0.513724684715271,-0.3359670639038086,-6.160595417022705
1772698650385621200,6.486621337890625,2.532151222229004,2.604412078857422,-5.737234592437744
1772698650395621000,6.49662109375,5.051199913024902,3.0860347747802734,-4.740333557128906
1772698650405621200,6.506621337890625,8.812704086303711,0.7851476669311523,-3.7238755226135254
1772698650415621000,6.51662109375,9.448928833007812,-1.8035554885864258,-2.262667179107666
1772698650425621200,6.526621337890625,5.261853218078613,-1.9490547180175781,-0.04425370693206787
1772698650435621000,6.53662109375,-0.3209599256515503,-0.6934423446655273,1.3935737609863281
1772698650445621200,6.546621337890625,-2.969763994216919,-0.3507528305053711,0.8365176916122437
1772698650455621000,6.55662109375,-3.8804216384887695,-0.8194456100463867,-1.0028808116912842
1772698650465621200,6.566621337890625,-4.01214599609375,-2.198192596435547,-2.782119035720825
1772698650475621000,6.57662109375,-3.835533857345581,-4.287785530090332,-4.0733561515808105
1772698650485621200,6.586621337890625,-3.208803653717041,-6.509352684020996,-4.749081611633301
1772698650495621000,6.59662109375,-1.9026986360549927,-7.941522598266602,-4.9560160636901855
1772698650505621200,6.606621337890625,-0.4804987907409668,-7.539664268493652,-4.8252387046813965
1772698650515621000,6.61662109375,-0.04932820796966553,-5.1085004806518555,-4.362775802612305
1772698650525621200,6.626621337890625,0.17556488513946533,-2.721273422241211,-3.584033489227295
1772698650535621000,6.63662109375,0.4226529598236084,-0.8415956497192383,-2.745028018951416
1772698650545621200,6.646621337890625,0.7632638216018677,0.6658077239990234,-1.960813045501709
1772698650555621000,6.65662109375,0.9119031429290771,1.858541488647461,-1.240389108657837
1772698650565621200,6.666621337890625,0.6948891878128052,2.5981826782226562,-0.7521665692329407
1772698650575621000,6.67662109375,0.4105321168899536,2.649094581604004,-0.5626979470252991
1772698650585621200,6.686621337890625,0.3078598976135254,2.0505523681640625,-0.4561145305633545
1772698650595621000,6.69662109375,0.25839078426361084,1.3138303756713867,-0.39643895626068115
1772698650605621200,6.706621337890625,0.2373182773590088,0.9206037521362305,-0.26733481884002686
1772698650615621000,6.71662109375,0.27693676948547363,0.7380514144897461,-0.09105062484741211
1772698650625621200,6.726621337890625,0.38120365142822266,0.6123275756835938,0.19866788387298584
1772698650635621000,6.73662109375,0.49445605278015137,0.6637125015258789,0.6656005382537842
1772698650645621200,6.746621337890625,0.621695876121521,0.8888559341430664,1.3049416542053223
1772698650655621000,6.75662109375,0.7015056610107422,1.3004140853881836,1.9195866584777832
1772698650665621200,6.766621337890625,0.7390013933181763,1.9286613464355469,2.3453128337860107
1772698650675621000,6.77662109375,0.8024004697799683,2.6324729919433594,2.50032377243042
1772698650685621200,6.786621337890625,1.0785578489303589,3.2838687896728516,2.3907649517059326
1772698650695621000,6.79662109375,1.5580308437347412,3.7971396446228027,2.0683491230010986
1772698650705621200,6.806621337890625,2.089822769165039,4.150869369506836,1.7681505680084229
1772698650715621000,6.81662109375,2.471176862716675,4.2675275802612305,1.6696274280548096
1772698650725621200,6.826621337890625,2.603848457336426,4.122799873352051,1.7429819107055664
1772698650735621000,6.83662109375,2.425961494445801,3.7604799270629883,1.752671480178833
1772698650745621200,6.846621337890625,1.866912841796875,3.316887855529785,1.7162702083587646
1772698650755621000,6.85662109375,1.036872148513794,2.8983469009399414,1.5751686096191406
1772698650765621200,6.866621337890625,0.34458959102630615,2.5728797912597656,1.2643626928329468
1772698650775621000,6.87662109375,0.10127365589141846,2.436899185180664,0.6628493070602417
1772698650785621200,6.886621337890625,0.08870303630828857,2.44101619720459,-0.07166212797164917
1772698650795621000,6.89662109375,0.10840702056884766,2.4688167572021484,-0.7115482687950134
1772698650805621200,6.906621337890625,0.38435864448547363,2.4232263565063477,-0.8792309761047363
1772698650815621000,6.91662109375,0.8778612613677979,2.3243579864501953,-0.48637229204177856
1772698650825621200,6.926621337890625,1.0939894914627075,2.41451358795166,-0.2668605446815491
1772698650835621000,6.93662109375,1.5837533473968506,2.265772819519043,-0.053236961364746094
1772698650845621200,6.946621337890625,2.0568766593933105,1.8739585876464844,0.1365533471107483
1772698650855621000,6.95662109375,2.2957286834716797,1.5550289154052734,0.2693749666213989
1772698650865621200,6.966621337890625,2.347733736038208,1.3398494720458984,0.3841565251350403
1772698650875621000,6.97662109375,2.2385687828063965,1.1703662872314453,0.47469669580459595
1772698650885621200,6.986621337890625,1.984723448753357,0.9557666778564453,0.3824707269668579
1772698650895621000,6.99662109375,1.606170892715454,0.6954269409179688,0.023717939853668213
1772698650905621200,7.006621337890625,1.3017730712890625,0.5548915863037109,-0.6454160213470459
1772698650915621000,7.01662109375,1.3692344427108765,0.4825115203857422,-1.4511300325393677
1772698650925621200,7.026621337890625,1.7546671628952026,0.5413904190063477,-2.151867389678955
1772698650935621000,7.03662109375,2.121339797973633,0.657383918762207,-2.806370258331299
1772698650945621200,7.046621337890625,2.3034934997558594,0.92431640625,-3.5456857681274414
1772698650955621000,7.05662109375,2.3769500255584717,1.0935583114624023,-4.479246616363525
1772698650965621200,7.066621337890625,2.543618679046631,0.6327114105224609,-5.287450790405273
1772698650975621000,7.07662109375,2.3987274169921875,-0.8174524307250977,-5.554370403289795
1772698650985621200,7.086621337890625,1.6072863340377808,-2.5307159423828125,-5.3744215965271
1772698650995621000,7.09662109375,0.4298487901687622,-3.9215831756591797,-4.336718559265137
1772698651005621200,7.106621337890625,-1.246340036392212,-4.391884803771973,-2.6166810989379883
1772698651015621000,7.11662109375,-1.7519712448120117,-4.583685874938965,-0.5728262662887573
1772698651025621200,7.126621337890625,-1.9917560815811157,-5.5157270431518555,1.2227141857147217
1772698651035621000,7.13662109375,-2.5713937282562256,-7.31851863861084,2.7348721027374268
1772698651045621200,7.146621337890625,-3.2640371322631836,-9.304839134216309,4.074943542480469
1772698651055621000,7.15662109375,-3.9600207805633545,-10.545886993408203,4.8334245681762695
1772698651065621200,7.166621337890625,-4.2404632568359375,-10.135252952575684,4.721704959869385
1772698651075621000,7.17662109375,-3.3859164714813232,-9.04309368133545,4.753001689910889
1772698651085621200,7.186621337890625,-1.8933210372924805,-7.4366559982299805,4.685383319854736
1772698651095621000,7.19662109375,0.2708876132965088,-5.415591239929199,4.351010799407959
1772698651105621200,7.206621337890625,1.9697668552398682,-3.570810317993164,3.153625965118408
1772698651115621000,7.21662109375,2.916463851928711,-2.2789316177368164,1.9907606840133667
1772698651125621200,7.226621337890625,2.9106438159942627,-1.5655202865600586,1.4959783554077148
1772698651135621000,7.23662109375,1.8074121475219727,-1.1105070114135742,1.1833809614181519
1772698651145621200,7.246621337890625,0.17590808868408203,-0.6375713348388672,0.8739120960235596
1772698651155621000,7.25662109375,-1.4723807573318481,-0.19845104217529297,0.5894253253936768
1772698651165621200,7.266621337890625,-2.509982109069824,0.20534992218017578,0.26309633255004883
1772698651175621000,7.27662109375,-2.6206886768341064,0.7059211730957031,0.12890195846557617
1772698651185621200,7.286621337890625,-2.6966629028320312,1.1715288162231445,-0.11565279960632324
1772698651195621000,7.29662109375,-2.606926679611206,1.6861515045166016,-0.3326411247253418
1772698651205621200,7.306621337890625,-2.1880714893341064,2.1621780395507812,-0.7226368188858032
1772698651215621000,7.31662109375,-1.3698632717132568,2.5348052978515625,-1.2098655700683594
1772698651225621200,7.326621337890625,-0.428818941116333,2.814206123352051,-1.7955541610717773
1772698651235621000,7.33662109375,0.2795064449310303,3.0127058029174805,-2.3951659202575684
1772698651245621200,7.346621337890625,0.6628944873809814,3.012698173522949,-2.8558449745178223
1772698651255621000,7.35662109375,0.5337386131286621,2.8067073822021484,-3.123577356338501
1772698651265621200,7.366621337890625,0.2805408239364624,2.658083438873291,-3.121490001678467
1772698651275621000,7.37662109375,-0.00504755973815918,2.5662646293640137,-2.885272264480591
1772698651285621200,7.386621337890625,-0.24553930759429932,2.401517868041992,-2.471719980239868
1772698651295621000,7.39662109375,-0.25447285175323486,2.1355233192443848,-1.8486504554748535
1772698651305621200,7.406621337890625,-0.024419784545898438,1.841517448425293,-1.0670242309570312
1772698651315621000,7.41662109375,0.3657630681991577,1.536890983581543,-0.25793254375457764
1772698651325621200,7.426621337890625,0.7363102436065674,1.210047721862793,0.4610321521759033
1772698651335621000,7.43662109375,0.9953421354293823,0.8879671096801758,1.0847291946411133
1772698651345621200,7.446621337890625,1.1398898363113403,0.591069221496582,1.6151607036590576
1772698651355621000,7.45662109375,1.194092035293579,0.36669254302978516,1.9644372463226318
1772698651365621200,7.466621337890625,1.2444956302642822,0.2750825881958008,2.1470000743865967
1772698651375621000,7.47662109375,1.3057786226272583,0.2799701690673828,2.1920087337493896
1772698651385621200,7.486621337890625,1.2941862344741821,0.23643779754638672,2.1933066844940186
1772698651395621000,7.49662109375,1.4638442993164062,0.1272439956665039,2.2752208709716797
1772698651405621200,7.506621337890625,1.7650022506713867,-0.10951709747314453,2.4173355102539062
1772698651415621000,7.51662109375,1.8354263305664062,-0.31829357147216797,2.4632160663604736
1772698651425621200,7.526621337890625,1.4079244136810303,-0.23757553100585938,2.2333741188049316
1772698651435621000,7.53662109375,0.8084968328475952,0.12987709045410156,1.8654388189315796
1772698651445621200,7.546621337890625,0.5980675220489502,0.4983024597167969,1.6662846803665161
1772698651455621000,7.55662109375,0.7754141092300415,0.612055778503418,1.5648164749145508
1772698651465621200,7.566621337890625,1.418516993522644,0.6210136413574219,1.3425164222717285
1772698651475621000,7.57662109375,2.383025646209717,0.31499576568603516,1.25005042552948
1772698651485621200,7.586621337890625,3.436006546020508,-0.2821636199951172,1.7036662101745605
1772698651495621000,7.59662109375,3.9979043006896973,-0.7082700729370117,2.6783435344696045
1772698651505621200,7.606621337890625,3.910797119140625,-1.1542329788208008,3.7457661628723145
1772698651515621000,7.61662109375,3.0048434734344482,-1.6850347518920898,4.510303974151611
1772698651525621200,7.626621337890625,1.7812966108322144,-2.2428855895996094,4.971375465393066
1772698651535621000,7.63662109375,0.7381647825241089,-3.135547637939453,4.80623197555542
1772698651545621200,7.646621337890625,-0.5328864455223083,-3.905120849609375,3.2759945392608643
1772698651555621000,7.65662109375,-1.668818473815918,-3.723766326904297,0.8993670344352722
1772698651565621200,7.666621337890625,-1.7401832342147827,-3.983203887939453,-0.9831909537315369
1772698651575621000,7.67662109375,-0.6281466484069824,-4.675408363342285,-2.847557306289673
1772698651585621200,7.686621337890625,0.372005820274353,-4.873456954956055,-4.472041606903076
1772698651595621000,7.69662109375,0.6763486266136169,-3.863713264465332,-4.300723075866699
1772698651605621200,7.706621337890625,-0.07715636491775513,-2.835521697998047,-2.510629415512085
1772698651615621000,7.71662109375,-2.660644054412842,-2.601816177368164,-1.0502873659133911
1772698651625621200,7.726621337890625,-4.9488444328308105,-2.4189281463623047,-0.33877915143966675
1772698651635621000,7.73662109375,-5.018421649932861,-1.7468805313110352,0.13908523321151733
1772698651645621200,7.746621337890625,-4.428262710571289,-0.8530988693237305,0.5360103845596313
1772698651655621000,7.75662109375,-3.257702350616455,0.8826360702514648,0.16001355648040771
1772698651665621200,7.766621337890625,-2.109745740890503,2.860846996307373,-0.6857266426086426
1772698651675621000,7.77662109375,-1.2168188095092773,4.116416931152344,-1.2664356231689453
1772698651685621200,7.786621337890625,-0.8082137703895569,4.6630330085754395,-1.69932222366333
1772698651695621000,7.79662109375,-0.8536851406097412,4.182647705078125,-1.584723949432373
1772698651705621200,7.806621337890625,-0.7707687020301819,3.4821090698242188,-1.879819631576538
1772698651715621000,7.81662109375,-0.8254525661468506,3.245178699493408,-2.7442946434020996
1772698651725621200,7.826621337890625,-1.1900429725646973,2.833810329437256,-3.801182746887207
1772698651735621000,7.83662109375,-1.5328959226608276,1.8537797927856445,-4.896300315856934
1772698651745621200,7.846621337890625,-1.5207605361938477,0.04544830322265625,-6.002095699310303
1772698651755621000,7.85662109375,-0.6639724969863892,-1.910670280456543,-6.6876301765441895
1772698651765621200,7.866621337890625,0.7362328767776489,-3.3339853286743164,-6.160645961761475
1772698651775621000,7.87662109375,1.1540789604187012,-2.4332962036132812,-4.839033603668213
1772698651785621200,7.886621337890625,0.42338496446609497,-0.5633268356323242,-3.5187461376190186
1772698651795621000,7.89662109375,-0.37740227580070496,1.1550264358520508,-2.7326486110687256
1772698651805621200,7.906621337890625,-0.5867919325828552,2.3386363983154297,-2.3407835960388184
1772698651815621000,7.91662109375,-0.4858068525791168,2.607048988342285,-2.0908939838409424
1772698651825621200,7.926621337890625,-0.2039135843515396,1.9773468971252441,-1.9057422876358032
1772698651835621000,7.93662109375,0.16511887311935425,1.0839509963989258,-1.6949570178985596
1772698651845621200,7.946621337890625,0.3054385185241699,0.155059814453125,-1.2812559604644775
1772698651855621000,7.95662109375,0.1473144143819809,-0.7345218658447266,-0.7680893540382385
1772698651865621200,7.966621337890625,-0.2187068909406662,-1.3006057739257812,-0.4048147201538086
1772698651875621000,7.97662109375,0.1298414170742035,-1.5510072708129883,0.02187979221343994
1772698651885621200,7.986621337890625,0.19705253839492798,-1.1984920501708984,0.2936514616012573
1772698651895621000,7.99662109375,0.11208197474479675,-0.5820837020874023,0.29503685235977173
1772698651905621200,8.006621337890625,0.16501960158348083,0.0021820068359375,0.21870064735412598
1772698651915621000,8.01662109375,0.4184620976448059,0.3637685775756836,0.13155004382133484
1772698651925621200,8.026621337890624,0.6948402523994446,0.5119524002075195,0.0491962730884552
1772698651935621000,8.03662109375,0.8780856728553772,0.4991722106933594,-0.007704883813858032
1772698651945621200,8.046621337890626,0.960336446762085,0.4180459976196289,0.05855739116668701
1772698651955621000,8.05662109375,0.9542609453201294,0.2644824981689453,0.2730814814567566
1772698651965621200,8.066621337890625,0.9324019551277161,0.15065765380859375,0.5861539840698242
1772698651975621000,8.07662109375,0.7838518619537354,0.04355430603027344,0.956885039806366
1772698651985621200,8.086621337890625,0.6097574234008789,-0.05849456787109375,1.2562694549560547
1772698651995621000,8.09662109375,0.496160626411438,-0.07213401794433594,1.4945794343948364
1772698652005621200,8.106621337890624,0.5385972857475281,0.015825271606445312,1.6167125701904297
1772698652015621000,8.11662109375,0.6542872190475464,0.16917705535888672,1.654578685760498
1772698652025621200,8.126621337890626,0.9040030241012573,0.3418006896972656,1.6671531200408936
1772698652035621000,8.13662109375,1.2087198495864868,0.5119800567626953,1.6330711841583252
1772698652045621200,8.146621337890625,1.444200038909912,0.6472091674804688,1.6308228969573975
1772698652055621000,8.15662109375,1.6211737394332886,0.8550310134887695,1.6373302936553955
1772698652065621200,8.166621337890625,1.701190710067749,1.053685188293457,1.5494325160980225
1772698652075621000,8.17662109375,1.5933902263641357,1.2918577194213867,1.2999300956726074
1772698652085621200,8.186621337890625,1.440916657447815,1.4385805130004883,0.9510971903800964
1772698652095621000,8.19662109375,1.2697172164916992,1.4398822784423828,0.49109703302383423
1772698652105621200,8.206621337890626,1.0986623764038086,1.220841407775879,0.05418974161148071
1772698652115621000,8.21662109375,0.9818148612976074,0.9375810623168945,-0.32160788774490356
1772698652125621200,8.226621337890625,0.8878501653671265,0.5239448547363281,-0.6794935464859009
1772698652135621000,8.23662109375,0.9027037620544434,0.09753608703613281,-0.8955734968185425
1772698652145621200,8.246621337890625,1.0966954231262207,-0.09590911865234375,-1.0170228481292725
1772698652155621000,8.25662109375,1.3476563692092896,-0.033095359802246094,-1.091733455657959
1772698652165621200,8.266621337890625,1.5212620496749878,0.1437244415283203,-1.0093786716461182
1772698652175621000,8.27662109375,1.5988295078277588,0.2883291244506836,-0.7401924133300781
1772698652185621200,8.286621337890624,1.637833595275879,0.35553646087646484,-0.3822724223136902
1772698652195621000,8.29662109375,1.6504981517791748,0.30772972106933594,-0.08705788850784302
1772698652205621200,8.306621337890626,1.6757179498672485,0.2238922119140625,0.1173018217086792
1772698652215621000,8.31662109375,1.5255382061004639,0.12006092071533203,0.20749008655548096
1772698652225621200,8.326621337890625,1.1845836639404297,-0.1303567886352539,0.1644430160522461
1772698652235621000,8.33662109375,0.6168050765991211,-0.6324253082275391,0.15401679277420044
1772698652245621200,8.346621337890625,0.31704187393188477,-1.2928009033203125,0.20556771755218506
1772698652255621000,8.35662109375,0.7589826583862305,-1.626983642578125,0.48573607206344604
1772698652265621200,8.366621337890624,0.4430803656578064,-1.2868881225585938,0.323519229888916
1772698652275621000,8.37662109375,0.29452112317085266,-0.6043548583984375,0.1057584285736084
1772698652285621200,8.386621337890626,0.14190673828125,0.024764060974121094,-0.08841991424560547
1772698652295621000,8.39662109375,-0.2747802734375,0.555842399597168,-0.3088003396987915
1772698652305621200,8.406621337890625,-0.7547926306724548,0.9664955139160156,-0.6090465784072876
1772698652315621000,8.41662109375,-1.2981297969818115,1.1227397918701172,-1.1884185075759888
1772698652325621200,8.426621337890625,-1.7983096837997437,0.9791431427001953,-1.9718499183654785
1772698652335621000,8.43662109375,-2.1882097721099854,0.5470972061157227,-2.5732953548431396
1772698652345621200,8.446621337890624,-2.3973770141601562,0.045540809631347656,-3.0461342334747314
1772698652355621000,8.45662109375,-2.385347843170166,-0.19832611083984375,-3.4263041019439697
1772698652365621200,8.466621337890626,-2.373948574066162,-0.13227462768554688,-3.5317342281341553
1772698652375621000,8.47662109375,-2.537123203277588,0.08150482177734375,-3.364476203918457
1772698652385621200,8.486621337890625,-2.5620956420898438,0.34927845001220703,-3.027604341506958
1772698652395621000,8.49662109375,-2.552006244659424,0.5536794662475586,-2.4828872680664062
1772698652405621200,8.506621337890625,-2.501931667327881,0.7164373397827148,-1.7023826837539673
1772698652415621000,8.51662109375,-2.577547073364258,0.5575437545776367,-0.5343692898750305
1772698652425621200,8.526621337890624,-2.582869529724121,-0.18850040435791016,0.8102266192436218
1772698652435621000,8.53662109375,-2.4452829360961914,-1.363668441772461,2.315502166748047
1772698652445621200,8.546621337890626,-2.0922324657440186,-2.8995485305786133,3.9270660877227783
1772698652455621000,8.55662109375,-1.7358460426330566,-4.497686386108398,5.457545280456543
1772698652465621200,8.566621337890625,-1.6651991605758667,-5.727762222290039,6.544530391693115
1772698652475621000,8.57662109375,-2.303842544555664,-5.82436466217041,6.71802282333374
1772698652485621200,8.586621337890625,-3.0135836601257324,-4.803049087524414,5.797273635864258
1772698652495621000,8.59662109375,-2.9656314849853516,-3.5095672607421875,4.238083839416504
1772698652505621200,8.606621337890624,-2.358614206314087,-2.238170623779297,2.6667370796203613
1772698652515621000,8.61662109375,-1.9294650554656982,-1.0863018035888672,1.4559216499328613
1772698652525621200,8.626621337890626,-1.5534465312957764,-0.1605224609375,0.6507853269577026
1772698652535621000,8.63662109375,-1.0532174110412598,0.538848876953125,-0.0465908944606781
1772698652545621200,8.646621337890625,-0.731831431388855,0.6946592330932617,-0.4500153958797455
1772698652555621000,8.65662109375,-0.7856214046478271,0.5037059783935547,-0.6333118081092834
1772698652565621200,8.666621337890625,-0.7196426391601562,0.35248565673828125,-0.8194064497947693
1772698652575621000,8.67662109375,-0.47374606132507324,0.3228311538696289,-0.9119825959205627
1772698652585621200,8.686621337890625,-0.31179022789001465,0.33003807067871094,-0.9127121567726135
1772698652595621000,8.69662109375,-0.21266818046569824,0.3824758529663086,-0.7461810111999512
1772698652605621200,8.706621337890626,-0.21874964237213135,0.48479747772216797,-0.5096813440322876
1772698652615621000,8.71662109375,-0.34657859802246094,0.6565237045288086,-0.2820369601249695
1772698652625621200,8.726621337890625,-0.5110224485397339,0.8508539199829102,-0.07749825716018677
1772698652635621000,8.73662109375,-0.6034138202667236,1.006490707397461,0.10573101043701172
1772698652645621200,8.746621337890625,-0.5897154808044434,1.1593599319458008,0.23278731107711792
1772698652655621000,8.75662109375,-0.49113500118255615,1.2730226516723633,0.2502295970916748
1772698652665621200,8.766621337890625,-0.3008309602737427,1.2776603698730469,0.379342257976532
1772698652675621000,8.77662109375,-0.2462548017501831,1.196681022644043,0.5101943016052246
1772698652685621200,8.786621337890624,-0.1933286190032959,1.1285181045532227,0.6338067650794983
1772698652695621000,8.79662109375,-0.0810248851776123,1.1008167266845703,0.7250455617904663
1772698652705621200,8.806621337890626,0.007459044456481934,1.1489315032958984,0.7103358507156372
1772698652715621000,8.81662109375,-0.013522624969482422,1.221893310546875,0.5752742886543274
1772698652725621200,8.826621337890625,-0.022730708122253418,1.2138729095458984,0.36179065704345703
1772698652735621000,8.83662109375,0.05742204189300537,1.0770130157470703,0.1119573712348938
1772698652745621200,8.846621337890625,0.2356727123260498,0.9075508117675781,-0.1792469024658203
1772698652755621000,8.85662109375,0.34944236278533936,0.661773681640625,-0.336564838886261
1772698652765621200,8.866621337890624,0.4875532388687134,0.4674854278564453,-0.2523767948150635
1772698652775621000,8.87662109375,0.6786512136459351,0.34854793548583984,-0.21284818649291992
1772698652785621200,8.886621337890626,0.8854426145553589,0.3644981384277344,-0.25534313917160034
1772698652795621000,8.89662109375,0.8957984447479248,0.7244062423706055,-0.1149185299873352
1772698652805621200,8.906621337890625,0.07290482521057129,1.0966005325317383,0.38713622093200684
1772698652815621000,8.91662109375,-1.3236377239227295,0.8061943054199219,1.0660209655761719
1772698652825621200,8.926621337890625,-1.8254412412643433,-0.042563438415527344,1.8505496978759766
1772698652835621000,8.93662109375,-0.536920428276062,-0.4506950378417969,2.1898279190063477
1772698652845621200,8.946621337890624,1.2421457767486572,-0.29438304901123047,1.497947335243225
1772698652855621000,8.95662109375,2.858400821685791,-0.15318584442138672,1.0241656303405762
1772698652865621200,8.966621337890626,3.3641409873962402,-0.1894359588623047,0.8382053375244141
1772698652875621000,8.97662109375,3.053710699081421,0.3107013702392578,0.8129127025604248
1772698652885621200,8.986621337890625,2.0437381267547607,0.6504192352294922,1.0001404285430908
1772698652895621000,8.99662109375,0.8459173440933228,0.8165988922119141,1.0707870721817017
1772698652905621200,9.006621337890625,-0.04881095886230469,0.9124956130981445,1.2238742113113403
1772698652915621000,9.01662109375,-0.5454983711242676,0.6904830932617188,1.488129734992981
1772698652925621200,9.026621337890624,-0.3812441825866699,0.436279296875,1.5157643556594849
1772698652935621000,9.03662109375,0.16521286964416504,0.31294822692871094,1.3680078983306885
1772698652945621200,9.046621337890626,0.6226153373718262,0.13138866424560547,1.2487046718597412
1772698652955621000,9.05662109375,0.7515425682067871,-0.20613765716552734,1.0759892463684082
1772698652965621200,9.066621337890625,0.54667067527771,-0.45134449005126953,0.7093290090560913
1772698652975621000,9.07662109375,0.27396106719970703,-0.6000776290893555,0.3392679691314697
1772698652985621200,9.086621337890625,0.1094975471496582,-0.5836181640625,0.11278796195983887
1772698652995621000,9.09662109375,0.04235529899597168,-0.4192342758178711,-0.0950995683670044
1772698653005621200,9.106621337890624,-0.0024121999740600586,-0.10575103759765625,-0.3499070405960083
1772698653015621000,9.11662109375,-0.03693699836730957,0.33222198486328125,-0.6454098224639893
1772698653025621200,9.126621337890626,-0.07473254203796387,0.6845741271972656,-0.8447376489639282
1772698653035621000,9.13662109375,-0.16191041469573975,0.8075189590454102,-0.932497501373291
1772698653045621200,9.146621337890625,-0.2629833221435547,0.7504949569702148,-0.92050701379776
1772698653055621000,9.15662109375,-0.3087923526763916,0.6513843536376953,-0.9026519060134888
1772698653065621200,9.166621337890625,-0.2728159427642822,0.63861083984375,-0.9983403086662292
1772698653075621000,9.17662109375,-0.17886734008789062,0.6809768676757812,-1.1216580867767334
1772698653085621200,9.186621337890625,-0.10192906856536865,0.7141284942626953,-1.234563946723938
1772698653095621000,9.19662109375,-0.07187807559967041,0.7894926071166992,-1.3081587553024292
1772698653105621200,9.206621337890626,0.04540205001831055,0.9182262420654297,-1.256697416305542
1772698653115621000,9.21662109375,0.03074336051940918,1.1568775177001953,-1.2094459533691406
1772698653125621200,9.226621337890625,0.050908446311950684,1.487940788269043,-1.0438170433044434
1772698653135621000,9.23662109375,0.057111263275146484,1.7290802001953125,-0.926856517791748
1772698653145621200,9.246621337890625,-0.02491152286529541,1.7666335105895996,-0.6337859630584717
1772698653155621000,9.25662109375,-0.14768314361572266,1.735356330871582,-0.30571943521499634
1772698653165621200,9.266621337890625,-0.30246829986572266,1.7137799263000488,-0.03160589933395386
1772698653175621000,9.27662109375,-0.5098868012428284,1.7671971321105957,0.22909384965896606
1772698653185621200,9.286621337890624,-0.7177445888519287,2.0032172203063965,0.37624794244766235
1772698653195621000,9.29662109375,-0.9397193193435669,2.342712879180908,0.5752893090248108
1772698653205621200,9.306621337890626,-1.1432299613952637,2.827761650085449,0.591634213924408
1772698653215621000,9.31662109375,-1.1379214525222778,3.414605140686035,0.4463580250740051
1772698653225621200,9.326621337890625,-0.9365783929824829,3.9670629501342773,0.2803809940814972
1772698653235621000,9.33662109375,-0.5946226119995117,4.392533302307129,0.15386927127838135
1772698653245621200,9.346621337890625,-0.13185274600982666,4.660009384155273,0.02418532967567444
1772698653255621000,9.35662109375,0.3747994899749756,4.756243705749512,-0.1390262246131897
1772698653265621200,9.366621337890624,0.7634570598602295,4.667359352111816,-0.3430019021034241
1772698653275621000,9.37662109375,1.2009928226470947,4.397924423217773,-0.6031469106674194
1772698653285621200,9.386621337890626,1.697891116142273,3.974759101867676,-0.8744546175003052
1772698653295621000,9.39662109375,2.1121110916137695,3.4126691818237305,-1.089820384979248
1772698653305621200,9.406621337890625,2.2976086139678955,2.722400665283203,-1.2734986543655396
1772698653315621000,9.41662109375,2.0676229000091553,1.9547605514526367,-1.2733737230300903
1772698653325621200,9.426621337890625,1.5900952816009521,1.1526374816894531,-0.8531995415687561
1772698653335621000,9.43662109375,1.12025785446167,0.49360084533691406,-0.4404056668281555
1772698653345621200,9.446621337890624,0.7091022729873657,0.002323150634765625,-0.06854420900344849
1772698653355621000,9.45662109375,0.5620783567428589,-0.26062870025634766,0.25654906034469604
1772698653365621200,9.466621337890626,0.54469895362854,-0.23666763305664062,0.39145222306251526
1772698653375621000,9.47662109375,0.4922668933868408,0.18614673614501953,0.2911662459373474
1772698653385621200,9.486621337890625,0.5619876384735107,0.7880859375,0.26435387134552
1772698653395621000,9.49662109375,0.8015743494033813,1.2371435165405273,0.4983024299144745
1772698653405621200,9.506621337890625,1.0123482942581177,1.3910484313964844,0.8319258689880371
1772698653415621000,9.51662109375,0.8574497699737549,1.102177619934082,1.2174949645996094
1772698653425621200,9.526621337890624,0.0907278060913086,-0.24782276153564453,2.1489012241363525
1772698653435621000,9.53662109375,-0.5809093117713928,-2.999936103820801,3.253575086593628
1772698653445621200,9.546621337890626,-0.4955037236213684,-6.750898361206055,3.183364152908325
1772698653455621000,9.55662109375,-1.194839596748352,-10.701507568359375,2.436941146850586
1772698653465621200,9.566621337890625,-4.10269832611084,-13.556565284729004,1.8599166870117188
1772698653475621000,9.57662109375,-6.911388397216797,-13.245813369750977,1.3083126544952393
1772698653485621200,9.586621337890625,-7.038233280181885,-9.063572883605957,1.0027936697006226
1772698653495621000,9.59662109375,-5.287264823913574,-5.173368453979492,1.077805995941162
1772698653505621200,9.606621337890624,-2.851113796234131,-4.231113433837891,1.2687604427337646
1772698653515621000,9.61662109375,-0.6496652960777283,-4.043127059936523,0.5424400568008423
1772698653525621200,9.626621337890626,1.2561407089233398,-3.1886157989501953,-1.0132218599319458
1772698653535621000,9.63662109375,3.1702446937561035,-1.7660255432128906,-1.9502567052841187
1772698653545621200,9.646621337890625,4.600325107574463,-0.5291452407836914,-1.8994323015213013
1772698653555621000,9.65662109375,4.890805244445801,-0.09310436248779297,-1.7488754987716675
1772698653565621200,9.666621337890625,3.208411693572998,-0.7435884475708008,-1.6700828075408936
1772698653575621000,9.67662109375,0.7441140413284302,-2.467660903930664,-1.7113826274871826
1772698653585621200,9.686621337890625,-1.0578333139419556,-4.0970611572265625,-2.163684844970703
1772698653595621000,9.69662109375,-1.9150846004486084,-4.866406440734863,-2.827731132507324
1772698653605621200,9.706621337890626,-2.119093418121338,-5.263948440551758,-3.053056240081787
1772698653615621000,9.71662109375,-1.9695338010787964,-5.152524948120117,-2.7093236446380615
1772698653625621200,9.726621337890625,-1.579325556755066,-3.9760923385620117,-2.1773793697357178
1772698653635621000,9.73662109375,-0.7996945381164551,-2.4575319290161133,-1.4680585861206055
1772698653645621200,9.746621337890625,-0.030501604080200195,-0.8781709671020508,-1.1383881568908691
1772698653655621000,9.75662109375,0.34310609102249146,0.8432731628417969,-1.3084884881973267
1772698653665621200,9.766621337890625,0.39164960384368896,2.377140522003174,-1.7039716243743896
1772698653675621000,9.77662109375,0.22837096452713013,3.539118766784668,-2.138538122177124
1772698653685621200,9.786621337890624,0.0015205740928649902,3.964071273803711,-2.3647680282592773
1772698653695621000,9.79662109375,-0.22996628284454346,3.444734573364258,-2.345144748687744
1772698653705621200,9.806621337890626,-0.4721829295158386,2.638011932373047,-2.110081672668457
1772698653715621000,9.81662109375,-0.638472318649292,1.6826581954956055,-1.5075451135635376
1772698653725621200,9.826621337890625,-0.5309884548187256,0.6603784561157227,-0.6971178650856018
1772698653735621000,9.83662109375,-0.17692184448242188,-0.15264511108398438,0.12639600038528442
1772698653745621200,9.846621337890625,0.22828000783920288,-0.4747171401977539,0.8272295594215393
1772698653755621000,9.85662109375,0.441511869430542,-0.25748252868652344,1.3487653732299805
1772698653765621200,9.866621337890624,0.6349740624427795,0.22896289825439453,1.7997398376464844
1772698653775621000,9.87662109375,0.8271665573120117,0.8658628463745117,2.193939447402954
1772698653785621200,9.886621337890626,0.950738251209259,1.5293292999267578,2.4476842880249023
1772698653795621000,9.89662109375,0.9555376172065735,2.0642924308776855,2.5406620502471924
1772698653805621200,9.906621337890625,0.942440927028656,2.3112382888793945,2.5263140201568604
1772698653815621000,9.91662109375,1.116140604019165,2.148954391479492,2.424490451812744
1772698653825621200,9.926621337890625,1.5208768844604492,1.7432622909545898,2.3152248859405518
1772698653835621000,9.93662109375,1.8382970094680786,1.4266042709350586,2.3118581771850586
1772698653845621200,9.946621337890624,1.8782685995101929,1.1728715896606445,2.3889153003692627
1772698653855621000,9.95662109375,1.7489049434661865,0.8518190383911133,2.338890314102173
1772698653865621200,9.966621337890626,1.6599408388137817,0.47658824920654297,2.071640968322754
1772698653875621000,9.97662109375,1.597702145576477,0.14138412475585938,1.6013377904891968
1772698653885621200,9.986621337890625,1.5540924072265625,0.018590927124023438,1.1047359704971313
1772698653895621000,9.99662109375,1.4549659490585327,0.1085958480834961,0.6305961608886719
1772698653905621200,10.006621337890625,1.388862133026123,0.41558170318603516,0.12529408931732178
1772698653915621000,10.01662109375,0.8251255750656128,0.8611259460449219,-0.36896419525146484
1772698653925621200,10.026621337890624,-0.12999789416790009,1.3780488967895508,-0.8332409262657166
1772698653935621000,10.03662109375,-0.6447609066963196,1.9068708419799805,-1.118640661239624
1772698653945621200,10.046621337890626,-0.39721617102622986,2.3903603553771973,-1.0541679859161377
1772698653955621000,10.05662109375,0.1482425332069397,2.9255776405334473,-0.7532092332839966
1772698653965621200,10.066621337890625,0.6230311393737793,3.433809280395508,-0.3277430534362793
1772698653975621000,10.07662109375,1.2044243812561035,3.7007570266723633,-0.0076944828033447266
1772698653985621200,10.086621337890625,1.3725719451904297,3.9756832122802734,-0.17020690441131592
1772698653995621000,10.09662109375,1.673661231994629,4.084976673126221,-0.31798094511032104
1772698654005621200,10.106621337890624,1.9332430362701416,3.838886260986328,-0.24707722663879395
1772698654015621000,10.11662109375,2.1569674015045166,3.2879090309143066,-0.3254384398460388
1772698654025621200,10.126621337890626,2.0354580879211426,2.4452052116394043,-0.6430553197860718
1772698654035621000,10.13662109375,1.8706647157669067,1.5373897552490234,-0.7560137510299683
1772698654045621200,10.146621337890625,1.9064298868179321,1.0674324035644531,-0.7539713382720947
1772698654055621000,10.15662109375,2.060426712036133,1.047501564025879,-0.8387211561203003
1772698654065621200,10.166621337890625,1.9893133640289307,1.2119178771972656,-1.0439214706420898
1772698654075621000,10.17662109375,1.852385401725769,1.4502668380737305,-1.3723337650299072
1772698654085621200,10.186621337890625,1.6836128234863281,1.7473688125610352,-1.753286361694336
1772698654095621000,10.19662109375,1.691986083984375,1.9554214477539062,-2.1027028560638428
1772698654105621200,10.206621337890626,1.686643123626709,2.3170862197875977,-2.5805349349975586
1772698654115621000,10.21662109375,1.4545478820800781,2.754533290863037,-3.0628304481506348
1772698654125621200,10.226621337890625,0.8229584693908691,2.671039581298828,-2.987807273864746
1772698654135621000,10.23662109375,-0.0979335680603981,1.728647232055664,-2.516927719116211
1772698654145621200,10.246621337890625,-1.0811692476272583,0.17112445831298828,-2.2527387142181396
1772698654155621000,10.25662109375,-1.8260372877120972,-1.8606901168823242,-2.0782434940338135
1772698654165621200,10.266621337890625,-1.8898781538009644,-4.037884712219238,-1.6705806255340576
1772698654175621000,10.27662109375,-1.5780318975448608,-5.530641555786133,-0.9157356023788452
1772698654185621200,10.286621337890624,-1.417923092842102,-5.872457504272461,-0.09350192546844482
1772698654195621000,10.29662109375,-1.371230125427246,-5.3616790771484375,0.7569552659988403
1772698654205621200,10.306621337890626,-1.4684743881225586,-4.951388359069824,1.5284311771392822
1772698654215621000,10.31662109375,-1.8658194541931152,-5.138950347900391,2.1074414253234863
1772698654225621200,10.326621337890625,-1.771094799041748,-5.770874977111816,2.6001534461975098
1772698654235621000,10.33662109375,-1.3478590250015259,-6.632431983947754,3.14644455909729
1772698654245621200,10.346621337890625,-1.2250441312789917,-7.315446853637695,3.637660026550293
1772698654255621000,10.35662109375,-1.3712801933288574,-7.267753601074219,3.884491443634033
1772698654265621200,10.366621337890624,-1.557195782661438,-6.070501327514648,3.3857932090759277
1772698654275621000,10.37662109375,-1.2952041625976562,-4.038358688354492,2.3873367309570312
1772698654285621200,10.386621337890626,-0.40344488620758057,-2.059380531311035,1.5586955547332764
1772698654295621000,10.39662109375,-0.13117027282714844,-0.6338624954223633,0.5492837429046631
1772698654305621200,10.406621337890625,0.19800794124603271,0.33281612396240234,-0.4154512882232666
1772698654315621000,10.41662109375,0.4590640068054199,0.8193607330322266,-1.2425051927566528
1772698654325621200,10.426621337890625,0.44360554218292236,1.0294170379638672,-1.6754279136657715
1772698654335621000,10.43662109375,0.1345958709716797,1.0810003280639648,-1.763662576675415
1772698654345621200,10.446621337890624,-0.32052838802337646,1.0399694442749023,-1.4351407289505005
1772698654355621000,10.45662109375,-0.8047219514846802,0.7698431015014648,-0.8602564334869385
1772698654365621200,10.466621337890626,-1.2493997812271118,0.3135395050048828,-0.31142210960388184
1772698654375621000,10.47662109375,-1.5217467546463013,-0.05416679382324219,0.2073373794555664
1772698654385621200,10.486621337890625,-1.5706450939178467,-0.2048797607421875,0.7860196828842163
1772698654395621000,10.49662109375,-1.4183239936828613,0.0039844512939453125,1.1528462171554565
1772698654405621200,10.506621337890625,-1.123298168182373,0.5545196533203125,1.0469214916229248
1772698654415621000,10.51662109375,-0.8408839702606201,1.1786994934082031,0.567854642868042
1772698654425621200,10.526621337890624,-0.6426743268966675,1.7141036987304688,-0.049129605293273926
1772698654435621000,10.53662109375,-0.42559337615966797,2.2531890869140625,-0.7236379981040955
1772698654445621200,10.546621337890626,-0.20192313194274902,2.695237159729004,-1.3759037256240845
1772698654455621000,10.55662109375,-0.007826566696166992,2.91953182220459,-1.9898486137390137
1772698654465621200,10.566621337890625,0.17833006381988525,3.050570487976074,-2.512502670288086
1772698654475621000,10.57662109375,0.4000595808029175,3.176370620727539,-2.8551025390625
1772698654485621200,10.586621337890625,0.5445351600646973,3.3427696228027344,-2.964486837387085
1772698654495621000,10.59662109375,0.626990556716919,3.49051570892334,-2.8438282012939453
1772698654505621200,10.606621337890624,0.5831962823867798,3.54709529876709,-2.5270776748657227
1772698654515621000,10.61662109375,0.47811949253082275,3.369818687438965,-2.0689034461975098
1772698654525621200,10.626621337890626,0.391190767288208,3.0661048889160156,-1.6159206628799438
1772698654535621000,10.63662109375,0.35288405418395996,2.723715305328369,-1.218010425567627
1772698654545621200,10.646621337890625,0.24355340003967285,2.366407871246338,-0.8421614170074463
1772698654555621000,10.65662109375,0.08245348930358887,2.0289058685302734,-0.41281360387802124
1772698654565621200,10.666621337890625,-0.09908747673034668,1.6045684814453125,0.2479517161846161
1772698654575621000,10.67662109375,-0.18477797508239746,1.2196969985961914,0.7506797313690186
1772698654585621200,10.686621337890625,-0.17189264297485352,0.8098936080932617,1.2879798412322998
1772698654595621000,10.69662109375,-0.03351998329162598,0.30329132080078125,2.0148520469665527
1772698654605621200,10.706621337890626,0.06157350540161133,-0.20815658569335938,2.6226017475128174
1772698654615621000,10.71662109375,0.18089604377746582,-0.7502422332763672,3.0953946113586426
1772698654625621200,10.726621337890625,0.18221712112426758,-1.2547712326049805,3.5475895404815674
1772698654635621000,10.73662109375,0.29805850982666016,-1.4921646118164062,3.770907402038574
1772698654645621200,10.746621337890625,0.41416239738464355,-1.3380918502807617,3.6760315895080566
1772698654655621000,10.75662109375,0.391345739364624,-0.7703857421875,3.269131660461426
1772698654665621200,10.766621337890625,0.2431713342666626,-0.16740036010742188,2.9345576763153076
1772698654675621000,10.77662109375,0.1872960329055786,0.34210681915283203,2.7373046875
1772698654685621200,10.786621337890624,0.27710020542144775,0.863306999206543,2.5318126678466797
1772698654695621000,10.79662109375,0.4242696762084961,1.3252086639404297,2.3426783084869385
1772698654705621200,10.806621337890626,0.709923505783081,1.6789379119873047,2.165107488632202
1772698654715621000,10.81662109375,1.0936332941055298,1.9520397186279297,1.9555895328521729
1772698654725621200,10.826621337890625,1.381239414215088,2.0929040908813477,1.7178000211715698
1772698654735621000,10.83662109375,1.4766747951507568,2.072378158569336,1.5241955518722534
1772698654745621200,10.846621337890625,1.5087560415267944,1.8992700576782227,1.44806969165802
1772698654755621000,10.85662109375,1.1761962175369263,1.492396354675293,1.5446768999099731
1772698654765621200,10.866621337890624,-0.1313459873199463,0.3625020980834961,1.7373677492141724
1772698654775621000,10.87662109375,-1.989464282989502,-2.036831855773926,1.783545970916748
1772698654785621200,10.886621337890626,-3.3233158588409424,-6.230201721191406,1.248824119567871
1772698654795621000,10.89662109375,-2.707521915435791,-11.3264741897583,0.09850937128067017
1772698654805621200,10.906621337890625,-3.859483242034912,-14.447147369384766,-2.0206196308135986
1772698654815621000,10.91662109375,-6.351425647735596,-12.72465705871582,-3.0850181579589844
1772698654825621200,10.926621337890625,-5.661375045776367,-5.7229461669921875,-3.440234661102295
1772698654835621000,10.93662109375,-3.1361594200134277,-0.4729270935058594,-3.7891294956207275
1772698654845621200,10.946621337890624,-1.1934372186660767,2.523550510406494,-3.3713340759277344
1772698654855621000,10.95662109375,0.07358276844024658,3.741281509399414,-2.0085630416870117
1772698654865621200,10.966621337890626,1.1577024459838867,2.9243459701538086,-1.0696325302124023
1772698654875621000,10.97662109375,2.7743115425109863,-0.6350078582763672,-0.6891374588012695
1772698654885621200,10.986621337890625,4.226639747619629,-4.307147026062012,-0.8243080973625183
1772698654895621000,10.99662109375,4.052056789398193,-6.339312553405762,-1.064397931098938
1772698654905621200,11.006621337890625,1.9003158807754517,-5.9833526611328125,-1.5980956554412842
1772698654915621000,11.01662109375,-0.772148072719574,-4.088141441345215,-2.3159127235412598
1772698654925621200,11.026621337890624,-1.606785774230957,-2.781848907470703,-2.674753189086914
1772698654935621000,11.03662109375,-2.091456413269043,-2.498262405395508,-2.889166831970215
1772698654945621200,11.046621337890626,-2.3811464309692383,-2.4704198837280273,-2.5403037071228027
1772698654955621000,11.05662109375,-2.084608554840088,-2.182903289794922,-1.9467766284942627
1772698654965621200,11.066621337890625,-1.3409483432769775,-1.6635570526123047,-1.4675873517990112
1772698654975621000,11.07662109375,-0.25697052478790283,-1.1804723739624023,-1.0061869621276855
1772698654985621200,11.086621337890625,0.7081923484802246,-0.8456897735595703,-0.5803965926170349
1772698654995621000,11.09662109375,1.2007591724395752,-0.5716791152954102,-0.3030945062637329
1772698655005621200,11.106621337890624,1.2480072975158691,-0.28144168853759766,-0.13922083377838135
1772698655015621000,11.11662109375,0.9428173303604126,0.04457664489746094,-0.02453446388244629
1772698655025621200,11.126621337890626,0.5202068090438843,0.3804655075073242,0.15998435020446777
1772698655035621000,11.13662109375,0.17910265922546387,0.641819953918457,0.48232877254486084
1772698655045621200,11.146621337890625,0.029559671878814697,0.8286886215209961,0.7063251733779907
1772698655055621000,11.15662109375,0.17674291133880615,0.9191389083862305,0.8087725639343262
1772698655065621200,11.166621337890625,0.4751736521720886,1.0154619216918945,0.8782515525817871
1772698655075621000,11.17662109375,0.7389997839927673,1.086130142211914,0.97254478931427
1772698655085621200,11.186621337890625,0.8398110270500183,1.1368274688720703,1.0949301719665527
1772698655095621000,11.19662109375,0.7747665643692017,1.1090688705444336,1.2344237565994263
1772698655105621200,11.206621337890626,0.6373363137245178,1.0579099655151367,1.3503971099853516
1772698655115621000,11.21662109375,0.5351195335388184,1.0520563125610352,1.4056869745254517
1772698655125621200,11.226621337890625,0.4759858250617981,1.1660089492797852,1.3260438442230225
1772698655135621000,11.23662109375,0.5261893272399902,1.2962217330932617,1.259124755859375
1772698655145621200,11.246621337890625,0.6969252228736877,1.3941650390625,1.1840355396270752
1772698655155621000,11.25662109375,0.9159592390060425,1.3957242965698242,1.0902419090270996
1772698655165621200,11.266621337890625,1.1645262241363525,1.317692756652832,1.0022704601287842
1772698655175621000,11.27662109375,1.287880778312683,1.2860851287841797,0.8122183084487915
1772698655185621200,11.286621337890624,1.3819329738616943,1.3848676681518555,0.6036545038223267
1772698655195621000,11.29662109375,1.4354310035705566,1.736903190612793,0.3071194887161255
1772698655205621200,11.306621337890626,1.381858468055725,2.2478113174438477,-0.12059032917022705
1772698655215621000,11.31662109375,1.3830909729003906,2.7349133491516113,-0.7249866724014282
1772698655225621200,11.326621337890625,1.564435601234436,2.9844541549682617,-1.334343433380127
1772698655235621000,11.33662109375,1.8164037466049194,3.0590219497680664,-1.8709828853607178
1772698655245621200,11.346621337890625,2.0269954204559326,3.1636476516723633,-2.4620635509490967
1772698655255621000,11.35662109375,2.1655068397521973,3.4277963638305664,-2.9958202838897705
1772698655265621200,11.366621337890624,2.0257728099823,3.7962188720703125,-3.2231101989746094
1772698655275621000,11.37662109375,1.9042187929153442,3.946554660797119,-2.8699111938476562
1772698655285621200,11.386621337890626,1.5565155744552612,4.015517711639404,-2.326498508453369
1772698655295621000,11.39662109375,1.4309748411178589,3.799813747406006,-1.2938823699951172
1772698655305621200,11.406621337890625,1.0360288619995117,3.1388721466064453,-0.11769676208496094
1772698655315621000,11.41662109375,0.5268470644950867,2.188953399658203,0.8888622522354126
1772698655325621200,11.426621337890625,0.29040440917015076,1.275177001953125,1.3355995416641235
1772698655335621000,11.43662109375,0.6257814764976501,0.7562713623046875,0.9236313104629517
1772698655345621200,11.446621337890624,1.4074230194091797,0.6377162933349609,0.21347498893737793
1772698655355621000,11.45662109375,2.0849034786224365,0.6276798248291016,-0.23638558387756348
1772698655365621200,11.466621337890626,2.348195791244507,0.6126871109008789,-0.40502142906188965
1772698655375621000,11.47662109375,2.2601675987243652,0.6445627212524414,-0.40536391735076904
1772698655385621200,11.486621337890625,1.803087592124939,0.7350597381591797,-0.3031841516494751
1772698655395621000,11.49662109375,1.1534825563430786,0.9149370193481445,-0.3617689609527588
1772698655405621200,11.506621337890625,0.7188667058944702,1.231226921081543,-0.799431562423706
1772698655415621000,11.51662109375,0.5791073441505432,1.6690006256103516,-1.4950716495513916
1772698655425621200,11.526621337890624,0.7490681409835815,1.8668670654296875,-1.9220316410064697
1772698655435621000,11.53662109375,1.0166488885879517,1.6148004531860352,-2.0953502655029297
1772698655445621200,11.546621337890626,1.0216975212097168,1.2427263259887695,-2.426107406616211
1772698655455621000,11.55662109375,0.8355849385261536,1.3003835678100586,-3.0340895652770996
1772698655465621200,11.566621337890625,0.7105023264884949,1.4849843978881836,-3.44724702835083
1772698655475621000,11.57662109375,0.16243010759353638,1.058365821838379,-3.965362310409546
1772698655485621200,11.586621337890625,0.24291706085205078,-0.017380714416503906,-4.450624465942383
1772698655495621000,11.59662109375,0.20435386896133423,-1.2658519744873047,-4.97689151763916
1772698655505621200,11.606621337890624,0.41284793615341187,-2.089789390563965,-4.639520645141602
1772698655515621000,11.61662109375,0.7754560708999634,-2.445812225341797,-3.3508787155151367
1772698655525621200,11.626621337890626,0.6017608642578125,-3.058368682861328,-1.2919120788574219
1772698655535621000,11.63662109375,0.11154913902282715,-4.431524276733398,0.7634018063545227
1772698655545621200,11.646621337890625,-0.7963496446609497,-6.754905700683594,2.39628005027771
1772698655555621000,11.65662109375,-1.3326646089553833,-9.561646461486816,3.459341287612915
1772698655565621200,11.666621337890625,-1.2946923971176147,-12.600996017456055,4.331399917602539
1772698655575621000,11.67662109375,-2.1634960174560547,-14.977171897888184,5.7917375564575195
1772698655585621200,11.686621337890625,-3.0446395874023438,-13.88168716430664,6.864393711090088
1772698655595621000,11.69662109375,-2.5262913703918457,-9.05003547668457,6.045604228973389
1772698655605621200,11.706621337890626,-1.780569314956665,-5.115553855895996,4.495120048522949
1772698655615621000,11.71662109375,-0.6030545234680176,-2.3785057067871094,3.239267349243164
1772698655625621200,11.726621337890625,0.06300997734069824,-0.7195005416870117,2.530501365661621
1772698655635621000,11.73662109375,0.29662179946899414,0.20220375061035156,1.7050211429595947
1772698655645621200,11.746621337890625,0.44800472259521484,0.7447586059570312,0.8895034193992615
1772698655655621000,11.75662109375,0.4663574695587158,1.4212265014648438,0.15129518508911133
1772698655665621200,11.766621337890625,0.05222940444946289,2.1096911430358887,-0.4579704701900482
1772698655675621000,11.77662109375,-0.8094947338104248,2.6993026733398438,-0.9412698745727539
1772698655685621200,11.786621337890624,-1.7271718978881836,2.8057684898376465,-1.175296425819397
1772698655695621000,11.79662109375,-2.0644023418426514,2.3672828674316406,-1.0812413692474365
1772698655705621200,11.806621337890626,-1.7841663360595703,1.8024654388427734,-0.7519053220748901
1772698655715621000,11.81662109375,-1.26935875415802,1.3776941299438477,-0.36230605840682983
1772698655725621200,11.826621337890625,-0.7639682292938232,1.0757694244384766,-0.1376805305480957
1772698655735621000,11.83662109375,-0.38173365592956543,0.9753942489624023,-0.23245501518249512
1772698655745621200,11.846621337890625,-0.05672645568847656,1.075448989868164,-0.5796337127685547
1772698655755621000,11.85662109375,0.2068166732788086,1.3276500701904297,-1.0146666765213013
1772698655765621200,11.866621337890624,0.3509542942047119,1.721907615661621,-1.5640138387680054
1772698655775621000,11.87662109375,0.3822791576385498,2.086796760559082,-2.0933194160461426
1772698655785621200,11.886621337890626,0.3065967559814453,2.3289947509765625,-2.5157909393310547
1772698655795621000,11.89662109375,0.07663679122924805,2.4449005126953125,-2.795715808868408
1772698655805621200,11.906621337890625,-0.27857208251953125,2.4500741958618164,-2.8131697177886963
1772698655815621000,11.91662109375,-0.5579068660736084,2.3777236938476562,-2.525303602218628
1772698655825621200,11.926621337890625,-0.9868443012237549,2.317823886871338,-2.1915624141693115
1772698655835621000,11.93662109375,-1.1384341716766357,2.255434989929199,-1.5914943218231201
1772698655845621200,11.946621337890624,-1.2293758392333984,2.109757423400879,-0.9353525638580322
1772698655855621000,11.95662109375,-1.3537967205047607,1.9803390502929688,-0.30488571524620056
1772698655865621200,11.966621337890626,-1.3897857666015625,1.915726661682129,0.31224268674850464
1772698655875621000,11.97662109375,-1.4016478061676025,1.9556245803833008,0.8637322187423706
1772698655885621200,11.986621337890625,-1.4052679538726807,2.0838804244995117,1.3783637285232544
1772698655895621000,11.99662109375,-1.4182013273239136,2.469247817993164,1.5589812994003296
1772698655905621200,12.006621337890625,-1.3452889919281006,2.9546775817871094,1.3522475957870483
1772698655915621000,12.01662109375,-1.1234538555145264,3.390130043029785,0.803886890411377
1772698655925621200,12.026621337890624,-0.9073014259338379,3.650689125061035,0.10152971744537354
1772698655935621000,12.03662109375,-0.4707235097885132,3.656794548034668,-0.5439830422401428
1772698655945621200,12.046621337890626,0.2468494176864624,3.311586380004883,-1.1087815761566162
1772698655955621000,12.05662109375,0.8550354242324829,2.637078285217285,-1.6331243515014648
1772698655965621200,12.066621337890625,1.4251489639282227,1.5220394134521484,-1.9595750570297241
1772698655975621000,12.07662109375,2.010251045227051,0.22944259643554688,-1.816318392753601
1772698655985621200,12.086621337890625,2.0292739868164062,-0.9523334503173828,-0.9073805809020996
1772698655995621000,12.09662109375,1.4415911436080933,-1.7646284103393555,0.5183150172233582
1772698656005621200,12.106621337890624,0.4462578296661377,-1.718409538269043,1.6156535148620605
1772698656015621000,12.11662109375,-0.38454926013946533,-0.7499160766601562,1.9645147323608398
1772698656025621200,12.126621337890626,-0.4481154680252075,0.619175910949707,1.971948504447937
1772698656035621000,12.13662109375,-0.044779300689697266,1.9127311706542969,2.1640520095825195
1772698656045621200,12.146621337890625,0.460329532623291,3.030999183654785,2.5284366607666016
1772698656055621000,12.15662109375,0.982075572013855,3.910186767578125,2.949155807495117
1772698656065621200,12.166621337890625,1.6874336004257202,4.412723541259766,3.2780559062957764
1772698656075621000,12.17662109375,2.7438087463378906,4.393749237060547,3.3450419902801514
1772698656085621200,12.186621337890625,3.8110947608947754,3.9190258979797363,3.2614591121673584
1772698656095621000,12.19662109375,4.566702365875244,2.8344054222106934,3.312535285949707
1772698656105621200,12.206621337890626,3.3580989837646484,0.9660663604736328,3.4849884510040283
1772698656115621000,12.21662109375,1.2521737813949585,-1.804957389831543,4.384897232055664
1772698656125621200,12.226621337890625,-0.8167514801025391,-6.523436546325684,5.4596686363220215
1772698656135621000,12.23662109375,-3.104600429534912,-12.547788619995117,4.379571914672852
1772698656145621200,12.246621337890625,-7.7661237716674805,-17.72414779663086,1.020157814025879
1772698656155621000,12.25662109375,-12.039651870727539,-17.2681884765625,-1.9417412281036377
1772698656165621200,12.266621337890625,-9.252427101135254,-9.319265365600586,-2.4526138305664062
1772698656175621000,12.27662109375,-4.663537502288818,-3.548703193664551,-1.9750323295593262
1772698656185621200,12.286621337890624,-1.6298952102661133,-1.1692800521850586,-0.6238186359405518
1772698656195621000,12.29662109375,3.421382427215576,-2.7066802978515625,0.8349969387054443
1772698656205621200,12.306621337890626,8.610398292541504,-4.3599443435668945,-0.40160441398620605
1772698656215621000,12.31662109375,10.14202880859375,-3.36322021484375,-2.1796841621398926
1772698656225621200,12.326621337890625,7.831621170043945,-1.0195941925048828,-1.6284843683242798
1772698656235621000,12.33662109375,3.7502119541168213,1.5177698135375977,-0.7644079923629761
1772698656245621200,12.346621337890625,0.7332355976104736,3.554622173309326,-1.2538959980010986
1772698656255621000,12.35662109375,-1.8468859195709229,2.698457717895508,-1.8752673864364624
1772698656265621200,12.366621337890624,-3.6444482803344727,-1.0801019668579102,-2.141563653945923
1772698656275621000,12.37662109375,-4.330450057983398,-4.679067611694336,-2.8588757514953613
1772698656285621200,12.386621337890626,-3.257570743560791,-7.324550628662109,-3.8551268577575684
1772698656295621000,12.39662109375,-1.1431176662445068,-8.570512771606445,-4.591509819030762
1772698656305621200,12.406621337890625,0.08683323860168457,-8.29749870300293,-4.920588970184326
1772698656315621000,12.41662109375,-0.12867939472198486,-6.142443656921387,-5.03562593460083
1772698656325621200,12.426621337890625,-0.3105170726776123,-3.093212127685547,-4.313664436340332
1772698656335621000,12.43662109375,0.11703133583068848,-0.8178625106811523,-2.890733242034912
1772698656345621200,12.446621337890624,0.43524742126464844,0.905186653137207,-1.8785111904144287
1772698656355621000,12.45662109375,0.48989081382751465,2.1620187759399414,-1.3343690633773804
1772698656365621200,12.466621337890626,0.3273334503173828,2.7666006088256836,-0.9376817345619202
1772698656375621000,12.47662109375,0.15521657466888428,2.644653797149658,-0.6007754802703857
1772698656385621200,12.486621337890625,0.14869439601898193,1.831460952758789,-0.3243141174316406
1772698656395621000,12.49662109375,0.033199191093444824,0.8239898681640625,-0.1154172420501709
1772698656405621200,12.506621337890625,-0.09235870838165283,-0.04997825622558594,0.18420922756195068
1772698656415621000,12.51662109375,-0.12272179126739502,-0.6070737838745117,0.4930671453475952
1772698656425621200,12.526621337890624,-0.12652337551116943,-0.8103036880493164,0.7728991508483887
1772698656435621000,12.53662109375,-0.0792989730834961,-0.6658506393432617,1.1404545307159424
1772698656445621200,12.546621337890626,-0.017783284187316895,-0.20129680633544922,1.526955246925354
1772698656455621000,12.55662109375,0.20612633228302002,0.4879159927368164,1.815277338027954
1772698656465621200,12.566621337890625,0.5497018098831177,1.2284860610961914,2.0453290939331055
1772698656475621000,12.57662109375,0.900959849357605,1.8848214149475098,2.22088885307312
1772698656485621200,12.586621337890625,1.2073649168014526,2.3990554809570312,2.211071014404297
1772698656495621000,12.59662109375,1.420100450515747,2.679849624633789,2.081803560256958
1772698656505621200,12.606621337890624,1.6870578527450562,2.7441205978393555,1.870982050895691
1772698656515621000,12.61662109375,1.97329843044281,2.666555404663086,1.670221209526062
1772698656525621200,12.626621337890626,2.222362518310547,2.526625633239746,1.5115077495574951
1772698656535621000,12.63662109375,2.2287378311157227,2.363186836242676,1.4770281314849854
1772698656545621200,12.646621337890625,2.0658140182495117,2.043407440185547,1.5818742513656616
1772698656555621000,12.65662109375,1.8482012748718262,1.5797185897827148,1.7632498741149902
1772698656565621200,12.666621337890625,1.6018623113632202,0.9777240753173828,1.982016682624817
1772698656575621000,12.67662109375,1.2453982830047607,0.29013919830322266,2.148712158203125
1772698656585621200,12.686621337890625,0.744446337223053,-0.34215354919433594,2.154475212097168
1772698656595621000,12.69662109375,0.15172922611236572,-0.8529977798461914,2.0182478427886963
1772698656605621200,12.706621337890626,-0.5050833821296692,-1.0662755966186523,1.5821514129638672
1772698656615621000,12.71662109375,-1.1217546463012695,-0.9302511215209961,1.0896883010864258
1772698656625621200,12.726621337890625,-1.629118800163269,-0.3787212371826172,0.6380513906478882
1772698656635621000,12.73662109375,-1.4758480787277222,0.6697616577148438,0.30867791175842285
1772698656645621200,12.746621337890625,-0.6304366588592529,2.182124137878418,0.03156113624572754
1772698656655621000,12.75662109375,0.32137131690979004,3.7149362564086914,-0.4579886198043823
1772698656665621200,12.766621337890625,1.1732652187347412,4.906728744506836,-1.1969374418258667
1772698656675621000,12.77662109375,1.9255355596542358,5.481729984283447,-1.9464588165283203
1772698656685621200,12.786621337890624,2.557199239730835,5.433993339538574,-2.4869141578674316
1772698656695621000,12.79662109375,2.868314266204834,4.767226219177246,-2.6757073402404785
1772698656705621200,12.806621337890626,2.8626885414123535,3.65975284576416,-2.5435731410980225
1772698656715621000,12.81662109375,2.5365428924560547,2.436248779296875,-2.4482672214508057
1772698656725621200,12.826621337890625,2.1691782474517822,1.403590202331543,-2.574085235595703
