time,seconds_elapsed,z,y,x
1772727870645609700,0.095609619140625,0,0,0
1772727870655609600,0.105609619140625,0.07897239923477173,-0.03594970703125,-0.026897907257080078
1772727870665609700,0.115609619140625,0.05343210697174072,0.05984783172607422,-0.12431895732879639
1772727870675609600,0.125609619140625,0.12969571352005005,0.1682891845703125,-0.27777111530303955
1772727870685609700,0.135609619140625,0.1130724549293518,0.20996570587158203,-0.39500463008880615
1772727870695609600,0.145609619140625,0.138591468334198,0.16325855255126953,-0.518802285194397
1772727870705609700,0.155609619140625,0.2771437168121338,-0.14402103424072266,-0.5734380483627319
1772727870715609600,0.165609619140625,0.46736401319503784,-0.5249147415161133,-0.4488687217235565
1772727870725609700,0.175609619140625,0.5697518587112427,-0.6368741989135742,-0.410122275352478
1772727870735609600,0.185609619140625,0.6296332478523254,-0.5738306045532227,-0.4631446897983551
1772727870745609700,0.195609619140625,0.6167726516723633,-0.48204612731933594,-0.5743337869644165
1772727870755609600,0.205609619140625,0.6970605254173279,-0.43906402587890625,-0.6051207184791565
1772727870765609700,0.215609619140625,0.8917344212532043,-0.4915785789489746,-0.6316404342651367
1772727870775609600,0.225609619140625,1.1760411262512207,-0.7323236465454102,-0.6049128770828247
1772727870785609700,0.235609619140625,1.4027705192565918,-1.1933388710021973,-0.7098010778427124
1772727870795609600,0.245609619140625,1.3220319747924805,-1.3622593879699707,-0.7895179986953735
1772727870805609700,0.255609619140625,0.9773621559143066,-0.9953250885009766,-0.5418370962142944
1772727870815609600,0.265609619140625,0.5737234950065613,-0.22824573516845703,-0.26463526487350464
1772727870825609700,0.275609619140625,0.31240928173065186,0.4073066711425781,0.08540689200162888
1772727870835609600,0.285609619140625,0.45893359184265137,0.8740863800048828,0.24599745869636536
1772727870845609700,0.295609619140625,0.7393689155578613,0.763157844543457,0.33337223529815674
1772727870855609600,0.305609619140625,1.1653320789337158,0.35806846618652344,0.19975343346595764
1772727870865609700,0.315609619140625,1.3100141286849976,-0.042260169982910156,-0.041862234473228455
1772727870875609600,0.325609619140625,1.4735101461410522,-0.20848464965820312,0.15861862897872925
1772727870885609700,0.335609619140625,1.5670135021209717,0.14852237701416016,0.13987821340560913
1772727870895609600,0.345609619140625,1.4447871446609497,0.4078359603881836,-0.08297905325889587
1772727870905609700,0.355609619140625,1.6066278219223022,0.4969806671142578,0.03781388700008392
1772727870915609600,0.365609619140625,1.740845799446106,0.7358617782592773,-0.031870320439338684
1772727870925609700,0.375609619140625,1.715874195098877,0.7190980911254883,0.12949007749557495
1772727870935609600,0.385609619140625,1.7076444625854492,0.8990945816040039,0.6247240304946899
1772727870945609700,0.395609619140625,1.4861955642700195,1.4143638610839844,0.6101323962211609
1772727870955609600,0.405609619140625,1.4071173667907715,1.8136005401611328,0.39595890045166016
1772727870965609700,0.415609619140625,1.470635175704956,1.7780647277832031,-0.029287099838256836
1772727870975609600,0.425609619140625,1.9033031463623047,1.2020092010498047,-0.31192874908447266
1772727870985609700,0.435609619140625,1.9600015878677368,0.6624736785888672,-0.26866522431373596
1772727870995609600,0.445609619140625,1.9237103462219238,1.0627374649047852,-0.37100398540496826
1772727871005609700,0.455609619140625,1.5487525463104248,1.3460502624511719,-0.5708208680152893
1772727871015609600,0.465609619140625,1.3303288221359253,1.5246543884277344,-0.6389428973197937
1772727871025609700,0.475609619140625,1.3105887174606323,1.6126394271850586,-0.5341669917106628
1772727871035609600,0.485609619140625,1.4231878519058228,1.5078763961791992,-0.09191012382507324
1772727871045609700,0.495609619140625,1.4591196775436401,1.5382070541381836,0.35079365968704224
1772727871055609600,0.505609619140625,1.355285882949829,1.6012687683105469,0.5757126212120056
1772727871065609700,0.515609619140625,1.2690876722335815,1.8055095672607422,0.6134372353553772
1772727871075609600,0.525609619140625,0.9937275052070618,1.9658899307250977,0.4569542407989502
1772727871085609700,0.535609619140625,0.5953635573387146,1.8904132843017578,0.5252257585525513
1772727871095609600,0.545609619140625,0.36531561613082886,1.9445152282714844,1.0348410606384277
1772727871105609700,0.555609619140625,0.22504645586013794,2.4135818481445312,1.14787757396698
1772727871115609600,0.565609619140625,-0.10373127460479736,2.715559959411621,1.244370698928833
1772727871125609700,0.575609619140625,-0.25516223907470703,2.9648590087890625,0.943861722946167
1772727871135609600,0.585609619140625,-0.6605011820793152,3.2780771255493164,0.778020977973938
1772727871145609700,0.595609619140625,-1.283862829208374,4.294008255004883,1.3173896074295044
1772727871155609600,0.605609619140625,-1.260362148284912,4.187338829040527,1.4747873544692993
1772727871165609700,0.615609619140625,-1.3478333950042725,3.8408689498901367,1.2144583463668823
1772727871175609600,0.625609619140625,-1.131861925125122,2.7411108016967773,0.559335470199585
1772727871185609700,0.635609619140625,-0.6852284669876099,2.9021644592285156,0.4153597354888916
1772727871195609600,0.645609619140625,-1.1831247806549072,3.5366344451904297,1.3871145248413086
1772727871205609700,0.655609619140625,-2.070596218109131,3.8414688110351562,1.9717717170715332
1772727871215609600,0.665609619140625,-2.0651018619537354,3.7270002365112305,2.478501796722412
1772727871225609700,0.675609619140625,-1.7363613843917847,3.069234848022461,2.3970370292663574
1772727871235609600,0.685609619140625,-1.3674302101135254,2.1153793334960938,1.586656093597412
1772727871245609700,0.695609619140625,-0.8943215608596802,1.3214311599731445,0.6004605293273926
1772727871255609600,0.705609619140625,-0.5185756683349609,0.4952564239501953,-0.07127881050109863
1772727871265609700,0.715609619140625,-0.29804128408432007,-0.23716259002685547,-0.05621671676635742
1772727871275609600,0.725609619140625,-0.2587946653366089,-0.7272758483886719,0.13020682334899902
1772727871285609700,0.735609619140625,-0.4186233878135681,-0.6601219177246094,0.1723957061767578
1772727871295609600,0.745609619140625,-0.49083787202835083,-0.41129207611083984,-0.1479017734527588
1772727871305609700,0.755609619140625,-0.6532618403434753,-0.3277902603149414,-0.37388181686401367
1772727871315609600,0.765609619140625,-0.833043098449707,-0.33109188079833984,-0.3312034606933594
1772727871325609700,0.775609619140625,-1.3438045978546143,-0.24776458740234375,0.07365274429321289
1772727871335609600,0.785609619140625,-1.8188118934631348,0.06451606750488281,0.10336494445800781
1772727871345609700,0.795609619140625,-2.0779266357421875,-0.06696414947509766,-0.08402252197265625
1772727871355609600,0.805609619140625,-1.46012544631958,-0.30204105377197266,-0.21167230606079102
1772727871365609700,0.815609619140625,-0.9865707159042358,-0.3579378128051758,-0.5512232780456543
1772727871375609600,0.825609619140625,-0.6214311122894287,-0.5323410034179688,-0.8432108163833618
1772727871385609700,0.835609619140625,-0.3379361629486084,-0.8221864700317383,-0.728165864944458
1772727871395609600,0.845609619140625,-0.019153118133544922,-1.4024038314819336,-0.3218657970428467
1772727871405609700,0.855609619140625,0.4666082262992859,-2.4736576080322266,0.39951586723327637
1772727871415609600,0.865609619140625,0.9785860180854797,-2.9933700561523438,0.7139918804168701
1772727871425609700,0.875609619140625,1.517196774482727,-3.2786407470703125,0.912158727645874
1772727871435609600,0.885609619140625,1.1614211797714233,-2.261139392852783,1.151238203048706
1772727871445609700,0.895609619140625,0.7356418371200562,-1.2618885040283203,1.2325153350830078
1772727871455609600,0.905609619140625,0.6679350137710571,-0.24789047241210938,1.340571641921997
1772727871465609700,0.915609619140625,0.7478185892105103,0.41211605072021484,1.3020129203796387
1772727871475609600,0.925609619140625,0.6854115128517151,0.6777858734130859,1.1975939273834229
1772727871485609700,0.935609619140625,0.7005162239074707,0.586735725402832,0.9448215961456299
1772727871495609600,0.945609619140625,0.676026463508606,0.06040382385253906,0.5840213298797607
1772727871505609700,0.955609619140625,0.8265329599380493,-0.7962026596069336,0.47963404655456543
1772727871515609600,0.965609619140625,0.6306338906288147,-0.7317228317260742,0.1618359088897705
1772727871525609700,0.975609619140625,0.883997917175293,-0.7398500442504883,-0.5654609203338623
1772727871535609600,0.985609619140625,1.1480755805969238,-0.5652856826782227,-0.8652133941650391
1772727871545609700,0.995609619140625,0.8299934267997742,-0.4980487823486328,-1.06087064743042
1772727871555609600,1.005609619140625,1.068547248840332,-0.554072380065918,-0.9210665225982666
1772727871565609700,1.015609619140625,0.9835440516471863,-0.3382225036621094,-0.8835126161575317
1772727871575609600,1.025609619140625,0.5834927558898926,-0.9628419876098633,-1.0953269004821777
1772727871585609700,1.035609619140625,1.4182360172271729,-1.9108009338378906,-0.977353572845459
1772727871595609600,1.045609619140625,0.8729596138000488,-2.4662351608276367,-0.9129301309585571
1772727871605609700,1.055609619140625,0.7870831489562988,-2.2413129806518555,-1.302405834197998
1772727871615609600,1.065609619140625,0.8764903545379639,-2.8098793029785156,-1.394237756729126
1772727871625609700,1.075609619140625,0.35286545753479004,-3.0690765380859375,-1.6865860223770142
1772727871635609600,1.085609619140625,0.07760238647460938,-3.092947006225586,-2.306243419647217
1772727871645609700,1.095609619140625,-1.498154640197754,-3.417160987854004,-2.822463035583496
1772727871655609600,1.105609619140625,-0.0831444263458252,-2.3449759483337402,-2.852170467376709
1772727871665609700,1.115609619140625,-2.1618635654449463,-1.3485040664672852,-1.9907763004302979
1772727871675609600,1.125609619140625,-5.135185241699219,-1.0675678253173828,-2.4219956398010254
1772727871685609700,1.135609619140625,-5.0299859046936035,-1.0925040245056152,-1.8234152793884277
1772727871695609600,1.145609619140625,-4.212341785430908,-1.0415172576904297,-1.1738981008529663
1772727871705609700,1.155609619140625,-4.450096130371094,0.5605916976928711,0.9191539287567139
1772727871715609600,1.165609619140625,-3.8610363006591797,1.9879822731018066,3.3357644081115723
1772727871725609700,1.175609619140625,-3.840895652770996,3.937649726867676,4.165452003479004
1772727871735609600,1.185609619140625,-3.2365708351135254,4.889898300170898,3.5794875621795654
1772727871745609700,1.195609619140625,-3.2945451736450195,4.767068862915039,3.1198647022247314
1772727871755609600,1.205609619140625,-2.719435214996338,3.613104820251465,2.9420523643493652
1772727871765609700,1.215609619140625,-0.9994673728942871,2.2422866821289062,2.6705784797668457
1772727871775609600,1.225609619140625,0.5013365745544434,0.79058837890625,2.27286958694458
1772727871785609700,1.235609619140625,0.7612972259521484,-0.2421722412109375,1.353423833847046
1772727871795609600,1.245609619140625,0.9844157695770264,-0.8606767654418945,0.34699082374572754
1772727871805609700,1.255609619140625,1.2308342456817627,-1.4630537033081055,0.15304231643676758
1772727871815609600,1.265609619140625,1.4026172161102295,-2.109193801879883,0.2774982452392578
1772727871825609700,1.275609619140625,0.6340875625610352,-2.1305904388427734,-0.033385515213012695
1772727871835609600,1.285609619140625,0.2261350154876709,-2.140536308288574,-0.1178964376449585
1772727871845609700,1.295609619140625,0.09478282928466797,-1.9254426956176758,-0.043857455253601074
1772727871855609600,1.305609619140625,-0.44116759300231934,-0.8785953521728516,-0.09190332889556885
1772727871865609700,1.315609619140625,-0.5635395050048828,0.873199462890625,-0.6637883186340332
1772727871875609600,1.325609619140625,-0.07824587821960449,2.268012046813965,-1.3282912969589233
1772727871885609700,1.335609619140625,0.07077813148498535,3.219125747680664,-1.5709227323532104
1772727871895609600,1.345609619140625,0.0062885284423828125,3.914278984069824,-1.5781128406524658
1772727871905609700,1.355609619140625,-0.26110029220581055,4.28004264831543,-1.3097901344299316
1772727871915609600,1.365609619140625,-0.5054819583892822,4.299777030944824,-1.8706438541412354
1772727871925609700,1.375609619140625,0.9386031627655029,4.165702819824219,-3.536738872528076
1772727871935609600,1.385609619140625,2.941159248352051,3.494296073913574,-2.6859660148620605
1772727871945609700,1.395609619140625,2.0551564693450928,2.0798330307006836,-0.8682677745819092
1772727871955609600,1.405609619140625,-1.3111443519592285,0.6562700271606445,0.4167449474334717
1772727871965609700,1.415609619140625,-2.6623897552490234,-0.3486032485961914,1.0905472040176392
1772727871975609600,1.425609619140625,-1.4199192523956299,-0.9896383285522461,1.1920722723007202
1772727871985609700,1.435609619140625,-0.2661926746368408,-1.2120838165283203,0.7162387371063232
1772727871995609600,1.445609619140625,0.5006089210510254,-1.0537242889404297,0.3202681541442871
1772727872005609700,1.455609619140625,0.3548300266265869,-0.41019344329833984,-0.2240995168685913
1772727872015609600,1.465609619140625,-0.7287552356719971,-0.2381906509399414,-0.32560527324676514
1772727872025609700,1.475609619140625,-1.2333519458770752,-0.18943500518798828,-0.28749382495880127
1772727872035609600,1.485609619140625,-1.0121188163757324,-0.16530895233154297,-0.30863451957702637
1772727872045609700,1.495609619140625,-0.497894287109375,-0.059271812438964844,-0.26461851596832275
1772727872055609600,1.505609619140625,-0.3244740962982178,0.01594066619873047,-0.08252418041229248
1772727872065609700,1.515609619140625,-0.514892578125,-0.07033538818359375,0.11584341526031494
1772727872075609600,1.525609619140625,-0.7318477630615234,-0.1969451904296875,0.2283642292022705
1772727872085609700,1.535609619140625,-0.7171497344970703,-0.27385711669921875,0.27158236503601074
1772727872095609600,1.545609619140625,-0.5954616069793701,-0.22763442993164062,0.2692830562591553
1772727872105609700,1.555609619140625,-0.5515942573547363,-0.19132709503173828,0.3142874240875244
1772727872115609600,1.565609619140625,-0.6273889541625977,-0.11286735534667969,0.30068469047546387
1772727872125609700,1.575609619140625,-0.6589550971984863,-0.058712005615234375,0.20687270164489746
1772727872135609600,1.585609619140625,-0.661280632019043,-0.006092071533203125,0.02341628074645996
1772727872145609700,1.595609619140625,-0.5640292167663574,0.05985069274902344,-0.10284888744354248
1772727872155609600,1.605609619140625,-0.4349653720855713,0.0959329605102539,-0.1876986026763916
1772727872165609700,1.615609619140625,-0.3235044479370117,0.07874011993408203,-0.21110379695892334
1772727872175609600,1.625609619140625,-0.279005765914917,0.0008344650268554688,-0.2638040781021118
1772727872185609700,1.635609619140625,-0.28965163230895996,-0.10303211212158203,-0.23007023334503174
1772727872195609600,1.645609619140625,-0.2590811252593994,-0.1525287628173828,-0.15289545059204102
1772727872205609700,1.655609619140625,-0.24689936637878418,-0.21325397491455078,-0.030112624168395996
1772727872215609600,1.665609619140625,-0.21623659133911133,-0.17177867889404297,0.11046087741851807
1772727872225609700,1.675609619140625,-0.11595034599304199,-0.119293212890625,0.16289329528808594
1772727872235609600,1.685609619140625,-0.044502973556518555,-0.03398704528808594,0.13232851028442383
1772727872245609700,1.695609619140625,-0.009201288223266602,0.023695945739746094,0.10441756248474121
1772727872255609600,1.705609619140625,-0.021022796630859375,0.0853738784790039,0.04055619239807129
1772727872265609700,1.715609619140625,-0.030382394790649414,0.10518550872802734,-0.00748896598815918
1772727872275609600,1.725609619140625,-0.04318642616271973,0.051163673400878906,-0.050629258155822754
1772727872285609700,1.735609619140625,-0.03718233108520508,-0.043295860290527344,-0.11274564266204834
1772727872295609600,1.745609619140625,0.019102811813354492,-0.11836719512939453,-0.1821129322052002
1772727872305609700,1.755609619140625,0.08196878433227539,-0.15885353088378906,-0.2523458003997803
1772727872315609600,1.765609619140625,0.10665535926818848,-0.1863565444946289,-0.2348027229309082
1772727872325609700,1.775609619140625,0.1433260440826416,-0.21514606475830078,-0.16271400451660156
1772727872335609600,1.785609619140625,0.13741183280944824,-0.24962425231933594,-0.11101937294006348
1772727872345609700,1.795609619140625,0.04295945167541504,-0.2159900665283203,-0.06976509094238281
1772727872355609600,1.805609619140625,0.008280038833618164,-0.11545181274414062,-0.028503894805908203
1772727872365609700,1.815609619140625,0.027111053466796875,-0.02698993682861328,-0.0029038190841674805
1772727872375609600,1.825609619140625,0.14137506484985352,0.019681930541992188,0.02057349681854248
1772727872385609700,1.835609619140625,0.2714259624481201,-0.02925872802734375,-0.0491405725479126
1772727872395609600,1.845609619140625,0.3453996181488037,-0.09867477416992188,-0.1823253631591797
1772727872405609700,1.855609619140625,0.404325008392334,-0.21913528442382812,-0.3407719135284424
1772727872415609600,1.865609619140625,0.4353220462799072,-0.3290233612060547,-0.4169890880584717
1772727872425609700,1.875609619140625,0.41319894790649414,-0.40006160736083984,-0.3797950744628906
1772727872435609600,1.885609619140625,0.33289599418640137,-0.3812074661254883,-0.1967165470123291
1772727872445609700,1.895609619140625,0.23388671875,-0.27217578887939453,-0.01899707317352295
1772727872455609600,1.905609619140625,0.20891594886779785,-0.15037822723388672,0.13593268394470215
1772727872465609700,1.915609619140625,0.22754621505737305,-0.04025554656982422,0.21247529983520508
1772727872475609600,1.925609619140625,0.2831687927246094,0.11490631103515625,0.15082180500030518
1772727872485609700,1.935609619140625,0.3268575668334961,0.21286296844482422,0.07384073734283447
1772727872495609600,1.945609619140625,0.2769443988800049,0.22453880310058594,-0.036774277687072754
1772727872505609700,1.955609619140625,0.14412689208984375,0.11662960052490234,-0.2678922414779663
1772727872515609600,1.965609619140625,0.05046582221984863,-0.008503913879394531,-0.4956904649734497
1772727872525609700,1.975609619140625,0.024042844772338867,-0.11450576782226562,-0.5579932928085327
1772727872535609600,1.985609619140625,0.01565265655517578,-0.09546184539794922,-0.5076402425765991
1772727872545609700,1.995609619140625,-0.033763885498046875,-0.04212665557861328,-0.3378748893737793
1772727872555609600,2.005609619140625,-0.05201411247253418,0.016016006469726562,-0.10376250743865967
1772727872565609700,2.015609619140625,-0.043897151947021484,0.05440330505371094,0.10764241218566895
1772727872575609600,2.025609619140625,-0.05501222610473633,0.17046451568603516,0.20989012718200684
1772727872585609700,2.035609619140625,-0.06795310974121094,0.23607540130615234,0.21350276470184326
1772727872595609600,2.045609619140625,-0.22350263595581055,0.2218170166015625,0.19974839687347412
1772727872605609700,2.055609619140625,-0.27228856086730957,0.13310718536376953,0.16425859928131104
1772727872615609600,2.065609619140625,-0.2501845359802246,0.013325691223144531,0.055463194847106934
1772727872625609700,2.075609619140625,-0.10700345039367676,-0.14433670043945312,-0.0313030481338501
1772727872635609600,2.085609619140625,-0.05560445785522461,-0.2727699279785156,-0.10755050182342529
1772727872645609700,2.095609619140625,-0.05097556114196777,-0.30411434173583984,-0.13418030738830566
1772727872655609600,2.105609619140625,-0.1209249496459961,-0.2979459762573242,-0.0838773250579834
1772727872665609700,2.115609619140625,-0.23367047309875488,-0.20427417755126953,0.026543378829956055
1772727872675609600,2.125609619140625,-0.34735727310180664,-0.032604217529296875,0.12706470489501953
1772727872685609700,2.135609619140625,-0.3546264171600342,0.1326303482055664,0.17167198657989502
1772727872695609600,2.145609619140625,-0.3393988609313965,0.20469951629638672,0.14615464210510254
1772727872705609700,2.155609619140625,-0.30323266983032227,0.1529674530029297,0.04430949687957764
1772727872715609600,2.165609619140625,-0.3281395435333252,0.044330596923828125,-0.14285778999328613
1772727872725609700,2.175609619140625,-0.3673868179321289,-0.09654712677001953,-0.258952260017395
1772727872735609600,2.185609619140625,-0.4089667797088623,-0.23572349548339844,-0.24739515781402588
1772727872745609700,2.195609619140625,-0.4141726493835449,-0.28238487243652344,-0.20127654075622559
1772727872755609600,2.205609619140625,-0.45708298683166504,-0.24303245544433594,-0.09799551963806152
1772727872765609700,2.215609619140625,-0.4794485569000244,-0.1083688735961914,-0.010829567909240723
1772727872775609600,2.225609619140625,-0.4199864864349365,-0.008730888366699219,0.07268416881561279
1772727872785609700,2.235609619140625,-0.2483069896697998,0.04616355895996094,0.0566251277923584
1772727872795609600,2.245609619140625,-0.13843631744384766,0.05115509033203125,-0.03681790828704834
1772727872805609700,2.255609619140625,-0.1978304386138916,0.057923316955566406,-0.08546698093414307
1772727872815609600,2.265609619140625,-0.3893146514892578,-0.02719402313232422,-0.03670144081115723
1772727872825609700,2.275609619140625,-0.5568890571594238,-0.19293975830078125,0.06321680545806885
1772727872835609600,2.285609619140625,-0.5291249752044678,-0.3632850646972656,0.20810842514038086
1772727872845609700,2.295609619140625,-0.30606865882873535,-0.3488473892211914,0.2755753993988037
1772727872855609600,2.305609619140625,-0.08503031730651855,-0.20903968811035156,0.18120968341827393
1772727872865609700,2.315609619140625,-0.11998939514160156,-0.11635589599609375,0.10788297653198242
1772727872875609600,2.325609619140625,-0.33356451988220215,-0.04488945007324219,0.01709437370300293
1772727872885609700,2.335609619140625,-0.5166981220245361,-0.06829166412353516,-0.07799017429351807
1772727872895609600,2.345609619140625,-0.40566182136535645,-0.03308582305908203,-0.18319189548492432
1772727872905609700,2.355609619140625,-0.23859882354736328,-0.0048007965087890625,-0.374495267868042
1772727872915609600,2.365609619140625,-0.3452892303466797,0.00058746337890625,-0.3622387647628784
1772727872925609700,2.375609619140625,-0.358264684677124,0.020445823669433594,-0.2490551471710205
1772727872935609600,2.385609619140625,-0.1750962734222412,-0.08063316345214844,-0.19323909282684326
1772727872945609700,2.395609619140625,0.052925825119018555,-0.22150516510009766,-0.12707316875457764
1772727872955609600,2.405609619140625,0.0029675960540771484,-0.313232421875,0.0009430646896362305
1772727872965609700,2.415609619140625,-0.20201730728149414,-0.3330373764038086,0.15872406959533691
1772727872975609600,2.425609619140625,-0.31351256370544434,-0.33348751068115234,0.2535315752029419
1772727872985609700,2.435609619140625,-0.2839012145996094,-0.29670238494873047,0.23230457305908203
1772727872995609600,2.445609619140625,-0.22379589080810547,-0.17748641967773438,0.08864009380340576
1772727873005609700,2.455609619140625,-0.09811615943908691,-0.13980484008789062,-0.05652976036071777
1772727873015609600,2.465609619140625,0.047194719314575195,-0.1556863784790039,-0.17640280723571777
1772727873025609700,2.475609619140625,0.23158621788024902,-0.2360057830810547,-0.32438957691192627
1772727873035609600,2.485609619140625,0.2139594554901123,-0.3472909927368164,-0.3531966209411621
1772727873045609700,2.495609619140625,0.12858319282531738,-0.501032829284668,-0.21553337574005127
1772727873055609600,2.505609619140625,0.07447576522827148,-0.5970430374145508,0.012155890464782715
1772727873065609700,2.515609619140625,0.0706479549407959,-0.5551767349243164,0.2197725772857666
1772727873075609600,2.525609619140625,0.05333447456359863,-0.40887451171875,0.32708740234375
1772727873085609700,2.535609619140625,0.011602640151977539,-0.19971847534179688,0.349712610244751
1772727873095609600,2.545609619140625,0.11788487434387207,0.013182640075683594,0.2252042293548584
1772727873105609700,2.555609619140625,0.21881437301635742,0.038369178771972656,-0.03258228302001953
1772727873115609600,2.565609619140625,0.2103135585784912,-0.010754585266113281,-0.31239819526672363
1772727873125609700,2.575609619140625,0.16040444374084473,-0.05240631103515625,-0.5566350221633911
1772727873135609600,2.585609619140625,0.1299889087677002,-0.13559246063232422,-0.6938847303390503
1772727873145609700,2.595609619140625,0.10697197914123535,-0.1914691925048828,-0.5743073225021362
1772727873155609600,2.605609619140625,0.07985401153564453,-0.14461612701416016,-0.24063849449157715
1772727873165609700,2.615609619140625,0.0900888442993164,0.04838752746582031,0.08824694156646729
1772727873175609600,2.625609619140625,0.15927362442016602,0.20631122589111328,0.30646812915802
1772727873185609700,2.635609619140625,0.17897891998291016,0.2725238800048828,0.43470025062561035
1772727873195609600,2.645609619140625,0.20957660675048828,0.2844228744506836,0.37303614616394043
1772727873205609700,2.655609619140625,0.2855956554412842,0.22999286651611328,0.34981465339660645
1772727873215609600,2.665609619140625,0.28667593002319336,0.2069530487060547,0.14026117324829102
1772727873225609700,2.675609619140625,0.1947801113128662,0.16724205017089844,-0.08086323738098145
1772727873235609600,2.685609619140625,0.13784313201904297,0.16229629516601562,-0.0730515718460083
1772727873245609700,2.695609619140625,0.11353874206542969,0.1862812042236328,-0.052013516426086426
1772727873255609600,2.705609619140625,0.1641695499420166,0.2516622543334961,-0.006395816802978516
1772727873265609700,2.715609619140625,0.15712189674377441,0.3947782516479492,0.03857839107513428
1772727873275609600,2.725609619140625,0.1345970630645752,0.526585578918457,-0.008325338363647461
1772727873285609700,2.735609619140625,0.0729532241821289,0.517420768737793,-0.12988638877868652
1772727873295609600,2.745609619140625,-0.07944202423095703,0.4090709686279297,-0.22242307662963867
1772727873305609700,2.755609619140625,-0.17925667762756348,0.3182640075683594,-0.25246524810791016
1772727873315609600,2.765609619140625,-0.1610252857208252,0.20290374755859375,-0.2656521797180176
1772727873325609700,2.775609619140625,-0.17996525764465332,0.07523250579833984,-0.22210216522216797
1772727873335609600,2.785609619140625,-0.2420344352722168,-0.0036535263061523438,-0.13707494735717773
1772727873345609700,2.795609619140625,-0.1989912986755371,-0.012259483337402344,-0.02006077766418457
1772727873355609600,2.805609619140625,-0.008826971054077148,0.011812210083007812,0.09347474575042725
1772727873365609700,2.815609619140625,0.13708901405334473,-0.031345367431640625,0.2461998462677002
1772727873375609600,2.825609619140625,0.09125208854675293,-0.08407878875732422,0.3730419874191284
1772727873385609700,2.835609619140625,-0.006814718246459961,-0.0661916732788086,0.4206124544143677
1772727873395609600,2.845609619140625,-0.13109850883483887,-0.07445526123046875,0.26864004135131836
1772727873405609700,2.855609619140625,-0.30124497413635254,-0.06431102752685547,0.11499249935150146
1772727873415609600,2.865609619140625,-0.36782217025756836,-0.024999618530273438,-0.04438066482543945
1772727873425609700,2.875609619140625,-0.39425015449523926,-0.03628826141357422,-0.11127543449401855
1772727873435609600,2.885609619140625,-0.35080766677856445,-0.08158493041992188,-0.10406374931335449
1772727873445609700,2.895609619140625,-0.29006028175354004,-0.15761470794677734,-0.1258150339126587
1772727873455609600,2.905609619140625,-0.1461179256439209,-0.26033496856689453,-0.14688611030578613
1772727873465609700,2.915609619140625,-0.10238146781921387,-0.34406471252441406,-0.11582863330841064
1772727873475609600,2.925609619140625,-0.17940950393676758,-0.3015594482421875,-0.07718765735626221
1772727873485609700,2.935609619140625,-0.1903541088104248,-0.1259145736694336,0.036226630210876465
1772727873495609600,2.945609619140625,-0.14856457710266113,-0.027373313903808594,0.15181279182434082
1772727873505609700,2.955609619140625,-0.10049319267272949,-0.03918933868408203,0.1647968292236328
1772727873515609600,2.965609619140625,-0.04937601089477539,-0.08520889282226562,0.0141526460647583
1772727873525609700,2.975609619140625,-0.07292819023132324,-0.13508129119873047,-0.14797532558441162
1772727873535609600,2.985609619140625,-0.0774078369140625,-0.11665534973144531,-0.16418397426605225
1772727873545609700,2.995609619140625,-0.24028801918029785,-0.1596202850341797,-0.05106663703918457
1772727873555609600,3.005609619140625,-0.42270684242248535,-0.1352710723876953,0.1321117877960205
1772727873565609700,3.015609619140625,-0.28103089332580566,-0.04542064666748047,0.22837233543395996
1772727873575609600,3.025609619140625,-0.016177654266357422,0.058803558349609375,0.21171367168426514
1772727873585609700,3.035609619140625,0.14119553565979004,0.11385917663574219,0.168451189994812
1772727873595609600,3.045609619140625,0.12666535377502441,0.1134653091430664,0.04883778095245361
1772727873605609700,3.055609619140625,0.12457275390625,0.033725738525390625,-0.14436876773834229
1772727873615609600,3.065609619140625,0.08465242385864258,-0.0700836181640625,-0.3260303735733032
1772727873625609700,3.075609619140625,-0.07422494888305664,-0.12315845489501953,-0.3322182893753052
1772727873635609600,3.085609619140625,-0.25123071670532227,-0.11086177825927734,-0.18755769729614258
1772727873645609700,3.095609619140625,-0.2287149429321289,-0.08644580841064453,-0.09721016883850098
1772727873655609600,3.105609619140625,-0.07051396369934082,-0.046944618225097656,0.028453350067138672
1772727873665609700,3.115609619140625,0.10182809829711914,0.08070087432861328,0.12004327774047852
1772727873675609600,3.125609619140625,0.20991039276123047,0.1491842269897461,0.10820186138153076
1772727873685609700,3.135609619140625,0.17236113548278809,0.10901641845703125,0.0065844058990478516
1772727873695609600,3.145609619140625,0.0034780502319335938,-0.008016586303710938,0.06827616691589355
1772727873705609700,3.155609619140625,0.15541362762451172,-0.011127471923828125,0.17434024810791016
1772727873715609600,3.165609619140625,0.3363680839538574,-0.06801414489746094,0.07713234424591064
1772727873725609700,3.175609619140625,0.29886817932128906,-0.07179641723632812,-0.14729106426239014
1772727873735609600,3.185609619140625,0.18281078338623047,-0.013814926147460938,-0.30601179599761963
1772727873745609700,3.195609619140625,0.10030746459960938,0.09691715240478516,-0.34555184841156006
1772727873755609600,3.205609619140625,0.18478035926818848,0.12569427490234375,-0.173148512840271
1772727873765609700,3.215609619140625,0.32972288131713867,0.12449836730957031,-0.02011287212371826
1772727873775609600,3.225609619140625,0.2855522632598877,-0.005806922912597656,0.02360367774963379
1772727873785609700,3.235609619140625,0.1562485694885254,-0.0806722640991211,0.07690680027008057
1772727873795609600,3.245609619140625,0.21096110343933105,-0.11992835998535156,0.15781831741333008
1772727873805609700,3.255609619140625,0.3118932247161865,-0.11818122863769531,0.1664869785308838
1772727873815609600,3.265609619140625,0.3394310474395752,-0.03245067596435547,0.0883796215057373
1772727873825609700,3.275609619140625,0.2682628631591797,0.019117355346679688,-0.037340760231018066
1772727873835609600,3.285609619140625,0.3030076026916504,0.02259349822998047,-0.19874298572540283
1772727873845609700,3.295609619140625,0.3003711700439453,0.00443267822265625,-0.3689321279525757
1772727873855609600,3.305609619140625,0.21587038040161133,0.06155586242675781,-0.30486035346984863
1772727873865609700,3.315609619140625,0.12797856330871582,0.12342548370361328,-0.044319987297058105
1772727873875609600,3.325609619140625,0.12078547477722168,0.12979793548583984,0.2036978006362915
1772727873885609700,3.335609619140625,0.18587708473205566,0.05950450897216797,0.29624903202056885
1772727873895609600,3.345609619140625,0.1941816806793213,0.0038518905639648438,0.25379180908203125
1772727873905609700,3.355609619140625,0.21515321731567383,-0.061743736267089844,0.20647823810577393
1772727873915609600,3.365609619140625,0.24011540412902832,-0.10557270050048828,0.08709383010864258
1772727873925609700,3.375609619140625,0.22996234893798828,-0.15830707550048828,-0.04658615589141846
1772727873935609600,3.385609619140625,-0.07673215866088867,-0.168914794921875,-0.1043233871459961
1772727873945609700,3.395609619140625,-0.31826019287109375,-0.020295143127441406,-0.13601601123809814
1772727873955609600,3.405609619140625,-0.3402249813079834,0.1811847686767578,-0.18617534637451172
1772727873965609700,3.415609619140625,-0.18202519416809082,0.3611316680908203,-0.23156118392944336
1772727873975609600,3.425609619140625,-0.04479384422302246,0.5119457244873047,-0.21824181079864502
1772727873985609700,3.435609619140625,0.09597516059875488,0.5581293106079102,-0.06229567527770996
1772727873995609600,3.445609619140625,0.2616729736328125,0.4118919372558594,0.07099628448486328
1772727874005609700,3.455609619140625,0.27295923233032227,0.08102798461914062,0.06625151634216309
1772727874015609600,3.465609619140625,0.21541714668273926,-0.19312381744384766,0.021288275718688965
1772727874025609700,3.475609619140625,0.10291194915771484,-0.36249828338623047,0.07044863700866699
1772727874035609600,3.485609619140625,-0.033911943435668945,-0.41890907287597656,0.1934725046157837
1772727874045609700,3.495609619140625,-0.20502662658691406,-0.2961769104003906,0.35807883739471436
1772727874055609600,3.505609619140625,-0.25727128982543945,-0.0689706802368164,0.37235963344573975
1772727874065609700,3.515609619140625,-0.23886585235595703,0.1863574981689453,0.12789130210876465
1772727874075609600,3.525609619140625,-0.19442248344421387,0.3289499282836914,-0.10290277004241943
1772727874085609700,3.535609619140625,-0.11862039566040039,0.34648895263671875,-0.24885952472686768
1772727874095609600,3.545609619140625,-0.0524592399597168,0.18208026885986328,-0.27912724018096924
1772727874105609700,3.555609619140625,0.031237125396728516,-0.08409786224365234,-0.2530924081802368
1772727874115609600,3.565609619140625,0.08081769943237305,-0.3286619186401367,-0.3092764616012573
1772727874125609700,3.575609619140625,-0.11817288398742676,-0.48517417907714844,-0.3287297487258911
1772727874135609600,3.585609619140625,-0.2942838668823242,-0.43466758728027344,-0.0561598539352417
1772727874145609700,3.595609619140625,-0.3104991912841797,-0.2659130096435547,0.18724799156188965
1772727874155609600,3.605609619140625,-0.327833890914917,-0.15134239196777344,0.28356432914733887
1772727874165609700,3.615609619140625,-0.24889683723449707,0.02969837188720703,0.1477290391921997
1772727874175609600,3.625609619140625,-0.17299485206604004,0.14313983917236328,-0.023924708366394043
1772727874185609700,3.635609619140625,-0.05073690414428711,0.14273929595947266,-0.010311126708984375
1772727874195609600,3.645609619140625,0.0594935417175293,0.09607124328613281,0.09706771373748779
1772727874205609700,3.655609619140625,0.03372311592102051,0.0000762939453125,0.06150805950164795
1772727874215609600,3.665609619140625,-0.22594571113586426,-0.09199714660644531,0.08095657825469971
1772727874225609700,3.675609619140625,-0.3887953758239746,-0.06294059753417969,0.14090633392333984
1772727874235609600,3.685609619140625,-0.31527161598205566,0.0070781707763671875,0.168473482131958
1772727874245609700,3.695609619140625,-0.07841968536376953,0.09183025360107422,0.16151845455169678
1772727874255609600,3.705609619140625,-0.04051637649536133,0.18584251403808594,0.049512386322021484
1772727874265609700,3.715609619140625,-0.16922450065612793,0.2279806137084961,-0.006122708320617676
1772727874275609600,3.725609619140625,-0.17278099060058594,0.2504262924194336,-0.08393466472625732
1772727874285609700,3.735609619140625,-0.25800561904907227,0.13616466522216797,-0.21811890602111816
1772727874295609600,3.745609619140625,-0.4055511951446533,0.09749126434326172,-0.2661334276199341
1772727874305609700,3.755609619140625,-0.43584156036376953,0.07906436920166016,-0.23108994960784912
1772727874315609600,3.765609619140625,-0.41454243659973145,0.0379791259765625,-0.09186327457427979
1772727874325609700,3.775609619140625,-0.3546907901763916,-0.041871070861816406,0.030749917030334473
1772727874335609600,3.785609619140625,-0.31895947456359863,-0.1293811798095703,0.07394862174987793
1772727874345609700,3.795609619140625,-0.2084486484527588,-0.1775379180908203,0.039381980895996094
1772727874355609600,3.805609619140625,-0.15369915962219238,-0.2007150650024414,-0.002839207649230957
1772727874365609700,3.815609619140625,-0.16171598434448242,-0.14682769775390625,0.07261121273040771
1772727874375609600,3.825609619140625,-0.23060393333435059,-0.09384822845458984,0.1659984588623047
1772727874385609700,3.835609619140625,-0.2960042953491211,-0.11238670349121094,0.20638775825500488
1772727874395609600,3.845609619140625,-0.2561988830566406,-0.19219398498535156,0.2491844892501831
1772727874405609700,3.855609619140625,-0.10694646835327148,-0.2111358642578125,0.19234013557434082
1772727874415609600,3.865609619140625,0.09798431396484375,-0.1890878677368164,0.036369919776916504
1772727874425609700,3.875609619140625,0.18353533744812012,-0.17303943634033203,-0.0427166223526001
1772727874435609600,3.885609619140625,0.10181283950805664,-0.19189929962158203,-0.0002048015594482422
1772727874445609700,3.895609619140625,-0.04737210273742676,-0.1728649139404297,-0.0039348602294921875
1772727874455609600,3.905609619140625,-0.10695338249206543,-0.12738895416259766,-0.056047916412353516
1772727874465609700,3.915609619140625,-0.014567136764526367,-0.106048583984375,-0.1954505443572998
1772727874475609600,3.925609619140625,0.00626063346862793,-0.10108566284179688,-0.3110905885696411
1772727874485609700,3.935609619140625,-0.01730489730834961,-0.09212493896484375,-0.24937045574188232
1772727874495609600,3.945609619140625,0.04088449478149414,-0.015230178833007812,-0.17888998985290527
1772727874505609700,3.955609619140625,0.12778806686401367,0.06863212585449219,-0.16309452056884766
1772727874515609600,3.965609619140625,0.14995265007019043,0.09957122802734375,-0.08280277252197266
1772727874525609700,3.975609619140625,0.11649560928344727,0.019010543823242188,0.04088485240936279
1772727874535609600,3.985609619140625,0.19133853912353516,-0.11695194244384766,0.23138606548309326
1772727874545609700,3.995609619140625,0.30191636085510254,-0.22425270080566406,0.32982373237609863
1772727874555609600,4.005609619140625,0.19963622093200684,-0.28142738342285156,0.2903348207473755
1772727874565609700,4.015609619140625,-0.12902474403381348,-0.24161720275878906,0.2142237424850464
1772727874575609600,4.025609619140625,-0.23305869102478027,-0.17914199829101562,0.17683887481689453
1772727874585609700,4.035609619140625,-0.04690146446228027,-0.08144855499267578,0.06707882881164551
1772727874595609600,4.045609619140625,0.12975049018859863,0.0957956314086914,-0.11041903495788574
1772727874605609700,4.055609619140625,0.12350201606750488,0.31830787658691406,-0.261651873588562
1772727874615609600,4.065609619140625,-0.02505016326904297,0.3824758529663086,-0.3363591432571411
1772727874625609700,4.075609619140625,0.04167795181274414,0.22764968872070312,-0.19042062759399414
1772727874635609600,4.085609619140625,0.3293941020965576,-0.011946678161621094,-0.14631164073944092
1772727874645609700,4.095609619140625,0.40966200828552246,-0.18616485595703125,-0.16366374492645264
1772727874655609600,4.105609619140625,0.26329588890075684,-0.21983909606933594,-0.06360852718353271
1772727874665609700,4.115609619140625,0.10221457481384277,-0.20267105102539062,0.15787732601165771
1772727874675609600,4.125609619140625,0.09187865257263184,-0.11504650115966797,0.26786863803863525
1772727874685609700,4.135609619140625,0.17175674438476562,0.04687976837158203,0.24408292770385742
1772727874695609600,4.145609619140625,0.17386794090270996,0.197845458984375,0.16810226440429688
1772727874705609700,4.155609619140625,0.12825560569763184,0.25704002380371094,0.17283999919891357
1772727874715609600,4.165609619140625,0.07590246200561523,0.18300628662109375,0.13514399528503418
1772727874725609700,4.175609619140625,0.18230962753295898,0.055823326110839844,-0.13576555252075195
1772727874735609600,4.185609619140625,0.20817780494689941,-0.07220649719238281,-0.34956538677215576
1772727874745609700,4.195609619140625,0.21496272087097168,-0.1360912322998047,-0.3142557144165039
1772727874755609600,4.205609619140625,0.2962965965270996,-0.15678691864013672,-0.15465259552001953
1772727874765609700,4.215609619140625,0.26125121116638184,-0.13384628295898438,-0.005862116813659668
1772727874775609600,4.225609619140625,0.14288020133972168,-0.0149383544921875,0.004418134689331055
1772727874785609700,4.235609619140625,-0.06141996383666992,0.10911273956298828,-0.06186389923095703
1772727874795609600,4.245609619140625,-0.15771913528442383,0.16272258758544922,-0.04931831359863281
1772727874805609700,4.255609619140625,0.09767389297485352,0.14572620391845703,-0.060445308685302734
1772727874815609600,4.265609619140625,0.35455822944641113,0.07350444793701172,-0.09682965278625488
1772727874825609700,4.275609619140625,0.35959386825561523,0.034918785095214844,-0.03477513790130615
1772727874835609600,4.285609619140625,0.1340022087097168,0.026277542114257812,0.0905461311340332
1772727874845609700,4.295609619140625,-0.03927111625671387,-0.010526657104492188,0.1731029748916626
1772727874855609600,4.305609619140625,-0.057257652282714844,-0.06514930725097656,0.18812108039855957
1772727874865609700,4.315609619140625,0.1229867935180664,-0.0015468597412109375,0.09448504447937012
1772727874875609600,4.325609619140625,0.09403872489929199,0.07319164276123047,0.08145081996917725
1772727874885609700,4.335609619140625,-0.03585672378540039,0.1064901351928711,0.087310791015625
1772727874895609600,4.345609619140625,-0.06541609764099121,0.11033439636230469,-0.02695906162261963
1772727874905609700,4.355609619140625,0.03617453575134277,0.08830451965332031,-0.2017803192138672
1772727874915609600,4.365609619140625,0.024935483932495117,0.04924488067626953,-0.23375451564788818
1772727874925609700,4.375609619140625,-0.24115800857543945,0.07120132446289062,-0.1009836196899414
1772727874935609600,4.385609619140625,-0.38213086128234863,0.18576622009277344,0.09244227409362793
1772727874945609700,4.395609619140625,-0.30100393295288086,0.24651241302490234,0.22590208053588867
1772727874955609600,4.405609619140625,-0.1444408893585205,0.33457374572753906,0.21901702880859375
1772727874965609700,4.415609619140625,-0.014142751693725586,0.33826160430908203,0.15044689178466797
1772727874975609600,4.425609619140625,0.07821822166442871,0.1868743896484375,-0.008873462677001953
1772727874985609700,4.435609619140625,0.09126901626586914,-0.052155494689941406,-0.18012666702270508
1772727874995609600,4.445609619140625,-0.05007481575012207,-0.21126842498779297,-0.1711024045944214
1772727875005609700,4.455609619140625,-0.24596309661865234,-0.2965726852416992,-0.010961771011352539
1772727875015609600,4.465609619140625,-0.3350987434387207,-0.26681995391845703,0.23061656951904297
1772727875025609700,4.475609619140625,-0.11601829528808594,-0.1145009994506836,0.3641929626464844
1772727875035609600,4.485609619140625,0.0006916522979736328,0.15424060821533203,0.29574406147003174
1772727875045609700,4.495609619140625,-0.12390923500061035,0.4212026596069336,0.1864638328552246
1772727875055609600,4.505609619140625,-0.31364989280700684,0.5448665618896484,0.08844292163848877
1772727875065609700,4.515609619140625,-0.29129624366760254,0.5265350341796875,-0.12760019302368164
1772727875075609600,4.525609619140625,-0.13748836517333984,0.3784151077270508,-0.4346961975097656
1772727875085609700,4.535609619140625,-0.17714977264404297,0.10445022583007812,-0.6172122955322266
1772727875095609600,4.545609619140625,-0.2696857452392578,-0.08957576751708984,-0.628921389579773
1772727875105609700,4.555609619140625,-0.2604515552520752,-0.25725746154785156,-0.46366655826568604
1772727875115609600,4.565609619140625,-0.18413925170898438,-0.3698921203613281,-0.09134113788604736
1772727875125609700,4.575609619140625,-0.0174252986907959,-0.36925411224365234,0.34751999378204346
1772727875135609600,4.585609619140625,0.11710262298583984,-0.28813934326171875,0.6533268690109253
1772727875145609700,4.595609619140625,0.10326337814331055,-0.1646575927734375,0.7582048177719116
1772727875155609600,4.605609619140625,-0.06408166885375977,-0.0209197998046875,0.6733884811401367
1772727875165609700,4.615609619140625,-0.20096230506896973,0.12948894500732422,0.593830943107605
1772727875175609600,4.625609619140625,-0.19394135475158691,0.21584796905517578,0.43793749809265137
1772727875185609700,4.635609619140625,-0.0830838680267334,0.16343212127685547,-0.17293834686279297
1772727875195609600,4.645609619140625,-0.06771111488342285,0.004731178283691406,-0.5562955141067505
1772727875205609700,4.655609619140625,-0.12348461151123047,-0.0874776840209961,-0.5870218276977539
1772727875215609600,4.665609619140625,-0.1343238353729248,-0.16939449310302734,-0.5045157670974731
1772727875225609700,4.675609619140625,-0.02025914192199707,-0.21481895446777344,-0.413216233253479
1772727875235609600,4.685609619140625,0.14302420616149902,-0.21459579467773438,-0.24056506156921387
1772727875245609700,4.695609619140625,0.17734503746032715,-0.1498088836669922,-0.04495954513549805
1772727875255609600,4.705609619140625,0.05323171615600586,-0.099334716796875,0.1397784948348999
1772727875265609700,4.715609619140625,-0.04183316230773926,-0.09079360961914062,0.275454044342041
1772727875275609600,4.725609619140625,0.0000016689300537109375,-0.031754493713378906,0.3156604766845703
1772727875285609700,4.735609619140625,0.12075614929199219,0.051331520080566406,0.21433961391448975
1772727875295609600,4.745609619140625,0.2755279541015625,0.044562339782714844,0.04467165470123291
1772727875305609700,4.755609619140625,0.39603614807128906,0.000499725341796875,-0.17556941509246826
1772727875315609600,4.765609619140625,0.388136625289917,-0.1707630157470703,-0.31512701511383057
1772727875325609700,4.775609619140625,0.250108003616333,-0.3541908264160156,-0.288130521774292
1772727875335609600,4.785609619140625,0.13231682777404785,-0.4572124481201172,-0.14503681659698486
1772727875345609700,4.795609619140625,0.061072349548339844,-0.4408588409423828,0.006029367446899414
1772727875355609600,4.805609619140625,0.0012233257293701172,-0.36858463287353516,0.17077696323394775
1772727875365609700,4.815609619140625,-0.03179454803466797,-0.24224185943603516,0.2747201919555664
1772727875375609600,4.825609619140625,-0.017619848251342773,-0.0906219482421875,0.25317680835723877
1772727875385609700,4.835609619140625,-0.0010478496551513672,0.03560447692871094,0.15112078189849854
1772727875395609600,4.845609619140625,0.07804560661315918,0.08185768127441406,0.0602647066116333
1772727875405609700,4.855609619140625,0.13441920280456543,0.058574676513671875,-0.08112633228302002
1772727875415609600,4.865609619140625,0.17424511909484863,-0.0006256103515625,-0.28985631465911865
1772727875425609700,4.875609619140625,0.17517971992492676,-0.095733642578125,-0.4315134286880493
1772727875435609600,4.885609619140625,0.07224893569946289,-0.18996143341064453,-0.40502429008483887
1772727875445609700,4.895609619140625,0.05696415901184082,-0.15281963348388672,-0.18023467063903809
1772727875455609600,4.905609619140625,0.15001726150512695,-0.10725593566894531,-0.11288869380950928
1772727875465609700,4.915609619140625,0.0668644905090332,-0.0911712646484375,-0.08922433853149414
1772727875475609600,4.925609619140625,-0.055196285247802734,-0.022859573364257812,-0.005551934242248535
1772727875485609700,4.935609619140625,-0.0733344554901123,0.07247543334960938,0.17697978019714355
1772727875495609600,4.945609619140625,0.02971029281616211,0.054162025451660156,0.30734872817993164
1772727875505609700,4.955609619140625,0.03220820426940918,0.006262779235839844,0.3327995538711548
1772727875515609600,4.965609619140625,0.019724130630493164,-0.009224891662597656,0.2760634422302246
1772727875525609700,4.975609619140625,0.0384213924407959,0.03034687042236328,0.2539067268371582
1772727875535609600,4.985609619140625,0.08944392204284668,0.03268718719482422,0.164084792137146
1772727875545609700,4.995609619140625,0.12077164649963379,0.0673532485961914,0.09930431842803955
1772727875555609600,5.005609619140625,0.2815897464752197,0.13924694061279297,-0.030335068702697754
1772727875565609700,5.015609619140625,0.20706987380981445,0.17235469818115234,-0.07449972629547119
1772727875575609600,5.025609619140625,0.041593313217163086,0.24496936798095703,-0.1078331470489502
1772727875585609700,5.035609619140625,-0.1597445011138916,0.3410015106201172,-0.2602592706680298
1772727875595609600,5.045609619140625,-0.2669241428375244,0.3314199447631836,-0.31842195987701416
1772727875605609700,5.055609619140625,-0.23646783828735352,0.26183414459228516,-0.22711122035980225
1772727875615609600,5.065609619140625,-0.12941741943359375,0.1653919219970703,-0.14078474044799805
1772727875625609700,5.075609619140625,-0.02431774139404297,0.10397624969482422,-0.059508323669433594
1772727875635609600,5.085609619140625,0.13747477531433105,0.13768577575683594,0.001261591911315918
1772727875645609700,5.095609619140625,0.13637161254882812,0.24902057647705078,0.07567906379699707
1772727875655609600,5.105609619140625,0.046247243881225586,0.2652454376220703,0.28268420696258545
1772727875665609700,5.115609619140625,-0.0038919448852539062,0.3072395324707031,0.4085444211959839
1772727875675609600,5.125609619140625,0.022937536239624023,0.285369873046875,0.2422398328781128
1772727875685609700,5.135609619140625,-0.17520499229431152,0.17551231384277344,0.17959749698638916
1772727875695609600,5.145609619140625,-0.1720590591430664,0.1710224151611328,0.17403972148895264
1772727875705609700,5.155609619140625,-0.08264732360839844,0.16855430603027344,-0.1713651418685913
1772727875715609600,5.165609619140625,-0.15924859046936035,0.06680583953857422,-0.32966017723083496
1772727875725609700,5.175609619140625,-0.35419535636901855,0.047565460205078125,-0.22093892097473145
1772727875735609600,5.185609619140625,-0.5208210945129395,0.09434127807617188,0.018566370010375977
1772727875745609700,5.195609619140625,-0.2684633731842041,0.1630096435546875,0.21432113647460938
1772727875755609600,5.205609619140625,-0.08742499351501465,0.2087841033935547,0.20975863933563232
1772727875765609700,5.215609619140625,-0.06876397132873535,0.2885751724243164,0.17752790451049805
1772727875775609600,5.225609619140625,-0.1456592082977295,0.27404022216796875,0.09966182708740234
1772727875785609700,5.235609619140625,-0.05702829360961914,0.09177875518798828,-0.016300082206726074
1772727875795609600,5.245609619140625,0.08242058753967285,-0.1290721893310547,-0.1392822265625
1772727875805609700,5.255609619140625,0.058112382888793945,-0.23551177978515625,-0.19250285625457764
1772727875815609600,5.265609619140625,-0.07687091827392578,-0.27729320526123047,-0.1390082836151123
1772727875825609700,5.275609619140625,-0.1431121826171875,-0.3417634963989258,-0.03237497806549072
1772727875835609600,5.285609619140625,-0.14612627029418945,-0.3197021484375,0.05038022994995117
1772727875845609700,5.295609619140625,-0.11093521118164062,-0.18015098571777344,0.15210199356079102
1772727875855609600,5.305609619140625,-0.0679624080657959,-0.016915321350097656,0.14991939067840576
1772727875865609700,5.315609619140625,0.025728464126586914,0.055103302001953125,0.0863344669342041
1772727875875609600,5.325609619140625,0.16577720642089844,0.030953407287597656,-0.0839916467666626
1772727875885609700,5.335609619140625,0.13011813163757324,-0.050400733947753906,-0.2756998538970947
1772727875895609600,5.345609619140625,-0.03059077262878418,-0.15105915069580078,-0.36253678798675537
1772727875905609700,5.355609619140625,-0.21854519844055176,-0.2563304901123047,-0.29153692722320557
1772727875915609600,5.365609619140625,-0.22906947135925293,-0.3979206085205078,-0.11344671249389648
1772727875925609700,5.375609619140625,-0.06156730651855469,-0.46051979064941406,0.05057370662689209
1772727875935609600,5.385609619140625,0.09121894836425781,-0.4297046661376953,0.08815765380859375
1772727875945609700,5.395609619140625,0.018108129501342773,-0.3639678955078125,0.12771832942962646
1772727875955609600,5.405609619140625,0.04968905448913574,-0.24699115753173828,0.26389288902282715
1772727875965609700,5.415609619140625,0.19946074485778809,-0.19564437866210938,0.3391990661621094
1772727875975609600,5.425609619140625,0.21587586402893066,-0.18793964385986328,0.27426397800445557
1772727875985609700,5.435609619140625,0.03553652763366699,-0.1571674346923828,0.09644687175750732
1772727875995609600,5.445609619140625,-0.10079026222229004,-0.0881814956665039,-0.07432830333709717
1772727876005609700,5.455609619140625,-0.08101511001586914,-0.08504962921142578,-0.1386815309524536
1772727876015609600,5.465609619140625,0.019629240036010742,-0.053466796875,-0.17159795761108398
1772727876025609700,5.475609619140625,0.16971516609191895,-0.031810760498046875,-0.2719295024871826
1772727876035609600,5.485609619140625,0.32535243034362793,-0.08023548126220703,-0.37773871421813965
1772727876045609700,5.495609619140625,0.32958531379699707,-0.19964599609375,-0.3699169158935547
1772727876055609600,5.505609619140625,0.19996428489685059,-0.23601627349853516,-0.16756689548492432
1772727876065609700,5.515609619140625,0.023125886917114258,-0.2685985565185547,0.06729590892791748
1772727876075609600,5.525609619140625,0.051493167877197266,-0.23964977264404297,0.2326185703277588
1772727876085609700,5.535609619140625,0.14798879623413086,-0.17936420440673828,0.26638734340667725
1772727876095609600,5.545609619140625,0.21774816513061523,-0.021526336669921875,0.2948654890060425
1772727876105609700,5.555609619140625,0.2101879119873047,0.12018775939941406,0.21417737007141113
1772727876115609600,5.565609619140625,0.24882912635803223,0.1601886749267578,0.02107858657836914
1772727876125609700,5.575609619140625,0.2545816898345947,0.09893512725830078,-0.2201542854309082
1772727876135609600,5.585609619140625,0.1275022029876709,0.06621360778808594,-0.4008445739746094
1772727876145609700,5.595609619140625,-0.019032001495361328,0.005585670471191406,-0.3725302219390869
1772727876155609600,5.605609619140625,-0.12317228317260742,-0.05518341064453125,-0.16591417789459229
1772727876165609700,5.615609619140625,-0.11797785758972168,-0.1546478271484375,0.040033817291259766
1772727876175609600,5.625609619140625,-0.1381361484527588,-0.16067218780517578,0.20973432064056396
1772727876185609700,5.635609619140625,-0.027545690536499023,-0.11936378479003906,0.30512988567352295
1772727876195609600,5.645609619140625,0.15838241577148438,-0.052417755126953125,0.2930312156677246
1772727876205609700,5.655609619140625,0.30074334144592285,0.0072307586669921875,0.27711355686187744
1772727876215609600,5.665609619140625,0.21376824378967285,0.09277820587158203,0.2500118017196655
1772727876225609700,5.675609619140625,-0.034946441650390625,0.14277267456054688,0.20639514923095703
1772727876235609600,5.685609619140625,-0.12469291687011719,0.19920921325683594,0.06475377082824707
1772727876245609700,5.695609619140625,0.017609357833862305,0.24059200286865234,-0.12382268905639648
1772727876255609600,5.705609619140625,-0.08095240592956543,0.2236042022705078,-0.19163858890533447
1772727876265609700,5.715609619140625,-0.16348648071289062,0.31734180450439453,-0.2126450538635254
1772727876275609600,5.725609619140625,-0.11981606483459473,0.35720062255859375,-0.2758568525314331
1772727876285609700,5.735609619140625,0.005930662155151367,0.2833890914916992,-0.30341172218322754
1772727876295609600,5.745609619140625,0.015120744705200195,0.24944686889648438,-0.24059081077575684
1772727876305609700,5.755609619140625,-0.03427481651306152,0.28758811950683594,-0.08740925788879395
1772727876315609600,5.765609619140625,-0.10030102729797363,0.2523994445800781,0.05176734924316406
1772727876325609700,5.775609619140625,-0.19353318214416504,0.19387245178222656,0.14888548851013184
1772727876335609600,5.785609619140625,-0.2534635066986084,0.21983718872070312,0.1899738311767578
1772727876345609700,5.795609619140625,-0.201735258102417,0.27066612243652344,0.19209933280944824
1772727876355609600,5.805609619140625,-0.07917404174804688,0.2885589599609375,0.1465599536895752
1772727876365609700,5.815609619140625,0.04819965362548828,0.2940225601196289,0.030719995498657227
1772727876375609600,5.825609619140625,0.04520726203918457,0.248016357421875,-0.011359333992004395
1772727876385609700,5.835609619140625,-0.10082530975341797,0.16895484924316406,0.06688296794891357
1772727876395609600,5.845609619140625,-0.2251725196838379,0.10392284393310547,0.23779511451721191
1772727876405609700,5.855609619140625,-0.24741053581237793,0.0572967529296875,0.2399235963821411
1772727876415609600,5.865609619140625,-0.14851641654968262,0.0175628662109375,0.20541667938232422
1772727876425609700,5.875609619140625,-0.04809284210205078,0.05367469787597656,0.11205530166625977
1772727876435609600,5.885609619140625,-0.13995838165283203,0.09227657318115234,-0.04539144039154053
1772727876445609700,5.895609619140625,-0.3441591262817383,0.13903427124023438,-0.06937134265899658
1772727876455609600,5.905609619140625,-0.2932851314544678,0.15758228302001953,0.010434269905090332
1772727876465609700,5.915609619140625,-0.05847787857055664,0.1292705535888672,-0.05753958225250244
1772727876475609600,5.925609619140625,0.10866165161132812,0.0853118896484375,-0.19798684120178223
1772727876485609700,5.935609619140625,0.09106230735778809,0.049404144287109375,-0.24785149097442627
1772727876495609600,5.945609619140625,-0.008417367935180664,-0.0016679763793945312,-0.21049046516418457
1772727876505609700,5.955609619140625,-0.15833067893981934,-0.08829879760742188,-0.09039843082427979
1772727876515609600,5.965609619140625,-0.21863603591918945,-0.1638641357421875,0.05408132076263428
1772727876525609700,5.975609619140625,-0.20400142669677734,-0.16684722900390625,0.1598578691482544
1772727876535609600,5.985609619140625,-0.038465023040771484,-0.10616874694824219,0.10519134998321533
1772727876545609700,5.995609619140625,-0.0802602767944336,-0.07026004791259766,0.10549366474151611
1772727876555609600,6.005609619140625,-0.05920124053955078,0.0661468505859375,0.1981818675994873
1772727876565609700,6.015609619140625,0.14951753616333008,0.08705711364746094,0.22651004791259766
1772727876575609600,6.025609619140625,0.27008748054504395,-0.04301166534423828,0.17975163459777832
1772727876585609700,6.035609619140625,0.21543383598327637,-0.1610393524169922,0.0012934207916259766
1772727876595609600,6.045609619140625,0.04067349433898926,-0.22589969635009766,-0.1311737298965454
1772727876605609700,6.055609619140625,-0.052773237228393555,-0.3064079284667969,-0.17378485202789307
1772727876615609600,6.065609619140625,-0.12224698066711426,-0.3449430465698242,-0.2201247215270996
1772727876625609700,6.075609619140625,-0.20319747924804688,-0.27447986602783203,-0.24777734279632568
1772727876635609600,6.085609619140625,-0.1242213249206543,-0.17421436309814453,-0.1804598569869995
1772727876645609700,6.095609619140625,0.08340644836425781,-0.08797931671142578,-0.09866988658905029
1772727876655609600,6.105609619140625,0.25992441177368164,-0.04205131530761719,-0.0473179817199707
1772727876665609700,6.115609619140625,0.2880830764770508,-0.05884075164794922,0.035307884216308594
1772727876675609600,6.125609619140625,0.2640368938446045,-0.2091989517211914,0.05743062496185303
1772727876685609700,6.135609619140625,0.27027344703674316,-0.3790626525878906,0.04526329040527344
1772727876695609600,6.145609619140625,0.3269693851470947,-0.49573230743408203,0.03302741050720215
1772727876705609700,6.155609619140625,0.2430112361907959,-0.5023279190063477,-0.05798506736755371
1772727876715609600,6.165609619140625,-0.020879507064819336,-0.4621448516845703,-0.011311531066894531
1772727876725609700,6.175609619140625,-0.1431257724761963,-0.3314647674560547,0.09939360618591309
1772727876735609600,6.185609619140625,-0.09078836441040039,-0.18944835662841797,0.1293482780456543
1772727876745609700,6.195609619140625,0.1315014362335205,-0.053173065185546875,0.041313767433166504
1772727876755609600,6.205609619140625,0.30296754837036133,0.038184165954589844,-0.12270736694335938
1772727876765609700,6.215609619140625,0.29660487174987793,0.056969642639160156,-0.22137653827667236
1772727876775609600,6.225609619140625,0.14986562728881836,-0.003726959228515625,-0.16363656520843506
1772727876785609700,6.235609619140625,-0.05050349235534668,-0.08962726593017578,-0.15001893043518066
1772727876795609600,6.245609619140625,-0.16156315803527832,-0.1408405303955078,-0.1709991693496704
1772727876805609700,6.255609619140625,-0.1763768196105957,-0.11726665496826172,-0.12466490268707275
1772727876815609600,6.265609619140625,-0.16688060760498047,-0.04717445373535156,0.013927459716796875
1772727876825609700,6.275609619140625,-0.12989544868469238,0.08261775970458984,0.17385470867156982
1772727876835609600,6.285609619140625,-0.00033020973205566406,0.1463756561279297,0.21700334548950195
1772727876845609700,6.295609619140625,0.13471317291259766,0.1612701416015625,0.1257460117340088
1772727876855609600,6.305609619140625,0.20819878578186035,0.13292789459228516,0.04293859004974365
1772727876865609700,6.315609619140625,0.12644171714782715,0.1154327392578125,0.06680524349212646
1772727876875609600,6.325609619140625,-0.03589344024658203,0.1327056884765625,0.163993239402771
1772727876885609700,6.335609619140625,-0.14609813690185547,0.1553516387939453,0.24575316905975342
1772727876895609600,6.345609619140625,-0.19363737106323242,0.25478363037109375,0.15550899505615234
1772727876905609700,6.355609619140625,-0.1295464038848877,0.30311107635498047,-0.051975131034851074
1772727876915609600,6.365609619140625,0.002006053924560547,0.3732328414916992,-0.2991492748260498
1772727876925609700,6.375609619140625,0.05061769485473633,0.4228191375732422,-0.4221745729446411
1772727876935609600,6.385609619140625,0.0042018890380859375,0.3816184997558594,-0.29892027378082275
1772727876945609700,6.395609619140625,-0.039144277572631836,0.2724761962890625,-0.053690433502197266
1772727876955609600,6.405609619140625,-0.04314875602722168,0.16552448272705078,0.08755779266357422
1772727876965609700,6.415609619140625,-0.042949676513671875,0.1534252166748047,0.17367660999298096
1772727876975609600,6.425609619140625,-0.06487274169921875,0.1863384246826172,0.34337401390075684
1772727876985609700,6.435609619140625,-0.03139662742614746,0.25853538513183594,0.482982873916626
1772727876995609600,6.445609619140625,0.044232845306396484,0.28882503509521484,0.3492743968963623
1772727877005609700,6.455609619140625,0.0500335693359375,0.24321746826171875,0.1123192310333252
1772727877015609600,6.465609619140625,0.17791008949279785,0.2933940887451172,-0.05671405792236328
1772727877025609700,6.475609619140625,0.23653817176818848,0.2880592346191406,-0.16072475910186768
1772727877035609600,6.485609619140625,-0.045064449310302734,0.22221088409423828,-0.19564318656921387
1772727877045609700,6.495609619140625,-0.36370062828063965,0.20119667053222656,-0.121002197265625
1772727877055609600,6.505609619140625,-0.2746763229370117,0.21284198760986328,-0.09433841705322266
1772727877065609700,6.515609619140625,0.026759862899780273,0.20176315307617188,-0.06601274013519287
1772727877075609600,6.525609619140625,0.16051888465881348,0.23961544036865234,0.04325425624847412
1772727877085609700,6.535609619140625,0.15642118453979492,0.2541341781616211,0.12759661674499512
1772727877095609600,6.545609619140625,0.09134364128112793,0.13338661193847656,0.07158946990966797
1772727877105609700,6.555609619140625,0.0878596305847168,-0.03834819793701172,-0.02215409278869629
1772727877115609600,6.565609619140625,0.2000713348388672,-0.03281593322753906,-0.004104495048522949
1772727877125609700,6.575609619140625,0.21952009201049805,-0.07770824432373047,0.04185366630554199
1772727877135609600,6.585609619140625,0.04284048080444336,-0.11863899230957031,0.13442730903625488
1772727877145609700,6.595609619140625,-0.021652936935424805,-0.055594444274902344,0.08070969581604004
1772727877155609600,6.605609619140625,0.0618436336517334,0.039832115173339844,0.07818162441253662
1772727877165609700,6.615609619140625,0.2750406265258789,0.14811420440673828,0.06841635704040527
1772727877175609600,6.625609619140625,0.3256044387817383,0.15692806243896484,0.04225564002990723
1772727877185609700,6.635609619140625,0.21279692649841309,0.12143230438232422,-0.07014191150665283
1772727877195609600,6.645609619140625,-0.006623268127441406,0.02613544464111328,-0.13939201831817627
1772727877205609700,6.655609619140625,-0.026694774627685547,0.04998016357421875,-0.35262131690979004
1772727877215609600,6.665609619140625,-0.1092369556427002,-0.0843210220336914,-0.4628053903579712
1772727877225609700,6.675609619140625,-0.23477745056152344,-0.08137035369873047,-0.42465710639953613
1772727877235609600,6.685609619140625,-0.23907065391540527,-0.008182525634765625,-0.29406118392944336
1772727877245609700,6.695609619140625,-0.17361092567443848,-0.05341625213623047,-0.1886845827102661
1772727877255609600,6.705609619140625,-0.13529706001281738,-0.0894174575805664,0.009351015090942383
1772727877265609700,6.715609619140625,0.07618045806884766,-0.06795787811279297,0.18914175033569336
1772727877275609600,6.725609619140625,0.34043335914611816,-0.10165214538574219,0.38762354850769043
1772727877285609700,6.735609619140625,0.36386680603027344,-0.2140064239501953,0.5327131748199463
1772727877295609600,6.745609619140625,0.22512078285217285,-0.3152303695678711,0.5304216146469116
1772727877305609700,6.755609619140625,0.2526676654815674,-0.3460397720336914,0.35120201110839844
1772727877315609600,6.765609619140625,0.15335607528686523,-0.3792123794555664,0.10709750652313232
1772727877325609700,6.775609619140625,-0.1732637882232666,-0.31720542907714844,0.041199445724487305
1772727877335609600,6.785609619140625,-0.36565661430358887,-0.07388973236083984,-0.0388951301574707
1772727877345609700,6.795609619140625,-0.2757887840270996,0.1329669952392578,-0.3014712333679199
1772727877355609600,6.805609619140625,-0.13770461082458496,0.1449298858642578,-0.5318267345428467
1772727877365609700,6.815609619140625,-0.08498501777648926,0.1293010711669922,-0.6171867847442627
1772727877375609600,6.825609619140625,0.07330608367919922,-0.07372379302978516,-0.5562770366668701
1772727877385609700,6.835609619140625,0.22533822059631348,-0.38186073303222656,-0.4749511480331421
1772727877395609600,6.845609619140625,0.2575664520263672,-0.6656112670898438,-0.3078796863555908
1772727877405609700,6.855609619140625,0.07347941398620605,-0.7773332595825195,-0.028339385986328125
1772727877415609600,6.865609619140625,-0.13179373741149902,-0.7653236389160156,0.27996957302093506
1772727877425609700,6.875609619140625,-0.16629433631896973,-0.6400566101074219,0.5707501173019409
1772727877435609600,6.885609619140625,-0.004462480545043945,-0.3304290771484375,0.650572657585144
1772727877445609700,6.895609619140625,-0.021380901336669922,-0.09202384948730469,0.47898364067077637
1772727877455609600,6.905609619140625,-0.1915900707244873,0.046715736389160156,0.2660036087036133
1772727877465609700,6.915609619140625,-0.1053309440612793,-0.03605365753173828,-0.011265993118286133
1772727877475609600,6.925609619140625,0.052524566650390625,-0.23696327209472656,-0.15079772472381592
1772727877485609700,6.935609619140625,0.12574052810668945,-0.4068031311035156,-0.21360540390014648
1772727877495609600,6.945609619140625,-0.014626026153564453,-0.450897216796875,-0.15041601657867432
1772727877505609700,6.955609619140625,-0.19419431686401367,-0.40218162536621094,-0.06964242458343506
1772727877515609600,6.965609619140625,-0.3305525779724121,-0.2506895065307617,0.03337681293487549
1772727877525609700,6.975609619140625,-0.37082457542419434,0.036322593688964844,0.10349345207214355
1772727877535609600,6.985609619140625,-0.3391716480255127,0.3270683288574219,0.13260304927825928
1772727877545609700,6.995609619140625,-0.16660690307617188,0.44231224060058594,0.1249779462814331
1772727877555609600,7.005609619140625,-0.03415107727050781,0.4071388244628906,-0.05908763408660889
1772727877565609700,7.015609619140625,-0.037039995193481445,0.29428958892822266,-0.2509124279022217
1772727877575609600,7.025609619140625,-0.07719278335571289,0.19923114776611328,-0.21085584163665771
1772727877585609700,7.035609619140625,-0.07751035690307617,0.12609100341796875,-0.03282034397125244
1772727877595609600,7.045609619140625,-0.10869407653808594,0.09182929992675781,0.09022951126098633
1772727877605609700,7.055609619140625,-0.08220195770263672,0.12383174896240234,0.35485196113586426
1772727877615609600,7.065609619140625,0.059104204177856445,0.25683116912841797,0.4391193389892578
1772727877625609700,7.075609619140625,0.05105304718017578,0.35877037048339844,0.28121352195739746
1772727877635609600,7.085609619140625,-0.09813857078552246,0.41197681427001953,-0.0025544166564941406
1772727877645609700,7.095609619140625,-0.30202674865722656,0.4704265594482422,-0.14040958881378174
1772727877655609600,7.105609619140625,-0.30303192138671875,0.49129772186279297,-0.20338678359985352
1772727877665609700,7.115609619140625,-0.3286147117614746,0.3825521469116211,-0.15183675289154053
1772727877675609600,7.125609619140625,-0.2911858558654785,0.21802425384521484,-0.10421013832092285
1772727877685609700,7.135609619140625,-0.21369624137878418,0.09444713592529297,-0.05993688106536865
1772727877695609600,7.145609619140625,-0.05537128448486328,0.1195058822631836,-0.004388689994812012
1772727877705609700,7.155609619140625,0.15148258209228516,0.12734127044677734,0.06295669078826904
1772727877715609600,7.165609619140625,0.1996011734008789,0.016920089721679688,0.1101846694946289
1772727877725609700,7.175609619140625,0.19015240669250488,-0.1558990478515625,0.06170976161956787
1772727877735609600,7.185609619140625,0.10717487335205078,-0.3453483581542969,-0.007780671119689941
1772727877745609700,7.195609619140625,-0.061713218688964844,-0.40199756622314453,-0.0014206171035766602
1772727877755609600,7.205609619140625,-0.18976283073425293,-0.3211956024169922,0.05951583385467529
1772727877765609700,7.215609619140625,-0.2487502098083496,-0.2385854721069336,0.1275954246520996
1772727877775609600,7.225609619140625,-0.13158941268920898,-0.20275115966796875,0.06968343257904053
1772727877785609700,7.235609619140625,0.05390191078186035,-0.10790348052978516,-0.03734588623046875
1772727877795609600,7.245609619140625,0.286480188369751,-0.03857231140136719,-0.09982872009277344
1772727877805609700,7.255609619140625,0.4167475700378418,-0.058211326599121094,-0.09287786483764648
1772727877815609600,7.265609619140625,0.35455870628356934,-0.24454402923583984,-0.11167895793914795
1772727877825609700,7.275609619140625,0.19836711883544922,-0.4947175979614258,-0.06785523891448975
1772727877835609600,7.285609619140625,0.21317267417907715,-0.5871305465698242,-0.011403918266296387
1772727877845609700,7.295609619140625,0.20899057388305664,-0.594172477722168,0.01884448528289795
1772727877855609600,7.305609619140625,0.024347305297851562,-0.4782276153564453,0.050798892974853516
1772727877865609700,7.315609619140625,-0.01732349395751953,-0.2659425735473633,0.07406187057495117
1772727877875609600,7.325609619140625,0.15833282470703125,-0.07575225830078125,-0.020795822143554688
1772727877885609700,7.335609619140625,0.2680659294128418,0.10723114013671875,-0.11081218719482422
1772727877895609600,7.345609619140625,0.21370601654052734,0.2300863265991211,-0.12584686279296875
1772727877905609700,7.355609619140625,0.09056258201599121,0.1434183120727539,-0.2497309446334839
1772727877915609600,7.365609619140625,0.02435922622680664,-0.08352947235107422,-0.3506892919540405
1772727877925609700,7.375609619140625,0.20157170295715332,-0.2188100814819336,-0.3207205533981323
1772727877935609600,7.385609619140625,0.25001096725463867,-0.25133800506591797,-0.14930665493011475
1772727877945609700,7.395609619140625,0.2214212417602539,-0.12587928771972656,0.10654973983764648
1772727877955609600,7.405609619140625,0.19315862655639648,-0.044714927673339844,0.24829590320587158
1772727877965609700,7.415609619140625,0.1777791976928711,0.0052814483642578125,0.35052812099456787
1772727877975609600,7.425609619140625,0.17833781242370605,0.08966922760009766,0.3443704843521118
1772727877985609700,7.435609619140625,0.17550134658813477,0.1432628631591797,0.21228492259979248
1772727877995609600,7.445609619140625,0.19822978973388672,0.13884925842285156,0.12412476539611816
1772727878005609700,7.455609619140625,0.14964032173156738,0.19517898559570312,0.007583141326904297
1772727878015609600,7.465609619140625,-0.06820464134216309,0.25553417205810547,-0.10759103298187256
1772727878025609700,7.475609619140625,-0.1935126781463623,0.2902669906616211,-0.1100691556930542
1772727878035609600,7.485609619140625,0.05234169960021973,0.3192758560180664,-0.1825329065322876
1772727878045609700,7.495609619140625,0.22768187522888184,0.30469799041748047,-0.30843377113342285
1772727878055609600,7.505609619140625,0.16440653800964355,0.37449169158935547,-0.36476612091064453
1772727878065609700,7.515609619140625,-0.06853532791137695,0.3966197967529297,-0.3120460510253906
1772727878075609600,7.525609619140625,-0.22078299522399902,0.3209095001220703,-0.11471521854400635
1772727878085609700,7.535609619140625,-0.052104949951171875,0.20611286163330078,0.0003552436828613281
1772727878095609600,7.545609619140625,0.07399153709411621,0.20389366149902344,0.13028180599212646
1772727878105609700,7.555609619140625,0.05739474296569824,0.32840919494628906,0.21506726741790771
1772727878115609600,7.565609619140625,-0.018869876861572266,0.4453907012939453,0.30348479747772217
1772727878125609700,7.575609619140625,-0.03949093818664551,0.44644927978515625,0.36288881301879883
1772727878135609600,7.585609619140625,0.010392427444458008,0.39075469970703125,0.34346723556518555
1772727878145609700,7.595609619140625,0.19904518127441406,0.32480335235595703,0.13911032676696777
1772727878155609600,7.605609619140625,0.3101935386657715,0.20296859741210938,-0.07349705696105957
1772727878165609700,7.615609619140625,0.09327363967895508,0.1729602813720703,-0.23698806762695312
1772727878175609600,7.625609619140625,-0.2911055088043213,0.22833824157714844,-0.17079472541809082
1772727878185609700,7.635609619140625,-0.4212191104888916,0.31571483612060547,-0.024642348289489746
1772727878195609600,7.645609619140625,-0.17559576034545898,0.26641273498535156,-0.0870513916015625
1772727878205609700,7.655609619140625,0.01862621307373047,0.18684864044189453,-0.24138939380645752
1772727878215609600,7.665609619140625,-0.043602943420410156,0.15533733367919922,-0.1371626853942871
1772727878225609700,7.675609619140625,-0.10983633995056152,0.1424417495727539,0.20113074779510498
1772727878235609600,7.685609619140625,0.0351107120513916,0.0881338119506836,0.3196061849594116
1772727878245609700,7.695609619140625,0.19060492515563965,0.0051250457763671875,0.2112884521484375
1772727878255609600,7.705609619140625,0.0067980289459228516,0.019835472106933594,0.15482497215270996
1772727878265609700,7.715609619140625,-0.2942333221435547,0.12700176239013672,0.18226826190948486
1772727878275609600,7.725609619140625,-0.344266414642334,0.125396728515625,0.13174283504486084
1772727878285609700,7.735609619140625,-0.03989815711975098,0.042713165283203125,-0.009191036224365234
1772727878295609600,7.745609619140625,0.19100189208984375,0.07613086700439453,-0.3156780004501343
1772727878305609700,7.755609619140625,-0.06668734550476074,0.07071876525878906,-0.41254472732543945
1772727878315609600,7.765609619140625,-0.350208044052124,0.06825447082519531,-0.27749085426330566
1772727878325609700,7.775609619140625,-0.4435153007507324,-0.023446083068847656,-0.06834709644317627
1772727878335609600,7.785609619140625,-0.4113044738769531,-0.1390705108642578,0.19822311401367188
1772727878345609700,7.795609619140625,-0.44040584564208984,-0.18497657775878906,0.39335358142852783
1772727878355609600,7.805609619140625,-0.4292795658111572,-0.1325550079345703,0.4354548454284668
1772727878365609700,7.815609619140625,-0.3080291748046875,-0.07541465759277344,0.3667631149291992
1772727878375609600,7.825609619140625,-0.18684053421020508,-0.014239311218261719,0.20764219760894775
1772727878385609700,7.835609619140625,-0.14740991592407227,0.047801971435546875,-0.04522538185119629
1772727878395609600,7.845609619140625,-0.1103506088256836,-0.0268402099609375,-0.2899453639984131
1772727878405609700,7.855609619140625,-0.12842202186584473,-0.20266342163085938,-0.4129873514175415
1772727878415609600,7.865609619140625,-0.15115785598754883,-0.37212085723876953,-0.4160875082015991
1772727878425609700,7.875609619140625,-0.16360855102539062,-0.4410896301269531,-0.3631349802017212
1772727878435609600,7.885609619140625,-0.15633392333984375,-0.43637561798095703,-0.17982184886932373
1772727878445609700,7.895609619140625,-0.07817864418029785,-0.39538002014160156,0.12549817562103271
1772727878455609600,7.905609619140625,0.0009839534759521484,-0.3808555603027344,0.317258358001709
1772727878465609700,7.915609619140625,-0.03261709213256836,-0.40215110778808594,0.34826231002807617
1772727878475609600,7.925609619140625,-0.09413027763366699,-0.3979654312133789,0.26846158504486084
1772727878485609700,7.935609619140625,-0.0738065242767334,-0.3633880615234375,0.09992599487304688
1772727878495609600,7.945609619140625,-0.009047269821166992,-0.32266807556152344,-0.08447098731994629
1772727878505609700,7.955609619140625,0.025432825088500977,-0.3235483169555664,-0.20219409465789795
1772727878515609600,7.965609619140625,0.0019080638885498047,-0.3387727737426758,-0.37150001525878906
1772727878525609700,7.975609619140625,0.008784055709838867,-0.4256906509399414,-0.44464027881622314
1772727878535609600,7.985609619140625,0.061757802963256836,-0.5319290161132812,-0.31684422492980957
1772727878545609700,7.995609619140625,0.11588859558105469,-0.5894279479980469,-0.09698176383972168
1772727878555609600,8.005609619140625,0.08764100074768066,-0.5593290328979492,0.11403751373291016
1772727878565609700,8.015609619140625,0.043718576431274414,-0.4691333770751953,0.3057762384414673
1772727878575609600,8.025609619140624,0.03892636299133301,-0.3365354537963867,0.44972264766693115
1772727878585609700,8.035609619140626,0.06607508659362793,-0.16297531127929688,0.4738953113555908
1772727878595609600,8.045609619140626,0.03608369827270508,0.009107589721679688,0.31359076499938965
1772727878605609700,8.055609619140625,-0.010054588317871094,0.11498737335205078,0.019359827041625977
1772727878615609600,8.065609619140625,0.026409387588500977,0.12069225311279297,-0.1880863904953003
1772727878625609700,8.075609619140625,0.07142305374145508,0.1021871566772461,-0.2609199285507202
1772727878635609600,8.085609619140625,0.08924412727355957,0.07078838348388672,-0.3453890085220337
1772727878645609700,8.095609619140625,0.07365846633911133,0.016277313232421875,-0.3899052143096924
1772727878655609600,8.105609619140624,0.10025644302368164,0.007092475891113281,-0.2789478302001953
1772727878665609700,8.115609619140624,0.04700326919555664,0.03029155731201172,-0.01160132884979248
1772727878675609600,8.125609619140626,-0.018678903579711914,0.0807332992553711,0.2576819658279419
1772727878685609700,8.135609619140626,0.017098188400268555,0.12237739562988281,0.352944016456604
1772727878695609600,8.145609619140625,0.028284788131713867,0.1400308609008789,0.3221447467803955
1772727878705609700,8.155609619140625,-0.017580032348632812,0.20386123657226562,0.1940242052078247
1772727878715609600,8.165609619140625,-0.06331729888916016,0.2656059265136719,0.086356520652771
1772727878725609700,8.175609619140625,-0.026773452758789062,0.30943870544433594,-0.10443115234375
1772727878735609600,8.185609619140624,0.051604509353637695,0.3168048858642578,-0.20723867416381836
1772727878745609700,8.195609619140624,0.13858461380004883,0.31035518646240234,-0.21148860454559326
1772727878755609600,8.205609619140626,0.2138993740081787,0.31369781494140625,-0.11137676239013672
1772727878765609700,8.215609619140626,0.2036137580871582,0.2602062225341797,-0.09999644756317139
1772727878775609600,8.225609619140625,0.04920244216918945,0.13988208770751953,0.009834647178649902
1772727878785609700,8.235609619140625,-0.13656353950500488,0.04142570495605469,0.18820440769195557
1772727878795609600,8.245609619140625,-0.10025262832641602,0.04099273681640625,0.3503453731536865
1772727878805609700,8.255609619140625,0.15187621116638184,0.09136581420898438,0.38031649589538574
1772727878815609600,8.265609619140625,0.2350161075592041,0.14999675750732422,0.2760568857192993
1772727878825609700,8.275609619140624,0.05811715126037598,0.1637115478515625,0.15736865997314453
1772727878835609600,8.285609619140626,0.1295948028564453,0.2257528305053711,0.034708261489868164
1772727878845609700,8.295609619140626,0.32305121421813965,0.18873023986816406,-0.12950336933135986
1772727878855609600,8.305609619140625,0.29729342460632324,0.1774435043334961,-0.27501344680786133
1772727878865609700,8.315609619140625,-0.04202866554260254,0.22359180450439453,-0.32529401779174805
1772727878875609600,8.325609619140625,-0.3299679756164551,0.2277545928955078,-0.3272552490234375
1772727878885609700,8.335609619140625,-0.16137957572937012,0.1397686004638672,-0.2335205078125
1772727878895609600,8.345609619140625,0.028075456619262695,0.08930015563964844,-0.1560347080230713
1772727878905609700,8.355609619140624,0.032044410705566406,0.13608360290527344,0.05032634735107422
1772727878915609600,8.365609619140624,0.028099536895751953,0.1782855987548828,0.17195427417755127
1772727878925609700,8.375609619140626,0.16708731651306152,0.14281558990478516,0.14428257942199707
1772727878935609600,8.385609619140626,0.2842600345611572,0.034729957580566406,0.1280282735824585
1772727878945609700,8.395609619140625,0.23194575309753418,-0.022123336791992188,0.28684496879577637
1772727878955609600,8.405609619140625,0.2147994041442871,-0.05363750457763672,0.25372159481048584
1772727878965609700,8.415609619140625,0.16854286193847656,-0.1410369873046875,0.1133732795715332
1772727878975609600,8.425609619140625,-0.05670499801635742,-0.13277149200439453,0.02518641948699951
1772727878985609700,8.435609619140624,-0.16911721229553223,0.11453628540039062,-0.04355001449584961
1772727878995609600,8.445609619140624,-0.19430088996887207,0.3215341567993164,-0.032576560974121094
1772727879005609700,8.455609619140626,-0.15076470375061035,0.39875316619873047,-0.08958804607391357
1772727879015609600,8.465609619140626,-0.07732963562011719,0.34273242950439453,-0.20641565322875977
1772727879025609700,8.475609619140625,0.0453190803527832,0.19288349151611328,-0.3180854320526123
1772727879035609600,8.485609619140625,0.1614525318145752,-0.02787303924560547,-0.27379369735717773
1772727879045609700,8.495609619140625,0.255831241607666,-0.14205265045166016,-0.11922001838684082
1772727879055609600,8.505609619140625,0.22632598876953125,-0.24365520477294922,0.06610333919525146
1772727879065609700,8.515609619140625,0.13138985633850098,-0.2879371643066406,0.20924830436706543
1772727879075609600,8.525609619140624,-0.008419513702392578,-0.24664878845214844,0.3393561840057373
1772727879085609700,8.535609619140626,-0.08089089393615723,-0.09190654754638672,0.35752880573272705
1772727879095609600,8.545609619140626,-0.0878000259399414,0.11046695709228516,0.22501742839813232
1772727879105609700,8.555609619140625,0.008729219436645508,0.1649150848388672,-0.014557123184204102
1772727879115609600,8.565609619140625,0.04349398612976074,0.08963394165039062,-0.280920147895813
1772727879125609700,8.575609619140625,0.08466815948486328,-0.05991172790527344,-0.42742395401000977
1772727879135609600,8.585609619140625,0.15295910835266113,-0.2380352020263672,-0.5128048658370972
1772727879145609700,8.595609619140625,0.08587026596069336,-0.34535789489746094,-0.5257138013839722
1772727879155609600,8.605609619140624,-0.08608794212341309,-0.3761310577392578,-0.21312153339385986
1772727879165609700,8.615609619140624,-0.08467245101928711,-0.3060483932495117,0.2405635118484497
1772727879175609600,8.625609619140626,0.0959312915802002,-0.2099437713623047,0.4317014217376709
1772727879185609700,8.635609619140626,0.1544346809387207,-0.13746261596679688,0.44567370414733887
1772727879195609600,8.645609619140625,0.1691150665283203,-0.07304000854492188,0.40759122371673584
1772727879205609700,8.655609619140625,0.21411442756652832,-0.1122598648071289,0.19941043853759766
1772727879215609600,8.665609619140625,0.2521483898162842,-0.26969432830810547,-0.0858008861541748
1772727879225609700,8.675609619140625,0.10397553443908691,-0.40004634857177734,-0.28902244567871094
1772727879235609600,8.685609619140624,-0.05587172508239746,-0.3745861053466797,-0.3597010374069214
1772727879245609700,8.695609619140624,-0.16167378425598145,-0.19227123260498047,-0.30015623569488525
1772727879255609600,8.705609619140626,-0.26984310150146484,-0.05335426330566406,-0.14994382858276367
1772727879265609700,8.715609619140626,-0.3925788402557373,0.11405372619628906,0.052350759506225586
1772727879275609600,8.725609619140625,-0.116851806640625,0.22698688507080078,0.07225549221038818
1772727879285609700,8.735609619140625,0.28931403160095215,0.17171859741210938,-0.08108294010162354
1772727879295609600,8.745609619140625,0.465395450592041,-0.0112762451171875,-0.17527806758880615
1772727879305609700,8.755609619140625,0.14472389221191406,-0.16895294189453125,-0.12770438194274902
1772727879315609600,8.765609619140625,-0.1637735366821289,-0.33675098419189453,0.051686882972717285
1772727879325609700,8.775609619140624,-0.2564358711242676,-0.4578580856323242,0.24556708335876465
1772727879335609600,8.785609619140626,-0.0890345573425293,-0.30940914154052734,0.2154996395111084
1772727879345609700,8.795609619140626,-0.15472936630249023,-0.07176589965820312,0.14051735401153564
1772727879355609600,8.805609619140625,-0.3496530055999756,0.20672893524169922,0.1555572748184204
1772727879365609700,8.815609619140625,-0.39483118057250977,0.3318920135498047,0.12430906295776367
1772727879375609600,8.825609619140625,-0.29860520362854004,0.3334178924560547,0.02626800537109375
1772727879385609700,8.835609619140625,-0.20817828178405762,0.16392135620117188,-0.09424352645874023
1772727879395609600,8.845609619140625,-0.23776626586914062,-0.05861854553222656,-0.16969788074493408
1772727879405609700,8.855609619140624,-0.2705965042114258,-0.23434734344482422,-0.16024291515350342
1772727879415609600,8.865609619140624,-0.2806527614593506,-0.2792644500732422,-0.10339343547821045
1772727879425609700,8.875609619140626,-0.2602274417877197,-0.17627716064453125,0.04392039775848389
1772727879435609600,8.885609619140626,-0.17912769317626953,0.001766204833984375,0.2841777801513672
1772727879445609700,8.895609619140625,-0.08709025382995605,0.17097187042236328,0.44497644901275635
1772727879455609600,8.905609619140625,-0.09995532035827637,0.29189300537109375,0.3735591173171997
1772727879465609700,8.915609619140625,-0.18520164489746094,0.39417171478271484,0.20607352256774902
1772727879475609600,8.925609619140625,-0.22115015983581543,0.3710174560546875,0.03644359111785889
1772727879485609700,8.935609619140624,-0.17127680778503418,0.27044677734375,-0.06273353099822998
1772727879495609600,8.945609619140624,-0.08708643913269043,0.15129852294921875,-0.2570284605026245
1772727879505609700,8.955609619140626,-0.10947108268737793,0.037512779235839844,-0.43891382217407227
1772727879515609600,8.965609619140626,-0.062163591384887695,-0.003322601318359375,-0.4851977825164795
1772727879525609700,8.975609619140625,0.027985334396362305,0.039549827575683594,-0.22963082790374756
1772727879535609600,8.985609619140625,0.038550615310668945,0.14022541046142578,0.11424362659454346
1772727879545609700,8.995609619140625,0.0031931400299072266,0.24221420288085938,0.3497377634048462
1772727879555609600,9.005609619140625,-0.0052263736724853516,0.2471332550048828,0.3393038511276245
1772727879565609700,9.015609619140625,-0.009468793869018555,0.1715230941772461,0.2330847978591919
1772727879575609600,9.025609619140624,0.0047070980072021484,0.10611343383789062,0.13697397708892822
1772727879585609700,9.035609619140626,-0.033791303634643555,0.08478069305419922,0.09930109977722168
1772727879595609600,9.045609619140626,0.015194892883300781,0.051888465881347656,0.0019222497940063477
1772727879605609700,9.055609619140625,0.05091071128845215,-0.013461112976074219,-0.20972776412963867
1772727879615609600,9.065609619140625,0.026146411895751953,-0.09068489074707031,-0.19751083850860596
1772727879625609700,9.075609619140625,0.19188737869262695,-0.11057186126708984,-0.08969342708587646
1772727879635609600,9.085609619140625,0.3175334930419922,-0.10415363311767578,-0.006176114082336426
1772727879645609700,9.095609619140625,0.33782386779785156,-0.029460906982421875,0.06512963771820068
1772727879655609600,9.105609619140624,0.23676705360412598,0.056067466735839844,0.10081613063812256
1772727879665609700,9.115609619140624,0.1519777774810791,0.0740966796875,0.09198260307312012
1772727879675609600,9.125609619140626,0.18770337104797363,0.056221961975097656,0.043531060218811035
1772727879685609700,9.135609619140626,0.23411083221435547,0.04311847686767578,-0.03790009021759033
1772727879695609600,9.145609619140625,0.20731091499328613,0.020257949829101562,-0.07756948471069336
1772727879705609700,9.155609619140625,0.11121582984924316,-0.023641586303710938,-0.14831197261810303
1772727879715609600,9.165609619140625,0.14418268203735352,-0.017274856567382812,-0.26339709758758545
1772727879725609700,9.175609619140625,0.2480926513671875,-0.0005893707275390625,-0.25863003730773926
1772727879735609600,9.185609619140624,0.32899928092956543,0.03800487518310547,-0.16052162647247314
1772727879745609700,9.195609619140624,0.33296823501586914,0.1258382797241211,-0.07402348518371582
1772727879755609600,9.205609619140626,0.26990675926208496,0.12989234924316406,-0.10163044929504395
1772727879765609700,9.215609619140626,0.18672418594360352,-0.0005550384521484375,-0.07342219352722168
1772727879775609600,9.225609619140625,0.1785721778869629,-0.10806560516357422,0.003553628921508789
1772727879785609700,9.235609619140625,0.17612767219543457,-0.17578506469726562,0.038814544677734375
1772727879795609600,9.245609619140625,0.10794520378112793,-0.19853878021240234,0.08441245555877686
1772727879805609700,9.255609619140625,0.08964705467224121,-0.1110382080078125,0.2179485559463501
1772727879815609600,9.265609619140625,0.17856645584106445,0.07977008819580078,0.1908104419708252
1772727879825609700,9.275609619140624,0.23835039138793945,0.21855735778808594,0.06000542640686035
1772727879845609700,9.295609619140626,0.09509110450744629,0.2441864013671875,-0.11903631687164307
1772727879855609600,9.305609619140625,0.09990739822387695,0.11033153533935547,-0.1938384771347046
1772727879865609700,9.315609619140625,0.023416996002197266,-0.09980010986328125,-0.22080957889556885
1772727879875609600,9.325609619140625,-0.02792835235595703,-0.14914417266845703,-0.22079932689666748
1772727879885609700,9.335609619140625,-0.04840397834777832,-0.08571052551269531,-0.17075872421264648
1772727879895609600,9.345609619140625,-0.01726675033569336,-0.059195518493652344,-0.04307878017425537
1772727879905609700,9.355609619140624,-0.08178877830505371,0.0028781890869140625,0.12905168533325195
1772727879915609600,9.365609619140624,-0.026943206787109375,0.13990306854248047,0.28000032901763916
1772727879925609700,9.375609619140626,0.0962975025177002,0.11678028106689453,0.27471601963043213
1772727879935609600,9.385609619140626,0.05876636505126953,0.019819259643554688,0.15594732761383057
1772727879945609700,9.395609619140625,-0.01931023597717285,-0.04241943359375,0.008192300796508789
1772727879955609600,9.405609619140625,-0.11583709716796875,-0.0675821304321289,-0.09620487689971924
1772727879965609700,9.415609619140625,-0.09897661209106445,0.0150909423828125,-0.06807839870452881
1772727879975609600,9.425609619140625,0.01513528823852539,0.1559619903564453,-0.04974555969238281
1772727879985609700,9.435609619140624,-0.0895082950592041,0.15380477905273438,-0.10065591335296631
1772727879995609600,9.445609619140624,-0.22908663749694824,0.13453292846679688,-0.15366888046264648
1772727880005609700,9.455609619140626,-0.21569156646728516,0.05683326721191406,-0.21334075927734375
1772727880015609600,9.465609619140626,-0.24449563026428223,0.006008148193359375,-0.1670680046081543
1772727880025609700,9.475609619140625,-0.26104307174682617,-0.05493450164794922,0.014036774635314941
1772727880035609600,9.485609619140625,-0.21087932586669922,-0.18249225616455078,0.08810865879058838
1772727880045609700,9.495609619140625,-0.07147693634033203,-0.3289508819580078,0.04999589920043945
1772727880055609600,9.505609619140625,-0.07580852508544922,-0.35222721099853516,0.021419882774353027
1772727880065609700,9.515609619140625,-0.23798203468322754,-0.2168903350830078,0.1283169984817505
1772727880075609600,9.525609619140624,-0.3816359043121338,-0.0714101791381836,0.2483445405960083
1772727880085609700,9.535609619140626,-0.33831167221069336,0.05864715576171875,0.22578179836273193
1772727880095609600,9.545609619140626,-0.28396058082580566,0.11838245391845703,0.10747385025024414
1772727880105609700,9.555609619140625,-0.2865760326385498,0.19588661193847656,-0.028063654899597168
1772727880115609600,9.565609619140625,-0.23258423805236816,0.17400550842285156,-0.17416667938232422
1772727880135609600,9.585609619140625,0.006059408187866211,-0.13893890380859375,-0.4095197916030884
1772727880145609700,9.595609619140625,-0.03234148025512695,-0.2987375259399414,-0.2648589611053467
1772727880155609600,9.605609619140624,-0.01336979866027832,-0.39505767822265625,-0.04628002643585205
1772727880165609700,9.615609619140624,-0.02919173240661621,-0.3930540084838867,0.08806145191192627
1772727880175609600,9.625609619140626,-0.0406796932220459,-0.31144237518310547,0.21387028694152832
1772727880185609700,9.635609619140626,-0.08397126197814941,-0.11994743347167969,0.3321899175643921
1772727880195609600,9.645609619140625,-0.06258416175842285,0.12970352172851562,0.35382986068725586
1772727880205609700,9.655609619140625,-0.030388832092285156,0.2878990173339844,0.17287135124206543
1772727880215609600,9.665609619140625,-0.017163991928100586,0.2887907028198242,-0.15236330032348633
1772727880225609700,9.675609619140625,-0.07443118095397949,0.15535736083984375,-0.4392305612564087
1772727880235609600,9.685609619140624,-0.10496282577514648,-0.04726219177246094,-0.5706661939620972
1772727880245609700,9.695609619140624,-0.11906743049621582,-0.2335968017578125,-0.6333473920822144
1772727880255609600,9.705609619140626,-0.17708706855773926,-0.34049320220947266,-0.4707176685333252
1772727880265609700,9.715609619140626,-0.21227145195007324,-0.3259878158569336,-0.13461720943450928
1772727880275609600,9.725609619140625,-0.12587356567382812,-0.2678251266479492,0.19833076000213623
1772727880285609700,9.735609619140625,0.02472209930419922,-0.1782989501953125,0.3887817859649658
1772727880295609600,9.745609619140625,0.07635211944580078,-0.05678558349609375,0.40562963485717773
1772727880305609700,9.755609619140625,0.0917351245880127,0.0025281906127929688,0.38734865188598633
1772727880315609600,9.765609619140625,0.05675959587097168,0.009784698486328125,0.24481189250946045
1772727880325609700,9.775609619140624,0.0666055679321289,-0.05558204650878906,-0.008323431015014648
1772727880335609600,9.785609619140626,0.0009016990661621094,-0.08846092224121094,-0.26407408714294434
1772727880345609700,9.795609619140626,-0.14236187934875488,-0.04218292236328125,-0.40134894847869873
1772727880355609600,9.805609619140625,-0.2374420166015625,-0.04050254821777344,-0.30368804931640625
1772727880365609700,9.815609619140625,-0.2060103416442871,-0.049080848693847656,-0.1461024284362793
1772727880375609600,9.825609619140625,-0.03752303123474121,-0.022813796997070312,-0.12758827209472656
1772727880385609700,9.835609619140625,0.09513044357299805,0.041663169860839844,-0.1915673017501831
1772727880395609600,9.845609619140625,0.1346898078918457,0.12720966339111328,-0.07890188694000244
1772727880405609700,9.855609619140624,0.06829547882080078,0.1894073486328125,0.15116751194000244
1772727880415609600,9.865609619140624,0.0477442741394043,0.14078140258789062,0.18033790588378906
1772727880425609700,9.875609619140626,0.05678820610046387,0.027154922485351562,0.023374080657958984
1772727880435609600,9.885609619140626,-0.02608489990234375,-0.09152412414550781,-0.13148534297943115
1772727880445609700,9.895609619140625,-0.28687143325805664,-0.08942317962646484,-0.06733179092407227
1772727880455609600,9.905609619140625,-0.2748854160308838,-0.010163307189941406,0.0449221134185791
1772727880465609700,9.915609619140625,-0.12293434143066406,0.07371044158935547,0.02166008949279785
1772727880475609600,9.925609619140625,0.1403794288635254,0.18437480926513672,-0.03690922260284424
1772727880485609700,9.935609619140624,0.2503654956817627,0.3071632385253906,-0.12034666538238525
1772727880495609600,9.945609619140624,0.1629488468170166,0.2492361068725586,-0.06807804107666016
1772727880505609700,9.955609619140626,0.18969464302062988,0.1911306381225586,0.052546024322509766
1772727880515609600,9.965609619140626,0.21728181838989258,0.0297088623046875,0.05353045463562012
1772727880525609700,9.975609619140625,-0.06006669998168945,-0.053185462951660156,0.008447051048278809
1772727880535609600,9.985609619140625,-0.243133544921875,-0.03197669982910156,-0.03198814392089844
1772727880545609700,9.995609619140625,-0.1766526699066162,0.009130477905273438,0.021100282669067383
1772727880555609600,10.005609619140625,0.14753365516662598,0.07740974426269531,0.08736598491668701
1772727880565609700,10.015609619140625,0.2920224666595459,0.20195674896240234,0.07143867015838623
1772727880575609600,10.025609619140624,0.16914153099060059,0.23952484130859375,-0.047092556953430176
1772727880585609700,10.035609619140626,0.046012163162231445,0.18020153045654297,-0.00813603401184082
1772727880595609600,10.045609619140626,0.33408236503601074,0.12245941162109375,-0.06835877895355225
1772727880605609700,10.055609619140625,0.3897218704223633,-0.031189918518066406,-0.1739363670349121
1772727880615609600,10.065609619140625,0.051923274993896484,-0.03951454162597656,-0.2632298469543457
1772727880625609700,10.075609619140625,-0.3077409267425537,0.010066986083984375,-0.2177562713623047
1772727880635609600,10.085609619140625,-0.23888039588928223,0.052231788635253906,-0.1527082920074463
1772727880645609700,10.095609619140625,-0.026375770568847656,0.09548187255859375,0.022113919258117676
1772727880655609600,10.105609619140624,0.07477974891662598,0.1806192398071289,0.13343048095703125
1772727880665609700,10.115609619140624,0.09653544425964355,0.20124053955078125,0.11988699436187744
1772727880675609600,10.125609619140626,0.2116708755493164,0.02611827850341797,0.027054548263549805
1772727880685609700,10.135609619140626,0.3324851989746094,-0.137054443359375,0.031285643577575684
1772727880695609600,10.145609619140625,0.3381667137145996,-0.19449806213378906,-0.007011532783508301
1772727880705609700,10.155609619140625,0.18184900283813477,-0.20510196685791016,-0.013425588607788086
1772727880715609600,10.165609619140625,0.17762351036071777,-0.1624774932861328,0.018664240837097168
1772727880725609700,10.175609619140625,0.10353708267211914,-0.0975942611694336,-0.009911298751831055
1772727880735609600,10.185609619140624,-0.10111403465270996,0.07425975799560547,-0.05993306636810303
1772727880745609700,10.195609619140624,-0.1134176254272461,0.26311683654785156,-0.2402712106704712
1772727880755609600,10.205609619140626,0.03628063201904297,0.29793262481689453,-0.42389190196990967
1772727880765609700,10.215609619140626,0.11367654800415039,0.12408065795898438,-0.39077579975128174
1772727880775609600,10.225609619140625,0.0419926643371582,-0.054223060607910156,-0.22388207912445068
1772727880785609700,10.235609619140625,0.06112408638000488,-0.2188100814819336,-0.09851336479187012
1772727880795609600,10.245609619140625,0.175567626953125,-0.2799091339111328,-0.044536471366882324
1772727880805609700,10.255609619140625,0.29218244552612305,-0.24904727935791016,0.091910719871521
1772727880815609600,10.265609619140625,0.2541489601135254,-0.13014984130859375,0.25461411476135254
1772727880825609700,10.275609619140624,0.13506007194519043,-0.02235889434814453,0.3293159008026123
1772727880835609600,10.285609619140626,0.07494282722473145,0.14310264587402344,0.24930202960968018
1772727880845609700,10.295609619140626,0.010518312454223633,0.19295597076416016,0.03563225269317627
1772727880855609600,10.305609619140625,-0.06859230995178223,0.2255687713623047,-0.16254305839538574
1772727880865609700,10.315609619140625,-0.1105344295501709,0.2549152374267578,-0.3596409559249878
1772727880875609600,10.325609619140625,-0.08933377265930176,0.2547292709350586,-0.46102583408355713
1772727880885609700,10.335609619140625,-0.04545331001281738,0.17324256896972656,-0.4228886365890503
1772727880895609600,10.345609619140625,-0.0619962215423584,0.09599876403808594,-0.24045908451080322
1772727880905609700,10.355609619140624,-0.06469249725341797,0.0760488510131836,-0.01782965660095215
1772727880915609600,10.365609619140624,-0.014976978302001953,0.0641937255859375,0.09868860244750977
1772727880925609700,10.375609619140626,0.04303765296936035,0.11019229888916016,0.10829079151153564
1772727880935609600,10.385609619140626,-0.03456878662109375,0.1587991714477539,0.13428068161010742
1772727880945609700,10.395609619140625,-0.21902108192443848,0.14403629302978516,0.232153058052063
1772727880955609600,10.405609619140625,-0.2125992774963379,0.11765289306640625,0.13331067562103271
1772727880965609700,10.415609619140625,-0.09261417388916016,0.16983318328857422,-0.08991801738739014
1772727880975609600,10.425609619140625,-0.023590564727783203,0.2248554229736328,-0.2646768093109131
1772727880985609700,10.435609619140624,-0.316540002822876,0.20163536071777344,-0.23433709144592285
1772727880995609600,10.445609619140624,-0.41560816764831543,0.1420145034790039,-0.09849035739898682
1772727881005609700,10.455609619140626,-0.1930558681488037,-0.0434722900390625,-0.027132868766784668
1772727881015609600,10.465609619140626,0.09727311134338379,-0.20179367065429688,0.02031731605529785
1772727881025609700,10.475609619140625,0.13506507873535156,-0.26157474517822266,0.08878099918365479
1772727881035609600,10.485609619140625,0.05538439750671387,-0.25856876373291016,0.10125958919525146
1772727881045609700,10.495609619140625,-0.02249932289123535,-0.3107900619506836,0.04186880588531494
1772727881055609600,10.505609619140625,-0.05208420753479004,-0.3238639831542969,-0.0016798973083496094
1772727881065609700,10.515609619140625,-0.12542200088500977,-0.19699668884277344,0.0015236139297485352
1772727881075609600,10.525609619140624,-0.11514496803283691,-0.11328697204589844,0.029861807823181152
1772727881085609700,10.535609619140626,-0.05012249946594238,-0.059027671813964844,-0.034116268157958984
1772727881095609600,10.545609619140626,0.03165912628173828,0.02457904815673828,-0.11879801750183105
1772727881105609700,10.555609619140625,0.13066959381103516,0.06357669830322266,-0.21204960346221924
1772727881115609600,10.565609619140625,0.23827099800109863,-0.051245689392089844,-0.20542848110198975
1772727881125609700,10.575609619140625,0.30492711067199707,-0.27190113067626953,-0.218414306640625
1772727881135609600,10.585609619140625,0.23407912254333496,-0.4856700897216797,-0.29552578926086426
1772727881145609700,10.595609619140625,0.11622047424316406,-0.6391448974609375,-0.19342589378356934
1772727881155609600,10.605609619140624,-0.004656553268432617,-0.6453418731689453,0.054453372955322266
1772727881165609700,10.615609619140624,-0.08468413352966309,-0.47484588623046875,0.30476534366607666
1772727881175609600,10.625609619140626,-0.0722188949584961,-0.21262359619140625,0.4079691171646118
1772727881185609700,10.635609619140626,0.029313325881958008,0.03012371063232422,0.32525837421417236
1772727881195609600,10.645609619140625,0.12445473670959473,0.2828712463378906,0.18270361423492432
1772727881205609700,10.655609619140625,0.1546638011932373,0.29614830017089844,-0.06617844104766846
1772727881215609600,10.665609619140625,0.07562875747680664,0.13107013702392578,-0.29805147647857666
1772727881225609700,10.675609619140625,0.029231548309326172,-0.08152294158935547,-0.4251493215560913
1772727881235609600,10.685609619140624,-0.022797584533691406,-0.2587451934814453,-0.5144214630126953
1772727881245609700,10.695609619140624,-0.12274360656738281,-0.3061199188232422,-0.39257025718688965
1772727881255609600,10.705609619140626,-0.15682268142700195,-0.27586841583251953,-0.1603759527206421
1772727881265609700,10.715609619140626,-0.07669663429260254,-0.16508960723876953,0.10595095157623291
1772727881275609600,10.725609619140625,0.12425780296325684,-0.02115917205810547,0.2573268413543701
1772727881285609700,10.735609619140625,0.19252228736877441,0.12384414672851562,0.27440690994262695
1772727881295609600,10.745609619140625,0.11838555335998535,0.15672683715820312,0.2344435453414917
1772727881305609700,10.755609619140625,0.14835643768310547,0.11081886291503906,0.11343979835510254
1772727881315609600,10.765609619140625,0.16267824172973633,0.051018714904785156,-0.0324406623840332
1772727881325609700,10.775609619140624,0.027976274490356445,0.05319023132324219,-0.13686513900756836
1772727881335609600,10.785609619140626,-0.1906261444091797,0.15169715881347656,-0.10750424861907959
1772727881345609700,10.795609619140626,-0.22832584381103516,0.18024635314941406,-0.08044028282165527
1772727881355609600,10.805609619140625,-0.13291549682617188,0.2064371109008789,-0.11715304851531982
1772727881365609700,10.815609619140625,-0.04466676712036133,0.21812725067138672,-0.18807435035705566
1772727881375609600,10.825609619140625,-0.04070544242858887,0.21542930603027344,-0.20020973682403564
1772727881385609700,10.835609619140625,0.03433966636657715,0.14914321899414062,-0.13530147075653076
1772727881395609600,10.845609619140625,0.06431889533996582,0.09863471984863281,-0.08983397483825684
1772727881405609700,10.855609619140624,-0.023326873779296875,0.1240987777709961,-0.014429450035095215
1772727881415609600,10.865609619140624,-0.17499971389770508,0.17343711853027344,0.11988544464111328
1772727881425609700,10.875609619140626,-0.15506386756896973,0.2150278091430664,0.19617760181427002
1772727881435609600,10.885609619140626,-0.060739994049072266,0.2507476806640625,0.17618191242218018
1772727881445609700,10.895609619140625,-0.07561564445495605,0.2822246551513672,0.08722925186157227
1772727881455609600,10.905609619140625,-0.14573884010314941,0.34546661376953125,0.02542734146118164
1772727881465609700,10.915609619140625,-0.1511530876159668,0.2951326370239258,0.02124929428100586
1772727881475609600,10.925609619140625,-0.09066152572631836,0.23546600341796875,-0.0566481351852417
1772727881485609700,10.935609619140624,-0.08981728553771973,0.2735605239868164,-0.15652120113372803
1772727881495609600,10.945609619140624,-0.09311151504516602,0.3067922592163086,-0.16181433200836182
1772727881505609700,10.955609619140626,-0.10222673416137695,0.3046836853027344,-0.10461342334747314
1772727881515609600,10.965609619140626,-0.11129522323608398,0.2623624801635742,-0.04646289348602295
1772727881525609700,10.975609619140625,-0.15201377868652344,0.2124195098876953,-0.0692516565322876
1772727881535609600,10.985609619140625,-0.19401097297668457,0.15620899200439453,-0.04899799823760986
1772727881545609700,10.995609619140625,-0.17749953269958496,0.1937084197998047,0.06360840797424316
1772727881555609600,11.005609619140625,-0.11009669303894043,0.2758045196533203,0.17207860946655273
1772727881565609700,11.015609619140625,-0.2627122402191162,0.31963062286376953,0.20862555503845215
1772727881575609600,11.025609619140624,-0.28311705589294434,0.38266468048095703,0.14664185047149658
1772727881585609700,11.035609619140626,-0.14342427253723145,0.2795114517211914,0.025783061981201172
1772727881595609600,11.045609619140626,0.008361577987670898,0.15114116668701172,-0.06584560871124268
1772727881605609700,11.055609619140625,-0.030061960220336914,0.05222606658935547,-0.1403898000717163
1772727881615609600,11.065609619140625,-0.10113811492919922,0.014655113220214844,-0.1579911708831787
1772727881625609700,11.075609619140625,-0.2520108222961426,0.0077381134033203125,-0.0344541072845459
1772727881635609600,11.085609619140625,-0.30104970932006836,0.06835651397705078,0.10780918598175049
1772727881645609700,11.095609619140625,-0.28234338760375977,0.19182300567626953,0.10970759391784668
1772727881655609600,11.105609619140624,-0.1939072608947754,0.23882007598876953,0.05035042762756348
1772727881665609700,11.115609619140624,-0.13483881950378418,0.22233963012695312,-0.035304903984069824
1772727881675609600,11.125609619140626,-0.051843881607055664,0.10449695587158203,-0.1566154956817627
1772727881685609700,11.135609619140626,0.03879261016845703,-0.12315177917480469,-0.18011963367462158
1772727881695609600,11.145609619140625,0.10081362724304199,-0.3389720916748047,-0.22625088691711426
1772727881705609700,11.155609619140625,0.06079673767089844,-0.4819812774658203,-0.2059420347213745
1772727881715609600,11.165609619140625,-0.0789635181427002,-0.5191802978515625,-0.057039499282836914
1772727881725609700,11.175609619140625,-0.14417529106140137,-0.450592041015625,0.18612289428710938
1772727881735609600,11.185609619140624,0.0058231353759765625,-0.29767799377441406,0.25924980640411377
1772727881745609700,11.195609619140624,0.11540937423706055,-0.12500476837158203,0.16407394409179688
1772727881755609600,11.205609619140626,0.07110857963562012,-0.028192520141601562,0.0824441909790039
1772727881765609700,11.215609619140626,0.027398347854614258,-0.04173088073730469,0.053282976150512695
1772727881775609600,11.225609619140625,0.1649305820465088,-0.23226642608642578,-0.03900742530822754
1772727881785609700,11.235609619140625,0.30164027214050293,-0.45682525634765625,-0.31985223293304443
1772727881795609600,11.245609619140625,0.22890973091125488,-0.551234245300293,-0.5093706846237183
1772727881805609700,11.255609619140625,0.1146845817565918,-0.5756568908691406,-0.3354398012161255
1772727881815609600,11.265609619140625,0.03941035270690918,-0.53326416015625,-0.1300806999206543
1772727881825609700,11.275609619140624,0.10186290740966797,-0.4521369934082031,-0.13406765460968018
1772727881835609600,11.285609619140626,0.19961047172546387,-0.3812141418457031,-0.10250115394592285
1772727881845609700,11.295609619140626,0.251476526260376,-0.28211307525634766,-0.07617306709289551
1772727881855609600,11.305609619140625,0.22957801818847656,-0.1936807632446289,-0.03520321846008301
1772727881865609700,11.315609619140625,0.23438429832458496,-0.20556259155273438,0.008784770965576172
1772727881875609600,11.325609619140625,0.27215147018432617,-0.2545957565307617,-0.07452607154846191
1772727881885609700,11.335609619140625,0.3093533515930176,-0.3322629928588867,-0.17492341995239258
1772727881895609600,11.345609619140625,0.2360975742340088,-0.3731966018676758,-0.04404246807098389
1772727881905609500,11.355609375,0.22716426849365234,-0.3323945999145508,0.0988532304763794
1772727881915609600,11.365609619140624,0.15052485466003418,-0.2878837585449219,0.08891093730926514
1772727881925609500,11.375609375,0.02269148826599121,-0.2194232940673828,0.03854942321777344
1772727881935609600,11.385609619140626,-0.07344961166381836,-0.15572071075439453,-0.02952754497528076
1772727881945609500,11.395609375,-0.014887094497680664,-0.06517601013183594,-0.04443240165710449
1772727881955609600,11.405609619140625,0.11895966529846191,-0.042743682861328125,-0.11065816879272461
1772727881965609500,11.415609375,0.0926966667175293,-0.09279251098632812,-0.14615333080291748
1772727881975609600,11.425609619140625,0.03284859657287598,-0.14177894592285156,-0.18735742568969727
1772727881985609500,11.435609375,-0.008936882019042969,-0.16216373443603516,-0.11427855491638184
1772727881995609600,11.445609619140624,0.07452535629272461,-0.12443733215332031,0.0031735897064208984
1772727882005609500,11.455609375,0.1218419075012207,-0.050434112548828125,0.08262193202972412
1772727882015609600,11.465609619140626,0.10598921775817871,0.023321151733398438,0.09140777587890625
1772727882025609500,11.475609375,0.05406475067138672,0.05372810363769531,0.052809715270996094
1772727882035609600,11.485609619140625,0.043349504470825195,0.092803955078125,0.0447084903717041
1772727882045609500,11.495609375,0.03348517417907715,0.1612863540649414,0.053397178649902344
1772727882055609600,11.505609619140625,0.04044938087463379,0.2625446319580078,0.03521466255187988
1772727882065609500,11.515609375,-0.03772997856140137,0.32569026947021484,-0.04143810272216797
1772727882075609600,11.525609619140624,-0.11328721046447754,0.33257293701171875,-0.07265067100524902
1772727882085609500,11.535609375,-0.07001280784606934,0.3226766586303711,-0.02620089054107666
1772727882095609600,11.545609619140626,-0.05815839767456055,0.37086009979248047,-0.009203076362609863
1772727882105609500,11.555609375,-0.09115815162658691,0.4685783386230469,-0.00484919548034668
1772727882115609600,11.565609619140625,-0.17183828353881836,0.5600090026855469,0.12006616592407227
1772727882125609500,11.575609375,-0.03798341751098633,0.6211175918579102,0.12138152122497559
1772727882135609600,11.585609619140625,-0.043257713317871094,0.5857887268066406,-0.008540868759155273
1772727882145609500,11.595609375,-0.15076875686645508,0.5517263412475586,-0.025205492973327637
1772727882155609600,11.605609619140624,-0.2153947353363037,0.5833034515380859,-0.14447271823883057
1772727882165609500,11.615609375,-0.18270039558410645,0.5595426559448242,-0.22067081928253174
1772727882175609600,11.625609619140626,-0.20673227310180664,0.46691322326660156,-0.11651647090911865
1772727882185609500,11.635609375,-0.32384729385375977,0.41473865509033203,0.15201127529144287
1772727882195609600,11.645609619140625,-0.32350850105285645,0.39284801483154297,0.31635773181915283
1772727882205609500,11.655609375,-0.1828768253326416,0.3652191162109375,0.31818413734436035
1772727882215609600,11.665609619140625,-0.04609322547912598,0.42229747772216797,0.2630983591079712
1772727882225609500,11.675609375,0.01261591911315918,0.4817924499511719,0.2566537857055664
1772727882235609600,11.685609619140624,0.07440018653869629,0.4931068420410156,0.20780837535858154
1772727882245609500,11.695609375,0.0404970645904541,0.38298797607421875,0.0902940034866333
1772727882255609600,11.705609619140626,-0.11827445030212402,0.2754545211791992,-0.06910240650177002
1772727882265609500,11.715609375,-0.384066104888916,0.17557334899902344,-0.1657654047012329
1772727882275609600,11.725609619140625,-0.48770999908447266,0.09648799896240234,-0.16181683540344238
1772727882285609500,11.735609375,-0.3842809200286865,0.09566020965576172,-0.21709728240966797
1772727882295609600,11.745609619140625,-0.15354609489440918,0.2193164825439453,-0.2866849899291992
1772727882305609500,11.755609375,-0.044811248779296875,0.26773643493652344,-0.24849474430084229
1772727882315609600,11.765609619140625,-0.014768838882446289,0.14432621002197266,-0.1059190034866333
1772727882325609500,11.775609375,0.11164402961730957,-0.03784751892089844,-0.12082815170288086
1772727882335609600,11.785609619140626,0.10692143440246582,-0.23585224151611328,-0.1046978235244751
1772727882345609500,11.795609375,0.019130468368530273,-0.34105968475341797,0.024878859519958496
1772727882355609600,11.805609619140625,-0.16160154342651367,-0.327606201171875,0.1669224500656128
1772727882365609500,11.815609375,-0.1837146282196045,-0.3068819046020508,0.2963041067123413
1772727882375609600,11.825609619140625,-0.07587432861328125,-0.28424549102783203,0.19942891597747803
1772727882385609500,11.835609375,0.06863093376159668,-0.21490001678466797,-0.013841986656188965
1772727882395609600,11.845609619140625,0.1601102352142334,-0.1383342742919922,-0.2119218111038208
1772727882405609500,11.855609375,0.11947512626647949,-0.19319915771484375,-0.3341013193130493
1772727882415609600,11.865609619140624,-0.023668766021728516,-0.31797313690185547,-0.34894537925720215
1772727882425609500,11.875609375,-0.023244142532348633,-0.4209403991699219,-0.30832600593566895
1772727882435609600,11.885609619140626,0.03418922424316406,-0.4908170700073242,-0.19975221157073975
1772727882445609500,11.895609375,0.05153942108154297,-0.5425729751586914,-0.18292367458343506
1772727882455609600,11.905609619140625,0.015839338302612305,-0.5308122634887695,-0.14617466926574707
1772727882465609500,11.915609375,0.07999515533447266,-0.520625114440918,-0.02849709987640381
1772727882475609600,11.925609619140625,0.1574392318725586,-0.5140056610107422,-0.03180956840515137
1772727882485609500,11.935609375,0.21200156211853027,-0.5055809020996094,-0.05411124229431152
1772727882495609600,11.945609619140624,0.2261979579925537,-0.5318222045898438,-0.04905593395233154
1772727882505609500,11.955609375,0.2076714038848877,-0.5748777389526367,-0.0748145580291748
1772727882515609600,11.965609619140626,0.22973060607910156,-0.6370906829833984,-0.0892183780670166
1772727882525609500,11.975609375,0.30632519721984863,-0.6313800811767578,-0.10137391090393066
1772727882535609600,11.985609619140625,0.24695873260498047,-0.6065635681152344,-0.07431793212890625
1772727882545609500,11.995609375,0.18143200874328613,-0.5931377410888672,-0.059427499771118164
1772727882555609600,12.005609619140625,0.07417035102844238,-0.5842342376708984,-0.02635633945465088
1772727882565609500,12.015609375,0.04783940315246582,-0.5461196899414062,-0.02049386501312256
1772727882575609600,12.025609619140624,0.06641960144042969,-0.46971893310546875,-0.07411384582519531
1772727882585609500,12.035609375,0.15996789932250977,-0.39930248260498047,-0.15999901294708252
1772727882595609600,12.045609619140626,0.13384318351745605,-0.37075328826904297,-0.18062198162078857
1772727882605609500,12.055609375,0.1384263038635254,-0.3644533157348633,-0.16867876052856445
1772727882615609600,12.065609619140625,0.16794872283935547,-0.4149637222290039,-0.23622608184814453
1772727882625609500,12.075609375,0.19091129302978516,-0.4652433395385742,-0.28449320793151855
1772727882635609600,12.085609619140625,0.11124658584594727,-0.46268749237060547,-0.13412225246429443
1772727882645609500,12.095609375,0.04580378532409668,-0.4001140594482422,0.054631710052490234
1772727882655609600,12.105609619140624,0.05541419982910156,-0.27762794494628906,0.10937535762786865
1772727882665609500,12.115609375,0.020816326141357422,-0.13487720489501953,0.10742330551147461
1772727882675609600,12.125609619140626,-0.029353857040405273,0.026166915893554688,0.14873385429382324
1772727882685609500,12.135609375,0.0169985294342041,0.12827014923095703,0.2028658390045166
1772727882695609600,12.145609619140625,0.0911562442779541,0.12474727630615234,0.09717738628387451
1772727882705609500,12.155609375,0.04701685905456543,0.06658363342285156,-0.0844346284866333
1772727882715609600,12.165609619140625,-0.033664703369140625,0.041131019592285156,-0.21898841857910156
1772727882725609500,12.175609375,-0.1303858757019043,0.0813589096069336,-0.21395349502563477
1772727882735609600,12.185609619140624,-0.13223624229431152,0.19864940643310547,0.010541796684265137
1772727882745609500,12.195609375,-0.06801700592041016,0.41105175018310547,0.13040995597839355
1772727882755609600,12.205609619140626,-0.08521676063537598,0.6121912002563477,0.1807723045349121
1772727882765609500,12.215609375,-0.15037941932678223,0.7361392974853516,0.2299898862838745
1772727882775609600,12.225609619140625,-0.15427160263061523,0.7631797790527344,0.19550251960754395
1772727882785609500,12.235609375,-0.11266303062438965,0.7005014419555664,0.01612687110900879
1772727882795609600,12.245609619140625,-0.04206275939941406,0.6187305450439453,-0.16150140762329102
1772727882805609500,12.255609375,-0.12839961051940918,0.5717201232910156,-0.21081113815307617
1772727882815609600,12.265609619140625,-0.2441117763519287,0.5889825820922852,-0.06345236301422119
