time,seconds_elapsed,z,y,x
1772727870645609700,0.095609619140625,1.0552761554718018,9.559186935424805,1.9180015325546265
1772727870655609600,0.105609619140625,1.075893759727478,9.57536792755127,1.8235023021697998
1772727870665609700,0.115609619140625,1.0203425884246826,9.607996940612793,1.6779969930648804
1772727870675609600,0.125609619140625,0.972842276096344,9.642884254455566,1.4962449073791504
1772727870685609700,0.135609619140625,0.9038156270980835,9.676206588745117,1.313218116760254
1772727870695609600,0.145609619140625,0.8339630961418152,9.705389976501465,1.131509780883789
1772727870705609700,0.155609619140625,0.789240300655365,9.726848602294922,0.9674190282821655
1772727870715609600,0.165609619140625,0.7721593976020813,9.73995590209961,0.841087281703949
1772727870725609700,0.175609619140625,0.760939359664917,9.75027847290039,0.723495602607727
1772727870735609600,0.185609619140625,0.7468439936637878,9.759952545166016,0.5965911746025085
1772727870745609700,0.195609619140625,0.7224352955818176,9.769354820251465,0.45625993609428406
1772727870755609600,0.205609619140625,0.7006874680519104,9.776396751403809,0.31860819458961487
1772727870765609700,0.215609619140625,0.6917332410812378,9.780330657958984,0.19240085780620575
1772727870775609600,0.225609619140625,0.6973190307617188,9.781457901000977,0.08498049527406693
1772727870785609700,0.235609619140625,0.706335723400116,9.781167984008789,-0.015074468217790127
1772727870795609600,0.245609619140625,0.6908912658691406,9.781716346740723,-0.1052309200167656
1772727870805609700,0.255609619140625,0.6318174600601196,9.784873008728027,-0.16566723585128784
1772727870815609600,0.265609619140625,0.5251222252845764,9.790470123291016,-0.20328250527381897
1772727870825609700,0.275609619140625,0.38506603240966797,9.796576499938965,-0.22180919349193573
1772727870835609600,0.285609619140625,0.24345235526561737,9.800827026367188,-0.234304741024971
1772727870845609700,0.295609619140625,0.11493656039237976,9.803025245666504,-0.24056078493595123
1772727870855609600,0.305609619140625,0.010299963876605034,9.803489685058594,-0.24873030185699463
1772727870865609700,0.315609619140625,-0.08359122276306152,9.802835464477539,-0.26040226221084595
1772727870875609600,0.325609619140625,-0.16507554054260254,9.801959991455078,-0.2543799877166748
1772727870885609700,0.335609619140625,-0.23915356397628784,9.800712585449219,-0.24338148534297943
1772727870895609600,0.345609619140625,-0.3150418996810913,9.798821449279785,-0.23288564383983612
1772727870905609700,0.355609619140625,-0.3762940466403961,9.79733657836914,-0.20241378247737885
1772727870915609600,0.365609619140625,-0.42215728759765625,9.796317100524902,-0.15600557625293732
1772727870925609700,0.375609619140625,-0.4576663374900818,9.795608520507812,-0.08350307494401932
1772727870935609600,0.385609619140625,-0.4831676781177521,9.794722557067871,0.01865033619105816
1772727870945609700,0.395609619140625,-0.5069885849952698,9.792769432067871,0.12257907539606094
1772727870955609600,0.405609619140625,-0.5202209949493408,9.790409088134766,0.21832233667373657
1772727870965609700,0.415609619140625,-0.5145818591117859,9.78853702545166,0.30021989345550537
1772727870975609600,0.425609619140625,-0.4757213294506073,9.787927627563477,0.37489399313926697
1772727870985609700,0.435609619140625,-0.41489431262016296,9.787485122680664,0.4509811997413635
1772727870995609600,0.445609619140625,-0.33361488580703735,9.787124633789062,0.5208553671836853
1772727871005609700,0.455609619140625,-0.2411903291940689,9.786234855651855,0.5846530199050903
1772727871015609600,0.465609619140625,-0.13174688816070557,9.784236907958984,0.6494287848472595
1772727871025609700,0.475609619140625,-0.004127440974116325,9.780056953430176,0.7217006683349609
1772727871035609600,0.485609619140625,0.13498488068580627,9.772398948669434,0.8077056407928467
1772727871045609700,0.495609619140625,0.2719590365886688,9.761354446411133,0.901326596736908
1772727871055609600,0.505609619140625,0.39493152499198914,9.74831771850586,0.9923287034034729
1772727871065609700,0.515609619140625,0.5001242756843567,9.73470687866211,1.075048565864563
1772727871075609600,0.525609619140625,0.5817891955375671,9.721887588500977,1.1475178003311157
1772727871085609700,0.535609619140625,0.6379589438438416,9.710026741027832,1.2160571813583374
1772727871095609600,0.545609619140625,0.670598030090332,9.699073791503906,1.2839994430541992
1772727871105609700,0.555609619140625,0.6811179518699646,9.690946578979492,1.338669776916504
1772727871115609600,0.565609619140625,0.6702716946601868,9.685420989990234,1.3833801746368408
1772727871125609700,0.575609619140625,0.6482165455818176,9.681970596313477,1.4176201820373535
1772727871135609600,0.585609619140625,0.6180071830749512,9.678485870361328,1.454427719116211
1772727871145609700,0.595609619140625,0.585544764995575,9.670780181884766,1.5177414417266846
1772727871155609600,0.605609619140625,0.5667994618415833,9.657966613769531,1.6039990186691284
1772727871165609700,0.615609619140625,0.5530811548233032,9.642711639404297,1.697817325592041
1772727871175609600,0.625609619140625,0.5435256361961365,9.627758026123047,1.783608317375183
1772727871185609700,0.635609619140625,0.5265769958496094,9.613228797912598,1.8651936054229736
1772727871195609600,0.645609619140625,0.46535494923591614,9.597108840942383,1.9619725942611694
1772727871205609700,0.655609619140625,0.3511847257614136,9.581830978393555,2.0580525398254395
1772727871215609600,0.665609619140625,0.2084277719259262,9.566370010375977,2.147444725036621
1772727871225609700,0.675609619140625,0.05368872731924057,9.551227569580078,2.2229626178741455
1772727871235609600,0.685609619140625,-0.09874831140041351,9.537764549255371,2.278529167175293
1772727871245609700,0.695609619140625,-0.23814909160137177,9.526558876037598,2.3148117065429688
1772727871255609600,0.705609619140625,-0.36145609617233276,9.516910552978516,2.338406801223755
1772727871265609700,0.715609619140625,-0.47177597880363464,9.506922721862793,2.3592910766601562
1772727871275609600,0.725609619140625,-0.5762572288513184,9.49528694152832,2.382824182510376
1772727871285609700,0.735609619140625,-0.682433545589447,9.481164932250977,2.410848379135132
1772727871295609600,0.745609619140625,-0.7931229472160339,9.464400291442871,2.442636728286743
1772727871305609700,0.755609619140625,-0.9098734855651855,9.444165229797363,2.4799695014953613
1772727871315609600,0.765609619140625,-1.0286009311676025,9.420793533325195,2.522104263305664
1772727871325609700,0.775609619140625,-1.1474744081497192,9.395034790039062,2.566516637802124
1772727871335609600,0.785609619140625,-1.25987708568573,9.369935035705566,2.6052677631378174
1772727871345609700,0.795609619140625,-1.3561369180679321,9.347118377685547,2.6386842727661133
1772727871355609600,0.805609619140625,-1.4156676530838013,9.329349517822266,2.670114278793335
1772727871365609700,0.815609619140625,-1.4284029006958008,9.318975448608398,2.6993980407714844
1772727871375609600,0.825609619140625,-1.3911550045013428,9.317371368408203,2.7242722511291504
1772727871385609700,0.835609619140625,-1.3147491216659546,9.322260856628418,2.7454121112823486
1772727871395609600,0.845609619140625,-1.219393253326416,9.32886028289795,2.7669177055358887
1772727871405609700,0.855609619140625,-1.1280182600021362,9.333410263061523,2.790236711502075
1772727871415609600,0.865609619140625,-1.0558459758758545,9.336621284484863,2.8076796531677246
1772727871425609700,0.875609619140625,-1.0131031274795532,9.339223861694336,2.8147640228271484
1772727871435609600,0.885609619140625,-1.0086668729782104,9.340944290161133,2.810648202896118
1772727871445609700,0.895609619140625,-1.0300434827804565,9.342851638793945,2.7965152263641357
1772727871455609600,0.905609619140625,-1.059880018234253,9.346301078796387,2.7737534046173096
1772727871465609700,0.915609619140625,-1.0885504484176636,9.352048873901367,2.743107318878174
1772727871475609600,0.925609619140625,-1.1145107746124268,9.360196113586426,2.7046189308166504
1772727871485609700,0.935609619140625,-1.1394116878509521,9.370439529418945,2.6583828926086426
1772727871495609600,0.945609619140625,-1.1725691556930542,9.382515907287598,2.6007447242736816
1772727871505609700,0.955609619140625,-1.230556845664978,9.394084930419922,2.5312576293945312
1772727871515609600,0.965609619140625,-1.3226640224456787,9.402719497680664,2.4514920711517334
1772727871525609700,0.975609619140625,-1.4345741271972656,9.408169746398926,2.3661623001098633
1772727871535609600,0.985609619140625,-1.5534793138504028,9.409993171691895,2.2823517322540283
1772727871545609700,0.995609619140625,-1.684276819229126,9.40604305267334,2.2045328617095947
1772727871555609600,1.005609619140625,-1.8272268772125244,9.395298957824707,2.1354124546051025
1772727871565609700,1.015609619140625,-1.9814921617507935,9.37771987915039,2.0742342472076416
1772727871575609600,1.025609619140625,-2.1542036533355713,9.351447105407715,2.01995849609375
1772727871585609700,1.035609619140625,-2.3421146869659424,9.316728591918945,1.9706435203552246
1772727871595609600,1.045609619140625,-2.5604519844055176,9.268293380737305,1.9269713163375854
1772727871605609700,1.055609619140625,-2.802049160003662,9.206253051757812,1.887804627418518
1772727871615609600,1.065609619140625,-3.0574488639831543,9.130955696105957,1.856885313987732
1772727871625609700,1.075609619140625,-3.315307378768921,9.045123100280762,1.8343563079833984
1772727871635609600,1.085609619140625,-3.5615453720092773,8.954693794250488,1.816375970840454
1772727871645609700,1.095609619140625,-3.7784080505371094,8.86548900604248,1.8157999515533447
1772727871655609600,1.105609619140625,-3.9299139976501465,8.796798706054688,1.8282511234283447
1772727871665609700,1.115609619140625,-4.104483604431152,8.71417236328125,1.8403279781341553
1772727871675609600,1.125609619140625,-4.310669422149658,8.608710289001465,1.865106463432312
1772727871685609700,1.135609619140625,-4.511442184448242,8.49608039855957,1.906278133392334
1772727871695609600,1.145609619140625,-4.67367696762085,8.396577835083008,1.9556609392166138
1772727871705609700,1.155609619140625,-4.781752109527588,8.320450782775879,2.018747568130493
1772727871715609600,1.165609619140625,-4.836809158325195,8.272207260131836,2.0847628116607666
1772727871725609700,1.175609619140625,-4.844654560089111,8.25346565246582,2.1400973796844482
1772727871735609600,1.185609619140625,-4.811099052429199,8.264871597290039,2.1715478897094727
1772727871745609700,1.195609619140625,-4.7426228523254395,8.297929763793945,2.1959691047668457
1772727871755609600,1.205609619140625,-4.641030788421631,8.348430633544922,2.2214670181274414
1772727871765609700,1.215609619140625,-4.514706134796143,8.411665916442871,2.2431399822235107
1772727871775609600,1.225609619140625,-4.381496429443359,8.479616165161133,2.251438617706299
1772727871785609700,1.235609619140625,-4.255871295928955,8.545173645019531,2.2445404529571533
1772727871795609600,1.245609619140625,-4.141406059265137,8.606878280639648,2.2227883338928223
1772727871805609700,1.255609619140625,-4.04052209854126,8.663500785827637,2.1882221698760986
1772727871815609600,1.265609619140625,-3.9546220302581787,8.715543746948242,2.137908697128296
1772727871825609700,1.275609619140625,-3.882826566696167,8.762837409973145,2.075267791748047
1772727871835609600,1.285609619140625,-3.818387985229492,8.80801010131836,2.002312183380127
1772727871845609700,1.295609619140625,-3.7524800300598145,8.8557767868042,1.9142918586730957
1772727871855609600,1.305609619140625,-3.676952362060547,8.907753944396973,1.8172274827957153
1772727871865609700,1.315609619140625,-3.5811922550201416,8.964823722839355,1.72550630569458
1772727871875609600,1.325609619140625,-3.459292411804199,9.02780532836914,1.6439032554626465
1772727871885609700,1.335609619140625,-3.3166892528533936,9.092690467834473,1.5789058208465576
1772727871895609600,1.345609619140625,-3.1663060188293457,9.154778480529785,1.5280485153198242
1772727871905609700,1.355609619140625,-3.0293221473693848,9.20824146270752,1.483877420425415
1772727871915609600,1.365609619140625,-2.927123546600342,9.245141983032227,1.4593442678451538
1772727871925609700,1.375609619140625,-2.8709750175476074,9.259615898132324,1.4789910316467285
1772727871935609600,1.385609619140625,-2.8593502044677734,9.254350662231445,1.5334590673446655
1772727871945609700,1.395609619140625,-2.8861515522003174,9.235234260559082,1.5971760749816895
1772727871955609600,1.405609619140625,-2.9240872859954834,9.21222972869873,1.6597999334335327
1772727871965609700,1.415609619140625,-2.939584255218506,9.196810722351074,1.7169456481933594
1772727871975609600,1.425609619140625,-2.9297733306884766,9.192679405212402,1.7554055452346802
1772727871985609700,1.435609619140625,-2.9143691062927246,9.193734169006348,1.7754143476486206
1772727871995609600,1.445609619140625,-2.9070560932159424,9.19507884979248,1.7804301977157593
1772727872005609700,1.455609619140625,-2.9124667644500732,9.19410228729248,1.7766306400299072
1772727872015609600,1.465609619140625,-2.924445629119873,9.19117546081543,1.7720870971679688
1772727872025609700,1.475609619140625,-2.9313533306121826,9.18967056274414,1.7684743404388428
1772727872035609600,1.485609619140625,-2.932138442993164,9.189873695373535,1.7661199569702148
1772727872045609700,1.495609619140625,-2.931473731994629,9.190146446228027,1.7658023834228516
1772727872055609600,1.505609619140625,-2.9336681365966797,9.189064979553223,1.7677814960479736
1772727872065609700,1.515609619140625,-2.939087152481079,9.186639785766602,1.7713878154754639
1772727872075609600,1.525609619140625,-2.9449305534362793,9.183935165405273,1.7757022380828857
1772727872085609700,1.535609619140625,-2.9484763145446777,9.181992530822754,1.7798526287078857
1772727872095609600,1.545609619140625,-2.950418710708618,9.180727005004883,1.7831639051437378
1772727872105609700,1.555609619140625,-2.9531679153442383,9.179370880126953,1.7855972051620483
1772727872115609600,1.565609619140625,-2.9569780826568604,9.177968978881836,1.7864903211593628
1772727872125609700,1.575609619140625,-2.9605820178985596,9.176968574523926,1.7856625318527222
1772727872135609600,1.585609619140625,-2.9634850025177,9.176433563232422,1.7835949659347534
1772727872145609700,1.595609619140625,-2.96563458442688,9.176167488098145,1.7813849449157715
1772727872155609600,1.605609619140625,-2.967073917388916,9.176023483276367,1.7797348499298096
1772727872165609700,1.615609619140625,-2.968576192855835,9.17573356628418,1.7787243127822876
1772727872175609600,1.625609619140625,-2.970867395401001,9.175090789794922,1.7782121896743774
1772727872185609700,1.635609619140625,-2.9736135005950928,9.174117088317871,1.7786459922790527
1772727872195609600,1.645609619140625,-2.9756131172180176,9.173248291015625,1.7797852754592896
1772727872205609700,1.655609619140625,-2.977031707763672,9.172433853149414,1.7816061973571777
1772727872215609600,1.665609619140625,-2.9777231216430664,9.171818733215332,1.7836178541183472
1772727872225609700,1.675609619140625,-2.9770333766937256,9.171808242797852,1.7848198413848877
1772727872235609600,1.685609619140625,-2.9757347106933594,9.172168731689453,1.7851349115371704
1772727872245609700,1.695609619140625,-2.9748659133911133,9.172540664672852,1.7846721410751343
1772727872255609600,1.705609619140625,-2.974597692489624,9.172857284545898,1.7834872007369995
1772727872265609700,1.715609619140625,-2.974686861038208,9.173116683959961,1.7820079326629639
1772727872275609600,1.725609619140625,-2.975140333175659,9.173206329345703,1.7807902097702026
1772727872285609700,1.735609619140625,-2.975883960723877,9.173182487487793,1.779671311378479
1772727872295609600,1.745609619140625,-2.9763495922088623,9.173239707946777,1.778595209121704
1772727872305609700,1.755609619140625,-2.976344108581543,9.173407554626465,1.7777423858642578
1772727872315609600,1.765609619140625,-2.9762349128723145,9.173480033874512,1.7775477170944214
1772727872325609700,1.775609619140625,-2.9760310649871826,9.173492431640625,1.7778245210647583
1772727872335609600,1.785609619140625,-2.976273775100708,9.173423767089844,1.777775526046753
1772727872345609700,1.795609619140625,-2.976546287536621,9.173423767089844,1.7773194313049316
1772727872355609600,1.805609619140625,-2.975872278213501,9.173822402954102,1.7763880491256714
1772727872365609700,1.815609619140625,-2.974308490753174,9.174543380737305,1.7752835750579834
1772727872375609600,1.825609619140625,-2.9721624851226807,9.17546558380127,1.7741049528121948
1772727872385609700,1.835609619140625,-2.9701101779937744,9.176486015319824,1.7722667455673218
1772727872395609600,1.845609619140625,-2.9688456058502197,9.177297592163086,1.770187497138977
1772727872405609700,1.855609619140625,-2.9684078693389893,9.177763938903809,1.7684956789016724
1772727872415609600,1.865609619140625,-2.968459367752075,9.17796516418457,1.7673699855804443
1772727872425609700,1.875609619140625,-2.96858549118042,9.177984237670898,1.7670570611953735
1772727872435609600,1.885609619140625,-2.968200206756592,9.177974700927734,1.767754077911377
1772727872445609700,1.895609619140625,-2.9670393466949463,9.178135871887207,1.768866777420044
1772727872455609600,1.905609619140625,-2.9648494720458984,9.178637504577637,1.7699285745620728
1772727872465609700,1.915609619140625,-2.95969820022583,9.17980670928955,1.7724835872650146
1772727872475609600,1.925609619140625,-2.953268051147461,9.18183422088623,1.772719383239746
1772727872485609700,1.935609619140625,-2.947089195251465,9.184222221374512,1.7706220149993896
1772727872495609600,1.945609619140625,-2.943560838699341,9.186355590820312,1.7654260396957397
1772727872505609700,1.955609619140625,-2.943770408630371,9.187938690185547,1.756809115409851
1772727872515609600,1.965609619140625,-2.945754051208496,9.189367294311523,1.74598228931427
1772727872525609700,1.975609619140625,-2.947404384613037,9.190738677978516,1.7359484434127808
1772727872535609600,1.985609619140625,-2.948066473007202,9.192048072814941,1.7278766632080078
1772727872545609700,1.995609619140625,-2.9491381645202637,9.192530632019043,1.7234678268432617
1772727872555609600,2.005609619140625,-2.9500999450683594,9.19225025177002,1.7233203649520874
1772727872565609700,2.015609619140625,-2.9500818252563477,9.191719055175781,1.7261837720870972
1772727872575609600,2.025609619140625,-2.949225902557373,9.191326141357422,1.7297310829162598
1772727872585609700,2.035609619140625,-2.949343204498291,9.190765380859375,1.7325153350830078
1772727872595609600,2.045609619140625,-2.9537127017974854,9.188913345336914,1.734889030456543
1772727872605609700,2.055609619140625,-2.959841251373291,9.186639785766602,1.736487627029419
1772727872615609600,2.065609619140625,-2.9657392501831055,9.184708595275879,1.7366408109664917
1772727872625609700,2.075609619140625,-2.9700376987457275,9.1834077835083,1.7361661195755005
1772727872635609600,2.085609619140625,-2.9745965003967285,9.182037353515625,1.735613226890564
1772727872645609700,2.095609619140625,-2.9791100025177,9.180681228637695,1.7350451946258545
1772727872655609600,2.105609619140625,-2.9836692810058594,9.179141998291016,1.7353543043136597
1772727872665609700,2.115609619140625,-2.98865008354187,9.177255630493164,1.7367563247680664
1772727872675609600,2.125609619140625,-2.993936777114868,9.175232887268066,1.7383408546447754
1772727872685609700,2.135609619140625,-2.9983651638031006,9.173580169677734,1.7394312620162964
1772727872695609600,2.145609619140625,-3.003190517425537,9.172013282775879,1.7393684387207031
1772727872705609700,2.155609619140625,-3.009037494659424,9.170419692993164,1.7376697063446045
1772727872715609600,2.165609619140625,-3.017113447189331,9.168526649475098,1.7336493730545044
1772727872725609700,2.175609619140625,-3.026669979095459,9.166282653808594,1.7288477420806885
1772727872735609600,2.185609619140625,-3.036923885345459,9.163576126098633,1.7252079248428345
1772727872745609700,2.195609619140625,-3.0463454723358154,9.160941123962402,1.7225879430770874
1772727872755609600,2.205609619140625,-3.054671049118042,9.158378601074219,1.72147798538208
1772727872765609700,2.215609619140625,-3.0612475872039795,9.156167030334473,1.721552848815918
1772727872775609600,2.225609619140625,-3.065706253051758,9.154468536376953,1.722652554512024
1772727872785609700,2.235609619140625,-3.067697286605835,9.1536865234375,1.7232682704925537
1772727872795609600,2.245609619140625,-3.069538116455078,9.153209686279297,1.7225193977355957
1772727872805609700,2.255609619140625,-3.073960065841675,9.15189266204834,1.7216299772262573
1772727872815609600,2.265609619140625,-3.082824945449829,9.148807525634766,1.722177505493164
1772727872825609700,2.275609619140625,-3.0948500633239746,9.144220352172852,1.7249724864959717
1772727872835609600,2.285609619140625,-3.105175733566284,9.139718055725098,1.7302619218826294
1772727872845609700,2.295609619140625,-3.109031915664673,9.137350082397461,1.7358413934707642
1772727872855609600,2.305609619140625,-3.1085121631622314,9.13698959350586,1.7386643886566162
1772727872865609700,2.315609619140625,-3.1105246543884277,9.136186599731445,1.7392839193344116
1772727872875609600,2.325609619140625,-3.1171395778656006,9.134323120117188,1.7372299432754517
1772727872885609700,2.335609619140625,-3.125499725341797,9.132174491882324,1.7335009574890137
1772727872895609600,2.345609619140625,-3.1300907135009766,9.131556510925293,1.7284668684005737
1772727872905609700,2.355609619140625,-3.132780075073242,9.132061004638672,1.7209149599075317
1772727872915609600,2.365609619140625,-3.139153242111206,9.131002426147461,1.7149064540863037
1772727872925609700,2.375609619140625,-3.145374298095703,9.129400253295898,1.7120341062545776
1772727872935609600,2.385609619140625,-3.147477865219116,9.128741264343262,1.7116814851760864
1772727872945609700,2.395609619140625,-3.1470744609832764,9.128557205200195,1.7134032249450684
1772727872955609600,2.405609619140625,-3.149785280227661,9.126914978027344,1.7171696424484253
1772727872965609700,2.415609619140625,-3.155460834503174,9.124018669128418,1.7221282720565796
1772727872975609600,2.425609619140625,-3.160834550857544,9.121235847473145,1.72700834274292
1772727872985609700,2.435609619140625,-3.1642868518829346,9.119433403015137,1.7302030324935913
1772727872995609600,2.445609619140625,-3.1665194034576416,9.118620872497559,1.730406403541565
1772727873005609700,2.455609619140625,-3.1674270629882812,9.118650436401367,1.7285890579223633
1772727873015609600,2.465609619140625,-3.166886329650879,9.119379043579102,1.7257280349731445
1772727873025609700,2.475609619140625,-3.16512131690979,9.12070083618164,1.7219794988632202
1772727873035609600,2.485609619140625,-3.1654655933380127,9.121012687683105,1.719695806503296
1772727873045609700,2.495609619140625,-3.1680803298950195,9.119826316833496,1.7211700677871704
1772727873055609600,2.505609619140625,-3.1704084873199463,9.118027687072754,1.7264010906219482
1772727873065609700,2.515609619140625,-3.1703054904937744,9.116689682006836,1.7336416244506836
1772727873075609600,2.525609619140625,-3.1686601638793945,9.116006851196289,1.7402297258377075
1772727873085609700,2.535609619140625,-3.1665186882019043,9.11585807800293,1.7448976039886475
1772727873095609600,2.545609619140625,-3.162053108215332,9.117308616638184,1.7454169988632202
1772727873105609700,2.555609619140625,-3.1576035022735596,9.11971664428711,1.740892767906189
1772727873115609600,2.565609619140625,-3.1557412147521973,9.122007369995117,1.7322393655776978
1772727873125609700,2.575609619140625,-3.155449628829956,9.124259948730469,1.7208759784698486
1772727873135609600,2.585609619140625,-3.155372381210327,9.126433372497559,1.7094552516937256
1772727873145609700,2.595609619140625,-3.1551272869110107,9.12790298461914,1.7020398378372192
1772727873155609600,2.605609619140625,-3.1536779403686523,9.128667831420898,1.7006242275238037
1772727873165609700,2.615609619140625,-3.1494152545928955,9.129547119140625,1.703805923461914
1772727873175609600,2.625609619140625,-3.1430768966674805,9.130621910095215,1.7097346782684326
1772727873185609700,2.635609619140625,-3.137296676635742,9.13121509552002,1.717173457145691
1772727873195609600,2.645609619140625,-3.131685733795166,9.131914138793945,1.7236815690994263
1772727873205609700,2.655609619140625,-3.125225782394409,9.133271217346191,1.7282131910324097
1772727873215609600,2.665609619140625,-3.1197640895843506,9.135169982910156,1.7280378341674805
1772727873225609700,2.675609619140625,-3.1171467304229736,9.136735916137695,1.724488615989685
1772727873235609600,2.685609619140625,-3.115138292312622,9.138012886047363,1.7213413715362549
1772727873245609700,2.695609619140625,-3.111708879470825,9.139665603637695,1.7187682390213013
1772727873255609600,2.705609619140625,-3.1062681674957275,9.141857147216797,1.7169570922851562
1772727873265609700,2.715609619140625,-3.1001694202423096,9.144161224365234,1.7157093286514282
1772727873275609600,2.725609619140625,-3.094419240951538,9.146554946899414,1.7133314609527588
1772727873285609700,2.735609619140625,-3.091500997543335,9.14844036102295,1.7085222005844116
1772727873295609600,2.745609619140625,-3.093076705932617,9.14902400970459,1.7025353908538818
1772727873305609700,2.755609619140625,-3.096165180206299,9.149028778076172,1.6968872547149658
1772727873315609600,2.765609619140625,-3.0984623432159424,9.149126052856445,1.692162275314331
1772727873325609700,2.775609619140625,-3.10184383392334,9.148506164550781,1.6893175840377808
1772727873335609600,2.785609619140625,-3.106642484664917,9.146992683410645,1.6886893510818481
1772727873345609700,2.795609619140625,-3.1092169284820557,9.145801544189453,1.690408706665039
1772727873355609600,2.805609619140625,-3.107701063156128,9.145527839660645,1.69467031955719
1772727873365609700,2.815609619140625,-3.1054189205169678,9.1450834274292,1.7012348175048828
1772727873375609600,2.825609619140625,-3.1055076122283936,9.143609046936035,1.7089842557907104
1772727873385609700,2.835609619140625,-3.1062428951263428,9.142033576965332,1.7160613536834717
1772727873395609600,2.845609619140625,-3.108644723892212,9.140585899353027,1.719417691230774
1772727873405609700,2.855609619140625,-3.11436128616333,9.138556480407715,1.7198652029037476
1772727873415609600,2.865609619140625,-3.1210923194885254,9.136748313903809,1.7172638177871704
1772727873425609700,2.875609619140625,-3.1279871463775635,9.134991645812988,1.7140614986419678
1772727873435609600,2.885609619140625,-3.1345624923706055,9.133199691772461,1.7115988731384277
1772727873445609700,2.895609619140625,-3.140965223312378,9.131319046020508,1.7098931074142456
1772727873455609600,2.905609619140625,-3.1455509662628174,9.12993335723877,1.708862066268921
1772727873465609700,2.915609619140625,-3.1494686603546143,9.128586769104004,1.7088371515274048
1772727873475609600,2.925609619140625,-3.153134822845459,9.127168655395508,1.7096511125564575
1772727873485609700,2.935609619140625,-3.1546173095703125,9.12632942199707,1.7114018201828003
1772727873495609600,2.945609619140625,-3.1551878452301025,9.125656127929688,1.7139381170272827
1772727873505609700,2.955609619140625,-3.156705617904663,9.124792098999023,1.7157378196716309
1772727873515609600,2.965609619140625,-3.1585822105407715,9.124303817749023,1.7148807048797607
1772727873525609700,2.975609619140625,-3.1609721183776855,9.123974800109863,1.7122265100479126
1772727873535609600,2.985609619140625,-3.1629929542541504,9.123682022094727,1.7100580930709839
1772727873545609700,2.995609619140625,-3.168335437774658,9.121814727783203,1.7101269960403442
1772727873555609600,3.005609619140625,-3.175445318222046,9.118776321411133,1.7131412029266357
1772727873565609700,3.015609619140625,-3.1768815517425537,9.117533683776855,1.7170859575271606
1772727873575609600,3.025609619140625,-3.1726081371307373,9.118454933166504,1.7200942039489746
1772727873585609700,3.035609619140625,-3.168250799179077,9.119680404663086,1.7216280698776245
1772727873595609600,3.045609619140625,-3.1666600704193115,9.12037181854248,1.7208950519561768
1772727873605609700,3.055609619140625,-3.165436267852783,9.121511459350586,1.7170979976654053
1772727873615609600,3.065609619140625,-3.1651623249053955,9.12275505065918,1.710986614227295
1772727873625609700,3.075609619140625,-3.1680054664611816,9.122730255126953,1.7058463096618652
1772727873635609600,3.085609619140625,-3.1724507808685303,9.121585845947266,1.7037097215652466
1772727873645609700,3.095609619140625,-3.1741714477539062,9.121068954467773,1.7032705545425415
1772727873655609600,3.105609619140625,-3.172182559967041,9.121393203735352,1.7052360773086548
1772727873665609700,3.115609619140625,-3.167670726776123,9.12231159210205,1.7087104320526123
1772727873675609600,3.125609619140625,-3.1620888710021973,9.123716354370117,1.7115446329116821
1772727873685609700,3.135609619140625,-3.158914089202881,9.12479019165039,1.7116851806640625
1772727873695609600,3.145609619140625,-3.159663438796997,9.124332427978516,1.7127389907836914
1772727873705609700,3.155609619140625,-3.1560301780700684,9.125214576721191,1.7147334814071655
1772727873715609600,3.165609619140625,-3.1488356590270996,9.127799034118652,1.7142080068588257
1772727873725609700,3.175609619140625,-3.1436264514923096,9.13032054901123,1.7103323936462402
1772727873735609600,3.185609619140625,-3.1406171321868896,9.132451057434082,1.704477071762085
1772727873745609700,3.195609619140625,-3.137166976928711,9.134599685668945,1.699313998222351
1772727873755609600,3.205609619140625,-3.1317849159240723,9.136655807495117,1.6981828212738037
1772727873765609700,3.215609619140625,-3.1255033016204834,9.138513565063477,1.699755311012268
1772727873775609600,3.225609619140625,-3.1224193572998047,9.139165878295898,1.701925277709961
1772727873785609700,3.235609619140625,-3.1210644245147705,9.139111518859863,1.7046968936920166
1772727873795609600,3.245609619140625,-3.11702823638916,9.139913558959961,1.7077789306640625
1772727873805609700,3.255609619140625,-3.1106793880462646,9.141664505004883,1.7099803686141968
1772727873815609600,3.265609619140625,-3.1042232513427734,9.143857955932617,1.709982991218567
1772727873825609700,3.275609619140625,-3.0989534854888916,9.146051406860352,1.707810878753662
1772727873835609600,3.285609619140625,-3.093294620513916,9.148838996887207,1.7031350135803223
1772727873845609700,3.295609619140625,-3.088730573654175,9.151626586914062,1.696431040763855
1772727873855609600,3.305609619140625,-3.086123466491699,9.153289794921875,1.692193627357483
1772727873865609700,3.315609619140625,-3.0841481685638428,9.153793334960938,1.6930710077285767
1772727873875609600,3.325609619140625,-3.0813727378845215,9.153825759887695,1.6979423761367798
1772727873885609700,3.335609619140625,-3.078171730041504,9.153861045837402,1.7035446166992188
1772727873895609600,3.345609619140625,-3.0757248401641846,9.153886795043945,1.7078299522399902
1772727873905609700,3.355609619140625,-3.07365083694458,9.154041290283203,1.7107235193252563
1772727873915609600,3.365609619140625,-3.0711863040924072,9.15475082397461,1.7113533020019531
1772727873925609700,3.375609619140625,-3.0700695514678955,9.155548095703125,1.7090893983840942
1772727873935609600,3.385609619140625,-3.0744569301605225,9.154767036437988,1.705381155014038
1772727873945609700,3.395609619140625,-3.080127239227295,9.153767585754395,1.7005126476287842
1772727873955609600,3.405609619140625,-3.0826187133789062,9.154064178466797,1.6943939924240112
1772727873965609700,3.415609619140625,-3.081512451171875,9.155701637268066,1.6875407695770264
1772727873975609600,3.425609619140625,-3.0792031288146973,9.15746784210205,1.6821612119674683
1772727873985609700,3.435609619140625,-3.075685501098633,9.158841133117676,1.6811249256134033
1772727873995609600,3.445609619140625,-3.0715394020080566,9.159838676452637,1.6832633018493652
1772727874005609700,3.455609619140625,-3.070669651031494,9.159547805786133,1.6864383220672607
1772727874015609600,3.465609619140625,-3.0728676319122314,9.158221244812012,1.6896345615386963
1772727874025609700,3.475609619140625,-3.0761351585388184,9.15634822845459,1.6938352584838867
1772727874035609600,3.485609619140625,-3.0798285007476807,9.154165267944336,1.6989128589630127
1772727874045609700,3.495609619140625,-3.0841212272644043,9.151618003845215,1.7048386335372925
1772727874055609600,3.505609619140625,-3.0866847038269043,9.150032997131348,1.7086997032165527
1772727874065609700,3.515609619140625,-3.0872035026550293,9.150125503540039,1.7072629928588867
1772727874075609600,3.525609619140625,-3.087813138961792,9.150832176208496,1.7023710012435913
1772727874085609700,3.535609619140625,-3.0896403789520264,9.151359558105469,1.696211338043213
1772727874095609600,3.545609619140625,-3.092987060546875,9.151127815246582,1.6913573741912842
1772727874105609700,3.555609619140625,-3.0965514183044434,9.150410652160645,1.6887073516845703
1772727874115609600,3.565609619140625,-3.1004698276519775,9.14956283569336,1.6861131191253662
1772727874125609700,3.575609619140625,-3.1080148220062256,9.147359848022461,1.6841715574264526
1772727874135609600,3.585609619140625,-3.115510940551758,9.144311904907227,1.6868739128112793
1772727874145609700,3.595609619140625,-3.1196138858795166,9.14203929901123,1.6916037797927856
1772727874155609600,3.605609619140625,-3.123303174972534,9.140013694763184,1.695736289024353
1772727874165609700,3.615609619140625,-3.126316785812378,9.13890266418457,1.6961694955825806
1772727874175609600,3.625609619140625,-3.128143548965454,9.138667106628418,1.6940706968307495
1772727874185609700,3.635609619140625,-3.1285855770111084,9.138669967651367,1.6932411193847656
1772727874195609600,3.645609619140625,-3.128654718399048,9.13838005065918,1.6946743726730347
1772727874205609700,3.655609619140625,-3.1304378509521484,9.137585639953613,1.6956571340560913
1772727874215609600,3.665609619140625,-3.136237144470215,9.135330200195312,1.6971006393432617
1772727874225609700,3.675609619140625,-3.142364025115967,9.132841110229492,1.6991573572158813
1772727874235609600,3.685609619140625,-3.144878387451172,9.131613731384277,1.7011022567749023
1772727874245609700,3.695609619140625,-3.1436541080474854,9.131847381591797,1.7021129131317139
1772727874255609600,3.705609619140625,-3.1436843872070312,9.132089614868164,1.7007617950439453
1772727874265609700,3.715609619140625,-3.146451711654663,9.131513595581055,1.6987318992614746
1772727874275609600,3.725609619140625,-3.1485085487365723,9.13145923614502,1.6952122449874878
1772727874285609700,3.735609619140625,-3.153347969055176,9.13077449798584,1.6898916959762573
1772727874295609600,3.745609619140625,-3.161314010620117,9.128931999206543,1.6849571466445923
1772727874305609700,3.755609619140625,-3.168607473373413,9.127015113830566,1.6816352605819702
1772727874315609600,3.765609619140625,-3.174204111099243,9.12508773803711,1.6815431118011475
1772727874325609700,3.775609619140625,-3.1794779300689697,9.122818946838379,1.6838874816894531
1772727874335609600,3.785609619140625,-3.1847972869873047,9.120325088500977,1.6873432397842407
1772727874345609700,3.795609619140625,-3.1880950927734375,9.118681907653809,1.6899919509887695
1772727874355609600,3.805609619140625,-3.1907575130462646,9.117408752441406,1.691838026046753
1772727874365609700,3.815609619140625,-3.193995475769043,9.115736961364746,1.6947311162948608
1772727874375609600,3.825609619140625,-3.1979470252990723,9.113637924194336,1.6985666751861572
1772727874385609700,3.835609619140625,-3.20245361328125,9.111252784729004,1.7028671503067017
1772727874395609600,3.845609619140625,-3.2063376903533936,9.10897445678711,1.7077381610870361
1772727874405609700,3.855609619140625,-3.207754373550415,9.107762336730957,1.7115384340286255
1772727874415609600,3.865609619140625,-3.2060046195983887,9.108094215393066,1.7130508422851562
1772727874425609700,3.875609619140625,-3.2038042545318604,9.108734130859375,1.7137632369995117
1772727874435609600,3.885609619140625,-3.2038161754608154,9.108512878417969,1.714914083480835
1772727874445609700,3.895609619140625,-3.2055435180664062,9.107912063598633,1.7148820161819458
1772727874455609600,3.905609619140625,-3.2064247131347656,9.107962608337402,1.7129578590393066
1772727874465609700,3.915609619140625,-3.2055230140686035,9.109199523925781,1.7080682516098022
1772727874475609600,3.925609619140625,-3.205256700515747,9.11043930053711,1.7019463777542114
1772727874485609700,3.935609619140625,-3.2054758071899414,9.111075401306152,1.6981210708618164
1772727874495609600,3.945609619140625,-3.2028725147247314,9.112360000610352,1.6961413621902466
1772727874505609700,3.955609619140625,-3.19793963432312,9.114296913146973,1.695045828819275
1772727874515609600,3.965609619140625,-3.194342613220215,9.115411758422852,1.695826530456543
1772727874525609700,3.975609619140625,-3.192998170852661,9.115288734436035,1.6990206241607666
1772727874535609600,3.985609619140625,-3.1904542446136475,9.115015983581543,1.7052539587020874
1772727874545609700,3.995609619140625,-3.1859240531921387,9.115289688110352,1.7122410535812378
1772727874555609600,4.005609619140625,-3.184260129928589,9.114898681640625,1.7174123525619507
1772727874565609700,4.015609619140625,-3.188140630722046,9.112971305847168,1.7204346656799316
1772727874575609600,4.025609619140625,-3.1912810802459717,9.111533164978027,1.722231388092041
1772727874585609700,4.035609619140625,-3.1888983249664307,9.112588882446289,1.7210606336593628
1772727874595609600,4.045609619140625,-3.183697462081909,9.115279197692871,1.7164294719696045
1772727874605609700,4.055609619140625,-3.1797471046447754,9.118043899536133,1.7090580463409424
1772727874615609600,4.065609619140625,-3.179205894470215,9.119589805603027,1.7018004655838013
1772727874625609700,4.075609619140625,-3.1781468391418457,9.12052059173584,1.698786973953247
1772727874635609600,4.085609619140625,-3.1737074851989746,9.122239112854004,1.697852611541748
1772727874645609700,4.095609619140625,-3.1695775985717773,9.123638153076172,1.6980611085891724
1772727874655609600,4.105609619140625,-3.1676511764526367,9.123856544494629,1.7004772424697876
1772727874665609700,4.115609619140625,-3.166459083557129,9.12326431274414,1.7058652639389038
1772727874675609600,4.125609619140625,-3.163426399230957,9.123254776000977,1.711531400680542
1772727874685609700,4.135609619140625,-3.1584815979003906,9.124374389648438,1.7146915197372437
1772727874695609600,4.145609619140625,-3.1541225910186768,9.125700950622559,1.7156579494476318
1772727874705609700,4.155609619140625,-3.151413679122925,9.126508712768555,1.7163385152816772
1772727874715609600,4.165609619140625,-3.1499698162078857,9.126997947692871,1.7163832187652588
1772727874725609700,4.175609619140625,-3.1477580070495605,9.12849235534668,1.7124950885772705
1772727874735609600,4.185609619140625,-3.1466333866119385,9.129923820495605,1.7069194316864014
1772727874745609700,4.195609619140625,-3.1457161903381348,9.13086223602295,1.7035855054855347
1772727874755609600,4.205609619140625,-3.1423776149749756,9.132095336914062,1.703139066696167
1772727874765609700,4.215609619140625,-3.138732671737671,9.133131980895996,1.704304575920105
1772727874775609600,4.225609619140625,-3.136251449584961,9.134033203125,1.7040410041809082
1772727874785609700,4.235609619140625,-3.136645793914795,9.13434886932373,1.7016184329986572
1772727874795609600,4.245609619140625,-3.138413906097412,9.134142875671387,1.6994633674621582
1772727874805609700,4.255609619140625,-3.136052131652832,9.135239601135254,1.6979312896728516
1772727874815609600,4.265609619140625,-3.1304991245269775,9.13735294342041,1.6968034505844116
1772727874825609700,4.275609619140625,-3.1264731884002686,9.138571739196777,1.6976665258407593
1772727874835609600,4.285609619140625,-3.1263539791107178,9.138099670410156,1.7004245519638062
1772727874845609700,4.295609619140625,-3.128032684326172,9.136921882629395,1.7036586999893188
1772727874855609600,4.305609619140625,-3.1287970542907715,9.13607406616211,1.706801414489746
1772727874865609700,4.315609619140625,-3.125845432281494,9.1369047164917,1.707767367362976
1772727874875609600,4.325609619140625,-3.1237335205078125,9.137565612792969,1.7080901861190796
1772727874885609700,4.335609619140625,-3.1247398853302,9.137227058410645,1.7080590724945068
1772727874895609600,4.345609619140625,-3.1262001991271973,9.137045860290527,1.706356167793274
1772727874905609700,4.355609619140625,-3.1257717609405518,9.13788890838623,1.7026227712631226
1772727874915609600,4.365609619140625,-3.1269354820251465,9.138143539428711,1.6991169452667236
1772727874925609700,4.375609619140625,-3.1322829723358154,9.136558532714844,1.6977859735488892
1772727874935609600,4.385609619140625,-3.1367619037628174,9.134835243225098,1.6987934112548828
1772727874945609700,4.395609619140625,-3.13779354095459,9.134053230285645,1.701093316078186
1772727874955609600,4.405609619140625,-3.136744260787964,9.13405704498291,1.7030012607574463
1772727874965609700,4.415609619140625,-3.135507822036743,9.134291648864746,1.7040257453918457
1772727874975609600,4.425609619140625,-3.135089635848999,9.134505271911621,1.7036453485488892
1772727874985609700,4.435609619140625,-3.137005567550659,9.134119033813477,1.7021898031234741
1772727874995609600,4.445609619140625,-3.141756534576416,9.132478713989258,1.7022308111190796
1772727875005609700,4.455609619140625,-3.1484429836273193,9.129612922668457,1.7052479982376099
1772727875015609600,4.465609619140625,-3.153809070587158,9.126633644104004,1.711262583732605
1772727875025609700,4.475609619140625,-3.152759552001953,9.125879287719727,1.7172105312347412
1772727875035609600,4.485609619140625,-3.1485674381256104,9.126937866210938,1.7192760705947876
1772727875045609700,4.495609619140625,-3.147057294845581,9.127771377563477,1.7176141738891602
1772727875055609600,4.505609619140625,-3.149477005004883,9.127737045288086,1.7133578062057495
1772727875065609700,4.515609619140625,-3.1514456272125244,9.128397941589355,1.7061983346939087
1772727875075609600,4.525609619140625,-3.152362585067749,9.130043983459473,1.695665717124939
1772727875085609700,4.535609619140625,-3.1576149463653564,9.13015365600586,1.685279369354248
1772727875095609600,4.545609619140625,-3.1658527851104736,9.128667831420898,1.6778514385223389
1772727875105609700,4.555609619140625,-3.1724765300750732,9.126717567443848,1.675950288772583
1772727875115609600,4.565609619140625,-3.176632881164551,9.124164581298828,1.6819676160812378
1772727875125609700,4.575609619140625,-3.177328109741211,9.121500968933105,1.6950527429580688
1772727875135609600,4.585609619140625,-3.1744487285614014,9.119521141052246,1.711020588874817
1772727875145609700,4.595609619140625,-3.170941114425659,9.118093490600586,1.7250752449035645
1772727875155609600,4.605609619140625,-3.1700401306152344,9.116463661193848,1.7353167533874512
1772727875165609700,4.615609619140625,-3.17165207862854,9.114693641662598,1.7416542768478394
1772727875175609600,4.625609619140625,-3.1732289791107178,9.11396598815918,1.7425925731658936
1772727875185609700,4.635609619140625,-3.1745734214782715,9.115187644958496,1.7337266206741333
1772727875195609600,4.645609619140625,-3.1781890392303467,9.116252899169922,1.721463680267334
1772727875205609700,4.655609619140625,-3.1830356121063232,9.116353034973145,1.711949348449707
1772727875215609600,4.665609619140625,-3.1865234375,9.116238594055176,1.7060672044754028
1772727875225609700,4.675609619140625,-3.187422037124634,9.116449356079102,1.703253984451294
1772727875235609600,4.685609619140625,-3.1862754821777344,9.116750717163086,1.7037864923477173
1772727875245609700,4.695609619140625,-3.1847763061523438,9.11673355102539,1.7066848278045654
1772727875255609600,4.705609619140625,-3.18456768989563,9.115936279296875,1.7113251686096191
1772727875265609700,4.715609619140625,-3.1850433349609375,9.114723205566406,1.7168864011764526
1772727875275609600,4.725609619140625,-3.1834754943847656,9.114405632019043,1.7214759588241577
1772727875285609700,4.735609619140625,-3.1794066429138184,9.11548137664795,1.7232969999313354
1772727875295609600,4.745609619140625,-3.1744394302368164,9.117392539978027,1.722346305847168
1772727875305609700,4.755609619140625,-3.1696629524230957,9.119744300842285,1.7186857461929321
1772727875315609600,4.765609619140625,-3.167132616043091,9.121410369873047,1.7145107984542847
1772727875325609700,4.775609619140625,-3.1678872108459473,9.12154769897461,1.712383508682251
1772727875335609600,4.785609619140625,-3.1696434020996094,9.120728492736816,1.7134950160980225
1772727875345609700,4.795609619140625,-3.1705875396728516,9.119770050048828,1.71684730052948
1772727875355609600,4.805609619140625,-3.1709213256835938,9.118694305419922,1.7219284772872925
1772727875365609700,4.815609619140625,-3.1707406044006348,9.117777824401855,1.7271157503128052
1772727875375609600,4.825609619140625,-3.1698029041290283,9.117505073547363,1.730275273323059
1772727875385609700,4.835609619140625,-3.168663740158081,9.117804527282715,1.73078191280365
1772727875395609600,4.845609619140625,-3.1668856143951416,9.118694305419922,1.7293471097946167
1772727875405609700,4.855609619140625,-3.1648616790771484,9.120074272155762,1.7257673740386963
1772727875415609600,4.865609619140625,-3.162896156311035,9.121943473815918,1.7194827795028687
1772727875425609700,4.875609619140625,-3.162080764770508,9.123647689819336,1.7119275331497192
1772727875435609600,4.885609619140625,-3.16353440284729,9.12423324584961,1.7061045169830322
1772727875445609700,4.895609619140625,-3.1630821228027344,9.124683380126953,1.704538345336914
1772727875455609600,4.905609619140625,-3.1599361896514893,9.125925064086914,1.7037240266799927
1772727875465609700,4.915609619140625,-3.1594276428222656,9.12618637084961,1.7032716274261475
1772727875475609600,4.925609619140625,-3.161112070083618,9.125420570373535,1.704247236251831
1772727875485609700,4.935609619140625,-3.1608123779296875,9.124783515930176,1.708206295967102
1772727875495609600,4.945609619140625,-3.1585419178009033,9.124520301818848,1.7138075828552246
1772727875505609700,4.955609619140625,-3.1580452919006348,9.123674392700195,1.7192165851593018
1772727875515609600,4.965609619140625,-3.1577932834625244,9.122981071472168,1.7233502864837646
1772727875525609700,4.975609619140625,-3.1554951667785645,9.123170852661133,1.726558804512024
1772727875535609600,4.985609619140625,-3.1530725955963135,9.123809814453125,1.7276008129119873
1772727875545609700,4.995609619140625,-3.1510560512542725,9.124539375305176,1.7274303436279297
1772727875555609600,5.005609619140625,-3.1457927227020264,9.126870155334473,1.7247105836868286
1772727875565609700,5.015609619140625,-3.141245126724243,9.129080772399902,1.72129487991333
1772727875575609600,5.025609619140625,-3.139591693878174,9.13056755065918,1.716417670249939
1772727875585609700,5.035609619140625,-3.1411147117614746,9.131524085998535,1.7085250616073608
1772727875595609600,5.045609619140625,-3.144376754760742,9.131875038146973,1.7006278038024902
1772727875605609700,5.055609619140625,-3.147242307662964,9.131755828857422,1.6959630250930786
1772727875615609600,5.065609619140625,-3.14825439453125,9.131698608398438,1.6943939924240112
1772727875625609700,5.075609619140625,-3.1470346450805664,9.131978034973145,1.6951537132263184
1772727875635609600,5.085609619140625,-3.142738103866577,9.13310432434082,1.6970539093017578
1772727875645609700,5.095609619140625,-3.138547658920288,9.134078979492188,1.699557900428772
1772727875655609600,5.105609619140625,-3.1368422508239746,9.13376522064209,1.7043888568878174
1772727875665609700,5.115609619140625,-3.135180711746216,9.13337516784668,1.709525465965271
1772727875675609600,5.125609619140625,-3.1330268383026123,9.133923530578613,1.7105505466461182
1772727875685609700,5.135609619140625,-3.1358327865600586,9.132909774780273,1.7108160257339478
1772727875695609600,5.145609619140625,-3.138546943664551,9.131939888000488,1.7110180854797363
1772727875705609700,5.155609619140625,-3.1390295028686523,9.132678985595703,1.7061831951141357
1772727875715609600,5.165609619140625,-3.14274525642395,9.13247013092041,1.7004480361938477
1772727875725609700,5.175609619140625,-3.1509952545166016,9.130167961120605,1.6975386142730713
1772727875735609600,5.185609619140625,-3.158595323562622,9.127281188964844,1.69894540309906
1772727875745609700,5.195609619140625,-3.1584091186523438,9.126652717590332,1.7026643753051758
1772727875755609600,5.205609619140625,-3.1563022136688232,9.126888275146484,1.7053006887435913
1772727875765609700,5.215609619140625,-3.156421422958374,9.126566886901855,1.7067971229553223
1772727875775609600,5.225609619140625,-3.158010244369507,9.125932693481445,1.7072542905807495
1772727875785609700,5.235609619140625,-3.1586592197418213,9.125811576843262,1.7066932916641235
1772727875795609600,5.245609619140625,-3.1596436500549316,9.12574291229248,1.705245018005371
1772727875805609700,5.255609619140625,-3.1622445583343506,9.125117301940918,1.703772783279419
1772727875815609600,5.265609619140625,-3.166163444519043,9.123763084411621,1.7037469148635864
1772727875825609700,5.275609619140625,-3.1701369285583496,9.122028350830078,1.705645203590393
1772727875835609600,5.285609619140625,-3.1731839179992676,9.120479583740234,1.7082574367523193
1772727875845609700,5.295609619140625,-3.1735730171203613,9.119791984558105,1.7112011909484863
1772727875855609600,5.305609619140625,-3.172013282775879,9.120024681091309,1.7128556966781616
1772727875865609700,5.315609619140625,-3.169858932495117,9.12071704864502,1.7131565809249878
1772727875875609600,5.325609619140625,-3.1675078868865967,9.122014999389648,1.7105947732925415
1772727875885609700,5.335609619140625,-3.1673471927642822,9.123050689697266,1.7053560018539429
1772727875895609600,5.345609619140625,-3.1707024574279785,9.12293529510498,1.6997259855270386
1772727875905609700,5.355609619140625,-3.1771469116210938,9.121257781982422,1.6967005729675293
1772727875915609600,5.365609619140625,-3.183065891265869,9.118978500366211,1.6978521347045898
1772727875925609700,5.375609619140625,-3.184455394744873,9.11767864227295,1.7022277116775513
1772727875935609600,5.385609619140625,-3.1830248832702637,9.117308616638184,1.7068780660629272
1772727875945609700,5.395609619140625,-3.183887243270874,9.116004943847656,1.7122210264205933
1772727875955609600,5.405609619140625,-3.183440685272217,9.114866256713867,1.719093918800354
1772727875965609700,5.415609619140625,-3.179414749145508,9.115055084228516,1.7255444526672363
1772727875975609600,5.425609619140625,-3.1763737201690674,9.115421295166016,1.729196310043335
1772727875985609700,5.435609619140625,-3.1779210567474365,9.11495304107666,1.7288206815719604
1772727875995609600,5.445609619140625,-3.1803267002105713,9.114801406860352,1.7252026796340942
1772727876005609700,5.455609619140625,-3.180408000946045,9.115581512451172,1.7209209203720093
1772727876015609600,5.465609619140625,-3.178638458251953,9.116965293884277,1.7168511152267456
1772727876025609700,5.475609619140625,-3.175527811050415,9.118926048278809,1.7121907472610474
1772727876035609600,5.485609619140625,-3.1713550090789795,9.121319770812988,1.707163691520691
1772727876045609700,5.495609619140625,-3.168916702270508,9.122759819030762,1.7039982080459595
1772727876055609600,5.505609619140625,-3.168637990951538,9.122694969177246,1.7048653364181519
1772727876065609700,5.515609619140625,-3.1697287559509277,9.121559143066406,1.7089077234268188
1772727876075609600,5.525609619140625,-3.168513536453247,9.120936393737793,1.7144743204116821
1772727876085609700,5.535609619140625,-3.1650147438049316,9.121292114257812,1.7190401554107666
1772727876095609600,5.545609619140625,-3.1596031188964844,9.122492790222168,1.722619891166687
1772727876105609700,5.555609619140625,-3.154102325439453,9.124204635620117,1.723632574081421
1772727876115609600,5.565609619140625,-3.1488330364227295,9.126509666442871,1.7210557460784912
1772727876125609700,5.575609619140625,-3.145524501800537,9.128816604614258,1.7148728370666504
1772727876135609600,5.585609619140625,-3.145272731781006,9.13038158416748,1.7069785594940186
1772727876145609700,5.595609619140625,-3.1474833488464355,9.130708694458008,1.7011444568634033
1772727876155609600,5.605609619140625,-3.150815725326538,9.129776000976562,1.6999790668487549
1772727876165609700,5.615609619140625,-3.153813600540161,9.128226280212402,1.702743411064148
1772727876175609600,5.625609619140625,-3.1558334827423096,9.126477241516113,1.7083638906478882
1772727876185609700,5.635609619140625,-3.1546661853790283,9.125626564025879,1.7150527238845825
1772727876195609600,5.645609619140625,-3.1505794525146484,9.125951766967773,1.7208223342895508
1772727876205609700,5.655609619140625,-3.1452906131744385,9.126958847045898,1.7251511812210083
1772727876215609600,5.665609619140625,-3.142071008682251,9.127639770507812,1.7274152040481567
1772727876225609700,5.675609619140625,-3.142507553100586,9.12744140625,1.7276691198349
1772727876235609600,5.685609619140625,-3.1428098678588867,9.127859115600586,1.7249118089675903
1772727876245609700,5.695609619140625,-3.140695333480835,9.129749298095703,1.7187482118606567
1772727876255609600,5.705609619140625,-3.1416447162628174,9.130646705627441,1.7122377157211304
1772727876265609700,5.715609619140625,-3.1431047916412354,9.131269454956055,1.7062233686447144
1772727876275609600,5.725609619140625,-3.142343282699585,9.132646560668945,1.7002434730529785
1772727876285609700,5.735609619140625,-3.140866994857788,9.134112358093262,1.6950933933258057
1772727876295609600,5.745609619140625,-3.140836000442505,9.134751319885254,1.6917004585266113
1772727876305609700,5.755609619140625,-3.140481948852539,9.13506031036377,1.6906871795654297
1772727876315609600,5.765609619140625,-3.1404831409454346,9.134943962097168,1.6913130283355713
1772727876325609700,5.775609619140625,-3.142932415008545,9.133777618408203,1.6930620670318604
1772727876335609600,5.785609619140625,-3.1456379890441895,9.132476806640625,1.6950569152832031
1772727876345609700,5.795609619140625,-3.1456551551818848,9.132131576538086,1.6968803405761719
1772727876355609600,5.805609619140625,-3.1440236568450928,9.132433891296387,1.6982804536819458
1772727876365609700,5.815609619140625,-3.142470121383667,9.132953643798828,1.698360562324524
1772727876375609600,5.825609619140625,-3.1423094272613525,9.132989883422852,1.6984641551971436
1772727876385609700,5.835609619140625,-3.144413471221924,9.131948471069336,1.7001677751541138
1772727876395609600,5.845609619140625,-3.1478166580200195,9.130006790161133,1.7042874097824097
1772727876405609700,5.855609619140625,-3.1514573097229004,9.128087043762207,1.7078415155410767
1772727876415609600,5.865609619140625,-3.1533613204956055,9.126906394958496,1.710634708404541
1772727876425609700,5.875609619140625,-3.1534574031829834,9.12672233581543,1.7114368677139282
1772727876435609600,5.885609619140625,-3.1559619903564453,9.126232147216797,1.7094398736953735
1772727876445609700,5.895609619140625,-3.161745548248291,9.124625205993652,1.7073332071304321
1772727876455609600,5.905609619140625,-3.165290117263794,9.12356185913086,1.7064400911331177
1772727876465609700,5.915609619140625,-3.164473056793213,9.124184608459473,1.7046239376068115
1772727876475609600,5.925609619140625,-3.1626954078674316,9.125470161437988,1.7010384798049927
1772727876485609700,5.935609619140625,-3.1629557609558105,9.126096725463867,1.6971955299377441
1772727876495609600,5.945609619140625,-3.164992570877075,9.125904083251953,1.6944266557693481
1772727876505609700,5.955609619140625,-3.1689698696136475,9.124540328979492,1.694339632987976
1772727876515609600,5.965609619140625,-3.1736397743225098,9.122404098510742,1.697100281715393
1772727876525609700,5.975609619140625,-3.1766176223754883,9.120583534240723,1.7013083696365356
1772727876535609600,5.985609619140625,-3.1759414672851562,9.120361328125,1.7037605047225952
1772727876545609700,5.995609619140625,-3.176819324493408,9.119608879089355,1.7061482667922974
1772727876555609600,6.005609619140625,-3.1768553256988525,9.118843078613281,1.7101722955703735
1772727876565609700,6.015609619140625,-3.1726081371307373,9.119560241699219,1.7142219543457031
1772727876575609600,6.025609619140625,-3.168562650680542,9.120445251464844,1.7169967889785767
1772727876585609700,6.035609619140625,-3.16845965385437,9.120558738708496,1.7165858745574951
1772727876595609600,6.045609619140625,-3.171319007873535,9.120002746582031,1.714256763458252
1772727876605609700,6.055609619140625,-3.1742751598358154,9.119475364685059,1.7115929126739502
1772727876615609600,6.065609619140625,-3.177736759185791,9.118860244750977,1.7084401845932007
1772727876625609700,6.075609619140625,-3.181584358215332,9.118097305297852,1.7053452730178833
1772727876635609600,6.085609619140625,-3.1826508045196533,9.11801815032959,1.7037843465805054
1772727876645609700,6.095609619140625,-3.1794891357421875,9.119108200073242,1.7038497924804688
1772727876655609600,6.105609619140625,-3.1743290424346924,9.120734214782715,1.7047687768936157
1772727876665609700,6.115609619140625,-3.170438051223755,9.121648788452148,1.7071096897125244
1772727876675609600,6.125609619140625,-3.168356418609619,9.121814727783203,1.7100831270217896
1772727876685609700,6.135609619140625,-3.166706085205078,9.121837615966797,1.713025689125061
1772727876695609600,6.145609619140625,-3.1643919944763184,9.122172355651855,1.715508222579956
1772727876705609700,6.155609619140625,-3.1637611389160156,9.122309684753418,1.7159442901611328
1772727876715609600,6.165609619140625,-3.1667487621307373,9.121099472045898,1.7168649435043335
1772727876725609700,6.175609619140625,-3.168992757797241,9.119956016540527,1.7188050746917725
1772727876735609600,6.185609619140625,-3.167820930480957,9.120079040527344,1.7203069925308228
1772727876745609700,6.195609619140625,-3.162924289703369,9.12192153930664,1.7195470333099365
1772727876755609600,6.205609619140625,-3.157050609588623,9.124610900878906,1.716064214706421
1772727876765609700,6.215609619140625,-3.153174877166748,9.126792907714844,1.7115885019302368
1772727876775609600,6.225609619140625,-3.152430772781372,9.127625465393066,1.7085119485855103
1772727876785609700,6.235609619140625,-3.154890537261963,9.127275466918945,1.7058436870574951
1772727876795609600,6.245609619140625,-3.1584486961364746,9.126562118530273,1.7030714750289917
1772727876805609700,6.255609619140625,-3.1609714031219482,9.126029968261719,1.7012410163879395
1772727876815609600,6.265609619140625,-3.1621501445770264,9.125526428222656,1.7017518281936646
1772727876825609700,6.275609619140625,-3.1614913940429688,9.125216484069824,1.7046362161636353
1772727876835609600,6.285609619140625,-3.158818006515503,9.125494003295898,1.708099365234375
1772727876845609700,6.295609619140625,-3.1552438735961914,9.126347541809082,1.7101491689682007
1772727876855609600,6.305609619140625,-3.15191388130188,9.127361297607422,1.7108756303787231
1772727876865609700,6.315609619140625,-3.1503477096557617,9.127734184265137,1.7117738723754883
1772727876875609600,6.325609619140625,-3.150585889816284,9.127357482910156,1.713344693183899
1772727876885609700,6.335609619140625,-3.1512787342071533,9.126806259155273,1.7150022983551025
1772727876895609600,6.345609619140625,-3.151463031768799,9.126930236816406,1.7140021324157715
1772727876905609700,6.355609619140625,-3.1503095626831055,9.12819766998291,1.7093744277954102
1772727876915609600,6.365609619140625,-3.147519588470459,9.130645751953125,1.7014153003692627
1772727876925609700,6.375609619140625,-3.145179033279419,9.13299560546875,1.6931159496307373
1772727876935609600,6.385609619140625,-3.1448709964752197,9.1338529586792,1.6890522241592407
1772727876945609700,6.395609619140625,-3.145357370376587,9.133479118347168,1.6901746988296509
1772727876955609600,6.405609619140625,-3.145115613937378,9.13292407989502,1.6936122179031372
1772727876965609700,6.415609619140625,-3.1444807052612305,9.132329940795898,1.6979939937591553
1772727876975609600,6.425609619140625,-3.14379620552063,9.131369590759277,1.7044097185134888
1772727876985609700,6.435609619140625,-3.1413774490356445,9.13088607788086,1.7114450931549072
1772727876995609600,6.445609619140625,-3.1379787921905518,9.131502151489258,1.7143968343734741
1772727877005609700,6.455609619140625,-3.136235237121582,9.132234573364258,1.7136821746826172
1772727877015609600,6.465609619140625,-3.132453203201294,9.134071350097656,1.7108122110366821
1772727877025609700,6.475609619140625,-3.127959728240967,9.13642692565918,1.7064424753189087
1772727877035609600,6.485609619140625,-3.12992000579834,9.136600494384766,1.7019145488739014
1772727877045609700,6.495609619140625,-3.1363203525543213,9.13492202758789,1.6991456747055054
1772727877055609600,6.505609619140625,-3.1382875442504883,9.134561538696289,1.6974475383758545
1772727877065609700,6.515609619140625,-3.1347784996032715,9.13586139678955,1.6969327926635742
1772727877075609600,6.525609619140625,-3.13118577003479,9.136778831481934,1.6986325979232788
1772727877085609700,6.535609619140625,-3.1285955905914307,9.137191772460938,1.7011737823486328
1772727877095609600,6.545609619140625,-3.127272844314575,9.137419700622559,1.702384352684021
1772727877105609700,6.555609619140625,-3.127122640609741,9.137439727783203,1.702551245689392
1772727877115609600,6.565609619140625,-3.1244983673095703,9.13818359375,1.7033746242523193
1772727877125609700,6.575609619140625,-3.1216447353363037,9.13891887664795,1.70465886592865
1772727877135609600,6.585609619140625,-3.121812582015991,9.138374328613281,1.707276701927185
1772727877145609700,6.595609619140625,-3.1217997074127197,9.138168334960938,1.7084044218063354
1772727877155609600,6.605609619140625,-3.1183106899261475,9.139110565185547,1.7097291946411133
1772727877165609700,6.615609619140625,-3.1116349697113037,9.14122200012207,1.7106105089187622
1772727877175609600,6.625609619140625,-3.1064140796661377,9.143000602722168,1.7105919122695923
1772727877185609700,6.635609619140625,-3.104729652404785,9.144110679626465,1.7077174186706543
1772727877195609600,6.645609619140625,-3.1063427925109863,9.144376754760742,1.70335054397583
1772727877205609700,6.655609619140625,-3.107090473175049,9.145602226257324,1.6953867673873901
1772727877215609600,6.665609619140625,-3.1103224754333496,9.146125793457031,1.6866133213043213
1772727877225609700,6.675609619140625,-3.1155412197113037,9.145630836486816,1.6796584129333496
1772727877235609600,6.685609619140625,-3.1184515953063965,9.14535140991211,1.6757668256759644
1772727877245609700,6.695609619140625,-3.120122194290161,9.144915580749512,1.6750364303588867
1772727877255609600,6.705609619140625,-3.122415542602539,9.143392562866211,1.6790721416473389
1772727877265609700,6.715609619140625,-3.1206178665161133,9.142535209655762,1.6870617866516113
1772727877275609600,6.725609619140625,-3.11421537399292,9.142651557922363,1.6982239484786987
1772727877285609700,6.735609619140625,-3.109853982925415,9.141886711120605,1.7102875709533691
1772727877295609600,6.745609619140625,-3.1095216274261475,9.140107154846191,1.7203826904296875
1772727877305609700,6.755609619140625,-3.107645273208618,9.13980770111084,1.7253497838974
1772727877315609600,6.765609619140625,-3.107563018798828,9.13992691040039,1.7248733043670654
1772727877325609700,6.775609619140625,-3.11299729347229,9.138506889343262,1.7226004600524902
1772727877335609600,6.785609619140625,-3.1179611682891846,9.13768196105957,1.717984676361084
1772727877345609700,6.795609619140625,-3.118297815322876,9.139256477355957,1.708974838256836
1772727877355609600,6.805609619140625,-3.118997097015381,9.141054153442383,1.698052167892456
1772727877365609700,6.815609619140625,-3.1219115257263184,9.141834259033203,1.6884644031524658
1772727877375609600,6.825609619140625,-3.1236696243286133,9.142330169677734,1.6825233697891235
1772727877385609700,6.835609619140625,-3.1245274543762207,9.142400741577148,1.680544137954712
1772727877395609600,6.845609619140625,-3.127042055130005,9.141079902648926,1.683048129081726
1772727877405609700,6.855609619140625,-3.1318206787109375,9.138145446777344,1.6900880336761475
1772727877415609600,6.865609619140625,-3.1369264125823975,9.134451866149902,1.700554370880127
1772727877425609700,6.875609619140625,-3.1392457485198975,9.13125991821289,1.7133582830429077
1772727877435609600,6.885609619140625,-3.1367223262786865,9.130142211914062,1.723910927772522
1772727877445609700,6.895609619140625,-3.1352810859680176,9.129642486572266,1.7291655540466309
1772727877455609600,6.905609619140625,-3.1385035514831543,9.12830924987793,1.7303699254989624
1772727877465609700,6.915609619140625,-3.1421520709991455,9.12752628326416,1.727866291999817
1772727877475609600,6.925609619140625,-3.1446611881256104,9.127203941345215,1.7250014543533325
1772727877485609700,6.935609619140625,-3.1473803520202637,9.126693725585938,1.7227498292922974
1772727877495609600,6.945609619140625,-3.151627540588379,9.1253080368042,1.7223252058029175
1772727877505609700,6.955609619140625,-3.156411647796631,9.123635292053223,1.7224230766296387
1772727877515609600,6.965609619140625,-3.1605992317199707,9.12215518951416,1.7225806713104248
1772727877525609700,6.975609619140625,-3.1634702682495117,9.121272087097168,1.721987009048462
1772727877535609600,6.985609619140625,-3.1646158695220947,9.12105941772461,1.721010446548462
1772727877545609700,6.995609619140625,-3.1636602878570557,9.121709823608398,1.719317078590393
1772727877555609600,7.005609619140625,-3.162724018096924,9.122838973999023,1.7150418758392334
1772727877565609700,7.015609619140625,-3.1638760566711426,9.123424530029297,1.7097996473312378
1772727877575609600,7.025609619140625,-3.165550470352173,9.123306274414062,1.7073240280151367
1772727877585609700,7.035609619140625,-3.166249990463257,9.122915267944336,1.708117127418518
1772727877595609600,7.045609619140625,-3.167342185974121,9.122130393981934,1.7102822065353394
1772727877605609700,7.055609619140625,-3.1669554710388184,9.121186256408691,1.7160273790359497
1772727877615609600,7.065609619140625,-3.1619622707366943,9.121868133544922,1.721597671508789
1772727877625609700,7.075609619140625,-3.156669855117798,9.123414993286133,1.7231123447418213
1772727877635609600,7.085609619140625,-3.1566531658172607,9.124156951904297,1.719213843345642
1772727877645609700,7.095609619140625,-3.1604511737823486,9.123929023742676,1.7134318351745605
1772727877655609600,7.105609619140625,-3.1626315116882324,9.124273300170898,1.7075690031051636
1772727877665609700,7.115609619140625,-3.165576934814453,9.123876571655273,1.7042289972305298
1772727877675609600,7.125609619140625,-3.1697497367858887,9.12267017364502,1.7029274702072144
1772727877685609700,7.135609619140625,-3.1724631786346436,9.121663093566895,1.703271746635437
1772727877695609600,7.145609619140625,-3.1703550815582275,9.122036933898926,1.705191969871521
1772727877705609700,7.155609619140625,-3.165684461593628,9.123102188110352,1.7081656455993652
1772727877715609600,7.165609619140625,-3.1636152267456055,9.123112678527832,1.7119383811950684
1772727877725609700,7.175609619140625,-3.163618803024292,9.12261962890625,1.7145649194717407
1772727877735609600,7.185609619140625,-3.1649112701416016,9.121909141540527,1.7159541845321655
1772727877745609700,7.195609619140625,-3.168219566345215,9.120495796203613,1.7173609733581543
1772727877755609600,7.205609619140625,-3.1723427772521973,9.118759155273438,1.7189738750457764
1772727877765609700,7.215609619140625,-3.1756927967071533,9.117237091064453,1.7208517789840698
1772727877775609600,7.225609619140625,-3.1762137413024902,9.116951942443848,1.7214022874832153
1772727877785609700,7.235609619140625,-3.1733739376068115,9.118120193481445,1.7204601764678955
1772727877795609600,7.245609619140625,-3.167785406112671,9.120293617248535,1.719232201576233
1772727877805609700,7.255609619140625,-3.1622729301452637,9.122255325317383,1.7189719676971436
1772727877815609600,7.265609619140625,-3.1608831882476807,9.122713088989258,1.7191004753112793
1772727877825609700,7.275609619140625,-3.163092851638794,9.121638298034668,1.7207410335540771
1772727877835609600,7.285609619140625,-3.1628921031951904,9.121257781982422,1.7231217622756958
1772727877845609700,7.295609619140625,-3.1613054275512695,9.121482849121094,1.7248435020446777
1772727877855609600,7.305609619140625,-3.1624815464019775,9.12088680267334,1.725839376449585
1772727877865609700,7.315609619140625,-3.1621642112731934,9.121028900146484,1.725670337677002
1772727877875609600,7.325609619140625,-3.1567976474761963,9.123427391052246,1.7228132486343384
1772727877885609700,7.335609619140625,-3.1502997875213623,9.126557350158691,1.7181211709976196
1772727877895609600,7.345609619140625,-3.1466786861419678,9.128716468811035,1.7132818698883057
1772727877905609700,7.355609619140625,-3.1466922760009766,9.129899978637695,1.7069370746612549
1772727877915609600,7.365609619140625,-3.1484153270721436,9.130426406860352,1.7009389400482178
1772727877925609700,7.375609619140625,-3.146674633026123,9.13173770904541,1.6971099376678467
1772727877935609600,7.385609619140625,-3.1435110569000244,9.132845878601074,1.6970133781433105
1772727877945609700,7.395609619140625,-3.1396496295928955,9.133447647094727,1.700913667678833
1772727877955609600,7.405609619140625,-3.1355342864990234,9.1338529586792,1.7063218355178833
1772727877965609700,7.415609619140625,-3.1314051151275635,9.13412857055664,1.7124229669570923
1772727877975609600,7.425609619140625,-3.1272480487823486,9.134702682495117,1.716950535774231
1772727877985609700,7.435609619140625,-3.1238152980804443,9.135663032531738,1.7180900573730469
1772727877995609600,7.445609619140625,-3.120793104171753,9.136823654174805,1.717405080795288
1772727878005609700,7.455609619140625,-3.118354558944702,9.138303756713867,1.7139581441879272
1772727878015609600,7.465609619140625,-3.118821620941162,9.13915729522705,1.7085551023483276
1772727878025609700,7.475609619140625,-3.1204309463500977,9.139531135559082,1.7036033868789673
1772727878035609600,7.485609619140625,-3.1166670322418213,9.141904830932617,1.697749376296997
1772727878045609700,7.495609619140625,-3.1104555130004883,9.145376205444336,1.6904281377792358
1772727878055609600,7.505609619140625,-3.1068427562713623,9.147985458374023,1.6829367876052856
1772727878065609700,7.515609619140625,-3.1081693172454834,9.148588180541992,1.6771981716156006
1772727878075609600,7.525609619140625,-3.1113741397857666,9.14770793914795,1.6760644912719727
1772727878085609700,7.535609619140625,-3.1112077236175537,9.147507667541504,1.6774604320526123
1772727878095609600,7.545609619140625,-3.108349323272705,9.147838592529297,1.6809521913528442
1772727878105609700,7.555609619140625,-3.1050257682800293,9.14822006225586,1.6850132942199707
1772727878115609600,7.565609619140625,-3.102193593978882,9.148368835449219,1.6894124746322632
1772727878125609700,7.575609619140625,-3.100261926651001,9.148266792297363,1.6935054063796997
1772727878135609600,7.585609619140625,-3.098358154296875,9.148297309875488,1.6968293190002441
1772727878145609700,7.595609619140625,-3.0935275554656982,9.149942398071289,1.6967720985412598
1772727878155609600,7.605609619140625,-3.0886638164520264,9.15216064453125,1.6936593055725098
1772727878165609700,7.615609619140625,-3.0893068313598633,9.152962684631348,1.6881499290466309
1772727878175609600,7.625609619140625,-3.0950417518615723,9.151714324951172,1.6844111680984497
1772727878185609700,7.635609619140625,-3.099156141281128,9.1505765914917,1.6830190420150757
1772727878195609600,7.645609619140625,-3.0989391803741455,9.151021003723145,1.6810110807418823
1772727878205609700,7.655609619140625,-3.0987563133239746,9.151659965515137,1.677857756614685
1772727878215609600,7.665609619140625,-3.1009554862976074,9.150959014892578,1.6776163578033447
1772727878225609700,7.675609619140625,-3.10212779045105,9.149557113647461,1.6830939054489136
1772727878235609600,7.685609619140625,-3.0998311042785645,9.14909553527832,1.6898224353790283
1772727878245609700,7.695609619140625,-3.097343683242798,9.149251937866211,1.693526029586792
1772727878255609600,7.705609619140625,-3.0989928245544434,9.148423194885254,1.694990634918213
1772727878265609700,7.715609619140625,-3.103351593017578,9.14686393737793,1.695425271987915
1772727878275609600,7.725609619140625,-3.1071395874023438,9.145708084106445,1.694722056388855
1772727878285609700,7.735609619140625,-3.106797695159912,9.146222114562988,1.6925790309906006
1772727878295609600,7.745609619140625,-3.104290246963501,9.148215293884277,1.6863971948623657
1772727878305609700,7.755609619140625,-3.1076676845550537,9.148146629333496,1.680531620979309
1772727878315609600,7.765609619140625,-3.115821123123169,9.145744323730469,1.678511381149292
1772727878325609700,7.775609619140625,-3.124396800994873,9.142422676086426,1.680664300918579
1772727878335609600,7.785609619140625,-3.132103204727173,9.138644218444824,1.6868643760681152
1772727878345609700,7.795609619140625,-3.1402435302734375,9.134357452392578,1.6949292421340942
1772727878355609600,7.805609619140625,-3.146853446960449,9.13068675994873,1.702424168586731
1772727878365609700,7.815609619140625,-3.1501553058624268,9.128634452819824,1.7073196172714233
1772727878375609600,7.825609619140625,-3.1518654823303223,9.127830505371094,1.708466649055481
1772727878385609700,7.835609619140625,-3.1542558670043945,9.127543449401855,1.705580234527588
1772727878395609600,7.845609619140625,-3.1580252647399902,9.127288818359375,1.6999577283859253
1772727878405609700,7.855609619140625,-3.163961172103882,9.126293182373047,1.6942561864852905
1772727878415609600,7.865609619140625,-3.1710193157196045,9.12459945678711,1.6901806592941284
1772727878425609700,7.875609619140625,-3.1772968769073486,9.122724533081055,1.688510537147522
1772727878435609600,7.885609619140625,-3.1819591522216797,9.120597839355469,1.691226840019226
1772727878445609700,7.895609619140625,-3.1843717098236084,9.118314743041992,1.6989656686782837
1772727878455609600,7.905609619140625,-3.1855576038360596,9.116161346435547,1.7082735300064087
1772727878465609700,7.915609619140625,-3.188164710998535,9.11376953125,1.7161601781845093
1772727878475609600,7.925609619140625,-3.191910743713379,9.111560821533203,1.720916509628296
1772727878485609700,7.935609619140625,-3.194448471069336,9.110479354858398,1.7219315767288208
1772727878495609600,7.945609619140625,-3.196005344390869,9.110326766967773,1.719853162765503
1772727878505609700,7.955609619140625,-3.197942018508911,9.110346794128418,1.716137409210205
1772727878515609600,7.965609619140625,-3.2008793354034424,9.110299110412598,1.7109124660491943
1772727878525609700,7.975609619140625,-3.204270362854004,9.1099271774292,1.7065364122390747
1772727878535609600,7.985609619140625,-3.2071409225463867,9.10902214050293,1.7059731483459473
1772727878545609700,7.995609619140625,-3.208735466003418,9.107783317565918,1.7095857858657837
1772727878555609600,8.005609619140625,-3.209670066833496,9.106208801269531,1.7162065505981445
1772727878565609700,8.015609619140625,-3.2103376388549805,9.104340553283691,1.7248479127883911
1772727878575609600,8.025609619140624,-3.209911823272705,9.10276985168457,1.7339084148406982
1772727878585609700,8.035609619140626,-3.207428455352783,9.102385520935059,1.740509271621704
1772727878595609600,8.045609619140626,-3.2047884464263916,9.10308837890625,1.7416990995407104
1772727878605609700,8.055609619140625,-3.20392107963562,9.104243278503418,1.737247109413147
1772727878615609600,8.065609619140625,-3.2033445835113525,9.105756759643555,1.7303650379180908
1772727878625609700,8.075609619140625,-3.2018017768859863,9.107585906982422,1.7235831022262573
1772727878635609600,8.085609619140625,-3.1999497413635254,9.109498977661133,1.7168936729431152
1772727878645609700,8.095609619140625,-3.1991872787475586,9.110784530639648,1.7114877700805664
1772727878655609600,8.105609619140624,-3.197892904281616,9.111681938171387,1.7091264724731445
1772727878665609700,8.115609619140624,-3.196261167526245,9.11184310913086,1.71132230758667
1772727878675609600,8.125609619140626,-3.194606065750122,9.111342430114746,1.7170698642730713
1772727878685609700,8.135609619140626,-3.192222833633423,9.111083030700684,1.7228704690933228
1772727878695609600,8.145609619140625,-3.1897757053375244,9.111255645751953,1.7264833450317383
1772727878705609700,8.155609619140625,-3.187624216079712,9.111956596374512,1.7267512083053589
1772727878715609600,8.165609619140625,-3.1856963634490967,9.113029479980469,1.724653720855713
1772727878725609700,8.175609619140625,-3.1833627223968506,9.114753723144531,1.7198413610458374
1772727878735609600,8.185609619140624,-3.179918050765991,9.116983413696289,1.7143837213516235
1772727878745609700,8.195609619140624,-3.175354480743408,9.119406700134277,1.7099515199661255
1772727878755609600,8.205609619140626,-3.169797658920288,9.121673583984375,1.7081636190414429
1772727878765609700,8.215609619140626,-3.1657135486602783,9.123225212097168,1.7074568271636963
1772727878775609600,8.225609619140625,-3.1655895709991455,9.122929573059082,1.709267497062683
1772727878785609700,8.235609619140625,-3.16789174079895,9.12124252319336,1.713995337486267
1772727878795609600,8.245609619140625,-3.166869640350342,9.120339393615723,1.720674753189087
1772727878805609700,8.255609619140625,-3.1606743335723877,9.121377944946289,1.7265563011169434
1772727878815609600,8.265609619140625,-3.1550731658935547,9.122823715209961,1.7291580438613892
1772727878825609700,8.275609619140624,-3.153829574584961,9.123228073120117,1.729292869567871
1772727878835609600,8.285609619140626,-3.1496546268463135,9.125049591064453,1.7272922992706299
1772727878845609700,8.295609619140626,-3.1421566009521484,9.128494262695312,1.7227405309677124
1772727878855609600,8.305609619140625,-3.1375484466552734,9.13134479522705,1.7160241603851318
1772727878865609700,8.315609619140625,-3.1395158767700195,9.132096290588379,1.7084038257598877
1772727878875609600,8.325609619140625,-3.1443965435028076,9.131672859191895,1.7016850709915161
1772727878885609700,8.335609619140625,-3.145380973815918,9.132071495056152,1.6977125406265259
1772727878895609600,8.345609619140625,-3.144179582595825,9.132759094238281,1.6962453126907349
1772727878905609700,8.355609619140624,-3.1431400775909424,9.13266372680664,1.6986793279647827
1772727878915609600,8.365609619140624,-3.140887975692749,9.132698059082031,1.7026567459106445
1772727878925609700,8.375609619140626,-3.1369307041168213,9.133460998535156,1.7058558464050293
1772727878935609600,8.385609619140626,-3.1336917877197266,9.133973121643066,1.7090669870376587
1772727878945609700,8.395609619140625,-3.1318910121917725,9.133589744567871,1.7144056558609009
1772727878955609600,8.405609619140625,-3.12908673286438,9.133855819702148,1.7181025743484497
1772727878965609700,8.415609619140625,-3.128112554550171,9.134116172790527,1.7184993028640747
1772727878975609600,8.425609619140625,-3.131748676300049,9.133143424987793,1.7170379161834717
1772727878985609700,8.435609619140624,-3.133727550506592,9.133103370666504,1.7136327028274536
1772727878995609600,8.445609619140624,-3.133200168609619,9.134003639221191,1.7098084688186646
1772727879005609700,8.455609619140626,-3.133774995803833,9.134641647338867,1.7053306102752686
1772727879015609600,8.465609619140626,-3.135554552078247,9.134990692138672,1.7001854181289673
1772727879025609700,8.475609619140625,-3.135770797729492,9.135878562927246,1.6950116157531738
1772727879035609600,8.485609619140625,-3.1351373195648193,9.136505126953125,1.6928000450134277
1772727879045609700,8.495609619140625,-3.134629964828491,9.136335372924805,1.6946542263031006
1772727879055609600,8.505609619140625,-3.134988784790039,9.135235786437988,1.6999130249023438
1772727879065609700,8.515609619140625,-3.1356170177459717,9.1337890625,1.7065104246139526
1772727879075609600,8.525609619140624,-3.136972427368164,9.132054328918457,1.7132946252822876
1772727879085609700,8.535609619140626,-3.1379919052124023,9.130854606628418,1.717818260192871
1772727879095609600,8.545609619140626,-3.138000965118408,9.130841255187988,1.7178698778152466
1772727879105609700,8.555609619140625,-3.1377105712890625,9.131717681884766,1.7137376070022583
1772727879115609600,8.565609619140625,-3.139014720916748,9.132576942443848,1.7067559957504272
1772727879125609700,8.575609619140625,-3.1408863067626953,9.13329792022705,1.6994404792785645
1772727879135609600,8.585609619140625,-3.142376661300659,9.134069442749023,1.6925243139266968
1772727879145609700,8.595609619140625,-3.145289659500122,9.133942604064941,1.6877868175506592
1772727879155609600,8.605609619140624,-3.1498301029205322,9.131959915161133,1.6900526285171509
1772727879165609700,8.615609619140624,-3.151092052459717,9.129844665527344,1.699097990989685
1772727879175609600,8.625609619140626,-3.148040771484375,9.129069328308105,1.7088950872421265
1772727879185609700,8.635609619140626,-3.1455299854278564,9.12838077545166,1.7171728610992432
1772727879195609600,8.645609619140625,-3.143998861312866,9.127751350402832,1.7233154773712158
1772727879205609700,8.655609619140625,-3.1417653560638428,9.128168106079102,1.7251825332641602
1772727879215609600,8.665609619140625,-3.14100980758667,9.12897777557373,1.7222647666931152
1772727879225609700,8.675609619140625,-3.1445295810699463,9.12879753112793,1.7167997360229492
1772727879235609600,8.685609619140624,-3.1486971378326416,9.128482818603516,1.7108232975006104
1772727879245609700,8.695609619140624,-3.150428056716919,9.128764152526855,1.7061220407485962
1772727879255609600,8.705609619140626,-3.15285587310791,9.128396034240723,1.70360267162323
1772727879265609700,8.715609619140626,-3.156822443008423,9.126879692077637,1.7043827772140503
1772727879275609600,8.725609619140625,-3.15458607673645,9.127513885498047,1.7051247358322144
1772727879285609700,8.735609619140625,-3.1470305919647217,9.130331039428711,1.7040073871612549
1772727879295609600,8.745609619140625,-3.142123222351074,9.132298469543457,1.7025246620178223
1772727879305609700,8.755609619140625,-3.1450564861297607,9.131229400634766,1.7028335332870483
1772727879315609600,8.765609619140625,-3.151158094406128,9.12850570678711,1.7061529159545898
1772727879325609700,8.775609619140624,-3.15557599067688,9.125879287719727,1.7120281457901
1772727879335609600,8.785609619140626,-3.1550204753875732,9.12535285949707,1.7158571481704712
1772727879345609700,8.795609619140626,-3.15492844581604,9.12515640258789,1.7170720100402832
1772727879355609600,8.805609619140625,-3.157137632369995,9.124320983886719,1.7174484729766846
1772727879365609700,8.815609619140625,-3.1596174240112305,9.123621940612793,1.7166049480438232
1772727879375609600,8.825609619140625,-3.161773681640625,9.123296737670898,1.7143559455871582
1772727879385609700,8.835609619140625,-3.1656320095062256,9.122559547424316,1.7111589908599854
1772727879395609600,8.845609619140625,-3.171874761581421,9.120941162109375,1.708221435546875
1772727879405609700,8.855609619140624,-3.1777241230010986,9.119173049926758,1.7067911624908447
1772727879415609600,8.865609619140624,-3.181767225265503,9.117666244506836,1.7073085308074951
1772727879425609700,8.875609619140626,-3.183898448944092,9.116331100463867,1.7104644775390625
1772727879435609600,8.885609619140626,-3.1836934089660645,9.115243911743164,1.7166333198547363
1772727879445609700,8.895609619140625,-3.1813461780548096,9.11484146118164,1.7231035232543945
1772727879455609600,8.905609619140625,-3.179593324661255,9.114822387695312,1.726436734199524
1772727879465609700,8.915609619140625,-3.1800506114959717,9.114747047424316,1.7259953022003174
1772727879475609600,8.925609619140625,-3.181994915008545,9.114633560180664,1.7230076789855957
1772727879485609700,8.935609619140624,-3.183661460876465,9.114784240722656,1.719130039215088
1772727879495609600,8.945609619140624,-3.184652090072632,9.11561107635498,1.7128922939300537
1772727879505609700,8.955609619140626,-3.1867458820343018,9.116291046142578,1.7053695917129517
1772727879515609600,8.965609619140626,-3.187736749649048,9.117144584655762,1.6989407539367676
1772727879525609700,8.975609619140625,-3.185716152191162,9.118067741394043,1.6977744102478027
1772727879535609600,8.985609619140625,-3.1826915740966797,9.11837387084961,1.7017991542816162
1772727879545609700,8.995609619140625,-3.1803290843963623,9.117962837219238,1.7084035873413086
1772727879555609600,9.005609619140625,-3.1789588928222656,9.117465019226074,1.71360445022583
1772727879565609700,9.015609619140625,-3.1786365509033203,9.117011070251465,1.716609001159668
1772727879575609600,9.025609619140624,-3.178630828857422,9.116776466369629,1.7178701162338257
1772727879585609700,9.035609619140626,-3.178842067718506,9.116580963134766,1.7185138463974
1772727879595609600,9.045609619140626,-3.1783292293548584,9.116927146911621,1.717629313468933
1772727879605609700,9.055609619140625,-3.1785671710968018,9.117548942565918,1.7138842344284058
1772727879615609600,9.065609619140625,-3.179901361465454,9.11750602722168,1.7116360664367676
1772727879625609700,9.075609619140625,-3.177147388458252,9.118456840515137,1.711679220199585
1772727879635609600,9.085609619140625,-3.1716012954711914,9.120121002197266,1.71310293674469
1772727879645609700,9.095609619140625,-3.1664459705352783,9.121484756469727,1.7153801918029785
1772727879655609600,9.105609619140624,-3.1630709171295166,9.122225761413574,1.717659831047058
1772727879665609700,9.115609619140624,-3.1605310440063477,9.12283992767334,1.719069004058838
1772727879675609600,9.125609619140626,-3.157524347305298,9.123923301696777,1.718851089477539
1772727879685609700,9.135609619140626,-3.1546761989593506,9.125268936157227,1.7169333696365356
1772727879695609600,9.145609619140625,-3.1531026363372803,9.126358985900879,1.714034914970398
1772727879705609700,9.155609619140625,-3.1528398990631104,9.127219200134277,1.7099292278289795
1772727879715609600,9.165609619140625,-3.151036024093628,9.128815650939941,1.7047237157821655
1772727879725609700,9.175609619140625,-3.146718978881836,9.131072998046875,1.700608491897583
1772727879735609600,9.185609619140624,-3.1408634185791016,9.133463859558105,1.6985881328582764
1772727879745609700,9.195609619140624,-3.1347856521606445,9.135684967041016,1.6978766918182373
1772727879755609600,9.205609619140626,-3.1305625438690186,9.137304306030273,1.6969456672668457
1772727879765609700,9.215609619140626,-3.1293673515319824,9.137693405151367,1.6970587968826294
1772727879775609600,9.225609619140625,-3.1287648677825928,9.13762092590332,1.698560118675232
1772727879785609700,9.235609619140625,-3.127676486968994,9.137609481811523,1.7006189823150635
1772727879795609600,9.245609619140625,-3.1272854804992676,9.137199401855469,1.7035390138626099
1772727879805609700,9.255609619140625,-3.125403642654419,9.13705825805664,1.7077432870864868
1772727879815609600,9.265609619140625,-3.1196656227111816,9.13867473602295,1.7095903158187866
1772727879825609700,9.275609619140624,-3.1135308742523193,9.141032218933105,1.7081685066223145
1772727879845609700,9.295609619140626,-3.1099584102630615,9.143637657165527,1.7007148265838623
1772727879855609600,9.305609619140625,-3.109050750732422,9.14475154876709,1.6963859796524048
1772727879865609700,9.315609619140625,-3.1112210750579834,9.14461612701416,1.6931302547454834
1772727879875609600,9.325609619140625,-3.1141090393066406,9.144110679626465,1.690547227859497
1772727879885609700,9.335609619140625,-3.1145989894866943,9.144165992736816,1.6893492937088013
1772727879895609600,9.345609619140625,-3.1141159534454346,9.144146919250488,1.6903363466262817
1772727879905609700,9.355609619140624,-3.1151020526885986,9.143173217773438,1.6937867403030396
1772727879915609600,9.365609619140624,-3.113827705383301,9.142718315124512,1.6985790729522705
1772727879925609700,9.375609619140626,-3.111060380935669,9.142945289611816,1.7024213075637817
1772727879935609600,9.385609619140626,-3.1116092205047607,9.142446517944336,1.7040951251983643
1772727879945609700,9.395609619140625,-3.114061117172241,9.141761779785156,1.7032955884933472
1772727879955609600,9.405609619140625,-3.116163492202759,9.141490936279297,1.7008998394012451
1772727879965609700,9.415609619140625,-3.1167218685150146,9.141626358032227,1.6991512775421143
1772727879975609600,9.425609619140625,-3.1154346466064453,9.142430305480957,1.6971776485443115
1772727879985609700,9.435609619140624,-3.1175756454467773,9.142226219177246,1.694350004196167
1772727879995609600,9.445609619140624,-3.122171640396118,9.141247749328613,1.6911553144454956
1772727880005609700,9.455609619140626,-3.1261513233184814,9.140515327453613,1.687764048576355
1772727880015609600,9.465609619140626,-3.1306118965148926,9.139239311218262,1.6864022016525269
1772727880025609700,9.475609619140625,-3.1360418796539307,9.136999130249023,1.6884568929672241
1772727880035609600,9.485609619140625,-3.1410903930664062,9.134610176086426,1.6919938325881958
1772727880045609700,9.495609619140625,-3.144374132156372,9.132877349853516,1.6952447891235352
1772727880055609600,9.505609619140625,-3.147969961166382,9.131134986877441,1.6979482173919678
1772727880065609700,9.515609619140625,-3.1530237197875977,9.128740310668945,1.701450228691101
1772727880075609600,9.525609619140624,-3.158665418624878,9.126108169555664,1.7051024436950684
1772727880085609700,9.535609619140626,-3.1623778343200684,9.124526977539062,1.706679105758667
1772727880095609600,9.545609619140626,-3.1656532287597656,9.123639106750488,1.7053585052490234
1772727880105609700,9.555609619140625,-3.1692843437194824,9.123082160949707,1.701582908630371
1772727880115609600,9.565609619140625,-3.1725831031799316,9.122920036315918,1.696304440498352
1772727880135609600,9.585609619140625,-3.178290605545044,9.122876167297363,1.6858221292495728
1772727880145609700,9.595609619140625,-3.1827986240386963,9.121322631835938,1.685723066329956
1772727880155609600,9.605609619140624,-3.1856393814086914,9.119623184204102,1.6895467042922974
1772727880165609700,9.615609619140624,-3.1873767375946045,9.118046760559082,1.6947672367095947
1772727880175609600,9.625609619140626,-3.1886348724365234,9.11656379699707,1.700373649597168
1772727880185609700,9.635609619140626,-3.188466787338257,9.115616798400879,1.7057554721832275
1772727880195609600,9.645609619140625,-3.185534954071045,9.116082191467285,1.7087429761886597
1772727880205609700,9.655609619140625,-3.1825766563415527,9.11751651763916,1.7065954208374023
1772727880215609600,9.665609619140625,-3.182687759399414,9.118852615356445,1.6992392539978027
1772727880225609700,9.675609619140625,-3.1860897541046143,9.119552612304688,1.6890761852264404
1772727880235609600,9.685609619140624,-3.190164804458618,9.119937896728516,1.6792731285095215
1772727880245609700,9.695609619140624,-3.194613456726074,9.119925498962402,1.670862078666687
1772727880255609600,9.705609619140626,-3.2001874446868896,9.118616104125977,1.6673425436019897
1772727880265609700,9.715609619140626,-3.204460620880127,9.116559982299805,1.6703757047653198
1772727880275609600,9.725609619140625,-3.2047719955444336,9.11506462097168,1.6779165267944336
1772727880285609700,9.735609619140625,-3.2020187377929688,9.114460945129395,1.6864374876022339
1772727880295609600,9.745609619140625,-3.199542284011841,9.114045143127441,1.6933698654174805
1772727880305609700,9.755609619140625,-3.1974823474884033,9.113818168640137,1.6984786987304688
1772727880315609600,9.765609619140625,-3.1958885192871094,9.114089012145996,1.7000163793563843
1772727880325609700,9.775609619140624,-3.1951065063476562,9.1149320602417,1.696962594985962
1772727880335609600,9.785609619140626,-3.196477174758911,9.115730285644531,1.6900819540023804
1772727880345609700,9.795609619140626,-3.199676036834717,9.116096496582031,1.6820337772369385
1772727880355609600,9.805609619140625,-3.203094720840454,9.11585521697998,1.676825761795044
1772727880365609700,9.815609619140625,-3.205008029937744,9.11552619934082,1.6749628782272339
1772727880375609600,9.825609619140625,-3.2036890983581543,9.116265296936035,1.6734586954116821
1772727880385609700,9.835609619140625,-3.2001852989196777,9.117881774902344,1.671356439590454
1772727880395609600,9.845609619140625,-3.1963109970092773,9.119275093078613,1.6711667776107788
1772727880405609700,9.855609619140624,-3.1935784816741943,9.119721412658691,1.6739591360092163
1772727880415609600,9.865609619140624,-3.1917428970336914,9.120006561279297,1.675899863243103
1772727880425609700,9.875609619140626,-3.1912050247192383,9.120426177978516,1.674641728401184
1772727880435609600,9.885609619140626,-3.1937804222106934,9.120142936706543,1.6712706089019775
1772727880445609700,9.895609619140625,-3.1992757320404053,9.118456840515137,1.6699562072753906
1772727880455609600,9.905609619140625,-3.2012059688568115,9.117716789245605,1.6703046560287476
1772727880465609700,9.915609619140625,-3.198864459991455,9.118584632873535,1.6700505018234253
1772727880475609600,9.925609619140625,-3.1931989192962646,9.120792388916016,1.668835997581482
1772727880485609700,9.935609619140624,-3.1872010231018066,9.123406410217285,1.666005253791809
1772727880495609600,9.945609619140624,-3.1845622062683105,9.124585151672363,1.6646037101745605
1772727880505609700,9.955609619140626,-3.1817965507507324,9.125370979309082,1.6655805110931396
1772727880515609600,9.965609619140626,-3.179353952407837,9.126079559326172,1.6663637161254883
1772727880525609700,9.975609619140625,-3.181871175765991,9.12524700164795,1.6661237478256226
1772727880535609600,9.985609619140625,-3.186236619949341,9.12392520904541,1.6650140285491943
1772727880545609700,9.995609619140625,-3.186978578567505,9.123607635498047,1.6653376817703247
1772727880555609600,10.005609619140625,-3.1816718578338623,9.125182151794434,1.6668506860733032
1772727880565609700,10.015609619140625,-3.174992322921753,9.127484321594238,1.6669915914535522
1772727880575609600,10.025609619140624,-3.172731637954712,9.12869644165039,1.6646528244018555
1772727880585609700,10.035609619140626,-3.1726770401000977,9.128878593444824,1.663758397102356
1772727880595609600,10.045609619140626,-3.166905164718628,9.131209373474121,1.6619569063186646
1772727880605609700,10.055609619140625,-3.162198781967163,9.133465766906738,1.6585187911987305
1772727880615609600,10.065609619140625,-3.164874792098999,9.133459091186523,1.6534473896026611
1772727880625609700,10.075609619140625,-3.1712849140167236,9.131952285766602,1.6494797468185425
1772727880635609600,10.085609619140625,-3.173494815826416,9.131644248962402,1.6469343900680542
1772727880645609700,10.095609619140625,-3.1720187664031982,9.132040977478027,1.647581934928894
1772727880655609600,10.105609619140624,-3.1704459190368652,9.13214111328125,1.6500428915023804
1772727880665609700,10.115609619140624,-3.169050931930542,9.132164001464844,1.6525996923446655
1772727880675609600,10.125609619140626,-3.166934013366699,9.132593154907227,1.6542882919311523
1772727880685609700,10.135609619140626,-3.1640167236328125,9.1332368850708,1.6563100814819336
1772727880695609600,10.145609619140625,-3.161621570587158,9.133938789367676,1.6570141315460205
1772727880705609700,10.155609619140625,-3.161623001098633,9.133913040161133,1.6571544408798218
1772727880715609600,10.165609619140625,-3.1602604389190674,9.134410858154297,1.657012701034546
1772727880725609700,10.175609619140625,-3.1588082313537598,9.135278701782227,1.6549972295761108
1772727880735609600,10.185609619140624,-3.1595964431762695,9.135729789733887,1.6509913206100464
1772727880745609700,10.195609619140624,-3.159649610519409,9.137051582336426,1.6435582637786865
1772727880755609600,10.205609619140626,-3.1583621501922607,9.139107704162598,1.6345808506011963
1772727880765609700,10.215609619140626,-3.158926248550415,9.139955520629883,1.6287399530410767
1772727880775609600,10.225609619140625,-3.1613855361938477,9.139300346374512,1.6276451349258423
1772727880785609700,10.235609619140625,-3.1622025966644287,9.138680458068848,1.6295289993286133
1772727880795609600,10.245609619140625,-3.1600124835968018,9.138887405395508,1.6326160430908203
1772727880805609700,10.255609619140625,-3.156162738800049,9.139383316040039,1.6372836828231812
1772727880815609600,10.265609619140625,-3.1524441242218018,9.139711380004883,1.6426059007644653
1772727880825609700,10.275609619140624,-3.149583339691162,9.139989852905273,1.6465380191802979
1772727880835609600,10.285609619140626,-3.146596908569336,9.140911102294922,1.6471383571624756
1772727880845609700,10.295609619140626,-3.145599842071533,9.141959190368652,1.643220067024231
1772727880855609600,10.305609619140625,-3.146379232406616,9.142930030822754,1.6363108158111572
1772727880865609700,10.315609619140625,-3.147094249725342,9.144373893737793,1.6268421411514282
1772727880875609600,10.325609619140625,-3.1475253105163574,9.145816802978516,1.6178711652755737
1772727880885609700,10.335609619140625,-3.148247003555298,9.14664363861084,1.6117836236953735
1772727880895609600,10.345609619140625,-3.149179697036743,9.146599769592285,1.610204815864563
1772727880905609700,10.355609619140624,-3.148766040802002,9.146393775939941,1.6121852397918701
1772727880915609600,10.365609619140624,-3.147250175476074,9.146398544311523,1.615114688873291
1772727880925609700,10.375609619140626,-3.145423412322998,9.146690368652344,1.6170241832733154
1772727880935609600,10.385609619140626,-3.1452925205230713,9.146488189697266,1.61841881275177
1772727880945609700,10.395609619140625,-3.147891044616699,9.145193099975586,1.6206837892532349
1772727880955609600,10.405609619140625,-3.149676561355591,9.144613265991211,1.6204816102981567
1772727880965609700,10.415609619140625,-3.1486167907714844,9.145605087280273,1.6169418096542358
1772727880975609600,10.425609619140625,-3.1477272510528564,9.146906852722168,1.6113027334213257
1772727880985609700,10.435609619140624,-3.15346097946167,9.145549774169922,1.6077899932861328
1772727880995609600,10.445609619140624,-3.1598808765411377,9.143404006958008,1.6073923110961914
1772727881005609700,10.455609619140626,-3.161579132080078,9.142498016357422,1.6092000007629395
1772727881015609600,10.465609619140626,-3.1601808071136475,9.14240550994873,1.6124731302261353
1772727881025609700,10.475609619140625,-3.1599843502044678,9.141650199890137,1.6171355247497559
1772727881035609600,10.485609619140625,-3.160626173019409,9.140710830688477,1.6211844682693481
1772727881045609700,10.495609619140625,-3.1620662212371826,9.139848709106445,1.6232393980026245
1772727881055609600,10.505609619140625,-3.164398670196533,9.138933181762695,1.6238433122634888
1772727881065609700,10.515609619140625,-3.1668624877929688,9.138090133666992,1.6237848997116089
1772727881075609600,10.525609619140624,-3.167570114135742,9.13792896270752,1.6233078241348267
1772727881085609700,10.535609619140626,-3.1670992374420166,9.138484001159668,1.621102213859558
1772727881095609600,10.545609619140626,-3.1654841899871826,9.139586448669434,1.618044137954712
1772727881105609700,10.555609619140625,-3.163022518157959,9.141060829162598,1.614524006843567
1772727881115609600,10.565609619140625,-3.1606392860412598,9.142256736755371,1.612415075302124
1772727881125609700,10.575609619140625,-3.160053253173828,9.14267349243164,1.6111985445022583
1772727881135609600,10.585609619140625,-3.162417411804199,9.142074584960938,1.6099597215652466
1772727881145609700,10.595609619140625,-3.1662697792053223,9.1405029296875,1.6113113164901733
1772727881155609600,10.605609619140624,-3.169529676437378,9.138467788696289,1.6164395809173584
1772727881165609700,10.615609619140624,-3.1708240509033203,9.136741638183594,1.6236425638198853
1772727881175609600,10.625609619140626,-3.1695995330810547,9.136075019836426,1.6297684907913208
1772727881185609700,10.635609619140626,-3.1661200523376465,9.136834144592285,1.632280945777893
1772727881195609600,10.645609619140625,-3.1616032123565674,9.138579368591309,1.6312644481658936
1772727881205609700,10.655609619140625,-3.1593737602233887,9.14023208618164,1.6263188123703003
1772727881215609600,10.665609619140625,-3.1614785194396973,9.140813827514648,1.6189417839050293
1772727881225609700,10.675609619140625,-3.165315866470337,9.140847206115723,1.6112326383590698
1772727881235609600,10.685609619140624,-3.169640064239502,9.140603065490723,1.6041011810302734
1772727881245609700,10.695609619140624,-3.174239158630371,9.13962459564209,1.600581169128418
1772727881255609600,10.705609619140626,-3.1779234409332275,9.138293266296387,1.6008738279342651
1772727881265609700,10.715609619140626,-3.1782960891723633,9.137443542480469,1.6049741506576538
1772727881275609600,10.725609619140625,-3.1742937564849854,9.13789176940918,1.6103355884552002
1772727881285609700,10.735609619140625,-3.1698834896087646,9.13866901397705,1.6146042346954346
1772727881295609600,10.745609619140625,-3.167985677719116,9.138815879821777,1.6174973249435425
1772727881305609700,10.755609619140625,-3.166224718093872,9.139354705810547,1.6178981065750122
1772727881315609600,10.765609619140625,-3.1644091606140137,9.140361785888672,1.6157628297805786
1772727881325609700,10.775609619140624,-3.1649723052978516,9.140825271606445,1.6120326519012451
1772727881335609600,10.785609619140626,-3.168114185333252,9.140348434448242,1.6085628271102905
1772727881345609700,10.795609619140626,-3.170536994934082,9.140039443969727,1.605544924736023
1772727881355609600,10.805609619140625,-3.1706769466400146,9.140584945678711,1.602156162261963
1772727881365609700,10.815609619140625,-3.1700382232666016,9.141493797302246,1.5982320308685303
1772727881375609600,10.825609619140625,-3.1702349185943604,9.141955375671387,1.5952000617980957
1772727881385609700,10.835609619140625,-3.1696746349334717,9.142369270324707,1.5939362049102783
1772727881395609600,10.845609619140625,-3.1683509349823,9.142922401428223,1.593392252922058
1772727881405609700,10.855609619140624,-3.168304681777954,9.142876625061035,1.5937490463256836
1772727881415609600,10.865609619140624,-3.16999888420105,9.14185619354248,1.596232533454895
1772727881425609700,10.875609619140626,-3.1700568199157715,9.141363143920898,1.598944902420044
1772727881435609600,10.885609619140626,-3.168227434158325,9.141813278198242,1.5999902486801147
1772727881445609700,10.895609619140625,-3.167922019958496,9.142017364501953,1.5994325876235962
1772727881455609600,10.905609619140625,-3.169088840484619,9.14183235168457,1.598174810409546
1772727881465609700,10.915609619140625,-3.169548749923706,9.141836166381836,1.5972411632537842
1772727881475609600,10.925609619140625,-3.1690382957458496,9.142394065856934,1.5950584411621094
1772727881485609700,10.935609619140624,-3.1688425540924072,9.143082618713379,1.5914952754974365
1772727881495609600,10.945609619140624,-3.168698310852051,9.14371109008789,1.5881708860397339
1772727881505609700,10.955609619140626,-3.1685657501220703,9.144147872924805,1.5859159231185913
1772727881515609600,10.965609619140626,-3.169003963470459,9.144242286682129,1.5844972133636475
1772727881525609700,10.975609619140625,-3.1707141399383545,9.143888473510742,1.5831209421157837
1772727881535609600,10.985609619140625,-3.1730589866638184,9.143157005310059,1.5826488733291626
1772727881545609700,10.995609619140625,-3.1737112998962402,9.142684936523438,1.5840582847595215
1772727881555609600,11.005609619140625,-3.172536849975586,9.142735481262207,1.5861250162124634
1772727881565609700,11.015609619140625,-3.174503803253174,9.141678810119629,1.5882755517959595
1772727881575609600,11.025609619140624,-3.176741123199463,9.14073371887207,1.5892400741577148
1772727881585609700,11.035609619140626,-3.176980972290039,9.140718460083008,1.588847041130066
1772727881595609600,11.045609619140626,-3.1766834259033203,9.141018867492676,1.5877139568328857
1772727881605609700,11.055609619140625,-3.1787548065185547,9.140583038330078,1.5860743522644043
1772727881615609600,11.065609619140625,-3.181339979171753,9.139981269836426,1.584363341331482
1772727881625609700,11.075609619140625,-3.1850147247314453,9.138643264770508,1.5846989154815674
1772727881635609600,11.085609619140625,-3.1884117126464844,9.137164115905762,1.586391568183899
1772727881645609700,11.095609619140625,-3.190657615661621,9.136249542236328,1.5871469974517822
1772727881655609600,11.105609619140624,-3.1917166709899902,9.13597583770752,1.5865960121154785
1772727881665609700,11.115609619140624,-3.193208694458008,9.135676383972168,1.5853160619735718
1772727881675609600,11.125609619140626,-3.1951744556427,9.135279655456543,1.5836405754089355
1772727881685609700,11.135609619140626,-3.19757342338562,9.134529113769531,1.5831223726272583
1772727881695609600,11.145609619140625,-3.2003536224365234,9.133575439453125,1.583013653755188
1772727881705609700,11.155609619140625,-3.204116106033325,9.13208293914795,1.584015965461731
1772727881715609600,11.165609619140625,-3.208902597427368,9.129827499389648,1.587318778038025
1772727881725609700,11.175609619140625,-3.211916446685791,9.127683639526367,1.5935406684875488
1772727881735609600,11.185609619140624,-3.210453510284424,9.127219200134277,1.5991445779800415
1772727881745609700,11.195609619140624,-3.2077085971832275,9.127750396728516,1.601610541343689
1772727881755609600,11.205609619140626,-3.2074387073516846,9.127700805664062,1.602431297302246
1772727881765609700,11.215609619140626,-3.208580732345581,9.12710952758789,1.603519082069397
1772727881775609600,11.225609619140625,-3.2085161209106445,9.127100944519043,1.6036920547485352
1772727881785609700,11.235609619140625,-3.2084975242614746,9.127758026123047,1.5999865531921387
1772727881795609600,11.245609619140625,-3.2107367515563965,9.12793254852295,1.5944894552230835
1772727881805609700,11.255609619140625,-3.213435411453247,9.127362251281738,1.5923221111297607
1772727881815609600,11.265609619140625,-3.2150540351867676,9.126690864562988,1.5928964614868164
1772727881825609700,11.275609619140624,-3.214540958404541,9.126962661743164,1.5923792123794556
1772727881835609600,11.285609619140626,-3.2123982906341553,9.127775192260742,1.5920391082763672
1772727881845609700,11.295609619140626,-3.2093377113342285,9.128902435302734,1.5917556285858154
1772727881855609600,11.305609619140625,-3.206058979034424,9.12997817993164,1.5921891927719116
1772727881865609700,11.315609619140625,-3.203174352645874,9.130842208862305,1.5930421352386475
1772727881875609600,11.325609619140625,-3.2007880210876465,9.13170337677002,1.5929009914398193
1772727881885609500,11.335609375,-3.198647975921631,9.132686614990234,1.5915610790252686
1772727881895609600,11.345609619140625,-3.1971254348754883,9.133004188537598,1.5927972793579102
1772727881905609500,11.355609375,-3.194810628890991,9.133350372314453,1.5954557657241821
1772727881915609600,11.365609619140624,-3.1936299800872803,9.133481979370117,1.5970592498779297
1772727881925609500,11.375609375,-3.1941752433776855,9.133271217346191,1.597183108329773
1772727881935609600,11.385609619140626,-3.1951777935028076,9.133156776428223,1.595833659172058
1772727881945609500,11.395609375,-3.19447660446167,9.13366413116455,1.594334602355957
1772727881955609600,11.405609619140625,-3.192828893661499,9.1347017288208,1.5916885137557983
1772727881965609500,11.415609375,-3.1931815147399902,9.135039329528809,1.5890356302261353
1772727881975609600,11.425609619140625,-3.1944844722747803,9.135014533996582,1.5865564346313477
1772727881985609500,11.435609375,-3.194817304611206,9.135016441345215,1.5858737230300903
1772727881995609600,11.445609619140624,-3.1932637691497803,9.135408401489258,1.5867486000061035
1772727882005609500,11.455609375,-3.19101619720459,9.135978698730469,1.5879859924316406
1772727882015609600,11.465609619140626,-3.1887271404266357,9.136686325073242,1.588513731956482
1772727882025609500,11.475609375,-3.1870508193969727,9.13736629486084,1.5879608392715454
1772727882035609600,11.485609619140625,-3.1854605674743652,9.138100624084473,1.5869275331497192
1772727882045609500,11.495609375,-3.183683395385742,9.13892650604248,1.5857423543930054
1772727882055609600,11.505609619140625,-3.1811776161193848,9.140129089355469,1.583832025527954
1772727882065609500,11.515609375,-3.180075168609619,9.141105651855469,1.580409049987793
1772727882075609600,11.525609619140624,-3.180467367172241,9.141499519348145,1.5773409605026245
1772727882085609500,11.535609375,-3.1795895099639893,9.142126083374023,1.5754773616790771
1772727882095609600,11.545609619140626,-3.1775734424591064,9.143126487731934,1.5737351179122925
1772727882105609500,11.555609375,-3.175586462020874,9.144229888916016,1.571342945098877
1772727882115609600,11.565609619140625,-3.174506664276123,9.144728660583496,1.5706161260604858
1772727882125609500,11.575609375,-3.17075514793396,9.14622974395752,1.569455623626709
1772727882135609600,11.585609619140625,-3.1682112216949463,9.147644996643066,1.5663386583328247
1772727882145609500,11.595609375,-3.168621301651001,9.148043632507324,1.5631743669509888
1772727882155609600,11.605609619140624,-3.1696009635925293,9.14853572845459,1.5583099126815796
1772727882165609500,11.615609375,-3.1702117919921875,9.149176597595215,1.5532885789871216
1772727882175609600,11.625609619140626,-3.1725783348083496,9.148720741271973,1.5511363744735718
1772727882185609500,11.635609375,-3.1764159202575684,9.146899223327637,1.5540316104888916
1772727882195609600,11.645609619140625,-3.178316116333008,9.145341873168945,1.5593013763427734
1772727882205609500,11.655609375,-3.177586317062378,9.14477252960205,1.5641193389892578
1772727882215609600,11.665609619140625,-3.17545747756958,9.144865989685059,1.5678939819335938
1772727882225609500,11.675609375,-3.1728241443634033,9.145208358764648,1.5712207555770874
1772727882235609600,11.685609619140624,-3.16982102394104,9.145970344543457,1.5728445053100586
1772727882245609500,11.695609375,-3.1696114540100098,9.146183967590332,1.5720272064208984
1772727882255609600,11.705609619140626,-3.1740264892578125,9.145258903503418,1.5685003995895386
1772727882265609500,11.715609375,-3.1821019649505615,9.143186569213867,1.5642085075378418
1772727882275609600,11.725609619140625,-3.1896281242370605,9.141246795654297,1.5602163076400757
1772727882285609500,11.735609375,-3.1939966678619385,9.14048957824707,1.5557085275650024
1772727882295609600,11.745609619140625,-3.1943511962890625,9.141193389892578,1.550834059715271
1772727882305609500,11.755609375,-3.194594144821167,9.141643524169922,1.547672986984253
1772727882315609600,11.765609619140625,-3.196091890335083,9.141048431396484,1.5481030941009521
1772727882325609500,11.775609375,-3.19685697555542,9.140630722045898,1.5489863157272339
1772727882335609600,11.785609619140626,-3.1989729404449463,9.139570236206055,1.5508761405944824
1772727882345609500,11.795609375,-3.202876329421997,9.13761043548584,1.5543673038482666
1772727882355609600,11.805609619140625,-3.2078676223754883,9.135053634643555,1.5590907335281372
1772727882365609500,11.815609375,-3.211455821990967,9.13287353515625,1.5644686222076416
1772727882375609600,11.825609619140625,-3.213210105895996,9.131789207458496,1.5671985149383545
1772727882385609500,11.835609375,-3.212970495223999,9.132039070129395,1.56623375415802
1772727882395609600,11.845609619140625,-3.2114884853363037,9.133196830749512,1.5625100135803223
1772727882405609500,11.855609375,-3.2130484580993652,9.133491516113281,1.5575743913650513
1772727882415609600,11.865609619140624,-3.2184674739837646,9.132251739501953,1.5536525249481201
1772727882425609500,11.875609375,-3.222860336303711,9.131123542785645,1.5511797666549683
1772727882435609600,11.885609619140626,-3.225090503692627,9.130372047424316,1.550959825515747
1772727882445609500,11.895609375,-3.227682113647461,9.129438400268555,1.5510674715042114
1772727882455609600,11.905609619140625,-3.2305850982666016,9.1282958984375,1.5517491102218628
1772727882465609500,11.915609375,-3.2311477661132812,9.127714157104492,1.5539993047714233
1772727882475609600,11.925609619140625,-3.230729818344116,9.127554893493652,1.5557982921600342
1772727882485609500,11.935609375,-3.230677366256714,9.127355575561523,1.5570802688598633
1772727882495609600,11.945609619140624,-3.2308521270751953,9.127063751220703,1.5584259033203125
1772727882505609500,11.955609375,-3.231159210205078,9.126750946044922,1.5596215724945068
1772727882515609600,11.965609619140626,-3.2310800552368164,9.126547813415527,1.5609747171401978
1772727882525609500,11.975609375,-3.2297236919403076,9.126901626586914,1.5617117881774902
1772727882535609600,11.985609619140625,-3.2293388843536377,9.126874923706055,1.5626599788665771
1772727882545609500,11.995609375,-3.230290174484253,9.12640380859375,1.5634500980377197
1772727882555609600,12.005609619140625,-3.2323591709136963,9.125524520874023,1.56430184841156
1772727882565609500,12.015609375,-3.233555555343628,9.12502670288086,1.564732313156128
1772727882575609600,12.025609619140624,-3.2337288856506348,9.125090599060059,1.5640029907226562
1772727882585609500,12.035609375,-3.232835292816162,9.125809669494629,1.5616493225097656
1772727882595609600,12.045609619140626,-3.232776403427124,9.126235008239746,1.5592923164367676
1772727882605609500,12.055609375,-3.232633352279663,9.126616477966309,1.5573556423187256
1772727882615609600,12.065609619140625,-3.232304573059082,9.127179145812988,1.5547369718551636
1772727882625609500,12.075609375,-3.232377290725708,9.12765121459961,1.5518056154251099
1772727882635609600,12.085609619140625,-3.2336626052856445,9.127206802368164,1.5517396926879883
1772727882645609500,12.095609375,-3.2343287467956543,9.126542091369629,1.5542625188827515
1772727882655609600,12.105609619140624,-3.232926607131958,9.126684188842773,1.556339979171753
1772727882665609500,12.115609375,-3.2314159870147705,9.127033233642578,1.5574371814727783
1772727882675609600,12.125609619140626,-3.230466365814209,9.12717342376709,1.5585862398147583
1772727882685609500,12.135609375,-3.228438377380371,9.127660751342773,1.5599310398101807
1772727882695609600,12.145609619140625,-3.226140260696411,9.128669738769531,1.558782935142517
1772727882705609500,12.155609375,-3.226126194000244,9.129305839538574,1.5550802946090698
1772727882715609600,12.165609619140625,-3.2275452613830566,9.129653930664062,1.550081491470337
1772727882725609500,12.175609375,-3.2287909984588623,9.129929542541504,1.545860767364502
1772727882735609600,12.185609619140624,-3.227801561355591,9.130427360534668,1.5449810028076172
1772727882745609500,12.195609375,-3.2241902351379395,9.131733894348145,1.5448071956634521
1772727882755609600,12.205609619140626,-3.2204020023345947,9.133190155029297,1.5440982580184937
1772727882765609500,12.215609375,-3.217785120010376,9.134236335754395,1.5433627367019653
1772727882775609600,12.225609619140625,-3.215974807739258,9.135144233703613,1.5417628288269043
1772727882785609500,12.235609375,-3.2144126892089844,9.13634967803955,1.5378758907318115
1772727882795609600,12.245609619140625,-3.2127537727355957,9.137921333312988,1.531995415687561
1772727882805609500,12.255609375,-3.2130661010742188,9.138750076293945,1.5263824462890625
1772727882815609600,12.265609619140625,-3.2143683433532715,9.138650894165039,1.5242363214492798
1772727882825609500,12.275609375,-3.21393084526062,9.138666152954102,1.525067687034607
1772727882835609600,12.285609619140626,-3.2119946479797363,9.139010429382324,1.5270839929580688
1772727882845609500,12.295609375,-3.209604501724243,9.139203071594238,1.5309447050094604
1772727882855609600,12.305609619140625,-3.2055277824401855,9.139991760253906,1.5347670316696167
1772727882865609500,12.315609375,-3.199415445327759,9.141749382019043,1.5370572805404663
1772727882875609600,12.325609619140625,-3.197195291519165,9.143089294433594,1.5337088108062744
1772727882885609500,12.335609375,-3.2029452323913574,9.142672538757324,1.5241609811782837
1772727882895609600,12.345609619140625,-3.2110626697540283,9.141423225402832,1.5145454406738281
1772727882905609500,12.355609375,-3.216695547103882,9.140032768249512,1.5109784603118896
1772727882915609600,12.365609619140624,-3.219913959503174,9.138659477233887,1.512427806854248
1772727882925609500,12.375609375,-3.2226874828338623,9.136923789978027,1.5170053243637085
1772727882935609600,12.385609619140626,-3.220906972885132,9.136717796325684,1.5220165252685547
1772727882945609500,12.395609375,-3.216568946838379,9.137574195861816,1.526045560836792
1772727882955609600,12.405609619140625,-3.2136034965515137,9.138060569763184,1.5293716192245483
1772727882965609500,12.415609375,-3.213444709777832,9.137969017028809,1.5302562713623047
1772727882975609600,12.425609619140625,-3.2150630950927734,9.137640953063965,1.5288082361221313
1772727882985609500,12.435609375,-3.218984603881836,9.136735916137695,1.5259681940078735
1772727882995609600,12.445609619140624,-3.2254698276519775,9.134919166564941,1.5231479406356812
1772727883005609500,12.455609375,-3.2317512035369873,9.132963180541992,1.521565318107605
1772727883015609600,12.465609619140626,-3.2338550090789795,9.13219165802002,1.5217260122299194
1772727883025609500,12.475609375,-3.2327537536621094,9.132619857788086,1.5214899778366089
1772727883035609600,12.485609619140625,-3.234097719192505,9.132189750671387,1.521222710609436
1772727883045609500,12.495609375,-3.234767436981201,9.132128715515137,1.5201619863510132
1772727883055609600,12.505609619140625,-3.235067844390869,9.13219928741455,1.5191028118133545
1772727883065609500,12.515609375,-3.237316370010376,9.131489753723145,1.5185739994049072
1772727883075609600,12.525609619140624,-3.241884469985962,9.12997055053711,1.5179601907730103
1772727883085609500,12.535609375,-3.246006488800049,9.128507614135742,1.5179499387741089
1772727883095609600,12.545609619140626,-3.248809576034546,9.127291679382324,1.5192652940750122
1772727883105609500,12.555609375,-3.2502262592315674,9.126256942749023,1.5224525928497314
1772727883115609600,12.565609619140625,-3.2507803440093994,9.12520694732666,1.5275554656982422
1772727883125609500,12.575609375,-3.2508256435394287,9.124412536621094,1.5321968793869019
1772727883135609600,12.585609619140625,-3.248622417449951,9.125101089477539,1.5327725410461426
1772727883145609500,12.595609375,-3.2476210594177246,9.126091003417969,1.528989553451538
1772727883155609600,12.605609619140624,-3.2508628368377686,9.125584602355957,1.525113821029663
1772727883165609500,12.615609375,-3.254300117492676,9.125046730041504,1.5209991931915283
1772727883175609600,12.625609619140626,-3.255638360977173,9.125242233276367,1.5169589519500732
1772727883185609500,12.635609375,-3.2566030025482178,9.12548542022705,1.513421654701233
1772727883195609600,12.645609619140625,-3.2575416564941406,9.125616073608398,1.51060950756073
1772727883205609500,12.655609375,-3.256957530975342,9.125900268554688,1.510154128074646
1772727883215609600,12.665609619140625,-3.2537057399749756,9.126893997192383,1.5111510753631592
1772727883225609500,12.675609375,-3.250692129135132,9.127906799316406,1.5115243196487427
1772727883235609600,12.685609619140624,-3.2507405281066895,9.12758731842041,1.5133503675460815
1772727883245609500,12.695609375,-3.2513794898986816,9.126701354980469,1.5173076391220093
1772727883255609600,12.705609619140626,-3.250174045562744,9.126465797424316,1.52130925655365
1772727883265609500,12.715609375,-3.2474775314331055,9.127060890197754,1.5234915018081665
1772727883275609600,12.725609619140625,-3.2448277473449707,9.127909660339355,1.5240482091903687
1772727883285609500,12.735609375,-3.2425320148468018,9.128799438476562,1.5236173868179321
1772727883295609600,12.745609619140625,-3.2407009601593018,9.129679679870605,1.522233009338379
1772727883305609500,12.755609375,-3.2382075786590576,9.130940437316895,1.519973874092102
1772727883315609600,12.765609619140625,-3.2362287044525146,9.13221263885498,1.516541600227356
1772727883325609500,12.775609375,-3.2349202632904053,9.13314151763916,1.5137382745742798
1772727883335609600,12.785609619140626,-3.233280658721924,9.133983612060547,1.5121567249298096
1772727883345609500,12.795609375,-3.2318577766418457,9.134549140930176,1.5117888450622559
1772727883355609600,12.805609619140625,-3.2308125495910645,9.134754180908203,1.5127723217010498
1772727883365609500,12.815609375,-3.2293224334716797,9.135124206542969,1.5137302875518799
1772727883375609600,12.825609619140625,-3.226821184158325,9.136139869689941,1.5129289627075195
1772727883385609500,12.835609375,-3.2243571281433105,9.137474060058594,1.5101195573806763
1772727883395609600,12.845609619140625,-3.2234702110290527,9.138324737548828,1.5068689584732056
1772727883405609500,12.855609375,-3.2245399951934814,9.138165473937988,1.5055406093597412
1772727883415609600,12.865609619140624,-3.22257399559021,9.138471603393555,1.5078953504562378
