time,seconds_elapsed,z,y,x
1772727870643370000,0.093369873046875,-0.8197805285453796,-0.8955277800559998,0.471587598323822
1772727870660715500,0.110715576171875,-0.8405499458312988,-0.9969313144683838,0.6487383842468262
1772727870678061300,0.128061279296875,-0.8032872080802917,-1.063515543937683,0.8112284541130066
1772727870695406800,0.14540673828125,-0.7330377101898193,-1.1404845714569092,0.8881973624229431
1772727870712752600,0.162752685546875,-0.7177661061286926,-1.3359612226486206,0.9046907424926758
1772727870730098200,0.18009814453125,-0.8167262077331543,-1.6016874313354492,0.915686309337616
1772727870747443700,0.197443603515625,-0.9089667797088623,-1.7947207689285278,0.9401208758354187
1772727870764789500,0.21478955078125,-0.8106175661087036,-2.014021158218384,0.9651663303375244
1772727870782135000,0.232135009765625,-0.6023126840591431,-2.2669191360473633,1.1392627954483032
1772727870799480800,0.249480712890625,-0.39339691400527954,-2.6114468574523926,1.378721833229065
1772727870816826400,0.266826416015625,-0.33597561717033386,-2.6254968643188477,1.5949679613113403
1772727870834172000,0.284171875,-0.3695732057094574,-2.126420259475708,1.7886121273040771
1772727870851517700,0.301517578125,-0.2565632164478302,-1.795331597328186,1.821598768234253
1772727870868863200,0.31886328125,-0.04276053607463837,-1.8185445070266724,1.7244713306427002
1772727870886209000,0.336208984375,0.09040798991918564,-1.831372618675232,1.618180751800537
1772727870903554600,0.353554443359375,0.3176496922969818,-1.6591087579727173,1.4666863679885864
1772727870920900000,0.370900146484375,0.6737838387489319,-1.6029092073440552,1.2351685762405396
1772727870938246000,0.388245849609375,0.8741474747657776,-1.4306453466415405,0.9828814268112183
1772727870955591400,0.40559130859375,0.8906408548355103,-0.9114102721214294,0.721431314945221
1772727870972937200,0.422937255859375,0.915075421333313,-0.49113526940345764,0.37201663851737976
1772727870990282800,0.44028271484375,0.8881973624229431,-0.44348782300949097,-0.043982263654470444
1772727871007628300,0.457628173828125,0.8820887207984924,-0.40866854786872864,-0.4868592321872711
1772727871024974000,0.47497412109375,0.94439697265625,-0.4972439408302307,-0.9101884961128235
1772727871042319600,0.492319580078125,0.9144645929336548,-0.565049946308136,-1.0421353578567505
1772727871059665400,0.50966552734375,0.7696896195411682,-0.43982264399528503,-0.8741474747657776
1772727871077011000,0.527010986328125,0.667064368724823,-0.30970844626426697,-0.6059778332710266
1772727871094356500,0.5443564453125,0.5241219997406006,-0.0824667438864708,-0.2987128794193268
1772727871111702300,0.561702392578125,0.318871408700943,0.3121519088745117,0.05253437161445618
1772727871129047800,0.5790478515625,0.28466299176216125,0.5338957905769348,0.2260199636220932
1772727871146393600,0.5963935546875,0.5760455131530762,0.7171552777290344,0.10995566099882126
1772727871163739100,0.6137392578125,0.8936951756477356,0.7360920310020447,-0.04214967042207718
1772727871181085000,0.6310849609375,0.8894191384315491,0.4819723069667816,0.009162971749901772
1772727871198430500,0.648430419921875,0.8674280047416687,0.002443459117785096,0.5033525824546814
1772727871215776000,0.66577587890625,0.646905779838562,0.18264856934547424,1.1508692502975464
1772727871233121800,0.683121826171875,0.42332929372787476,0.3298669755458832,1.451414704322815
1772727871250467300,0.70046728515625,0.30970844626426697,0.07024945318698883,1.3017528057098389
1772727871267813000,0.717813232421875,0.22907429933547974,-0.43371400237083435,1.000596523284912
1772727871285158700,0.73515869140625,0.2724456787109375,-0.4868592321872711,0.9370665550231934
1772727871302504200,0.752504150390625,0.4416552484035492,-0.30604326725006104,1.0555742979049683
1772727871319850000,0.76985009765625,0.5143481492996216,-0.30543237924575806,1.0378592014312744
1772727871337195500,0.787195556640625,0.401949018239975,0.020158538594841957,0.9224058389663696
1772727871354541300,0.804541259765625,0.3127627670764923,0.3341430425643921,0.5729911923408508
1772727871371886800,0.821886962890625,0.3842339515686035,-0.009773836471140385,-0.3084867000579834
1772727871389232400,0.839232421875,0.34086254239082336,-0.4862483739852905,-1.1062761545181274
1772727871406578200,0.856578125,0.21135921776294708,-0.9669989347457886,-1.204014539718628
1772727871423923700,0.873923828125,0.012217295356094837,-1.4172062873840332,-0.7739656567573547
1772727871441269500,0.89126953125,-0.1588248461484909,-1.5149446725845337,-0.20647229254245758
1772727871458615000,0.908614990234375,-0.2926042377948761,-1.265711784362793,0.0616973415017128
1772727871475960600,0.925960693359375,-0.41783151030540466,-1.000596523284912,0.10690133273601532
1772727871493306400,0.943306396484375,-0.5821541547775269,-0.5510000586509705,0.268169641494751
1772727871510652000,0.96065185546875,-0.84177166223526,-0.22785256803035736,0.8405499458312988
1772727871527997700,0.977997802734375,-0.8387173414230347,-0.11606431007385254,1.3060288429260254
1772727871545343200,0.99534326171875,-0.6939423680305481,-0.17653992772102356,1.441640853881836
1772727871562688800,1.012688720703125,-0.5418370366096497,-0.25473061203956604,1.6707152128219604
1772727871580034600,1.03003466796875,-0.4056142270565033,-0.26878049969673157,1.9370522499084473
1772727871597380000,1.047380126953125,-0.35796675086021423,-0.20891575515270233,2.388481378555298
1772727871614726000,1.064725830078125,-0.2406807243824005,-0.04886918142437935,2.777602195739746
1772727871632071400,1.082071533203125,-0.1130099818110466,0.17837251722812653,2.724457025527954
1772727871649417200,1.099417236328125,0.08124501258134842,0.711046576499939,1.9828671216964722
1772727871666762800,1.1167626953125,0.33108872175216675,0.05925388261675835,1.7519601583480835
1772727871684108300,1.1341083984375,0.6462949514389038,0.12705987691879272,1.8851287364959717
1772727871701454000,1.1514541015625,0.6676751971244812,0.17043127119541168,1.2089014053344727
1772727871718799600,1.168799560546875,0.21868959069252014,0.4251618981361389,0.42821621894836426
1772727871736145400,1.1861455078125,-0.19181154668331146,0.5381718873977661,-0.2724456787109375
1772727871753491000,1.203490966796875,-0.3035998046398163,0.7122683525085449,-0.9804379940032959
1772727871770836500,1.22083642578125,-0.41355544328689575,0.6829468011856079,-1.2919789552688599
1772727871788182300,1.238182373046875,-0.5479456782341003,0.5839866995811462,-1.2095122337341309
1772727871805527800,1.25552783203125,-0.6059778332710266,0.32192572951316833,-1.0207550525665283
1772727871822873600,1.27287353515625,-0.8045089244842529,0.13194678723812103,-0.8118392825126648
1772727871840219100,1.29021923828125,-0.9963204264640808,0.14660754799842834,-0.729983389377594
1772727871857564700,1.307564697265625,-1.1423171758651733,0.1282816082239151,-0.8985821008682251
1772727871874910500,1.324910400390625,-0.9144645929336548,0.35674503445625305,-1.2003493309020996
1772727871892256000,1.342256103515625,-0.48013970255851746,0.18753549456596375,-1.5033382177352905
1772727871909601800,1.359601806640625,-0.18875721096992493,-0.3090975880622864,-1.339626431465149
1772727871926947300,1.376947265625,0.4563159942626953,0.5436696410179138,-0.2626718580722809
1772727871944292900,1.39429296875,0.8344413042068481,-0.11423171311616898,0.4886918365955353
1772727871961638700,1.411638671875,0.6071996092796326,-0.006719512399286032,0.12278381735086441
1772727871978984200,1.428984130859375,0.24434591829776764,0.006719512399286032,-0.22968515753746033
1772727871996330000,1.446330078125,-0.003665188793092966,0.023212861269712448,-0.03237583488225937
1772727872013675500,1.463675537109375,-0.01649334840476513,-0.030543239787220955,0.09712749719619751
1772727872031021000,1.48102099609375,-0.017715077847242355,0.027488915249705315,-0.03543015569448471
1772727872048366800,1.498366943359375,0.009162971749901772,0.03848448023200035,-0.007941242307424545
1772727872065712400,1.51571240234375,0.023823726922273636,0.023212861269712448,0.043982263654470444
1772727872083058200,1.53305810546875,0.01893680728971958,0.021991131827235222,0.011606430634856224
1772727872100403700,1.55040380859375,0.007330377586185932,0.009773836471140385,0.000610864779446274
1772727872117749200,1.567749267578125,-0.01282816007733345,-0.004886918235570192,0.014660755172371864
1772727872135095000,1.585094970703125,-0.01893680728971958,-0.011606430634856224,0.002443459117785096
1772727872152440600,1.602440673828125,-0.002443459117785096,-0.01282816007733345,0.002443459117785096
1772727872169786400,1.619786376953125,0.01282816007733345,-0.014049889519810677,0.014660755172371864
1772727872187132000,1.6371318359375,0.020769402384757996,-0.001221729558892548,0.025045456364750862
1772727872204477700,1.654477783203125,0.01954767294228077,0.001832594396546483,0.013439024798572063
1772727872221823200,1.6718232421875,0.006108647678047419,-0.003665188793092966,0.0030543238390237093
1772727872239168800,1.689168701171875,-0.0030543238390237093,-0.014049889519810677,-0.000610864779446274
1772727872256514600,1.7065146484375,-0.009162971749901772,-0.01893680728971958,0.011606430634856224
1772727872273860000,1.723860107421875,-0.004886918235570192,-0.01893680728971958,0.01588248461484909
1772727872291206000,1.741205810546875,0.001221729558892548,-0.01588248461484909,0.018325943499803543
1772727872308551400,1.758551513671875,0.009773836471140385,-0.011606430634856224,0.015271619893610477
1772727872325897000,1.77589697265625,0.013439024798572063,-0.011606430634856224,0.01649334840476513
1772727872343242800,1.79324267578125,0.0030543238390237093,-0.017104214057326317,0.017104214057326317
1772727872360588300,1.81058837890625,-0.006108647678047419,-0.018325943499803543,-0.000610864779446274
1772727872377934000,1.82793408203125,-0.008552107028663158,-0.025045456364750862,-0.001221729558892548
1772727872395279600,1.845279541015625,-0.0030543238390237093,-0.037262752652168274,0.01282816007733345
1772727872412625200,1.862625244140625,0.014049889519810677,-0.027488915249705315,0.02871064469218254
1772727872429971000,1.879970947265625,0.020158538594841957,-0.017104214057326317,0.02626718580722809
1772727872447316500,1.89731640625,0.011606430634856224,-0.011606430634856224,0.008552107028663158
1772727872464662300,1.914662353515625,-0.007941242307424545,-0.01649334840476513,-0.003665188793092966
1772727872482007800,1.9320078125,-0.01893680728971958,-0.030543239787220955,0.003665188793092966
1772727872499353600,1.949353515625,-0.033597562462091446,-0.04276053607463837,0.03481929376721382
1772727872516699100,1.96669921875,-0.020769402384757996,-0.025045456364750862,0.0360410213470459
1772727872534044700,1.984044677734375,-0.001221729558892548,-0.0030543238390237093,0.017104214057326317
1772727872551390500,2.001390380859375,0.012217295356094837,0.009773836471140385,0.020769402384757996
1772727872568736000,2.018736083984375,0.009773836471140385,0.0030543238390237093,0.012217295356094837
1772727872586081800,2.036081787109375,0.0030543238390237093,-0.01282816007733345,0.01954767294228077
1772727872603427300,2.05342724609375,0,-0.014049889519810677,0.04459312930703163
1772727872620772900,2.07077294921875,0.000610864779446274,-0.017715077847242355,0.034208428114652634
1772727872638118700,2.08811865234375,0.012217295356094837,-0.01588248461484909,0.039706211537122726
1772727872655464200,2.105464111328125,0.015271619893610477,-0.01649334840476513,0.026878049597144127
1772727872672810000,2.12281005859375,0.0030543238390237093,-0.011606430634856224,0.015271619893610477
1772727872690155500,2.140155517578125,-0.011606430634856224,-0.014049889519810677,0.015271619893610477
1772727872707501000,2.1575009765625,-0.01282816007733345,-0.01893680728971958,0.037262752652168274
1772727872724846800,2.174846923828125,-0.000610864779446274,-0.017715077847242355,0.04886918142437935
1772727872742192400,2.1921923828125,0.006719512399286032,-0.011606430634856224,0.03543015569448471
1772727872759538200,2.2095380859375,0.004886918235570192,-0.004276053514331579,0.009773836471140385
1772727872776883700,2.2268837890625,0.001832594396546483,0.000610864779446274,-0.004886918235570192
1772727872794229200,2.244229248046875,0.001832594396546483,-0.006719512399286032,0.012217295356094837
1772727872811575000,2.261574951171875,0.014660755172371864,-0.004886918235570192,0.04214967042207718
1772727872828920600,2.278920654296875,0.017715077847242355,0.001832594396546483,0.0409279391169548
1772727872846266400,2.296266357421875,0.003665188793092966,-0.003665188793092966,-0.010995565913617611
1772727872863612000,2.31361181640625,-0.006719512399286032,-0.023212861269712448,0.003665188793092966
1772727872880957700,2.330957763671875,-0.017715077847242355,-0.02260199747979641,0.023823726922273636
1772727872898303200,2.34830322265625,-0.01588248461484909,-0.009162971749901772,-0.009773836471140385
1772727872915648800,2.365648681640625,0.002443459117785096,-0.000610864779446274,0.0256563201546669
1772727872932994600,2.38299462890625,0.02260199747979641,0.009773836471140385,0.010384701192378998
1772727872950340000,2.400340087890625,0.03237583488225937,0.002443459117785096,0.01893680728971958
1772727872967686000,2.417685791015625,0.012217295356094837,0.002443459117785096,0.02626718580722809
1772727872985031400,2.435031494140625,-0.011606430634856224,-0.006108647678047419,-0.007941242307424545
1772727873002377000,2.452376953125,-0.011606430634856224,-0.008552107028663158,-0.002443459117785096
1772727873019722800,2.46972265625,0.001832594396546483,-0.008552107028663158,0.009773836471140385
1772727873037068300,2.487068359375,0.027488915249705315,0.000610864779446274,0.03543015569448471
1772727873054414000,2.5044140625,0.03298669680953026,0.009162971749901772,0.02626718580722809
1772727873071759600,2.521759521484375,0.008552107028663158,-0.0030543238390237093,-0.010995565913617611
1772727873089105400,2.53910546875,-0.021991131827235222,-0.01282816007733345,-0.014660755172371864
1772727873106451000,2.556450927734375,-0.03481929376721382,-0.03298669680953026,0.002443459117785096
1772727873123796500,2.57379638671875,-0.02260199747979641,-0.024434590712189674,0.02871064469218254
1772727873141142300,2.591142333984375,0.007941242307424545,0,0.017715077847242355
1772727873158487800,2.60848779296875,0.01649334840476513,0.015271619893610477,0.002443459117785096
1772727873175833600,2.62583349609375,0.010995565913617611,0.004886918235570192,-0.009773836471140385
1772727873193179100,2.64317919921875,0.01588248461484909,-0.015271619893610477,0.007941242307424545
1772727873210524700,2.660524658203125,-0.011606430634856224,-0.027488915249705315,0.008552107028663158
1772727873227870500,2.677870361328125,-0.01282816007733345,-0.023212861269712448,0.026878049597144127
1772727873245216000,2.695216064453125,-0.009773836471140385,-0.015271619893610477,0.006108647678047419
1772727873262561800,2.712561767578125,-0.006108647678047419,-0.01588248461484909,-0.004886918235570192
1772727873279907300,2.7299072265625,-0.006108647678047419,-0.020158538594841957,0.008552107028663158
1772727873297253000,2.747253173828125,-0.007330377586185932,-0.013439024798572063,0.040317077189683914
1772727873314598700,2.7645986328125,0.003665188793092966,-0.003665188793092966,0.023212861269712448
1772727873331944200,2.781944091796875,0.015271619893610477,0.0030543238390237093,0.029932374134659767
1772727873349290000,2.7992900390625,0.021380268037319183,0.015271619893610477,0.006108647678047419
1772727873366635500,2.816635498046875,0.02260199747979641,0.002443459117785096,0.018325943499803543
1772727873383981000,2.83398095703125,0.003665188793092966,-0.008552107028663158,0.025045456364750862
1772727873401326800,2.851326904296875,-0.009773836471140385,-0.018325943499803543,0.020158538594841957
1772727873418672400,2.86867236328125,-0.013439024798572063,-0.008552107028663158,0.024434590712189674
1772727873436018200,2.88601806640625,-0.006108647678047419,-0.004276053514331579,0.023823726922273636
1772727873453363700,2.90336376953125,0.007941242307424545,-0.003665188793092966,0.026878049597144127
1772727873470709500,2.92070947265625,0.01649334840476513,-0.009773836471140385,0.015271619893610477
1772727873488055000,2.938054931640625,0.007941242307424545,0,-0.007330377586185932
1772727873505400800,2.95540087890625,-0.008552107028663158,-0.007941242307424545,0.014660755172371864
1772727873522746400,2.972746337890625,-0.006719512399286032,-0.011606430634856224,0.021380268037319183
1772727873540092000,2.990091796875,0.007330377586185932,-0.0054977829568088055,0.01954767294228077
1772727873557437700,3.007437744140625,0.006108647678047419,0.006108647678047419,0.015271619893610477
1772727873574783200,3.024783203125,-0.001832594396546483,-0.0054977829568088055,-0.029932374134659767
1772727873592129000,3.04212890625,-0.007330377586185932,-0.021991131827235222,0.01893680728971958
1772727873609474600,3.059474609375,-0.007941242307424545,-0.020769402384757996,0.01649334840476513
1772727873626820400,3.0768203125,0.003665188793092966,-0.006719512399286032,0.024434590712189674
1772727873644166000,3.094165771484375,0.007941242307424545,0.007330377586185932,-0.003665188793092966
1772727873661511400,3.111511474609375,0.01649334840476513,0.004276053514331579,-0.014049889519810677
1772727873678857200,3.128857177734375,0.012217295356094837,-0.011606430634856224,0.002443459117785096
1772727873696202800,3.14620263671875,-0.000610864779446274,-0.004276053514331579,0.0256563201546669
1772727873713548500,3.163548583984375,-0.01588248461484909,-0.02932151034474373,-0.014049889519810677
1772727873730894000,3.18089404296875,-0.008552107028663158,-0.0256563201546669,0.006719512399286032
1772727873748239600,3.198239501953125,0.010995565913617611,0.000610864779446274,-0.004886918235570192
1772727873765585400,3.21558544921875,0.021380268037319183,-0.002443459117785096,0.009773836471140385
1772727873782931000,3.232930908203125,0.01588248461484909,-0.004886918235570192,0.02932151034474373
1772727873800276700,3.25027685546875,-0.002443459117785096,-0.01588248461484909,-0.006108647678047419
1772727873817622300,3.267622314453125,-0.01282816007733345,-0.026878049597144127,-0.000610864779446274
1772727873834968000,3.284968017578125,-0.011606430634856224,-0.020769402384757996,0.001221729558892548
1772727873852313600,3.302313720703125,0.003665188793092966,-0.004276053514331579,0.02260199747979641
1772727873869659100,3.3196591796875,0.01893680728971958,0.004276053514331579,0.020769402384757996
1772727873887005000,3.3370048828125,0.009162971749901772,-0.012217295356094837,0.018325943499803543
1772727873904350500,3.3543505859375,-0.002443459117785096,-0.02260199747979641,0.0256563201546669
1772727873921696300,3.3716962890625,-0.010995565913617611,-0.030543239787220955,0.023212861269712448
1772727873939041800,3.389041748046875,-0.017104214057326317,-0.02932151034474373,0.03481929376721382
1772727873956387600,3.4063876953125,-0.018325943499803543,-0.01893680728971958,-0.010384701192378998
1772727873973733000,3.423733154296875,-0.004886918235570192,-0.010995565913617611,0.004276053514331579
1772727873991079000,3.441078857421875,0.01954767294228077,-0.002443459117785096,0.031154103577136993
1772727874008424400,3.458424560546875,0.02626718580722809,-0.011606430634856224,0.0616973415017128
1772727874025770000,3.47577001953125,0.021991131827235222,-0.004276053514331579,0.050090912729501724
1772727874043115800,3.49311572265625,0,-0.011606430634856224,0.018325943499803543
1772727874060461300,3.51046142578125,-0.023823726922273636,-0.02260199747979641,-0.009162971749901772
1772727874077807000,3.52780712890625,-0.01588248461484909,-0.014049889519810677,0.010384701192378998
1772727874095152600,3.545152587890625,0.006108647678047419,-0.012217295356094837,0.049480047076940536
1772727874112498200,3.562498291015625,0.020158538594841957,-0.017104214057326317,0.04886918142437935
1772727874129844000,3.579843994140625,0.02871064469218254,0.004276053514331579,0.043371398001909256
1772727874147189500,3.597189453125,0.010384701192378998,-0.004886918235570192,-0.006719512399286032
1772727874164535300,3.614535400390625,-0.015271619893610477,-0.01282816007733345,0.007941242307424545
1772727874181880800,3.631880859375,-0.004886918235570192,-0.004276053514331579,0.017104214057326317
1772727874199226400,3.649226318359375,0.003665188793092966,-0.011606430634856224,0.0360410213470459
1772727874216572200,3.666572265625,0.0030543238390237093,-0.009773836471140385,0.03543015569448471
1772727874233917700,3.683917724609375,-0.004886918235570192,-0.002443459117785096,-0.004886918235570192
1772727874251263500,3.701263427734375,-0.013439024798572063,-0.017715077847242355,0.007330377586185932
1772727874268609000,3.718609130859375,-0.008552107028663158,-0.007941242307424545,0.028099779039621353
1772727874285954800,3.735954833984375,-0.007941242307424545,-0.014049889519810677,0.029932374134659767
1772727874303300400,3.75330029296875,0.006108647678047419,0.006719512399286032,0.03237583488225937
1772727874320646100,3.770646240234375,0.017104214057326317,0.011606430634856224,0.012217295356094837
1772727874337991700,3.78799169921875,0.01954767294228077,0.007330377586185932,0.01588248461484909
1772727874355337200,3.805337158203125,0.014660755172371864,0.001832594396546483,0.009162971749901772
1772727874372683000,3.82268310546875,0.010384701192378998,0.006108647678047419,0.020158538594841957
1772727874390028500,3.840028564453125,0.006108647678047419,0.0030543238390237093,0.010995565913617611
1772727874407374300,3.857374267578125,0.0030543238390237093,-0.009162971749901772,0.002443459117785096
1772727874424720000,3.874719970703125,0.01282816007733345,-0.01649334840476513,0.009162971749901772
1772727874442065700,3.892065673828125,0.006719512399286032,-0.020769402384757996,0.018325943499803543
1772727874459411200,3.9094111328125,-0.014660755172371864,-0.01649334840476513,-0.006108647678047419
1772727874476756700,3.9267568359375,-0.011606430634856224,-0.0054977829568088055,0.006719512399286032
1772727874494102500,3.9441025390625,0.006108647678047419,0.006108647678047419,-0.003665188793092966
1772727874511448000,3.961447998046875,0.020769402384757996,0.008552107028663158,-0.002443459117785096
1772727874528793900,3.9787939453125,0.01954767294228077,0.017104214057326317,0.027488915249705315
1772727874546139400,3.996139404296875,0.004886918235570192,0,0.008552107028663158
1772727874563485200,4.013485107421875,-0.007330377586185932,-0.014660755172371864,0.0256563201546669
1772727874580830700,4.030830810546875,-0.017104214057326317,-0.01588248461484909,-0.015271619893610477
1772727874598176500,4.048176513671875,-0.020158538594841957,-0.028099779039621353,-0.014049889519810677
1772727874615522000,4.06552197265625,-0.003665188793092966,-0.010995565913617611,0.023212861269712448
1772727874632867600,4.08286767578125,0.011606430634856224,-0.001832594396546483,0.020158538594841957
1772727874650213400,4.10021337890625,0.02626718580722809,-0.0030543238390237093,0.029932374134659767
1772727874667559000,4.117558837890625,0.020769402384757996,-0.001832594396546483,0.007330377586185932
1772727874684904700,4.13490478515625,-0.006719512399286032,-0.010384701192378998,-0.006108647678047419
1772727874702250200,4.152250244140625,-0.014049889519810677,-0.009162971749901772,0.020158538594841957
1772727874719596000,4.169595947265625,-0.014049889519810677,-0.020769402384757996,0.020769402384757996
1772727874736941600,4.186941650390625,0.0054977829568088055,-0.01588248461484909,0.029932374134659767
1772727874754287000,4.204287109375,0.018325943499803543,-0.007941242307424545,0.020158538594841957
1772727874771633000,4.2216328125,0.003665188793092966,-0.017104214057326317,0.010384701192378998
1772727874788978400,4.238978515625,-0.007941242307424545,-0.011606430634856224,0.01649334840476513
1772727874806324200,4.25632421875,-0.002443459117785096,-0.001221729558892548,0.014660755172371864
1772727874823669800,4.273669677734375,0.013439024798572063,-0.0054977829568088055,0.031154103577136993
1772727874841015600,4.291015625,0.010384701192378998,-0.007941242307424545,0.03481929376721382
1772727874858361000,4.308361083984375,-0.003665188793092966,0.000610864779446274,0.010384701192378998
1772727874875707000,4.325706787109375,-0.008552107028663158,-0.006719512399286032,0.013439024798572063
1772727874893052400,4.343052490234375,-0.008552107028663158,-0.01282816007733345,0.027488915249705315
1772727874910398000,4.36039794921875,0.0054977829568088055,-0.011606430634856224,0.023212861269712448
1772727874927743700,4.37774365234375,0.007941242307424545,0,0.03543015569448471
1772727874945089300,4.39508935546875,-0.0054977829568088055,-0.001832594396546483,-0.006719512399286032
1772727874962435000,4.41243505859375,-0.0054977829568088055,-0.007941242307424545,0.014049889519810677
1772727874979780600,4.429780517578125,0.009773836471140385,-0.009773836471140385,0.039706211537122726
1772727874997126400,4.44712646484375,0.02626718580722809,-0.000610864779446274,0.04581485688686371
1772727875014472000,4.464471923828125,0.018325943499803543,0.0054977829568088055,0.011606430634856224
1772727875031817700,4.481817626953125,-0.014049889519810677,-0.01954767294228077,-0.024434590712189674
1772727875049163300,4.499163330078125,-0.03176496922969818,-0.02871064469218254,0.009162971749901772
1772727875066509000,4.516509033203125,-0.030543239787220955,-0.017104214057326317,0.014049889519810677
1772727875083854600,4.5338544921875,0.000610864779446274,-0.01282816007733345,0.03848448023200035
1772727875101200100,4.5512001953125,0.03909534588456154,0.02260199747979641,0.043982263654470444
1772727875118546000,4.5685458984375,0.06108647957444191,0.037262752652168274,0.015271619893610477
1772727875135891500,4.585891357421875,0.03909534588456154,0.017104214057326317,-0.001221729558892548
1772727875153237200,4.6032373046875,-0.001832594396546483,-0.01893680728971958,-0.004276053514331579
1772727875170582800,4.620582763671875,-0.037262752652168274,-0.031154103577136993,0.011606430634856224
1772727875187928600,4.637928466796875,-0.043371398001909256,-0.03909534588456154,0.020769402384757996
1772727875205274000,4.655274169921875,0.003665188793092966,-0.014049889519810677,0.036651886999607086
1772727875222619600,4.67261962890625,0.033597562462091446,-0.000610864779446274,0.007941242307424545
1772727875239965400,4.68996533203125,0.03787361457943916,0.0030543238390237093,0.018325943499803543
1772727875257311000,4.70731103515625,0.020158538594841957,-0.004276053514331579,0.018325943499803543
1772727875274656800,4.72465673828125,-0.004276053514331579,-0.009773836471140385,0.000610864779446274
1772727875292002300,4.742002197265625,-0.014049889519810677,-0.020769402384757996,0.001221729558892548
1772727875309348000,4.75934814453125,-0.001832594396546483,-0.020158538594841957,0.031154103577136993
1772727875326693600,4.776693603515625,0.01649334840476513,-0.002443459117785096,0.043982263654470444
1772727875344039400,4.794039306640625,0.01893680728971958,0.009162971749901772,0.017104214057326317
1772727875361385000,4.811385009765625,0.004886918235570192,0.003665188793092966,0
1772727875378730800,4.828730712890625,-0.014049889519810677,-0.014660755172371864,0
1772727875396076300,4.846076171875,-0.015271619893610477,-0.03176496922969818,0.010384701192378998
1772727875413422000,4.863422119140625,-0.008552107028663158,-0.03298669680953026,0.014660755172371864
1772727875430767600,4.880767578125,0.001832594396546483,-0.017715077847242355,0.028099779039621353
1772727875448113200,4.898113037109375,0.007941242307424545,0.001832594396546483,0.006108647678047419
1772727875465459000,4.915458984375,0.006719512399286032,0.000610864779446274,0.01649334840476513
1772727875482804500,4.932804443359375,0.010384701192378998,0.012217295356094837,0.015271619893610477
1772727875500150300,4.950150390625,0.001832594396546483,-0.0054977829568088055,0.009773836471140385
1772727875517495800,4.967495849609375,-0.003665188793092966,-0.010995565913617611,0.015271619893610477
1772727875534841600,4.984841552734375,-0.008552107028663158,-0.031154103577136993,0.001832594396546483
1772727875552187100,5.002187255859375,-0.01282816007733345,-0.026878049597144127,0.01282816007733345
1772727875569532700,5.01953271484375,-0.012217295356094837,-0.031154103577136993,0.007330377586185932
1772727875586878500,5.03687841796875,-0.020158538594841957,-0.01954767294228077,0.01954767294228077
1772727875604224000,5.05422412109375,-0.0030543238390237093,0.001221729558892548,0.021991131827235222
1772727875621569800,5.07156982421875,0.01954767294228077,-0.000610864779446274,0.007941242307424545
1772727875638915300,5.088915283203125,0.021991131827235222,-0.004276053514331579,0.001832594396546483
1772727875656261000,5.10626123046875,0.009773836471140385,-0.006719512399286032,0.023823726922273636
1772727875673606700,5.123606689453125,-0.018325943499803543,-0.01588248461484909,0.010995565913617611
1772727875690952400,5.140952392578125,-0.018325943499803543,-0.009162971749901772,0.03237583488225937
1772727875708298000,5.158298095703125,-0.007330377586185932,-0.017715077847242355,0.012217295356094837
1772727875725643800,5.175643798828125,0.015271619893610477,-0.007941242307424545,0.04764745384454727
1772727875742989300,5.1929892578125,0.011606430634856224,0.0030543238390237093,-0.014049889519810677
1772727875760335000,5.210335205078125,-0.001221729558892548,-0.013439024798572063,0.007330377586185932
1772727875777680600,5.2276806640625,0.001221729558892548,-0.012217295356094837,0.021991131827235222
1772727875795026200,5.245026123046875,0.008552107028663158,-0.014660755172371864,0.02932151034474373
1772727875812372000,5.2623720703125,0.01649334840476513,-0.007941242307424545,0.03298669680953026
1772727875829717500,5.279717529296875,0.014660755172371864,0.001221729558892548,0.014660755172371864
1772727875847063300,5.297063232421875,0,-0.006108647678047419,-0.009162971749901772
1772727875864408800,5.314408935546875,-0.006719512399286032,-0.013439024798572063,-0.0030543238390237093
1772727875881754600,5.331754638671875,-0.006719512399286032,-0.021991131827235222,0.023823726922273636
1772727875899100200,5.34910009765625,0.006108647678047419,-0.006108647678047419,0.0360410213470459
1772727875925118700,5.37511865234375,0.01954767294228077,0.015271619893610477,0
1772727875942464300,5.39246435546875,0.021380268037319183,0.001221729558892548,0.006719512399286032
1772727875959810000,5.40981005859375,0.011606430634856224,-0.001832594396546483,0.003665188793092966
1772727875977155600,5.427155517578125,-0.010384701192378998,-0.03298669680953026,0.009773836471140385
1772727875994501400,5.44450146484375,-0.020769402384757996,-0.023212861269712448,0.01954767294228077
1772727876011847000,5.461846923828125,-0.013439024798572063,-0.018325943499803543,-0.009773836471140385
1772727876029192700,5.479192626953125,0.0030543238390237093,-0.009162971749901772,0.008552107028663158
1772727876046538200,5.496538330078125,0.023823726922273636,-0.000610864779446274,0.03176496922969818
1772727876063884000,5.513884033203125,0.023823726922273636,0.001832594396546483,0.02260199747979641
1772727876081229600,5.5312294921875,0.000610864779446274,-0.004276053514331579,-0.003665188793092966
1772727876098575000,5.5485751953125,-0.01649334840476513,-0.017715077847242355,-0.006719512399286032
1772727876115921000,5.5659208984375,-0.021991131827235222,-0.0256563201546669,0.006108647678047419
1772727876133266400,5.583266357421875,-0.010995565913617611,-0.01649334840476513,0.031154103577136993
1772727876150612200,5.6006123046875,0.009162971749901772,0.006108647678047419,0.03298669680953026
1772727876167957800,5.617957763671875,0.01649334840476513,0.006108647678047419,0.020769402384757996
1772727876185303600,5.635303466796875,0.014049889519810677,-0.001832594396546483,-0.004276053514331579
1772727876202649000,5.652649169921875,0.0030543238390237093,-0.014049889519810677,0.0054977829568088055
1772727876219995000,5.669994873046875,-0.014660755172371864,-0.03481929376721382,0.021991131827235222
1772727876237340400,5.68734033203125,-0.028099779039621353,-0.021991131827235222,0.004276053514331579
1772727876254686200,5.704686279296875,-0.023212861269712448,-0.02260199747979641,0.01954767294228077
1772727876272031700,5.72203173828125,-0.004276053514331579,-0.012217295356094837,0.007941242307424545
1772727876289377500,5.73937744140625,0.011606430634856224,-0.007330377586185932,0.021991131827235222
1772727876306723000,5.75672314453125,0.011606430634856224,0.002443459117785096,0.021380268037319183
1772727876324068600,5.774068603515625,-0.000610864779446274,0.000610864779446274,0.023212861269712448
1772727876341414400,5.791414306640625,-0.006108647678047419,0.002443459117785096,0.007330377586185932
1772727876358760000,5.808760009765625,0,-0.004886918235570192,0.009162971749901772
1772727876376105700,5.826105712890625,0.010384701192378998,-0.002443459117785096,0.036651886999607086
1772727876393451300,5.843451171875,0.009162971749901772,-0.002443459117785096,0.02626718580722809
1772727876410797000,5.860797119140625,-0.001221729558892548,-0.006108647678047419,0.018325943499803543
1772727876428142600,5.878142578125,-0.0054977829568088055,-0.018325943499803543,0.012217295356094837
1772727876445488400,5.89548828125,-0.000610864779446274,-0.007941242307424545,0.02871064469218254
1772727876462834000,5.912833984375,-0.002443459117785096,-0.010995565913617611,0.0030543238390237093
1772727876480179700,5.9301796875,0.004886918235570192,-0.015271619893610477,0.025045456364750862
1772727876497525200,5.947525146484375,0.008552107028663158,-0.001221729558892548,0.034208428114652634
1772727876514871000,5.96487109375,0.015271619893610477,0.004886918235570192,0.025045456364750862
1772727876532216600,5.982216552734375,0.006719512399286032,0,-0.001832594396546483
1772727876549562400,5.999562255859375,0.007330377586185932,0.001221729558892548,0.015271619893610477
1772727876566908000,6.016907958984375,0.0054977829568088055,-0.009773836471140385,0
1772727876584253700,6.034253662109375,-0.004886918235570192,-0.02260199747979641,0.037262752652168274
1772727876601599200,6.05159912109375,-0.003665188793092966,-0.013439024798572063,0.026878049597144127
1772727876618944800,6.06894482421875,0.0030543238390237093,-0.012217295356094837,0.009162971749901772
1772727876636290600,6.08629052734375,0.011606430634856224,-0.001221729558892548,-0.004886918235570192
1772727876653636000,6.103635986328125,0.015271619893610477,-0.003665188793092966,-0.0030543238390237093
1772727876670982000,6.12098193359375,0.014660755172371864,-0.004276053514331579,0.0256563201546669
1772727876688327400,6.138327392578125,0.009162971749901772,-0.0054977829568088055,0.020769402384757996
1772727876705673200,6.155673095703125,0.001221729558892548,-0.014049889519810677,0.01954767294228077
1772727876723018800,6.173018798828125,-0.003665188793092966,-0.003665188793092966,0.006108647678047419
1772727876740364500,6.190364501953125,-0.011606430634856224,-0.013439024798572063,-0.025045456364750862
1772727876757710000,6.2077099609375,-0.010995565913617611,-0.01954767294228077,0.006108647678047419
1772727876775056000,6.225055908203125,-0.001221729558892548,-0.015271619893610477,0.02932151034474373
1772727876792401400,6.2424013671875,0,-0.009773836471140385,0.020769402384757996
1772727876809747200,6.259747314453125,0.000610864779446274,0.002443459117785096,0.004276053514331579
1772727876827092700,6.2770927734375,0.001832594396546483,0.001832594396546483,-0.0054977829568088055
1772727876844438500,6.2944384765625,0.004886918235570192,-0.008552107028663158,0.007941242307424545
1772727876861784000,6.3117841796875,0.0054977829568088055,-0.01588248461484909,0.0256563201546669
1772727876879129600,6.329129638671875,-0.006719512399286032,-0.01649334840476513,0.01588248461484909
1772727876896475400,6.346475341796875,-0.021991131827235222,-0.02626718580722809,-0.0030543238390237093
1772727876913821000,6.363821044921875,-0.018325943499803543,-0.018325943499803543,-0.001221729558892548
1772727876931166700,6.381166748046875,0.010995565913617611,0.000610864779446274,0.028099779039621353
1772727876948512300,6.39851220703125,0.028099779039621353,0.0054977829568088055,0.028099779039621353
1772727876965858000,6.415858154296875,0.01893680728971958,0.004276053514331579,0.014049889519810677
1772727876983203600,6.43320361328125,0.004276053514331579,-0.006108647678047419,0.006108647678047419
1772727877000549400,6.45054931640625,-0.01649334840476513,-0.02871064469218254,0.009162971749901772
1772727877017895000,6.46789501953125,-0.007330377586185932,-0.020769402384757996,0.01588248461484909
1772727877035240700,6.48524072265625,0,-0.023823726922273636,0.036651886999607086
1772727877052586200,6.502586181640625,0.006108647678047419,0.001832594396546483,0.013439024798572063
1772727877069932000,6.51993212890625,0.015271619893610477,-0.006108647678047419,0.001221729558892548
1772727877087277600,6.537277587890625,0.014049889519810677,-0.01588248461484909,0.027488915249705315
1772727877104623400,6.554623291015625,0.006719512399286032,-0.01282816007733345,0.02626718580722809
1772727877121969000,6.571968994140625,0.008552107028663158,-0.015271619893610477,0.014660755172371864
1772727877139314700,6.589314697265625,0,-0.012217295356094837,0.017715077847242355
1772727877156660200,6.60666015625,0.001832594396546483,-0.0030543238390237093,-0.009773836471140385
1772727877174005800,6.624005859375,0.001832594396546483,-0.02260199747979641,0.01588248461484909
1772727877191351600,6.6413515625,-0.010384701192378998,-0.029932374134659767,0.03481929376721382
1772727877208697300,6.658697265625,-0.014049889519810677,-0.026878049597144127,0.014049889519810677
1772727877226043000,6.67604296875,-0.001221729558892548,0.004886918235570192,0.026878049597144127
1772727877243388400,6.693388427734375,0.018325943499803543,0.012217295356094837,0
1772727877260734200,6.710734130859375,0.03848448023200035,0.023823726922273636,0.01893680728971958
1772727877278080000,6.728080078125,0.039706211537122726,0.003665188793092966,0.004886918235570192
1772727877295425500,6.745425537109375,0.008552107028663158,-0.017715077847242355,0.036651886999607086
1772727877312771000,6.76277099609375,-0.025045456364750862,-0.03543015569448471,0.01282816007733345
1772727877330116900,6.780116943359375,-0.03298669680953026,-0.026878049597144127,0.020769402384757996
1772727877347462400,6.79746240234375,-0.02871064469218254,-0.023212861269712448,-0.02626718580722809
1772727877364808200,6.81480810546875,0.009773836471140385,-0.001832594396546483,0.034208428114652634
1772727877382153700,6.83215380859375,0.04153880476951599,0.010384701192378998,0.03787361457943916
1772727877399499500,6.84949951171875,0.05558869615197182,0.017104214057326317,0.0513126403093338
1772727877416845000,6.866844970703125,0.03237583488225937,0.01954767294228077,0.010995565913617611
1772727877434190800,6.88419091796875,-0.009773836471140385,0,-0.024434590712189674
1772727877451536400,6.901536376953125,-0.027488915249705315,-0.01893680728971958,0.011606430634856224
1772727877468882200,6.918882080078125,-0.01649334840476513,-0.017104214057326317,0.034208428114652634
1772727877486227700,6.936227783203125,0.006719512399286032,-0.01893680728971958,0.039706211537122726
1772727877503573500,6.953573486328125,0.010384701192378998,-0.01588248461484909,0.015271619893610477
1772727877520919000,6.9709189453125,-0.01282816007733345,-0.010384701192378998,-0.013439024798572063
1772727877538264800,6.988264892578125,-0.020769402384757996,-0.007941242307424545,-0.007330377586185932
1772727877555610400,7.0056103515625,-0.01649334840476513,-0.023212861269712448,0.01893680728971958
1772727877572956200,7.0229560546875,0.01588248461484909,-0.006719512399286032,0.034208428114652634
1772727877590301700,7.0403017578125,0.01588248461484909,-0.003665188793092966,0.01588248461484909
1772727877607647500,7.0576474609375,-0.000610864779446274,0.001221729558892548,0.007330377586185932
1772727877624993000,7.074992919921875,-0.01649334840476513,-0.023212861269712448,-0.01588248461484909
1772727877642338600,7.092338623046875,-0.021380268037319183,-0.010995565913617611,0.034208428114652634
1772727877659684400,7.109684326171875,-0.002443459117785096,-0.006108647678047419,0.010384701192378998
1772727877677030100,7.127030029296875,0.014049889519810677,-0.000610864779446274,0.02626718580722809
1772727877694375700,7.144375732421875,0.02260199747979641,0.007941242307424545,-0.006108647678047419
1772727877711721200,7.16172119140625,0.02260199747979641,-0.006108647678047419,0.01649334840476513
1772727877729067000,7.17906689453125,0.010384701192378998,-0.007941242307424545,0.037262752652168274
1772727877746412500,7.19641259765625,0.003665188793092966,-0.001832594396546483,0.01954767294228077
1772727877763758300,7.21375830078125,-0.004886918235570192,-0.004886918235570192,0.001832594396546483
1772727877781103900,7.231103759765625,-0.007941242307424545,-0.011606430634856224,-0.014049889519810677
1772727877798449700,7.24844970703125,0.0054977829568088055,-0.010995565913617611,0.003665188793092966
1772727877815795200,7.265795166015625,0.014049889519810677,-0.013439024798572063,0.04459312930703163
1772727877833141000,7.28314111328125,0.010995565913617611,-0.001832594396546483,0.024434590712189674
1772727877850486500,7.300486572265625,-0.0054977829568088055,-0.015271619893610477,0.001832594396546483
1772727877867832300,7.317832275390625,-0.02260199747979641,-0.011606430634856224,-0.009773836471140385
1772727877885177900,7.335177734375,-0.0256563201546669,-0.01893680728971958,-0.009162971749901772
1772727877902523600,7.352523681640625,-0.01588248461484909,-0.021991131827235222,0.03237583488225937
1772727877919869200,7.369869140625,0.000610864779446274,0.000610864779446274,0.024434590712189674
1772727877937215000,7.387215087890625,0.01588248461484909,0.001832594396546483,0.008552107028663158
1772727877954560500,7.404560546875,0.010384701192378998,-0.001221729558892548,0.004886918235570192
1772727877971906300,7.42190625,-0.004886918235570192,-0.009773836471140385,0.006108647678047419
1772727877989251800,7.439251953125,-0.01954767294228077,-0.01954767294228077,0.01893680728971958
1772727878006597600,7.45659765625,-0.023212861269712448,-0.03787361457943916,0.01954767294228077
1772727878023943200,7.473943115234375,-0.017104214057326317,-0.02260199747979641,0.015271619893610477
1772727878041289000,7.4912890625,-0.014049889519810677,-0.024434590712189674,-0.007941242307424545
1772727878058634500,7.508634521484375,0,-0.010995565913617611,0.026878049597144127
1772727878075980300,7.525980224609375,0.015271619893610477,0.013439024798572063,0.033597562462091446
1772727878093325800,7.543325927734375,0.01954767294228077,0.000610864779446274,0.011606430634856224
1772727878110671600,7.560671630859375,0.013439024798572063,-0.007330377586185932,0.009162971749901772
1772727878128017200,7.57801708984375,-0.004276053514331579,-0.020158538594841957,0.017104214057326317
1772727878145363000,7.595363037109375,-0.010384701192378998,-0.025045456364750862,0.012217295356094837
1772727878162708500,7.61270849609375,-0.007941242307424545,-0.023212861269712448,0.037262752652168274
1772727878180054300,7.63005419921875,0.002443459117785096,-0.002443459117785096,0.027488915249705315
1772727878197399800,7.64739990234375,0.004276053514331579,-0.0030543238390237093,0
1772727878214745600,7.66474560546875,0.023823726922273636,0.004886918235570192,0.043371398001909256
1772727878232091100,7.682091064453125,0.02260199747979641,0,0.007941242307424545
1772727878249437000,7.69943701171875,0.001221729558892548,-0.021991131827235222,0.029932374134659767
1772727878266782500,7.716782470703125,-0.017104214057326317,-0.018325943499803543,0.018325943499803543
1772727878284128300,7.734128173828125,-0.01893680728971958,-0.008552107028663158,0.006108647678047419
1772727878301473800,7.751473876953125,0.006108647678047419,-0.01282816007733345,0.03298669680953026
1772727878318819600,7.768819580078125,0.030543239787220955,0.015271619893610477,0.04886918142437935
1772727878336165000,7.7861650390625,0.024434590712189674,0.017715077847242355,0.029932374134659767
1772727878353511000,7.803510986328125,0.0054977829568088055,0.001221729558892548,0.01893680728971958
1772727878370856400,7.8208564453125,-0.011606430634856224,-0.01954767294228077,-0.0030543238390237093
1772727878388202200,7.8382021484375,-0.01282816007733345,-0.01954767294228077,0.021380268037319183
1772727878405547800,7.8555478515625,0.009773836471140385,-0.009773836471140385,0.043371398001909256
1772727878422893300,7.872893310546875,0.02871064469218254,0.0030543238390237093,0.03543015569448471
1772727878440239000,7.890239013671875,0.04581485688686371,0.020158538594841957,0.015271619893610477
1772727878457585000,7.9075849609375,0.026878049597144127,0.001832594396546483,0.014049889519810677
1772727878474930400,7.924930419921875,-0.002443459117785096,-0.015271619893610477,0.020769402384757996
1772727878492276000,7.94227587890625,-0.012217295356094837,-0.01954767294228077,0.007941242307424545
1772727878509621800,7.959621826171875,-0.006108647678047419,-0.017104214057326317,0.021380268037319183
1772727878526967300,7.97696728515625,0.01893680728971958,0.007330377586185932,0.028099779039621353
1772727878544313000,7.99431298828125,0.03298669680953026,0.012217295356094837,0.023212861269712448
1772727878561658600,8.01165869140625,0.026878049597144127,0.007330377586185932,0.010384701192378998
1772727878579004400,8.02900439453125,0.001221729558892548,-0.011606430634856224,-0.000610864779446274
1772727878596350200,8.04635009765625,-0.03481929376721382,-0.034208428114652634,-0.007941242307424545
1772727878613695700,8.06369580078125,-0.033597562462091446,-0.021380268037319183,0.01588248461484909
1772727878631041300,8.081041259765625,-0.012217295356094837,-0.014049889519810677,0.009162971749901772
1772727878648387000,8.098386962890626,0.013439024798572063,0.006108647678047419,0.020158538594841957
1772727878665732900,8.11573291015625,0.02260199747979641,0.009162971749901772,0.010384701192378998
1772727878683078400,8.133078369140625,0.006108647678047419,-0.001832594396546483,0.003665188793092966
1772727878700424000,8.150423828125,-0.01649334840476513,-0.01588248461484909,0.0030543238390237093
1772727878717769700,8.167769775390624,-0.024434590712189674,-0.020769402384757996,-0.002443459117785096
1772727878735115500,8.185115478515625,-0.010995565913617611,-0.009773836471140385,0.001832594396546483
1772727878752461000,8.2024609375,0.004886918235570192,-0.0030543238390237093,0.006108647678047419
1772727878769806600,8.219806640625,0.01893680728971958,0.000610864779446274,0.0256563201546669
1772727878787152400,8.23715234375,0.01588248461484909,0.006108647678047419,0.021991131827235222
1772727878804498000,8.254497802734376,0,-0.007330377586185932,-0.01893680728971958
1772727878821843700,8.27184375,-0.014049889519810677,-0.03237583488225937,0.017104214057326317
1772727878839189200,8.289189208984375,-0.01649334840476513,-0.023823726922273636,-0.006719512399286032
1772727878856535000,8.30653515625,-0.01282816007733345,-0.027488915249705315,0.021380268037319183
1772727878873880800,8.323880859375,-0.006108647678047419,-0.001832594396546483,0.02932151034474373
1772727878891226400,8.341226318359375,0.008552107028663158,0.0030543238390237093,0.007941242307424545
1772727878908572000,8.358572021484376,0.021380268037319183,-0.002443459117785096,0.017104214057326317
1772727878925917700,8.375917724609375,0.012217295356094837,-0.0054977829568088055,0.010384701192378998
1772727878943263200,8.39326318359375,0.008552107028663158,-0.009162971749901772,0.03909534588456154
1772727878960609000,8.410609130859376,-0.009773836471140385,-0.021991131827235222,0.01588248461484909
1772727878977954600,8.42795458984375,-0.01954767294228077,-0.014660755172371864,0.036651886999607086
1772727878995300400,8.44530029296875,-0.01893680728971958,-0.018325943499803543,-0.007941242307424545
1772727879012646000,8.46264599609375,-0.007330377586185932,-0.017104214057326317,0.0360410213470459
1772727879029991700,8.47999169921875,0.015271619893610477,-0.007941242307424545,0.02932151034474373
1772727879047337200,8.497337158203125,0.03543015569448471,-0.001832594396546483,0.047036588191986084
1772727879064683000,8.51468310546875,0.026878049597144127,-0.0054977829568088055,0.03237583488225937
1772727879082028800,8.53202880859375,-0.004886918235570192,-0.01649334840476513,0.01282816007733345
1772727879099374300,8.549374267578125,-0.029932374134659767,-0.026878049597144127,0.008552107028663158
1772727879116719900,8.566719970703126,-0.014660755172371864,-0.023212861269712448,0.03787361457943916
1772727879134065700,8.584065673828125,0.009162971749901772,-0.013439024798572063,0.03848448023200035
1772727879151411500,8.601411376953125,0.04276053607463837,0.009162971749901772,0.03787361457943916
1772727879168757000,8.618757080078124,0.034208428114652634,0.014660755172371864,-0.002443459117785096
1772727879186102500,8.6361025390625,0.004886918235570192,-0.007941242307424545,0.012217295356094837
1772727879203448300,8.6534482421875,-0.01282816007733345,-0.020769402384757996,0.020769402384757996
1772727879220794000,8.670794189453124,-0.015271619893610477,-0.029932374134659767,0.03848448023200035
1772727879238139600,8.6881396484375,-0.004886918235570192,-0.011606430634856224,0.017715077847242355
1772727879255485400,8.7054853515625,0.0030543238390237093,-0.009773836471140385,-0.008552107028663158
1772727879272831000,8.7228310546875,0.003665188793092966,0.0030543238390237093,-0.007941242307424545
1772727879290176800,8.7401767578125,0.008552107028663158,-0.006108647678047419,0.009162971749901772
1772727879307522300,8.757522216796875,0.01954767294228077,0.002443459117785096,0.06291907280683517
1772727879324867800,8.774867919921874,0.006108647678047419,0.006108647678047419,0.002443459117785096
1772727879342213600,8.792213623046875,-0.009162971749901772,-0.012217295356094837,-0.01893680728971958
1772727879359559400,8.809559326171875,-0.015271619893610477,-0.0054977829568088055,-0.003665188793092966
1772727879376905000,8.826905029296874,-0.015271619893610477,-0.004886918235570192,0.010995565913617611
1772727879394250800,8.844250732421875,-0.000610864779446274,-0.0054977829568088055,0.0409279391169548
1772727879411596300,8.86159619140625,0.014049889519810677,-0.001832594396546483,0.004886918235570192
1772727879428942000,8.878942138671874,0.020158538594841957,0.009773836471140385,-0.012217295356094837
1772727879446287600,8.89628759765625,-0.003665188793092966,-0.009162971749901772,-0.010384701192378998
1772727879463633400,8.91363330078125,-0.021380268037319183,-0.021380268037319183,0.009162971749901772
1772727879480979000,8.93097900390625,-0.01588248461484909,-0.020769402384757996,0.01893680728971958
1772727879498324700,8.94832470703125,-0.004276053514331579,-0.026878049597144127,0.014049889519810677
1772727879515670300,8.965670166015625,0.01649334840476513,0.002443459117785096,0.01282816007733345
1772727879533016000,8.98301611328125,0.023823726922273636,0.011606430634856224,0
1772727879550361600,9.000361572265625,0.008552107028663158,0.000610864779446274,0.014660755172371864
1772727879567707400,9.017707275390626,-0.003665188793092966,-0.0054977829568088055,0.023823726922273636
1772727879585053000,9.035052978515624,-0.003665188793092966,-0.01588248461484909,0.017104214057326317
1772727879602398700,9.052398681640625,-0.001221729558892548,-0.020769402384757996,0.017104214057326317
1772727879619744300,9.069744140625,0.011606430634856224,-0.001832594396546483,0.023212861269712448
1772727879637090000,9.087090087890624,0.013439024798572063,-0.012217295356094837,0.001832594396546483
1772727879654435600,9.104435546875,0.012217295356094837,-0.01954767294228077,0.020769402384757996
1772727879671781400,9.121781494140626,-0.001832594396546483,-0.017104214057326317,0.014660755172371864
1772727879689127000,9.139126953125,-0.010384701192378998,-0.021380268037319183,0.02626718580722809
1772727879706472700,9.15647265625,-0.013439024798572063,-0.021991131827235222,0.025045456364750862
1772727879723818200,9.173818359375,0.000610864779446274,-0.010995565913617611,0.007330377586185932
1772727879741164000,9.1911640625,0.007941242307424545,-0.009773836471140385,0.009773836471140385
1772727879758509600,9.208509521484375,0.010995565913617611,-0.004886918235570192,0.0256563201546669
1772727879775855400,9.22585546875,0.009162971749901772,0.001221729558892548,0.03481929376721382
1772727879793201000,9.243200927734375,0.010384701192378998,-0.004276053514331579,0.021380268037319183
1772727879810546700,9.260546630859375,-0.001832594396546483,-0.014049889519810677,-0.004886918235570192
1772727879827892200,9.277892333984376,-0.01588248461484909,-0.023212861269712448,0.004886918235570192
1772727879845238000,9.295238037109375,-0.010995565913617611,-0.009162971749901772,0.03176496922969818
1772727879862583800,9.312583740234375,0.000610864779446274,-0.010995565913617611,0.03237583488225937
1772727879879929300,9.329929443359376,0.010995565913617611,-0.0030543238390237093,0.02260199747979641
1772727879897275000,9.34727490234375,0.01588248461484909,0.000610864779446274,0.007330377586185932
1772727879914620700,9.36462060546875,0.0054977829568088055,0.0030543238390237093,0.010384701192378998
1772727879931966500,9.381966552734376,-0.0030543238390237093,-0.017715077847242355,0.023212861269712448
1772727879949312000,9.39931201171875,-0.004276053514331579,-0.021991131827235222,0.026878049597144127
1772727879966657800,9.41665771484375,-0.001832594396546483,-0.012217295356094837,0.004276053514331579
1772727879984003300,9.43400341796875,-0.001832594396546483,-0.021380268037319183,0.026878049597144127
1772727880001349000,9.45134912109375,0.002443459117785096,-0.003665188793092966,0.028099779039621353
1772727880018694700,9.468694580078125,0.015271619893610477,0.011606430634856224,0.028099779039621353
1772727880036040400,9.48604052734375,0.015271619893610477,0.009162971749901772,0.02932151034474373
1772727880053386000,9.503385986328125,0.01588248461484909,-0.001832594396546483,0.023823726922273636
1772727880070731800,9.520731689453125,0.006719512399286032,-0.007941242307424545,0.01649334840476513
1772727880088077300,9.538077392578124,-0.01649334840476513,-0.01893680728971958,0.0030543238390237093
1772727880105423000,9.555423095703125,-0.020769402384757996,-0.02260199747979641,0.015271619893610477
1772727880122768600,9.5727685546875,-0.0054977829568088055,-0.015271619893610477,0.021991131827235222
1772727880140114400,9.590114501953124,0.02932151034474373,-0.0030543238390237093,0.04581485688686371
1772727880157460000,9.6074599609375,0.037262752652168274,-0.002443459117785096,0.01893680728971958
1772727880174805800,9.6248056640625,0.015271619893610477,-0.003665188793092966,0.008552107028663158
1772727880192151300,9.6421513671875,-0.015271619893610477,-0.011606430634856224,-0.014660755172371864
1772727880209497000,9.6594970703125,-0.03909534588456154,-0.026878049597144127,0.004276053514331579
1772727880226842600,9.676842529296875,-0.017715077847242355,-0.020158538594841957,0.04276053607463837
1772727880244188400,9.6941884765625,0.014049889519810677,-0.004276053514331579,0.0256563201546669
1772727880261534000,9.711533935546875,0.04153880476951599,0.018325943499803543,0.021380268037319183
1772727880278879700,9.728879638671875,0.027488915249705315,0.01282816007733345,-0.01588248461484909
1772727880296225300,9.746225341796874,0,-0.006719512399286032,0.003665188793092966
1772727880313571000,9.763571044921875,-0.01893680728971958,-0.023823726922273636,0.008552107028663158
1772727880330916900,9.780916748046875,-0.024434590712189674,-0.02932151034474373,0.01588248461484909
1772727880348262400,9.798262451171874,-0.007941242307424545,-0.009773836471140385,0.01649334840476513
1772727880365608200,9.815608154296875,0.006719512399286032,-0.001832594396546483,-0.001221729558892548
1772727880382953700,9.83295361328125,0.010384701192378998,-0.0030543238390237093,-0.006719512399286032
1772727880400299500,9.850299560546874,0.012217295356094837,0.000610864779446274,0.007330377586185932
1772727880417645000,9.86764501953125,-0.008552107028663158,-0.009773836471140385,0.013439024798572063
1772727880434990800,9.884990966796876,-0.013439024798572063,-0.012217295356094837,0.03237583488225937
1772727880452336400,9.90233642578125,0,-0.0030543238390237093,0.002443459117785096
1772727880469682200,9.91968212890625,0,-0.007330377586185932,-0.023823726922273636
1772727880487027700,9.93702783203125,0.001832594396546483,-0.014660755172371864,0.009773836471140385
1772727880504373500,9.95437353515625,0.004886918235570192,-0.001221729558892548,0.030543239787220955
1772727880521719000,9.971718994140625,0,-0.015271619893610477,0.028099779039621353
1772727880539064800,9.98906494140625,-0.0030543238390237093,-0.002443459117785096,0.01282816007733345
1772727880556410400,10.006410400390624,0.002443459117785096,-0.006719512399286032,-0.012217295356094837
1772727880573756200,10.023756103515625,-0.0054977829568088055,-0.027488915249705315,0.024434590712189674
1772727880591101700,10.041101806640626,-0.001832594396546483,-0.007941242307424545,0.021991131827235222
1772727880608447500,10.058447509765625,-0.002443459117785096,-0.023212861269712448,0.029932374134659767
1772727880625793300,10.075793212890625,-0.001832594396546483,0.002443459117785096,0.034208428114652634
1772727880643138800,10.093138916015626,0.004276053514331579,0.002443459117785096,-0.0030543238390237093
1772727880660484600,10.110484619140625,0.009773836471140385,-0.006108647678047419,0.028099779039621353
1772727880677830100,10.127830078125,0.01649334840476513,-0.011606430634856224,0.02932151034474373
1772727880695176000,10.145176025390626,0.007941242307424545,-0.0256563201546669,0.03176496922969818
1772727880712521500,10.162521484375,-0.004886918235570192,-0.011606430634856224,0.0256563201546669
1772727880729867300,10.1798671875,-0.017104214057326317,-0.027488915249705315,0.006719512399286032
1772727880747212800,10.197212890625,-0.023212861269712448,-0.013439024798572063,0.007941242307424545
1772727880764558600,10.21455859375,0.007330377586185932,-0.003665188793092966,0.043371398001909256
1772727880781904100,10.231904052734375,0.02871064469218254,-0.001832594396546483,0.03298669680953026
1772727880799250000,10.24925,0.02932151034474373,-0.000610864779446274,0.007330377586185932
1772727880816595500,10.266595458984375,0.006719512399286032,-0.012217295356094837,0.012217295356094837
1772727880833941200,10.283941162109375,-0.026878049597144127,-0.020158538594841957,0.001832594396546483
1772727880851286800,10.301286865234376,-0.03481929376721382,-0.02626718580722809,0.020158538594841957
1772727880868632600,10.318632568359375,-0.017715077847242355,-0.017715077847242355,0.012217295356094837
1772727880885978000,10.33597802734375,0.015271619893610477,0.001221729558892548,0.023212861269712448
1772727880903324000,10.353323974609374,0.027488915249705315,0.004886918235570192,0.009162971749901772
1772727880920669400,10.37066943359375,0.007941242307424545,-0.0030543238390237093,0.006108647678047419
1772727880938015200,10.38801513671875,-0.001832594396546483,-0.009162971749901772,0.01954767294228077
1772727880955361000,10.405361083984374,-0.01588248461484909,-0.017715077847242355,0.006108647678047419
1772727880972706600,10.42270654296875,-0.006719512399286032,-0.017104214057326317,0.001832594396546483
1772727880990052400,10.44005224609375,0.01649334840476513,0.004886918235570192,0.037262752652168274
1772727881007398000,10.45739794921875,0.023212861269712448,0.008552107028663158,-0.001221729558892548
1772727881024743700,10.47474365234375,0.027488915249705315,-0.0054977829568088055,0.02260199747979641
1772727881042089200,10.492089111328125,0.01282816007733345,-0.014660755172371864,0.010995565913617611
1772727881059435000,10.50943505859375,-0.000610864779446274,-0.012217295356094837,0.014660755172371864
1772727881076780500,10.526780517578125,-0.008552107028663158,-0.01649334840476513,-0.004886918235570192
1772727881094126300,10.544126220703125,-0.008552107028663158,-0.01282816007733345,0.001221729558892548
1772727881111471900,10.561471923828124,0.009773836471140385,-0.008552107028663158,0.01893680728971958
1772727881128817700,10.578817626953125,0.020158538594841957,-0.012217295356094837,0.047036588191986084
1772727881146163200,10.5961630859375,0.02932151034474373,0.001221729558892548,0.040317077189683914
1772727881163509000,10.613509033203124,0.015271619893610477,0.001832594396546483,-0.0030543238390237093
1772727881180854800,10.630854736328125,-0.020158538594841957,-0.014049889519810677,-0.018325943499803543
1772727881198200300,10.648200439453126,-0.029932374134659767,-0.02932151034474373,0.007330377586185932
1772727881215546000,10.665546142578124,-0.013439024798572063,-0.031154103577136993,0.05192350596189499
1772727881232891600,10.6828916015625,0.009773836471140385,-0.017104214057326317,0.04276053607463837
1772727881250237400,10.700237548828126,0.025045456364750862,0.002443459117785096,0.020769402384757996
1772727881267583000,10.7175830078125,0.014660755172371864,0.009162971749901772,-0.000610864779446274
1772727881284928800,10.7349287109375,0.001832594396546483,-0.011606430634856224,0.007330377586185932
1772727881302274300,10.7522744140625,-0.007941242307424545,-0.01282816007733345,0.02871064469218254
1772727881319620000,10.7696201171875,-0.010995565913617611,-0.020158538594841957,0.023823726922273636
1772727881336966000,10.7869658203125,-0.008552107028663158,-0.01282816007733345,0.023823726922273636
1772727881354311400,10.8043115234375,-0.006108647678047419,-0.010384701192378998,0.004886918235570192
1772727881371657200,10.8216572265625,0.007330377586185932,-0.0054977829568088055,0.018325943499803543
1772727881389002800,10.839002685546875,0.014049889519810677,-0.002443459117785096,0.020769402384757996
1772727881406348500,10.8563486328125,0.010384701192378998,-0.004276053514331579,0.01893680728971958
1772727881423694000,10.873694091796875,0.003665188793092966,0.000610864779446274,0.008552107028663158
1772727881441040000,10.891039794921875,-0.010995565913617611,-0.009162971749901772,0.008552107028663158
1772727881458385400,10.908385498046876,-0.003665188793092966,-0.009162971749901772,0.021380268037319183
1772727881475731200,10.925731201171875,-0.001832594396546483,-0.015271619893610477,0.006108647678047419
1772727881493076700,10.94307666015625,0.003665188793092966,-0.008552107028663158,0.015271619893610477
1772727881510422500,10.960422607421876,0.003665188793092966,-0.0030543238390237093,0.014049889519810677
1772727881527768300,10.977768310546875,0.003665188793092966,0.002443459117785096,0.02260199747979641
1772727881545113900,10.99511376953125,0.006719512399286032,0.010995565913617611,0.008552107028663158
1772727881562459400,11.01245947265625,-0.001832594396546483,-0.006108647678047419,0.010384701192378998
1772727881579805200,11.02980517578125,-0.001221729558892548,-0.004886918235570192,0.013439024798572063
1772727881597151000,11.04715087890625,0.006108647678047419,-0.009773836471140385,0.023823726922273636
1772727881614496500,11.06449658203125,0.010384701192378998,-0.001221729558892548,0.02932151034474373
1772727881631842300,11.08184228515625,0.007330377586185932,0.0030543238390237093,0.011606430634856224
1772727881649187800,11.099187744140625,-0.004276053514331579,-0.002443459117785096,0.0054977829568088055
1772727881666533600,11.11653369140625,0.001832594396546483,-0.006108647678047419,0.023212861269712448
1772727881683879200,11.133879150390625,0.021991131827235222,-0.004886918235570192,0.039706211537122726
1772727881701225000,11.151224853515625,0.03176496922969818,-0.001221729558892548,0.04214967042207718
1772727881718570500,11.168570556640624,0.029932374134659767,0.004886918235570192,0.021380268037319183
1772727881735916300,11.185916259765625,0.0054977829568088055,-0.002443459117785096,-0.013439024798572063
1772727881753262000,11.203261962890625,-0.0054977829568088055,-0.01588248461484909,0.017715077847242355
1772727881770607600,11.220607666015624,0.006719512399286032,-0.01893680728971958,0.027488915249705315
1772727881787953400,11.237953369140625,0.012217295356094837,-0.024434590712189674,0.0360410213470459
1772727881805299000,11.255298828125,0.02260199747979641,-0.009773836471140385,0.02871064469218254
1772727881822644700,11.272644775390624,0.008552107028663158,-0.011606430634856224,-0.000610864779446274
1772727881839990300,11.289990234375,0.000610864779446274,-0.0054977829568088055,0.006719512399286032
1772727881857336000,11.307336181640625,0.004886918235570192,-0.004886918235570192,0.007330377586185932
1772727881874681900,11.324681884765624,0.0030543238390237093,-0.0054977829568088055,0.01954767294228077
1772727881892027600,11.342027587890625,0.006719512399286032,0,0.021991131827235222
1772727881909373000,11.359373046875,-0.0030543238390237093,-0.012217295356094837,0.009773836471140385
1772727881926718700,11.37671875,-0.009773836471140385,-0.010384701192378998,0.01282816007733345
1772727881944064500,11.394064453125,-0.008552107028663158,-0.0030543238390237093,0.001221729558892548
1772727881961410000,11.41141015625,-0.004276053514331579,-0.01588248461484909,0.021991131827235222
1772727881978755600,11.428755615234374,0.007330377586185932,-0.009162971749901772,0.01954767294228077
1772727881996101400,11.446101318359375,0.007330377586185932,-0.010995565913617611,0.003665188793092966
1772727882013447200,11.463447265625,-0.004886918235570192,-0.015271619893610477,0.009162971749901772
1772727882030792700,11.480792724609374,-0.013439024798572063,-0.009773836471140385,0.009162971749901772
1772727882048138500,11.498138427734375,-0.01588248461484909,-0.01282816007733345,0.009773836471140385
1772727882065484000,11.515484130859376,-0.015271619893610477,-0.017715077847242355,0.013439024798572063
1772727882082829800,11.532829833984374,-0.003665188793092966,-0.006108647678047419,0.015271619893610477
1772727882100175400,11.55017529296875,-0.006719512399286032,-0.009162971749901772,0.0030543238390237093
1772727882117521200,11.567521240234376,-0.013439024798572063,-0.001221729558892548,0.008552107028663158
1772727882134867000,11.584866943359375,-0.010384701192378998,-0.020158538594841957,0.010384701192378998
1772727882152212500,11.60221240234375,-0.007330377586185932,-0.014660755172371864,0.024434590712189674
1772727882169558300,11.619558349609376,0.004886918235570192,-0.000610864779446274,0.026878049597144127
1772727882186903800,11.63690380859375,0.015271619893610477,0.006108647678047419,0.02932151034474373
1772727882204249600,11.65424951171875,0.007941242307424545,-0.0054977829568088055,0
1772727882221595100,11.67159521484375,0.009773836471140385,-0.011606430634856224,0.01588248461484909
1772727882238941000,11.68894091796875,-0.002443459117785096,-0.024434590712189674,0.0256563201546669
1772727882256286500,11.706286376953125,-0.008552107028663158,-0.02871064469218254,0.056199558079242706
1772727882273632300,11.72363232421875,-0.002443459117785096,-0.017715077847242355,0.025045456364750862
1772727882290978000,11.74097802734375,0.001832594396546483,-0.004276053514331579,0.000610864779446274
1772727882308323600,11.758323486328125,0.021991131827235222,-0.001832594396546483,0.02932151034474373
1772727882325669400,11.77566943359375,0.029932374134659767,-0.004886918235570192,0.039706211537122726
1772727882343015000,11.793014892578125,0.0256563201546669,-0.003665188793092966,0.04520399495959282
1772727882360360700,11.810360595703125,0.007330377586185932,-0.001221729558892548,0.017715077847242355
1772727882377706200,11.827706298828126,-0.010384701192378998,-0.01282816007733345,0.007941242307424545
1772727882395052000,11.845052001953125,-0.004886918235570192,-0.011606430634856224,0.014049889519810677
1772727882412397800,11.862397705078125,0.008552107028663158,-0.006108647678047419,0.050090912729501724
1772727882429743400,11.879743408203124,0.020158538594841957,-0.001832594396546483,0.025045456364750862
1772727882447089200,11.897089111328125,0.01954767294228077,-0.003665188793092966,0.021380268037319183
1772727882464434700,11.9144345703125,0.014049889519810677,0.002443459117785096,0.007330377586185932
1772727882481780500,11.931780517578124,0.007330377586185932,-0.003665188793092966,0.01649334840476513
1772727882499126300,11.949126220703125,0.009162971749901772,-0.007941242307424545,0.023212861269712448
1772727882516471800,11.966471923828125,0.012217295356094837,-0.004276053514331579,0.01588248461484909
1772727882533817300,11.9838173828125,0.006719512399286032,-0.0054977829568088055,0.01649334840476513
1772727882551163100,12.0011630859375,0.000610864779446274,-0.007330377586185932,0.020769402384757996
1772727882568509000,12.018509033203125,-0.0054977829568088055,-0.010384701192378998,0.001832594396546483
1772727882585854500,12.0358544921875,-0.0054977829568088055,-0.01282816007733345,0.007330377586185932
1772727882603200300,12.0532001953125,0.001221729558892548,-0.009773836471140385,0.014660755172371864
1772727882620545800,12.0705458984375,0.003665188793092966,-0.003665188793092966,0.01649334840476513
1772727882637891600,12.0878916015625,0.008552107028663158,0.001221729558892548,0.020769402384757996
1772727882655237400,12.1052373046875,-0.003665188793092966,-0.007941242307424545,-0.0054977829568088055
1772727882672583000,12.1225830078125,-0.011606430634856224,-0.003665188793092966,0.001221729558892548
1772727882689928700,12.1399287109375,-0.020158538594841957,-0.014660755172371864,0.006719512399286032
1772727882707274200,12.157274169921875,-0.01649334840476513,-0.01954767294228077,0.02626718580722809
1772727882724620000,12.1746201171875,-0.001221729558892548,-0.009773836471140385,0.011606430634856224
1772727882741965600,12.191965576171874,-0.008552107028663158,-0.006108647678047419,-0.009773836471140385
1772727882759311400,12.209311279296875,-0.02260199747979641,-0.01282816007733345,-0.000610864779446274
1772727882776657200,12.2266572265625,-0.0256563201546669,-0.01954767294228077,0.014660755172371864
1772727882794002700,12.244002685546874,-0.014660755172371864,-0.01588248461484909,0.021991131827235222
1772727882811348500,12.261348388671875,0.003665188793092966,-0.004276053514331579,0.027488915249705315
1772727882828694000,12.278694091796876,0.0030543238390237093,-0.000610864779446274,0.001832594396546483
1772727882846039800,12.296039794921874,0.000610864779446274,0.000610864779446274,0.002443459117785096
1772727882863385600,12.313385498046875,-0.015271619893610477,-0.028099779039621353,0.009773836471140385
1772727882880731100,12.330731201171876,-0.03481929376721382,-0.04153880476951599,0.046425722539424896
1772727882898077000,12.348076904296875,0.004276053514331579,0.002443459117785096,0.049480047076940536
1772727882915422500,12.36542236328125,0.01954767294228077,-0.001221729558892548,0.009773836471140385
1772727882932768300,12.382768310546876,0.01893680728971958,0.004276053514331579,-0.000610864779446274
1772727882950113800,12.40011376953125,0.01649334840476513,-0.014049889519810677,0.01893680728971958
1772727882967459600,12.41745947265625,0.007941242307424545,-0.021991131827235222,0.04581485688686371
1772727882984805000,12.43480517578125,0.006719512399286032,-0.01893680728971958,0.047036588191986084
1772727883002151000,12.45215087890625,0.01282816007733345,-0.003665188793092966,0.02932151034474373
1772727883019496700,12.46949658203125,0.006719512399286032,0.004886918235570192,-0.015271619893610477
1772727883036842200,12.48684228515625,0.001221729558892548,0.0030543238390237093,0.01954767294228077
1772727883054188000,12.50418798828125,0.010995565913617611,-0.003665188793092966,0.02932151034474373
1772727883071533600,12.521533447265625,0.018325943499803543,-0.009773836471140385,0.04520399495959282
1772727883088879400,12.53887939453125,0.020769402384757996,-0.001832594396546483,0.021380268037319183
1772727883106225000,12.556224853515625,0.014660755172371864,0.001832594396546483,0.001832594396546483
1772727883123570700,12.57357080078125,-0.0030543238390237093,-0.006719512399286032,-0.003665188793092966
1772727883140916500,12.59091650390625,-0.014049889519810677,-0.021991131827235222,0.006719512399286032
1772727883158262000,12.608261962890625,-0.007330377586185932,-0.014049889519810677,0.02932151034474373
1772727883175607800,12.62560791015625,0.004276053514331579,-0.009773836471140385,0.007941242307424545
1772727883192953300,12.642953369140624,0.013439024798572063,-0.001832594396546483,0.006108647678047419
1772727883210299100,12.660299072265625,0.010995565913617611,0.006719512399286032,-0.0054977829568088055
1772727883227645000,12.67764501953125,0.010995565913617611,-0.002443459117785096,0.01954767294228077
1772727883244990500,12.694990478515624,0.011606430634856224,0,0.009773836471140385
1772727883262336300,12.712336181640625,-0.000610864779446274,-0.008552107028663158,-0.006108647678047419
1772727883279681800,12.729681884765625,-0.002443459117785096,-0.014049889519810677,0.011606430634856224
1772727883297027600,12.747027587890624,-0.001221729558892548,-0.014660755172371864,0.006108647678047419
1772727883314373000,12.764373046875,-0.000610864779446274,-0.01649334840476513,0.010384701192378998
1772727883331719000,12.781718994140626,0.003665188793092966,-0.006108647678047419,0.003665188793092966
1772727883349064700,12.799064697265624,-0.000610864779446274,-0.001221729558892548,0
1772727883366410200,12.81641015625,-0.006108647678047419,-0.008552107028663158,0.008552107028663158
1772727883383756000,12.833756103515626,-0.001832594396546483,-0.01588248461484909,0.014660755172371864
1772727883401101600,12.8511015625,0.002443459117785096,-0.008552107028663158,0.0256563201546669
1772727883418447400,12.868447265625,-0.006108647678047419,-0.002443459117785096,-0.0054977829568088055
1772727883435793200,12.885793212890626,-0.017104214057326317,-0.009773836471140385,-0.006108647678047419
1772727883453138700,12.903138671875,-0.020158538594841957,-0.01282816007733345,-0.004886918235570192
1772727883470484500,12.920484375,-0.011606430634856224,-0.01954767294228077,0.021380268037319183
1772727883487830000,12.937830078125,0,-0.014660755172371864,0.04214967042207718
1772727883505175800,12.95517578125,0,-0.004886918235570192,0.017104214057326317
1772727883522521300,12.972521240234375,-0.008552107028663158,0.004276053514331579,-0.006719512399286032
1772727883539867100,12.9898671875,-0.006108647678047419,0.006108647678047419,0.004276053514331579
1772727883557213000,13.007212890625,0.007941242307424545,0.009162971749901772,0.014660755172371864
1772727883574558500,13.024558349609375,0.008552107028663158,-0.004886918235570192,0.039706211537122726
1772727883591904300,13.041904296875,-0.001221729558892548,-0.007330377586185932,0.020769402384757996
1772727883609249800,13.059249755859375,-0.021991131827235222,-0.02260199747979641,-0.001832594396546483
1772727883626595600,13.076595703125,-0.01893680728971958,-0.026878049597144127,0.01649334840476513
1772727883643941400,13.09394140625,-0.001832594396546483,-0.014049889519810677,0.026878049597144127
1772727883661287000,13.111286865234375,0.007330377586185932,0,0.024434590712189674
1772727883678632700,13.1286328125,0.010995565913617611,0,0.011606430634856224
1772727883695978200,13.145978271484376,0.007941242307424545,-0.003665188793092966,0.017715077847242355
1772727883713324000,13.163323974609375,0.010995565913617611,-0.006719512399286032,0.031154103577136993
1772727883730669800,13.180669921875,0.011606430634856224,-0.009773836471140385,0.037262752652168274
1772727883748015400,13.198015380859376,0.006108647678047419,-0.006719512399286032,0.01588248461484909
1772727883765361200,13.215361083984375,0.009162971749901772,-0.007330377586185932,0.000610864779446274
1772727883782706700,13.232706787109375,0.008552107028663158,-0.009162971749901772,0.020158538594841957
1772727883800052500,13.250052490234374,0.020769402384757996,-0.01282816007733345,0.036651886999607086
1772727883817398000,13.26739794921875,0.028099779039621353,-0.003665188793092966,0.04214967042207718
1772727883834743800,13.284743896484375,0.020158538594841957,-0.001832594396546483,0.013439024798572063
1772727883852089600,13.302089599609374,0.007941242307424545,-0.006719512399286032,-0.006108647678047419
1772727883869435100,13.31943505859375,-0.001221729558892548,-0.017715077847242355,0.000610864779446274
1772727883886781000,13.336781005859375,0.000610864779446274,-0.023823726922273636,0.021991131827235222
1772727883904126500,13.35412646484375,0.002443459117785096,-0.021991131827235222,0.025045456364750862
1772727883921472300,13.37147216796875,0.006108647678047419,-0.010995565913617611,0.0256563201546669
1772727883938818000,13.388818115234375,0.01588248461484909,0.003665188793092966,0.0030543238390237093
1772727883956163600,13.40616357421875,0.013439024798572063,-0.001221729558892548,0.001832594396546483
1772727883973509400,13.42350927734375,0.004886918235570192,-0.012217295356094837,0.018325943499803543
1772727883990855000,13.44085498046875,-0.002443459117785096,-0.014660755172371864,0.01893680728971958
1772727884008200700,13.45820068359375,-0.004276053514331579,-0.011606430634856224,0.006108647678047419
1772727884025546200,13.475546142578125,-0.000610864779446274,-0.007941242307424545,-0.001221729558892548
1772727884042892000,13.49289208984375,0.0030543238390237093,-0.000610864779446274,0.006108647678047419
1772727884060237800,13.51023779296875,0.014049889519810677,0.006108647678047419,0.02260199747979641
1772727884077583400,13.527583251953125,0.01588248461484909,-0.002443459117785096,0.01954767294228077
1772727884094929200,13.54492919921875,0.008552107028663158,-0.009162971749901772,0.006108647678047419
1772727884112274700,13.562274658203124,-0.007941242307424545,-0.018325943499803543,-0.01282816007733345
1772727884129620500,13.579620361328125,-0.017104214057326317,-0.02260199747979641,0.000610864779446274
1772727884146966300,13.59696630859375,-0.004886918235570192,-0.01282816007733345,0.007941242307424545
1772727884164311800,13.614311767578124,0.010995565913617611,-0.000610864779446274,0.024434590712189674
1772727884181657600,13.63165771484375,0.006719512399286032,-0.001221729558892548,0.013439024798572063
1772727884199003400,13.64900341796875,-0.004276053514331579,-0.0030543238390237093,-0.009773836471140385
1772727884216349000,13.666348876953125,-0.008552107028663158,-0.007330377586185932,0.0054977829568088055
1772727884233694700,13.68369482421875,-0.01588248461484909,-0.01893680728971958,0.011606430634856224
1772727884251040300,13.701040283203126,-0.012217295356094837,-0.018325943499803543,0.01954767294228077
1772727884268386000,13.718385986328125,-0.009773836471140385,-0.013439024798572063,0.013439024798572063
1772727884285731800,13.73573193359375,-0.010384701192378998,-0.008552107028663158,0.002443459117785096
1772727884303077400,13.753077392578126,-0.0054977829568088055,-0.010995565913617611,0.014049889519810677
1772727884320423200,13.770423095703125,-0.000610864779446274,-0.017715077847242355,0.021991131827235222
1772727884337768700,13.787768798828125,0.003665188793092966,-0.01282816007733345,0.024434590712189674
1772727884355114500,13.805114501953126,0.000610864779446274,-0.004276053514331579,0.009162971749901772
1772727884372460300,13.822460205078125,-0.009162971749901772,-0.013439024798572063,0.007941242307424545
1772727884389805800,13.839805908203125,-0.0054977829568088055,-0.010995565913617611,0.02626718580722809
1772727884407151600,13.857151611328124,0.007330377586185932,-0.017715077847242355,0.030543239787220955
1772727884424497200,13.8744970703125,0.017104214057326317,-0.007941242307424545,0.0256563201546669
1772727884441843000,13.891843017578125,0.012217295356094837,-0.004276053514331579,0.007330377586185932
1772727884459188700,13.909188720703124,0,-0.006719512399286032,0.014049889519810677
1772727884476534300,13.9265341796875,-0.004886918235570192,-0.014049889519810677,0.021991131827235222
1772727884493880000,13.943880126953125,0.000610864779446274,-0.01649334840476513,0.029932374134659767
1772727884511225600,13.9612255859375,0.01282816007733345,-0.006719512399286032,0.021991131827235222
1772727884528571400,13.9785712890625,0.01588248461484909,-0.006719512399286032,0.01649334840476513
1772727884545917200,13.995917236328125,0.014049889519810677,-0.004886918235570192,0.020769402384757996
1772727884563262700,14.0132626953125,0.0030543238390237093,-0.014660755172371864,0.0054977829568088055
1772727884580608500,14.0306083984375,-0.000610864779446274,-0.023212861269712448,0.020769402384757996
1772727884597954000,14.0479541015625,0.004886918235570192,-0.0054977829568088055,0.023823726922273636
1772727884615299800,14.0652998046875,0.007330377586185932,-0.009162971749901772,0.031154103577136993
1772727884632645600,14.082645751953125,0.010995565913617611,0.003665188793092966,0.02871064469218254
1772727884649991200,14.0999912109375,0.011606430634856224,-0.001832594396546483,0.004276053514331579
1772727884667337000,14.1173369140625,-0.000610864779446274,-0.008552107028663158,0.0054977829568088055
1772727884684682500,14.1346826171875,-0.009773836471140385,-0.01282816007733345,0.01954767294228077
1772727884702028300,14.1520283203125,-0.004276053514331579,-0.011606430634856224,0.034208428114652634
1772727884719374000,14.1693740234375,0.006719512399286032,-0.007330377586185932,0.017104214057326317
1772727884736719600,14.1867197265625,0.017715077847242355,0.004886918235570192,0.009773836471140385
1772727884754065400,14.2040654296875,0.009162971749901772,-0.007330377586185932,-0.002443459117785096
1772727884771411000,14.221410888671874,-0.009773836471140385,-0.01954767294228077,0.014660755172371864
1772727884788756700,14.2387568359375,-0.010384701192378998,-0.017715077847242355,0.023212861269712448
1772727884806102500,14.2561025390625,-0.009162971749901772,-0.023823726922273636,0.004886918235570192
1772727884823448000,14.273447998046874,-0.003665188793092966,-0.012217295356094837,0.014660755172371864
1772727884840793900,14.2907939453125,0.004276053514331579,-0.004276053514331579,0.001832594396546483
1772727884858139600,14.3081396484375,0.007941242307424545,-0.009162971749901772,0.025045456364750862
1772727884875485200,14.325485107421875,0.006108647678047419,-0.006108647678047419,0.015271619893610477
1772727884892831000,14.3428310546875,-0.000610864779446274,-0.006108647678047419,0.009162971749901772
1772727884910176500,14.360176513671876,-0.012217295356094837,-0.014049889519810677,0.002443459117785096
1772727884927522300,14.377522216796875,-0.015271619893610477,-0.01649334840476513,0.009162971749901772
1772727884944868000,14.3948681640625,-0.004276053514331579,-0.01649334840476513,0.03481929376721382
1772727884962213600,14.412213623046876,0.0030543238390237093,-0.004276053514331579,0.03176496922969818
1772727884979559400,14.429559326171875,0.004886918235570192,0.002443459117785096,-0.001832594396546483
1772727884996905000,14.446905029296875,-0.000610864779446274,-0.0054977829568088055,0.002443459117785096
1772727885014250800,14.464250732421876,-0.0054977829568088055,-0.024434590712189674,0.008552107028663158
1772727885031596500,14.481596435546875,-0.0054977829568088055,-0.02260199747979641,0.03909534588456154
1772727885048942000,14.498942138671875,0,-0.010995565913617611,0.0256563201546669
1772727885066287900,14.516287841796874,-0.001832594396546483,-0.006108647678047419,0.0030543238390237093
1772727885083633700,14.533633544921875,-0.001832594396546483,-0.006108647678047419,0.001221729558892548
1772727885100979200,14.550979248046875,0,-0.017715077847242355,0.009773836471140385
1772727885118325000,14.568324951171874,-0.001832594396546483,-0.014049889519810677,0.03176496922969818
1772727885135670500,14.58567041015625,0.000610864779446274,-0.001832594396546483,0.03176496922969818
1772727885153016300,14.603016357421875,-0.001832594396546483,0.001221729558892548,0.008552107028663158
1772727885170362000,14.620362060546874,0.006719512399286032,-0.006719512399286032,0.006108647678047419
1772727885187707600,14.637707763671875,0.017104214057326317,0.009162971749901772,0.031154103577136993
1772727885205053400,14.655053466796875,0.01282816007733345,-0.001832594396546483,0.01649334840476513
1772727885222399000,14.67239892578125,0.009773836471140385,-0.010384701192378998,0.03543015569448471
1772727885239744800,14.689744873046875,0.0030543238390237093,-0.007941242307424545,-0.001832594396546483
1772727885257090300,14.70709033203125,0,-0.010384701192378998,0
1772727885274436000,14.72443603515625,0.009162971749901772,-0.01282816007733345,0.031154103577136993
1772727885291782000,14.741781982421875,0.01649334840476513,-0.013439024798572063,0.01588248461484909
1772727885309127700,14.759127685546876,0.023823726922273636,0.000610864779446274,0.03848448023200035
1772727885326473200,14.77647314453125,0.013439024798572063,0.000610864779446274,0.01893680728971958
1772727885343819000,14.793819091796875,-0.004276053514331579,-0.001221729558892548,0.009773836471140385
1772727885361164500,14.81116455078125,-0.002443459117785096,-0.007330377586185932,-0.001221729558892548
1772727885378510300,14.82851025390625,0.004276053514331579,-0.017715077847242355,0.011606430634856224
1772727885395856100,14.845856201171875,0.01282816007733345,-0.021380268037319183,0.023823726922273636
1772727885413201700,14.86320166015625,0.017104214057326317,-0.006108647678047419,0.030543239787220955
1772727885430547500,14.88054736328125,0.008552107028663158,0.000610864779446274,0.006108647678047419
1772727885447893000,14.89789306640625,-0.006108647678047419,-0.011606430634856224,-0.008552107028663158
1772727885465238800,14.91523876953125,-0.011606430634856224,-0.01649334840476513,0.001832594396546483
1772727885482584600,14.93258447265625,-0.004886918235570192,-0.014660755172371864,0.01954767294228077
1772727885499930000,14.94993017578125,0,-0.009773836471140385,0.015271619893610477
1772727885517276000,14.96727587890625,0.001221729558892548,-0.01282816007733345,0.007941242307424545
1772727885534621700,14.98462158203125,-0.001221729558892548,-0.01588248461484909,0
1772727885551967200,15.00196728515625,-0.0054977829568088055,-0.014049889519810677,0.0030543238390237093
1772727885569313000,15.01931298828125,-0.013439024798572063,-0.017715077847242355,0.014049889519810677
1772727885586658600,15.036658447265625,-0.013439024798572063,-0.01893680728971958,0.012217295356094837
1772727885604004400,15.05400439453125,-0.0030543238390237093,-0.014049889519810677,0.014049889519810677
1772727885621350000,15.071349853515626,0.006719512399286032,-0.007941242307424545,-0.001832594396546483
1772727885638695700,15.08869580078125,0.008552107028663158,-0.009162971749901772,0.023823726922273636
1772727885656041500,15.10604150390625,-0.004886918235570192,-0.008552107028663158,0.018325943499803543
1772727885673387300,15.12338720703125,-0.009773836471140385,-0.0054977829568088055,0.006719512399286032
1772727885690732800,15.14073291015625,-0.010995565913617611,-0.01282816007733345,-0.001221729558892548
1772727885708078600,15.15807861328125,-0.003665188793092966,-0.020158538594841957,0.010995565913617611
1772727885725424000,15.175424072265624,0.006719512399286032,-0.01588248461484909,0.036651886999607086
1772727885742770000,15.19277001953125,0.009773836471140385,-0.002443459117785096,0.04153880476951599
1772727885760115700,15.21011572265625,-0.001221729558892548,-0.001832594396546483,0.000610864779446274
1772727885777461200,15.227461181640624,-0.017715077847242355,-0.013439024798572063,-0.009162971749901772
1772727885794807000,15.24480712890625,-0.004276053514331579,-0.0054977829568088055,0.01588248461484909
1772727885812152600,15.262152587890625,0.015271619893610477,-0.0054977829568088055,0.05803215503692627
1772727885829498400,15.279498291015624,0.020769402384757996,-0.000610864779446274,0.050090912729501724
1772727885846844200,15.29684423828125,0.01893680728971958,0.009773836471140385,0.01649334840476513
1772727885864189700,15.314189697265626,0.002443459117785096,0.003665188793092966,-0.001221729558892548
1772727885881535500,15.331535400390624,-0.008552107028663158,-0.009773836471140385,0.01893680728971958
1772727885898881300,15.34888134765625,0.008552107028663158,-0.017715077847242355,0.05436696484684944
1772727885916226800,15.366226806640626,0.021380268037319183,-0.014660755172371864,0.0665842592716217
1772727885933572600,15.383572509765624,0.023212861269712448,-0.0030543238390237093,0.020769402384757996
1772727885950918100,15.400918212890625,0.008552107028663158,-0.004886918235570192,-0.01588248461484909
1772727885968264000,15.418263916015626,-0.003665188793092966,-0.01893680728971958,0.010995565913617611
1772727885985609700,15.435609619140624,-0.006719512399286032,-0.02260199747979641,0.043982263654470444
1772727886002955300,15.452955322265625,0.011606430634856224,-0.01282816007733345,0.050090912729501724
1772727886020301000,15.470301025390626,0.013439024798572063,-0.01588248461484909,0.03543015569448471
1772727886037646800,15.487646728515625,0.017104214057326317,0.0054977829568088055,-0.001832594396546483
1772727886054992400,15.504992431640625,0.004886918235570192,-0.004276053514331579,-0.007941242307424545
1772727886072338200,15.522338134765626,-0.0054977829568088055,-0.01649334840476513,0.02260199747979641
1772727886089683700,15.53968359375,-0.003665188793092966,-0.012217295356094837,0.020158538594841957
1772727886107029500,15.557029541015625,0.001221729558892548,-0.0054977829568088055,0.01954767294228077
1772727886124375300,15.574375244140626,0.001832594396546483,-0.0030543238390237093,0.004276053514331579
1772727886141720800,15.591720947265625,0.001832594396546483,-0.003665188793092966,-0.012217295356094837
1772727886159066600,15.609066650390625,-0.004886918235570192,-0.014660755172371864,0.006719512399286032
1772727886176412400,15.626412353515626,-0.012217295356094837,-0.006719512399286032,0.006719512399286032
1772727886193758000,15.643758056640625,-0.01649334840476513,-0.01649334840476513,-0.007330377586185932
1772727886211103700,15.661103759765625,-0.002443459117785096,-0.003665188793092966,0.003665188793092966
1772727886228449500,15.678449462890624,0.007941242307424545,-0.002443459117785096,-0.018325943499803543
1772727886245795000,15.695795166015625,0.01588248461484909,-0.001221729558892548,0.03298669680953026
1772727886263140900,15.713140869140625,0.004276053514331579,-0.006108647678047419,-0.010995565913617611
1772727886280486400,15.730486328125,-0.015271619893610477,-0.01649334840476513,0.003665188793092966
1772727886297832200,15.747832275390625,-0.021380268037319183,-0.007330377586185932,-0.006719512399286032
1772727886315178000,15.765177978515625,-0.009162971749901772,-0.009162971749901772,0.013439024798572063
1772727886332523500,15.7825234375,0.006719512399286032,-0.0054977829568088055,0.026878049597144127
1772727886349869300,15.799869384765625,0.018325943499803543,0.001221729558892548,0.020158538594841957
1772727886367215000,15.817215087890625,0.010995565913617611,-0.0030543238390237093,-0.002443459117785096
1772727886384560600,15.834560546875,-0.006719512399286032,-0.017104214057326317,0.007941242307424545
1772727886401906400,15.851906494140625,-0.010384701192378998,-0.01893680728971958,0.0256563201546669
1772727886419252200,15.869252197265626,-0.004276053514331579,-0.010995565913617611,0.0256563201546669
1772727886436597800,15.88659765625,0.011606430634856224,-0.003665188793092966,0.03909534588456154
1772727886453943600,15.903943603515625,0.01588248461484909,-0.004276053514331579,0.014049889519810677
1772727886471289000,15.9212890625,0.013439024798572063,-0.007330377586185932,0.013439024798572063
1772727886488635000,15.938634765625,0.0030543238390237093,-0.017715077847242355,0.024434590712189674
1772727886505980700,15.955980712890625,0.001832594396546483,-0.020769402384757996,0.047036588191986084
1772727886523326200,15.973326171875,0.003665188793092966,-0.01893680728971958,0.023212861269712448
1772727886540672000,15.990672119140624,-0.003665188793092966,-0.018325943499803543,0.023212861269712448
1772727886558017800,16.008017822265625,0.001221729558892548,-0.004886918235570192,0.017104214057326317
1772727886575363300,16.02536328125,0.004886918235570192,-0.014049889519810677,0.031154103577136993
1772727886592709000,16.042709228515626,0.015271619893610477,-0.008552107028663158,0.03176496922969818
1772727886610055000,16.060054931640625,0.015271619893610477,-0.004886918235570192,0.020769402384757996
1772727886627400400,16.077400390625,0.002443459117785096,-0.012217295356094837,0.023212861269712448
1772727886644746200,16.094746337890626,-0.008552107028663158,-0.009162971749901772,0.006719512399286032
1772727886662091800,16.112091796875,-0.014049889519810677,-0.017715077847242355,0.013439024798572063
1772727886679437600,16.1294375,-0.003665188793092966,-0.017104214057326317,0.030543239787220955
1772727886696783400,16.146783447265626,0.014049889519810677,-0.003665188793092966,0.021380268037319183
1772727886714129000,16.16412890625,0.01282816007733345,0,0.004886918235570192
1772727886731474700,16.181474609375,0.003665188793092966,-0.001832594396546483,0.003665188793092966
1772727886748820500,16.198820556640626,-0.008552107028663158,-0.012217295356094837,0.007330377586185932
1772727886766166000,16.216166015625,-0.006719512399286032,-0.014049889519810677,0.01893680728971958
1772727886783511800,16.23351171875,-0.001832594396546483,-0.008552107028663158,0.013439024798572063
1772727886800857300,16.250857421875,-0.002443459117785096,-0.009773836471140385,0.004276053514331579
1772727886818203100,16.268203125,-0.001832594396546483,0.001832594396546483,-0.001832594396546483
1772727886835549000,16.285548828125,0.001832594396546483,0.004276053514331579,0.004276053514331579
1772727886852894700,16.302894775390627,0.007941242307424545,0.004886918235570192,0.028099779039621353
1772727886870240300,16.320240234375,0.007941242307424545,0.006108647678047419,0.018325943499803543
1772727886887586000,16.3375859375,0.001832594396546483,0.002443459117785096,0.013439024798572063
1772727886904931600,16.354931640625,-0.007330377586185932,-0.004886918235570192,-0.002443459117785096
1772727886922277400,16.37227734375,-0.008552107028663158,-0.014049889519810677,0.010384701192378998
1772727886939623200,16.389623046875,0.0030543238390237093,-0.010384701192378998,0.020158538594841957
1772727886956968700,16.40696875,0.008552107028663158,-0.006108647678047419,0.006719512399286032
1772727886974314500,16.424314453125,0.003665188793092966,-0.015271619893610477,0.009773836471140385
1772727886991660300,16.441660400390624,0.001221729558892548,-0.01588248461484909,0.013439024798572063
1772727887009005800,16.459005859375,0.004276053514331579,-0.006719512399286032,0.02260199747979641
1772727887026351600,16.4763515625,0.0054977829568088055,-0.004276053514331579,0.009773836471140385
1772727887043697200,16.493697265625,0.004886918235570192,-0.0030543238390237093,0.010384701192378998
1772727887061043000,16.51104296875,0.006719512399286032,-0.004276053514331579,0.015271619893610477
1772727887078388700,16.528388671875,-0.004276053514331579,-0.018325943499803543,0.01282816007733345
1772727887095734300,16.545734375,-0.004886918235570192,-0.014660755172371864,0.020769402384757996
1772727887113080000,16.563080078125,0.006108647678047419,-0.003665188793092966,0.010995565913617611
1772727887130425900,16.58042578125,0.009162971749901772,-0.004276053514331579,0.006719512399286032
1772727887147771400,16.597771484375,0.003665188793092966,-0.014660755172371864,0.004276053514331579
1772727887165117200,16.6151171875,-0.000610864779446274,-0.017715077847242355,0.01282816007733345
1772727887182463000,16.632462890625,-0.003665188793092966,-0.017715077847242355,0.01282816007733345
1772727887199808500,16.64980859375,-0.007941242307424545,-0.020158538594841957,0.001832594396546483
1772727887217154300,16.667154296875,-0.0030543238390237093,-0.01893680728971958,0.0030543238390237093
1772727887234499800,16.684499755859374,0.001221729558892548,-0.017104214057326317,0.000610864779446274
1772727887251845600,16.701845703125,-0.001221729558892548,-0.025045456364750862,0.007330377586185932
1772727887269191400,16.71919140625,-0.001832594396546483,-0.017715077847242355,0.014049889519810677
1772727887286537200,16.736537109375,0.0054977829568088055,-0.001221729558892548,0.014660755172371864
1772727887303882800,16.7538828125,0.010384701192378998,0.002443459117785096,0.024434590712189674
1772727887321228500,16.771228515625,0.01282816007733345,0.0030543238390237093,0.013439024798572063
1772727887338574000,16.788573974609374,0.018325943499803543,0.003665188793092966,0.020158538594841957
1772727887355920000,16.805919921875,0.006108647678047419,-0.009162971749901772,0.015271619893610477
1772727887373265700,16.823265625,-0.010384701192378998,-0.017104214057326317,0.017104214057326317
1772727887390611200,16.840611083984374,-0.011606430634856224,-0.02260199747979641,0.021380268037319183
1772727887407957000,16.85795703125,-0.002443459117785096,-0.01954767294228077,0.03176496922969818
1772727887425302800,16.875302734375,0.01282816007733345,-0.008552107028663158,0.02871064469218254
1772727887442648300,16.8926484375,0.020158538594841957,0,0.030543239787220955
1772727887459994000,16.909994140625,0.01282816007733345,-0.002443459117785096,0.021380268037319183
1772727887477340000,16.92733984375,0.000610864779446274,-0.013439024798572063,0.01954767294228077
1772727887494685400,16.944685546875,-0.006719512399286032,-0.013439024798572063,0.0256563201546669
1772727887512031200,16.96203125,-0.003665188793092966,-0.014049889519810677,0.04520399495959282
1772727887529376800,16.979376708984375,0.008552107028663158,0,0.04276053607463837
1772727887546722600,16.99672265625,0.014049889519810677,0.010384701192378998,0.021380268037319183
1772727887564068400,17.014068359375,0.012217295356094837,0.004276053514331579,0.020769402384757996
1772727887581414100,17.0314140625,0.006719512399286032,-0.007941242307424545,0.02871064469218254
1772727887598759700,17.048759765625,0.000610864779446274,-0.011606430634856224,0.026878049597144127
1772727887616105500,17.06610546875,-0.000610864779446274,-0.007941242307424545,0.017715077847242355
1772727887633451000,17.083450927734376,0.0030543238390237093,-0.007941242307424545,0.020769402384757996
1772727887650796800,17.100796875,0.009162971749901772,-0.001832594396546483,0.009773836471140385
1772727887668142600,17.118142578125,0.008552107028663158,-0.0054977829568088055,0.004886918235570192
1772727887685488000,17.135488037109376,0.002443459117785096,-0.020158538594841957,0.026878049597144127
1772727887702834000,17.152833984375,-0.003665188793092966,-0.020158538594841957,0.01588248461484909
1772727887720179700,17.1701796875,-0.007330377586185932,-0.011606430634856224,-0.000610864779446274
1772727887737525200,17.187525146484376,-0.011606430634856224,-0.007330377586185932,0.003665188793092966
1772727887754871000,17.20487109375,-0.006108647678047419,-0.008552107028663158,0.0054977829568088055
1772727887772216800,17.222216796875,0.0054977829568088055,-0.0054977829568088055,0.007330377586185932
1772727887789562400,17.239562255859376,0.024434590712189674,0.006108647678047419,0.029932374134659767
1772727887806908200,17.256908203125,0.02932151034474373,0.010384701192378998,-0.000610864779446274
1772727887824254000,17.27425390625,0.003665188793092966,-0.009773836471140385,-0.006719512399286032
1772727887841599500,17.291599609375,-0.014660755172371864,-0.014660755172371864,-0.008552107028663158
1772727887858945300,17.3089453125,-0.023212861269712448,-0.025045456364750862,0.004276053514331579
1772727887876291000,17.326291015625,-0.020158538594841957,-0.023212861269712448,0.010384701192378998
1772727887893636600,17.34363671875,-0.004886918235570192,-0.006108647678047419,-0.0030543238390237093
1772727887910982400,17.360982421875,0.012217295356094837,0.003665188793092966,0.011606430634856224
1772727887928328200,17.378328125,0.010995565913617611,0.003665188793092966,0.004276053514331579
1772727887945673700,17.395673828125,0.004886918235570192,-0.001832594396546483,-0.001221729558892548
1772727887963019500,17.41301953125,-0.004886918235570192,-0.011606430634856224,0.009773836471140385
1772727887980365000,17.430364990234374,-0.020769402384757996,-0.017715077847242355,-0.007941242307424545
1772727887997710800,17.4477109375,-0.01954767294228077,-0.021380268037319183,0.0054977829568088055
1772727888015056600,17.465056640625,-0.014049889519810677,-0.014660755172371864,0.01588248461484909
1772727888032402400,17.48240234375,-0.006719512399286032,-0.011606430634856224,0.007330377586185932
1772727888049748000,17.499748046875,-0.004276053514331579,-0.013439024798572063,0.010384701192378998
1772727888067093800,17.51709375,0.002443459117785096,-0.004886918235570192,0.017715077847242355
1772727888084439300,17.534439208984374,0.009162971749901772,-0.002443459117785096,0.014049889519810677
1772727888101785000,17.55178515625,0.004886918235570192,-0.009162971749901772,0.012217295356094837
1772727888119131000,17.569130859375,0.006108647678047419,-0.014049889519810677,0.021991131827235222
1772727888136476400,17.586476318359374,0.009773836471140385,-0.010384701192378998,0.03176496922969818
1772727888153822200,17.603822265625,0.004276053514331579,-0.008552107028663158,0.008552107028663158
1772727888171168000,17.62116796875,0.0054977829568088055,-0.006108647678047419,0.004276053514331579
1772727888188513500,17.638513427734374,0.007941242307424545,-0.013439024798572063,0.01588248461484909
1772727888205859300,17.655859375,0.014660755172371864,-0.003665188793092966,0.026878049597144127
1772727888223205000,17.673205078125,0.010384701192378998,-0.013439024798572063,0.011606430634856224
1772727888240550700,17.690550537109374,-0.004886918235570192,-0.01954767294228077,0.0256563201546669
1772727888257896400,17.707896484375,-0.025045456364750862,-0.013439024798572063,0.006108647678047419
1772727888275242200,17.7252421875,-0.021380268037319183,-0.011606430634856224,0.0054977829568088055
1772727888292587800,17.742587890625,0.001221729558892548,-0.012217295356094837,0.029932374134659767
1772727888309933600,17.75993359375,0.021991131827235222,0.001832594396546483,0.03481929376721382
1772727888327279400,17.777279296875,0.018325943499803543,0.007330377586185932,0.030543239787220955
1772727888344625000,17.794625,0.001221729558892548,0.000610864779446274,0.009773836471140385
1772727888361970700,17.811970703125,-0.010384701192378998,-0.02260199747979641,0.017715077847242355
1772727888379316500,17.82931640625,-0.013439024798572063,-0.006108647678047419,0.020769402384757996
1772727888396662000,17.846662109375,0.000610864779446274,-0.001832594396546483,0.0360410213470459
1772727888414007800,17.8640078125,0.015271619893610477,0.004276053514331579,0.043982263654470444
1772727888431353600,17.881353515625,0.017715077847242355,0.002443459117785096,0.010384701192378998
1772727888448699100,17.89869921875,0.015271619893610477,0.004886918235570192,0.007330377586185932
1772727888466045000,17.916044921875,0.009162971749901772,-0.001221729558892548,0.023212861269712448
1772727888483390500,17.933390380859375,0.01282816007733345,-0.001832594396546483,0.034208428114652634
1772727888500736300,17.950736328125,0.01649334840476513,-0.000610864779446274,0.021991131827235222
1772727888518082000,17.96808203125,0.02260199747979641,-0.000610864779446274,0.017715077847242355
1772727888535427800,17.985427734375,0.021991131827235222,-0.002443459117785096,-0.001221729558892548
1772727888552773400,18.0027734375,0.002443459117785096,-0.013439024798572063,-0.007941242307424545
1772727888570119200,18.020119140625,-0.0054977829568088055,-0.017104214057326317,0.000610864779446274
1772727888587464700,18.037464599609375,-0.004886918235570192,-0.023212861269712448,0.018325943499803543
1772727888604810500,18.054810546875,-0.002443459117785096,-0.014049889519810677,0.003665188793092966
1772727888622156300,18.07215625,0.0030543238390237093,-0.006108647678047419,0.002443459117785096
1772727888639501800,18.089501708984375,0.013439024798572063,0.0054977829568088055,0.001832594396546483
1772727888656847600,18.10684765625,0.015271619893610477,0.008552107028663158,-0.003665188793092966
1772727888674193400,18.124193359375,0.006108647678047419,-0.006719512399286032,0.007330377586185932
1772727888691539200,18.141539306640624,-0.014660755172371864,-0.020158538594841957,-0.003665188793092966
1772727888708884700,18.158884765625,-0.027488915249705315,-0.023212861269712448,-0.015271619893610477
1772727888726230500,18.17623046875,-0.0256563201546669,-0.023823726922273636,-0.007941242307424545
1772727888743576000,18.193576171875,-0.004276053514331579,-0.01649334840476513,0.01588248461484909
1772727888760921900,18.210921875,0.017104214057326317,-0.006719512399286032,0.014660755172371864
1772727888778267600,18.228267578125,0.01893680728971958,-0.009162971749901772,0.011606430634856224
1772727888795613400,18.245613525390624,0,-0.018325943499803543,-0.009162971749901772
1772727888812959000,18.262958984375,-0.017104214057326317,-0.027488915249705315,-0.006719512399286032
1772727888830304800,18.2803046875,-0.021380268037319183,-0.025045456364750862,0.009162971749901772
1772727888847650300,18.297650390625,-0.01282816007733345,-0.017104214057326317,0.0256563201546669
1772727888864996000,18.31499609375,0.01649334840476513,0.006108647678047419,0.037262752652168274
1772727888882342000,18.332341796875,0.023823726922273636,0.011606430634856224,0.014049889519810677
1772727888899687700,18.349687744140624,0.007330377586185932,-0.000610864779446274,0.0030543238390237093
1772727888917033200,18.367033203125,-0.010384701192378998,-0.015271619893610477,0.023212861269712448
1772727888934379000,18.38437890625,-0.01954767294228077,-0.031154103577136993,0.020769402384757996
1772727888951724800,18.401724853515624,-0.01649334840476513,-0.027488915249705315,0.021380268037319183
1772727888969070300,18.4190703125,0.0030543238390237093,-0.01588248461484909,0.023212861269712448
1772727888986416000,18.436416015625,0.009162971749901772,-0.01282816007733345,0.01954767294228077
1772727889003761700,18.45376171875,0.007941242307424545,-0.017104214057326317,0.021380268037319183
1772727889021107500,18.471107421875,0.006719512399286032,-0.0030543238390237093,0.02871064469218254
1772727889038453200,18.488453369140625,-0.001221729558892548,-0.010384701192378998,0.02626718580722809
1772727889055799000,18.505799072265624,-0.008552107028663158,-0.009773836471140385,0.0256563201546669
1772727889073144600,18.52314453125,-0.0030543238390237093,-0.007330377586185932,0.015271619893610477
1772727889090490400,18.540490478515625,0.006108647678047419,-0.008552107028663158,0.036651886999607086
1772727889107836000,18.5578359375,0.0030543238390237093,-0.012217295356094837,0.021991131827235222
1772727889125181700,18.575181640625,-0.001832594396546483,-0.01282816007733345,0.01893680728971958
1772727889142527500,18.592527587890626,0.001221729558892548,-0.009162971749901772,0.033597562462091446
1772727889159873000,18.609873046875,0.006108647678047419,-0.001221729558892548,0.023823726922273636
1772727889177218800,18.62721875,0.01649334840476513,0.008552107028663158,0.03237583488225937
1772727889194564600,18.644564697265626,0.023823726922273636,0.014049889519810677,0.026878049597144127
1772727889211910400,18.661910400390624,0.021991131827235222,0.012217295356094837,0.017715077847242355
1772727889229256000,18.679255859375,0.01588248461484909,0.000610864779446274,0.01588248461484909
1772727889246601700,18.696601806640626,0.002443459117785096,-0.011606430634856224,0.014660755172371864
1772727889263947500,18.713947509765624,-0.007330377586185932,-0.017104214057326317,0.009773836471140385
1772727889281293000,18.73129296875,-0.006719512399286032,-0.015271619893610477,0.008552107028663158
1772727889298638800,18.748638916015626,-0.000610864779446274,-0.017715077847242355,0.007330377586185932
1772727889315984600,18.765984619140625,0.014660755172371864,-0.012217295356094837,0.02260199747979641
1772727889333330200,18.783330078125,0.01893680728971958,-0.004886918235570192,0.008552107028663158
1772727889350676000,18.800676025390626,0.015271619893610477,0.0030543238390237093,0.01282816007733345
1772727889368021800,18.818021728515625,0.002443459117785096,0.000610864779446274,-0.000610864779446274
1772727889385367300,18.8353671875,-0.009162971749901772,-0.006108647678047419,0.006108647678047419
1772727889402713000,18.852713134765626,-0.007941242307424545,-0.007941242307424545,0.01282816007733345
1772727889420059000,18.870058837890625,0.001221729558892548,-0.007941242307424545,0.021380268037319183
1772727889437404400,18.887404296875,0.007330377586185932,-0.007941242307424545,0.004886918235570192
1772727889454750200,18.904750244140626,0.0054977829568088055,-0.012217295356094837,-0.0030543238390237093
1772727889472096000,18.922095947265625,-0.000610864779446274,-0.01649334840476513,0.007941242307424545
1772727889489441500,18.939441650390624,-0.017715077847242355,-0.028099779039621353,-0.007330377586185932
1772727889506787300,18.956787353515626,-0.025045456364750862,-0.02626718580722809,-0.001832594396546483
1772727889524133000,18.974133056640625,-0.014660755172371864,-0.02871064469218254,0.006719512399286032
1772727889541478700,18.991478759765624,0.003665188793092966,-0.015271619893610477,0.018325943499803543
1772727889558824400,19.008824462890626,0.013439024798572063,-0.007330377586185932,0.001221729558892548
1772727889576170200,19.026170166015625,0.009162971749901772,-0.006719512399286032,0.001221729558892548
1772727889593515800,19.043515869140624,-0.0030543238390237093,-0.015271619893610477,-0.006108647678047419
1772727889610861600,19.060861572265626,-0.01954767294228077,-0.027488915249705315,0.002443459117785096
1772727889628207400,19.078207275390625,-0.02626718580722809,-0.03237583488225937,0.003665188793092966
1772727889645553200,19.09555322265625,-0.015271619893610477,-0.024434590712189674,0.009162971749901772
1772727889662898700,19.112898681640626,0.004276053514331579,-0.010384701192378998,0.014660755172371864
1772727889680244500,19.130244384765625,0.023212861269712448,0.0054977829568088055,0.018325943499803543
1772727889697590000,19.147590087890624,0.015271619893610477,0.004886918235570192,0.010384701192378998
1772727889714935800,19.164935791015626,-0.000610864779446274,-0.001832594396546483,0.014049889519810677
1772727889732281600,19.182281494140625,-0.014660755172371864,-0.008552107028663158,0.007941242307424545
1772727889749627100,19.199627197265624,-0.014049889519810677,-0.014660755172371864,0.012217295356094837
1772727889766973000,19.216972900390626,0.001221729558892548,-0.015271619893610477,0.021991131827235222
1772727889784318700,19.234318603515625,0.007941242307424545,-0.009773836471140385,0.030543239787220955
1772727889801664500,19.25166455078125,0.0054977829568088055,-0.006719512399286032,0.021380268037319183
1772727889819010000,19.269010009765626,-0.002443459117785096,-0.01282816007733345,0.014660755172371864
1772727889836355800,19.28635595703125,-0.001832594396546483,-0.009773836471140385,0.02932151034474373
1772727889853701600,19.30370166015625,0.007941242307424545,-0.002443459117785096,0.031154103577136993
1772727889871047200,19.321047119140626,0.013439024798572063,-0.001832594396546483,0.03481929376721382
1772727889888393000,19.33839306640625,0.01588248461484909,-0.001832594396546483,0.027488915249705315
1772727889905738800,19.35573876953125,0.014049889519810677,-0.006108647678047419,0.02260199747979641
1772727889923084300,19.373084228515626,0.0030543238390237093,-0.014660755172371864,0.023212861269712448
1772727889940430000,19.39043017578125,-0.010384701192378998,-0.021991131827235222,0.01893680728971958
1772727889957776000,19.40777587890625,-0.013439024798572063,-0.025045456364750862,0.02871064469218254
1772727889975121400,19.425121337890626,-0.001832594396546483,-0.014660755172371864,0.03298669680953026
1772727889992467200,19.44246728515625,0.014660755172371864,-0.001221729558892548,0.02260199747979641
1772727890009813000,19.45981298828125,0.01893680728971958,0.006108647678047419,0.024434590712189674
1772727890027158800,19.47715869140625,0.020769402384757996,0.004276053514331579,0.014660755172371864
1772727890044504300,19.49450439453125,0.012217295356094837,-0.0054977829568088055,0.03481929376721382
1772727890061850000,19.51185009765625,-0.006108647678047419,-0.012217295356094837,0.003665188793092966
1772727890079195600,19.529195556640627,-0.010384701192378998,-0.013439024798572063,0.01954767294228077
1772727890096541400,19.54654150390625,-0.010995565913617611,-0.01282816007733345,0.004276053514331579
1772727890113887200,19.56388720703125,0.003665188793092966,-0.010995565913617611,0.014660755172371864
1772727890131232800,19.581232666015627,0.015271619893610477,0.001221729558892548,0.017104214057326317
1772727890148578600,19.59857861328125,0.017715077847242355,0.002443459117785096,0.021991131827235222
1772727890165924400,19.61592431640625,0.009162971749901772,0.003665188793092966,-0.001221729558892548
1772727890183270000,19.633269775390627,-0.006719512399286032,-0.01282816007733345,-0.010995565913617611
1772727890200615700,19.65061572265625,-0.020158538594841957,-0.021991131827235222,-0.004886918235570192
1772727890217961500,19.66796142578125,-0.020158538594841957,-0.021991131827235222,0.01954767294228077
1772727890235307300,19.685307373046875,-0.003665188793092966,-0.009773836471140385,0.018325943499803543
1772727890252652800,19.70265283203125,0.01588248461484909,0.004276053514331579,-0.001832594396546483
1772727890269998600,19.71999853515625,0.015271619893610477,0.006719512399286032,-0.009773836471140385
1772727890287344400,19.737344482421875,0,-0.000610864779446274,-0.000610864779446274
1772727890304690000,19.75468994140625,-0.023823726922273636,-0.014660755172371864,0.000610864779446274
1772727890322035700,19.77203564453125,-0.017715077847242355,-0.014049889519810677,0.013439024798572063
1772727890339381500,19.789381591796875,-0.002443459117785096,-0.006108647678047419,0.015271619893610477
1772727890356727000,19.80672705078125,0.0030543238390237093,-0.010384701192378998,0.002443459117785096
1772727890374072800,19.82407275390625,0.0054977829568088055,-0.012217295356094837,-0.001832594396546483
1772727890391418600,19.841418701171875,0.000610864779446274,-0.011606430634856224,0.002443459117785096
1772727890408764200,19.85876416015625,-0.004276053514331579,-0.025045456364750862,0.025045456364750862
1772727890426110000,19.87610986328125,-0.0054977829568088055,-0.023823726922273636,0.02871064469218254
1772727890443455700,19.893455810546875,-0.0030543238390237093,-0.001832594396546483,0.006719512399286032
1772727890460801500,19.910801513671874,0.004886918235570192,0,0.0054977829568088055
1772727890478147000,19.92814697265625,0.006108647678047419,-0.012217295356094837,0.021991131827235222
1772727890495492900,19.945492919921875,0.009773836471140385,-0.012217295356094837,0.020769402384757996
1772727890512838700,19.962838623046874,0.004886918235570192,-0.01588248461484909,0.033597562462091446
1772727890530184200,19.98018408203125,-0.010384701192378998,-0.026878049597144127,0.02626718580722809
1772727890547530000,19.997530029296875,-0.009162971749901772,-0.014660755172371864,0.017104214057326317
1772727890573548500,20.023548583984375,0.006719512399286032,-0.010384701192378998,0.03237583488225937
1772727890590894300,20.040894287109374,0.018325943499803543,-0.006108647678047419,0.02871064469218254
1772727890608239900,20.058239990234377,0.017715077847242355,-0.01282816007733345,0.026878049597144127
1772727890625585700,20.075585693359375,0.010384701192378998,-0.01588248461484909,0.03787361457943916
1772727890642931500,20.092931396484374,-0.003665188793092966,-0.020769402384757996,0.024434590712189674
1772727890660277000,20.110277099609377,-0.004886918235570192,-0.01588248461484909,0.03176496922969818
1772727890677622800,20.127622802734376,0.007330377586185932,-0.010995565913617611,0.031154103577136993
1772727890694968600,20.144968505859374,0.01649334840476513,-0.008552107028663158,0.029932374134659767
1772727890712314000,20.162314208984377,0.017715077847242355,-0.004886918235570192,0.014660755172371864
1772727890729660000,20.179659912109376,0.003665188793092966,-0.008552107028663158,0.009773836471140385
1772727890747005700,20.197005615234374,-0.006719512399286032,-0.008552107028663158,0.011606430634856224
1772727890764351500,20.2143515625,-0.004886918235570192,-0.006108647678047419,0.011606430634856224
1772727890781697000,20.231697021484376,0.004886918235570192,-0.0030543238390237093,0.01588248461484909
1772727890799042800,20.249042724609374,0.011606430634856224,-0.001832594396546483,0.007941242307424545
1772727890816388600,20.266388671875,0.01282816007733345,-0.006719512399286032,0.017104214057326317
1772727890833734100,20.283734130859376,0.010384701192378998,-0.011606430634856224,0.017104214057326317
1772727890851080000,20.301079833984375,0,-0.011606430634856224,0.020158538594841957
1772727890868425700,20.31842578125,-0.012217295356094837,-0.014049889519810677,0.017715077847242355
1772727890885771300,20.335771240234376,-0.020158538594841957,-0.013439024798572063,0.013439024798572063
1772727890903117000,20.353116943359375,-0.0054977829568088055,-0.008552107028663158,0.010384701192378998
1772727890920462800,20.370462890625,0.009162971749901772,-0.010384701192378998,0.028099779039621353
1772727890937808400,20.387808349609376,0.020769402384757996,-0.000610864779446274,0.01282816007733345
1772727890955154200,20.405154296875,0.012217295356094837,-0.007941242307424545,0.008552107028663158
1772727890972500000,20.4225,-0.012217295356094837,-0.0054977829568088055,-0.0030543238390237093
1772727890989845800,20.439845703125,-0.021991131827235222,-0.015271619893610477,0.002443459117785096
1772727891007191300,20.45719140625,-0.01649334840476513,-0.021380268037319183,0.01954767294228077
1772727891024537000,20.474537109375,0.004276053514331579,-0.0054977829568088055,0.034208428114652634
1772727891041883000,20.4918828125,0.021991131827235222,0.006108647678047419,0.010995565913617611
1772727891059228400,20.509228515625,0.014049889519810677,0.0030543238390237093,0.018325943499803543
1772727891076574200,20.52657421875,-0.001832594396546483,-0.000610864779446274,0.001832594396546483
1772727891093920000,20.543919921875,-0.017104214057326317,-0.010995565913617611,-0.006108647678047419
1772727891111265500,20.561265625,-0.01893680728971958,-0.01893680728971958,0.009162971749901772
1772727891128611300,20.578611328125,0.001832594396546483,-0.013439024798572063,0.017104214057326317
1772727891145957000,20.59595703125,0.015271619893610477,-0.002443459117785096,0.017104214057326317
1772727891163302700,20.613302734375,0.020769402384757996,0.006108647678047419,0.01282816007733345
1772727891180648400,20.6306484375,0.014049889519810677,0.006108647678047419,0.017104214057326317
1772727891197994200,20.647994140625,0.0030543238390237093,0.001832594396546483,0.02260199747979641
1772727891215340000,20.665340087890623,0.001832594396546483,-0.008552107028663158,0.010384701192378998
1772727891232685600,20.682685546875,0.004276053514331579,-0.009162971749901772,0.01649334840476513
1772727891250031400,20.70003125,0.001832594396546483,-0.010995565913617611,0.006108647678047419
1772727891267377200,20.717377197265623,0.003665188793092966,-0.006719512399286032,0.023823726922273636
1772727891284722700,20.73472265625,0.01282816007733345,-0.0030543238390237093,0.023823726922273636
1772727891302068500,20.752068359375,0.017715077847242355,0.001221729558892548,0.025045456364750862
1772727891319414300,20.769414306640623,0.017715077847242355,-0.001221729558892548,0.017715077847242355
1772727891336759800,20.786759765625,0.009162971749901772,-0.009773836471140385,0.010995565913617611
1772727891354105600,20.804105712890625,-0.000610864779446274,-0.015271619893610477,0.012217295356094837
1772727891371451400,20.821451416015623,-0.0030543238390237093,-0.013439024798572063,0.021380268037319183
1772727891388797000,20.838796875,-0.001832594396546483,-0.017104214057326317,0.01649334840476513
1772727891406142700,20.856142822265625,0.004276053514331579,-0.008552107028663158,0.017715077847242355
