time,seconds_elapsed,z,y,x
1773146080287604500,0.0776044921875,0,0,0
1773146080300611000,0.090611083984375,-0.8272552490234375,-0.27748847007751465,-0.39807653427124023
1773146080313622000,0.1036220703125,-1.078749656677246,-0.32985174655914307,-0.6230694055557251
1773146080326633200,0.11663330078125,-1.2191524505615234,-0.020691394805908203,-0.6690826416015625
1773146080339644200,0.12964404296875,-1.3045778274536133,0.41494202613830566,-0.10735851526260376
1773146080352655000,0.142655029296875,-0.9915866851806641,0.9673569202423096,-0.25246089696884155
1773146080365666000,0.155666015625,-0.0717763900756836,1.111480951309204,-0.18195050954818726
1773146080378677200,0.16867724609375,-0.4919710159301758,0.9283666610717773,-0.08720332384109497
1773146080391688000,0.18168798828125,-1.6983909606933594,0.5680456161499023,-0.16838324069976807
1773146080404699100,0.19469921875,-2.735832691192627,0.2811408042907715,-0.22724580764770508
1773146080417710000,0.2077099609375,-0.9539813995361328,-0.5528872013092041,0.4830107092857361
1773146080430721000,0.220720947265625,-0.3171110153198242,0.7561185359954834,1.8614099025726318
1773146080443732000,0.23373193359375,-1.0628652572631836,0.18308067321777344,-0.4570024907588959
1773146080456743200,0.2467431640625,0.685028076171875,0.7021915912628174,-0.61268150806427
1773146080469754000,0.259754150390625,0.6774835586547852,1.4089043140411377,-1.5207198858261108
1773146080482765000,0.27276513671875,0.8428421020507812,2.2009053230285645,-2.6514124870300293
1773146080495776000,0.28577587890625,0.755340576171875,1.9238200187683105,-2.6813912391662598
1773146080508787000,0.298786865234375,0.2656879425048828,1.2393689155578613,-1.6888046264648438
1773146080521798100,0.311798095703125,0.21712875366210938,0.48230791091918945,-1.064386248588562
1773146080534809000,0.32480908203125,0.07123661041259766,-0.3772542476654053,-0.8165448307991028
1773146080547820000,0.337820068359375,-0.3205585479736328,-0.4635188579559326,-0.6350603699684143
1773146080560831000,0.3508310546875,-2.4675283432006836,0.5787615776062012,-0.18812507390975952
1773146080573842000,0.363842041015625,-2.9903674125671387,0.6844758987426758,-0.8544999957084656
1773146080586853000,0.37685302734375,-2.9294285774230957,0.8668327331542969,-0.853981077671051
1773146080599864000,0.389864013671875,-2.124716281890869,1.683422565460205,-0.08523809909820557
1773146080612875000,0.402875,-0.6736726760864258,2.170417547225952,0.10780900716781616
1773146080625886000,0.415885986328125,-0.12249755859375,1.1728954315185547,0.07453709840774536
1773146080638897000,0.42889697265625,0.9333333969116211,-0.6063768863677979,0.3724553883075714
1773146080651908000,0.441908203125,0.986083984375,-1.1232171058654785,0.4520106911659241
1773146080664919000,0.4549189453125,0.1318073272705078,-0.7799596786499023,0.24230200052261353
1773146080677930000,0.467929931640625,-1.150160789489746,-0.7086901664733887,-0.1454184651374817
1773146080690941000,0.48094091796875,-1.6239137649536133,-0.937732458114624,-0.406339168548584
1773146080703952100,0.4939521484375,-1.8505821228027344,-1.1898713111877441,-0.5246350765228271
1773146080716963000,0.506963134765625,-1.507127285003662,-1.4365110397338867,0.06598067283630371
1773146080729974000,0.51997412109375,-1.473588466644287,-1.747814655303955,0.7474973201751709
1773146080742985000,0.53298486328125,-1.3869624137878418,-1.6531085968017578,1.2469582557678223
1773146080755996000,0.545995849609375,-1.214024543762207,-1.9927208423614502,1.7235779762268066
1773146080769006800,0.5590068359375,-1.5311241149902344,-2.337482452392578,1.6642491817474365
1773146080782018000,0.57201806640625,-1.2502903938293457,-2.534928321838379,1.156426191329956
1773146080795029000,0.585029052734375,-1.3706812858581543,-3.249959945678711,0.604346752166748
1773146080808040000,0.5980400390625,-1.4289946556091309,-3.906306028366089,-0.3399021625518799
1773146080821051000,0.61105078125,-1.596083641052246,-3.6604034900665283,-1.5991368293762207
1773146080834062000,0.62406201171875,-2.1147031784057617,-4.098137855529785,-1.4894168376922607
1773146080847073000,0.637072998046875,-2.8994555473327637,-3.7736573219299316,-0.8807735443115234
1773146080860084000,0.650083984375,-3.4506356716156006,-4.274905204772949,0.047580718994140625
1773146080873095000,0.663094970703125,-3.3127336502075195,-4.563382625579834,0.3816947937011719
1773146080886105900,0.67610595703125,-2.7139780521392822,-4.603093147277832,-0.3844623565673828
1773146080899117000,0.689116943359375,-2.139139175415039,-4.706088066101074,-1.0796613693237305
1773146080912128000,0.7021279296875,-1.5433826446533203,-4.779643535614014,-1.4169974327087402
1773146080925139000,0.715138916015625,-0.981325626373291,-4.879951000213623,-1.232919692993164
1773146080938150000,0.72814990234375,-0.3407111167907715,-5.073147296905518,-0.7869224548339844
1773146080951160800,0.741160888671875,0.30681943893432617,-5.136380195617676,-0.7646341323852539
1773146080964172000,0.754172119140625,1.432863712310791,-5.033392429351807,-0.6219496726989746
1773146080977183000,0.767182861328125,2.538858413696289,-5.098898410797119,-0.40636205673217773
1773146080990194000,0.78019384765625,4.190494060516357,-5.5449538230896,-0.32041072845458984
1773146081003204900,0.793204833984375,5.86536169052124,-5.677264213562012,-0.6586222648620605
1773146081016215800,0.8062158203125,7.186561584472656,-5.4312052726745605,-0.946448802947998
1773146081029227000,0.81922705078125,8.020223617553711,-5.275676727294922,-0.7145299911499023
1773146081042238000,0.832238037109375,9.321551322937012,-4.971975803375244,-0.03298234939575195
1773146081055249000,0.845248779296875,10.013586044311523,-4.541938781738281,0.42955684661865234
1773146081068259800,0.858259765625,10.8505220413208,-3.933070182800293,0.8270339965820312
1773146081081271000,0.87127099609375,11.09250545501709,-3.1821889877319336,0.6445217132568359
1773146081094282000,0.884281982421875,10.781108856201172,-2.8860292434692383,0.5188922882080078
1773146081107293000,0.89729296875,10.756332397460938,-2.471196174621582,0.8986155986785889
1773146081120303900,0.910303955078125,10.433608055114746,-1.8261051177978516,1.4353127479553223
1773146081133314800,0.923314697265625,9.649112701416016,-2.848257064819336,2.386002779006958
1773146081146325800,0.93632568359375,9.399662971496582,-0.7402992248535156,2.6492178440093994
1773146081159337000,0.9493369140625,9.570411682128906,-0.21773719787597656,2.667354106903076
1773146081172348000,0.962347900390625,10.636648178100586,-1.3550968170166016,3.4729604721069336
1773146081185358800,0.97535888671875,11.581868171691895,-1.7209529876708984,3.970987319946289
1773146081198369800,0.988369873046875,11.881596565246582,-1.8392410278320312,4.539289951324463
1773146081211381000,1.001381103515625,11.347081184387207,-1.165018081665039,4.7919721603393555
1773146081224392000,1.014391845703125,9.811707496643066,-0.8881378173828125,5.549067497253418
1773146081237403000,1.02740283203125,8.04043960571289,-0.32720279693603516,6.054233551025391
1773146081250413800,1.040413818359375,6.2045578956604,0.15426921844482422,6.494831562042236
1773146081263424800,1.0534248046875,4.465187072753906,0.6817283630371094,7.027663707733154
1773146081276436000,1.06643603515625,3.3952832221984863,1.0032072067260742,7.577392578125
1773146081289447000,1.079447021484375,2.914358377456665,1.3865966796875,7.896765232086182
1773146081302457900,1.092457763671875,2.650160312652588,1.6920270919799805,8.217466354370117
1773146081315468800,1.10546875,2.162324905395508,1.5032434463500977,8.739030838012695
1773146081328479700,1.118479736328125,2.3243818283081055,2.314147472381592,8.442512512207031
1773146081341491000,1.131490966796875,1.388413906097412,2.0841665267944336,8.185375213623047
1773146081354502000,1.144501953125,0.8511991500854492,2.097400188446045,7.278350830078125
1773146081367512800,1.157512939453125,0.15378308296203613,2.0621824264526367,6.327933311462402
1773146081380523800,1.170523681640625,-0.41342663764953613,1.9786920547485352,5.414522171020508
1773146081393535000,1.183534912109375,-0.5971939563751221,1.9730019569396973,4.390497207641602
1773146081406546000,1.1965458984375,-0.548420786857605,2.0159811973571777,3.2646665573120117
1773146081419556900,1.209556884765625,-0.859946608543396,2.1109156608581543,2.2439208030700684
1773146081432567800,1.22256787109375,-1.0772393941879272,1.5729131698608398,0.8899623155593872
1773146081445578800,1.235578857421875,-1.202622652053833,1.0456771850585938,-0.1667032241821289
1773146081458590000,1.24858984375,-1.2526658773422241,0.5803985595703125,-0.7563657760620117
1773146081471601000,1.261600830078125,-0.8912558555603027,-0.0789499282836914,-0.6962463855743408
1773146081484611800,1.27461181640625,-0.32963132858276367,-0.5736331939697266,-0.20065689086914062
1773146081497622800,1.287622802734375,0.4991285800933838,-1.3260793685913086,-0.28432559967041016
1773146081510633700,1.3006337890625,0.8040952682495117,-1.3163204193115234,-0.3265213966369629
1773146081523645000,1.31364501953125,0.08377456665039062,-1.183485984802246,0.022536277770996094
1773146081536656000,1.32665576171875,-0.5269546508789062,-1.1556730270385742,-0.22355127334594727
1773146081549666800,1.339666748046875,-1.1710021495819092,-1.072016716003418,-0.7143163681030273
1773146081562677800,1.352677734375,-5.78774356842041,-2.8336992263793945,-1.8318605422973633
1773146081575689000,1.36568896484375,-5.055200099945068,1.3895573616027832,-2.2196288108825684
1773146081588700000,1.378699951171875,4.134677886962891,-1.3564186096191406,2.5405359268188477
1773146081601710800,1.3917109375,-1.583631157875061,0.6019287109375,3.018012523651123
1773146081614721800,1.4047216796875,-4.6416826248168945,1.7899317741394043,2.3612172603607178
1773146081627732700,1.417732666015625,-8.01278305053711,2.168872356414795,3.190164566040039
1773146081640744000,1.430743896484375,-8.302864074707031,2.426208972930908,5.176941394805908
1773146081653755000,1.4437548828125,-3.9388463497161865,1.3837099075317383,5.418264865875244
1773146081666765800,1.456765869140625,-2.413874626159668,0.41268444061279297,5.039910793304443
1773146081679776800,1.46977685546875,-1.3816604614257812,-0.02979755401611328,4.0514349937438965
1773146081692787700,1.48278759765625,-1.2091456651687622,-0.1942586898803711,3.482360363006592
1773146081705799000,1.495798828125,-1.3899261951446533,0.3551044464111328,4.231194496154785
1773146081718809900,1.508809814453125,0.02718973159790039,1.1831645965576172,4.371570587158203
1773146081731820800,1.52182080078125,2.3064215183258057,0.8170204162597656,1.8936830759048462
1773146081744831700,1.534831787109375,3.3245463371276855,-0.737849235534668,-1.3347434997558594
1773146081757842700,1.5478427734375,3.8915152549743652,-1.1578397750854492,-5.473121643066406
1773146081770854000,1.56085400390625,0.980871319770813,-0.6663856506347656,-6.479679107666016
1773146081783864800,1.57386474609375,1.012819766998291,0.689056396484375,-3.1075501441955566
1773146081796875800,1.586875732421875,0.17095676064491272,0.3667573928833008,-3.5454275608062744
1773146081809886700,1.59988671875,-0.5078209638595581,0.3553628921508789,-4.399328231811523
1773146081822898000,1.61289794921875,-0.17649899423122406,-0.5736188888549805,-3.6513705253601074
1773146081835908900,1.625908935546875,1.0492901802062988,-1.7903785705566406,-3.175631523132324
1773146081848919800,1.638919921875,0.6822595596313477,-2.254521369934082,-1.425724744796753
1773146081861930800,1.6519306640625,1.3791242837905884,-2.5581588745117188,2.0524253845214844
1773146081874941700,1.664941650390625,0.09215518832206726,0.037044525146484375,3.2389519214630127
1773146081887953000,1.677952880859375,0.02057117223739624,0.5260543823242188,2.94604229927063
1773146081900963800,1.6909638671875,0.3977229595184326,1.2900867462158203,2.9051387310028076
1773146081913974800,1.703974853515625,0.28374767303466797,1.4345765113830566,3.2628936767578125
1773146081926985700,1.71698583984375,-0.47394049167633057,1.9124069213867188,4.49462890625
1773146081939996700,1.72999658203125,0.4846862554550171,0.29185009002685547,1.1522413492202759
1773146081953007900,1.7430078125,0.7437925338745117,-2.0164403915405273,-2.465515613555908
1773146081966018800,1.756018798828125,-0.21022775769233704,0.6323699951171875,1.4897257089614868
1773146081979029800,1.76902978515625,0.007914245128631592,-1.1799888610839844,2.201021909713745
1773146081992040700,1.782040771484375,1.566782832145691,-0.9986715316772461,-1.0395143032073975
1773146082005051600,1.7950517578125,-0.36247071623802185,0.07450294494628906,-0.4928523302078247
1773146082018062800,1.808062744140625,-1.260787010192871,-0.8178005218505859,1.2186951637268066
1773146082031073800,1.82107373046875,-0.7910237908363342,-0.22951412200927734,-0.5535956621170044
1773146082044084700,1.834084716796875,1.2493141889572144,-0.6244344711303711,-1.4407767057418823
1773146082057095700,1.847095703125,0.5960215330123901,0.8066902160644531,-0.8478127717971802
1773146082070106600,1.860106689453125,0.5372796058654785,0.9720973968505859,0.5110567212104797
1773146082083117800,1.873117919921875,1.4893336296081543,1.3439130783081055,-0.834807276725769
1773146082096128800,1.886128662109375,1.7513816356658936,2.12514591217041,1.60797119140625
1773146082109139700,1.8991396484375,1.4098682403564453,0.6058797836303711,-0.2053297758102417
1773146082122150700,1.912150634765625,0.5342198014259338,0.28125667572021484,-1.1045472621917725
1773146082135161600,1.92516162109375,0.42759114503860474,-0.7134275436401367,-1.3652931451797485
1773146082148172800,1.9381728515625,0.7878317832946777,-2.0407190322875977,-0.9662912487983704
1773146082161183700,1.951183837890625,-0.7488401532173157,-1.2725610733032227,-0.43079888820648193
1773146082174194700,1.964194580078125,-1.094478726387024,-0.9233875274658203,-2.2579171657562256
1773146082187205600,1.97720556640625,-0.5223701000213623,-2.1013946533203125,-1.9670480489730835
1773146082200216600,1.990216552734375,0.5086100101470947,-3.313115119934082,-0.26454484462738037
1773146082213227500,2.0032275390625,0.9700615406036377,-3.813155174255371,1.3670204877853394
1773146082226238700,2.01623876953125,0.6994920372962952,-2.7547378540039062,1.094339370727539
1773146082239249700,2.029249755859375,0.03349873423576355,-1.6490802764892578,0.8176248073577881
1773146082252260600,2.042260498046875,-0.38944923877716064,-0.8052406311035156,0.468281626701355
1773146082265271600,2.055271484375,-0.4249587059020996,0.06720161437988281,0.1960737705230713
1773146082278282800,2.06828271484375,-0.5254637002944946,0.887202262878418,-0.0020313262939453125
1773146082291293700,2.081293701171875,-0.7914667129516602,1.3384456634521484,0.714290976524353
1773146082304304600,2.0943046875,-0.563256025314331,1.476151466369629,0.7762869596481323
1773146082317315600,2.107315673828125,-0.29255807399749756,1.3550996780395508,1.508873462677002
1773146082330326500,2.120326416015625,-1.6410884857177734,4.544240474700928,5.424961566925049
1773146082343337500,2.13333740234375,1.5127233266830444,0.9752511978149414,3.297628879547119
1773146082356348700,2.1463486328125,-0.809975266456604,1.5831918716430664,-2.42539119720459
1773146082369359600,2.159359619140625,0.49996671080589294,0.26924610137939453,-1.067646861076355
1773146082382370600,2.17237060546875,0.46653202176094055,-0.5115146636962891,-1.4053387641906738
1773146082395381500,2.185381591796875,0.2217159867286682,0.5622615814208984,-0.35666224360466003
1773146082408392700,2.198392822265625,0.5154303312301636,0.23182201385498047,-0.1141236424446106
1773146082421403600,2.211403564453125,0.0747499167919159,0.1590900421142578,-0.2507055103778839
1773146082434414600,2.22441455078125,-0.32671695947647095,-1.2893218994140625,0.5245749354362488
1773146082447425500,2.237425537109375,-0.41610610485076904,-1.932413101196289,0.6562163233757019
1773146082460436500,2.2504365234375,-0.38074052333831787,-3.0681333541870117,0.5730816721916199
1773146082473447700,2.26344775390625,-0.28065311908721924,-3.62929630279541,0.047061026096343994
1773146082486458600,2.276458740234375,-0.050813913345336914,-3.358226776123047,-0.20743027329444885
1773146082499469600,2.289469482421875,-0.16068601608276367,-1.5099658966064453,-0.5001276731491089
1773146082512480500,2.30248046875,-0.3637617528438568,-0.5750865936279297,-0.20883336663246155
1773146082525491500,2.315491455078125,-0.15988698601722717,-0.21077632904052734,0.014787822961807251
1773146082538502400,2.32850244140625,-0.7122063636779785,-0.3927755355834961,0.12676358222961426
1773146082551513600,2.341513671875,-0.538764238357544,-0.4406290054321289,0.2753666341304779
1773146082564524500,2.354524658203125,-0.13133716583251953,0.605168342590332,0.3089471757411957
1773146082577535500,2.367535400390625,-0.4087318181991577,0.7237663269042969,-0.009281933307647705
1773146082590546400,2.38054638671875,0.4019336402416229,0.2009572982788086,-0.09412038326263428
1773146082603557400,2.393557373046875,2.1936542987823486,-0.5268344879150391,-1.2082158327102661
1773146082616568600,2.406568603515625,0.1536674201488495,-1.0888023376464844,-1.531151533126831
1773146082629579500,2.41957958984375,1.4183188676834106,-0.25547027587890625,-0.21612879633903503
1773146082642590500,2.432590576171875,-0.08612626791000366,0.8581027984619141,-0.47346484661102295
1773146082655601400,2.445601318359375,0.3324226140975952,0.2543516159057617,-0.8441925048828125
1773146082668612600,2.458612548828125,0.06967979669570923,0.16141319274902344,0.4325619637966156
1773146082681623600,2.47162353515625,0.7068681716918945,0.9226579666137695,-0.12952563166618347
1773146082694634500,2.484634521484375,0.8698117136955261,0.781804084777832,-0.2109224498271942
1773146082707645400,2.4976455078125,0.5313577651977539,0.6612386703491211,-0.41985082626342773
1773146082720656400,2.510656494140625,0.1734081506729126,0.3576793670654297,-0.6094022393226624
1773146082733667600,2.52366748046875,0.06116992235183716,0.10033035278320312,-0.7285917401313782
1773146082746678500,2.536678466796875,0.2959684133529663,-0.1557149887084961,-0.36955732107162476
1773146082759689500,2.549689453125,0.2930283546447754,-0.20106220245361328,0.0999874621629715
1773146082772700400,2.562700439453125,0.12582474946975708,-0.08286857604980469,0.3969672620296478
1773146082785711400,2.57571142578125,0.22355720400810242,0.07434272766113281,0.5886735916137695
1773146082798722600,2.58872265625,0.23360928893089294,0.2148599624633789,0.6661877632141113
1773146082811733500,2.6017333984375,0.42616039514541626,0.3959159851074219,0.7227659821510315
1773146082824744400,2.614744384765625,0.5367228388786316,0.4665384292602539,0.7442827820777893
1773146082837755400,2.62775537109375,0.6072447896003723,0.39553165435791016,0.8230239152908325
1773146082850766300,2.640766357421875,0.3796570897102356,0.2915058135986328,0.7668808698654175
1773146082863777300,2.65377734375,0.254945307970047,0.21962738037109375,0.6408243179321289
1773146082876788500,2.66678857421875,0.3738788366317749,0.07656097412109375,0.7112525701522827
1773146082889799400,2.67979931640625,0.34810057282447815,0.048343658447265625,0.6517587900161743
1773146082902810400,2.692810302734375,0.3779871463775635,0.06141471862792969,0.5878358483314514
1773146082915821300,2.7058212890625,0.43929338455200195,0.08700942993164062,0.5310472249984741
1773146082928832300,2.718832275390625,0.4729241728782654,0.1282510757446289,0.4608036279678345
1773146082941843500,2.731843505859375,0.5525981783866882,0.14693641662597656,0.39501404762268066
1773146082954854400,2.7448544921875,0.5931732654571533,0.020875930786132812,0.4384889006614685
1773146082967865300,2.757865234375,0.5866374373435974,-0.036510467529296875,0.49798622727394104
1773146082980876300,2.770876220703125,0.6370652318000793,-0.1335773468017578,0.5700132846832275
1773146082993887200,2.78388720703125,0.8188546299934387,-0.20995044708251953,0.6294518709182739
1773146083006898400,2.7968984375,0.9686238169670105,-0.24517536163330078,0.6993478536605835
1773146083019909400,2.809909423828125,1.0759440660476685,-0.19509029388427734,0.8318043351173401
1773146083032920300,2.82292041015625,1.0728919506072998,-0.15544891357421875,0.8988650441169739
1773146083045931300,2.83593115234375,0.998267412185669,-0.17711639404296875,0.8829740285873413
1773146083058942200,2.848942138671875,0.7538084983825684,-0.24734878540039062,0.7604719996452332
1773146083071953400,2.861953369140625,0.8982728719711304,-0.39485836029052734,0.7856565713882446
1773146083084964400,2.87496435546875,0.723589301109314,-0.5593862533569336,0.7142894268035889
1773146083097975300,2.887975341796875,0.6193570494651794,-0.6634654998779297,0.6889649033546448
1773146083110986200,2.900986328125,0.5616217255592346,-0.8096551895141602,0.6805353164672852
1773146083123997200,2.9139970703125,0.8211861252784729,-0.7724752426147461,0.6809417009353638
1773146083137008400,2.92700830078125,1.41118586063385,-0.5458803176879883,0.6125701069831848
1773146083150019300,2.940019287109375,2.056389570236206,-0.2795257568359375,0.502078115940094
1773146083163030300,2.9530302734375,2.454202651977539,-0.11103248596191406,0.5567437410354614
1773146083176041200,2.966041259765625,2.469825267791748,-0.0987100601196289,0.6170893907546997
1773146083189052200,2.97905224609375,2.1046454906463623,-0.27639198303222656,0.4648617208003998
1773146083202063400,2.9920634765625,1.5163147449493408,-0.46726512908935547,0.49227285385131836
1773146083215074300,3.00507421875,1.720475673675537,-0.3220062255859375,0.7610396146774292
1773146083228085200,3.018085205078125,0.14010286331176758,-1.1035480499267578,0.9945567846298218
1773146083241096200,3.03109619140625,-0.7218782901763916,-0.502253532409668,1.0723642110824585
1773146083254107100,3.044107177734375,-0.3354048728942871,-0.34128761291503906,0.7472852468490601
1773146083267118300,3.057118408203125,-0.24524283409118652,-0.7761058807373047,1.0587358474731445
1773146083280129300,3.07012939453125,-0.5956056118011475,-1.0702428817749023,1.031631588935852
1773146083293140200,3.08314013671875,-0.7741560935974121,-1.3693513870239258,0.5664859414100647
1773146083306151200,3.096151123046875,-1.0034234523773193,-2.0673933029174805,0.061652589589357376
1773146083319162000,3.109162109375,-1.0097365379333496,-2.4338741302490234,-0.2943340539932251
1773146083332173300,3.12217333984375,-0.8161351680755615,-2.044614791870117,-0.8964256644248962
1773146083345184300,3.135184326171875,-0.2567136287689209,-1.3448772430419922,-1.3900153636932373
1773146083358195200,3.1481953125,0.24579286575317383,-0.011593818664550781,-1.8032842874526978
1773146083371206100,3.1612060546875,0.6702357530593872,1.4799814224243164,-1.7537611722946167
1773146083384217000,3.174217041015625,0.8522478342056274,2.758192539215088,-1.3870893716812134
1773146083397228300,3.187228271484375,0.9619814157485962,3.697455883026123,-0.9557356834411621
1773146083410239200,3.2002392578125,0.9805330038070679,4.086999416351318,-0.41833779215812683
1773146083423250200,3.213250244140625,0.9201005697250366,4.221726894378662,0.000020563602447509766
1773146083436261000,3.22626123046875,0.7829892635345459,4.108621120452881,0.330615371465683
1773146083449272000,3.23927197265625,0.5824828147888184,3.747615337371826,0.40616682171821594
1773146083462283300,3.252283203125,0.4772754907608032,3.2559876441955566,0.3362983763217926
1773146083475294200,3.265294189453125,0.22306561470031738,2.386420726776123,0.18728011846542358
1773146083488305200,3.27830517578125,0.06708955764770508,1.5042619705200195,-0.020937711000442505
1773146083501316000,3.291316162109375,-0.10300862789154053,0.49695777893066406,0.012563705444335938
1773146083514327300,3.304327392578125,-0.5008189678192139,-0.2465057373046875,0.05723270773887634
1773146083527338200,3.317338134765625,-0.7741284370422363,-0.9556417465209961,0.5209822654724121
1773146083540349200,3.33034912109375,-1.2039674520492554,-1.5223388671875,1.0736949443817139
1773146083553360100,3.343360107421875,-1.852597713470459,-1.4818487167358398,1.4264739751815796
1773146083566371000,3.35637109375,-2.3656980991363525,-1.5792999267578125,1.642003059387207
1773146083579382000,3.369382080078125,-2.5805275440216064,-1.8859872817993164,1.7178072929382324
1773146083592393200,3.382393310546875,-2.506383180618286,-2.418126106262207,1.703072190284729
1773146083605404200,3.395404052734375,-2.215460777282715,-2.7290964126586914,1.5453383922576904
1773146083618415000,3.4084150390625,-1.6773974895477295,-2.7441444396972656,1.434396743774414
1773146083631426000,3.421426025390625,-1.665955901145935,-2.301945686340332,1.3745636940002441
1773146083644437000,3.43443701171875,-0.9115885496139526,-0.7022361755371094,0.6727777719497681
1773146083657448200,3.4474482421875,-0.21769696474075317,0.17249584197998047,0.6489952802658081
1773146083670459100,3.460459228515625,-0.11692902445793152,0.5189237594604492,0.6555335521697998
1773146083683470000,3.473469970703125,-0.21439798176288605,0.7790546417236328,0.6946264505386353
1773146083696481000,3.48648095703125,-0.7900994420051575,0.7479104995727539,0.4791760742664337
1773146083709492200,3.4994921875,-0.5530982613563538,0.9797878265380859,0.6008120179176331
1773146083722503200,3.512503173828125,-0.23703646659851074,1.219583511352539,0.582459568977356
1773146083735514000,3.52551416015625,0.06697393208742142,1.3927879333496094,0.45724567770957947
1773146083748525000,3.538525146484375,0.32228097319602966,1.431473731994629,0.4417175352573395
1773146083761536000,3.551535888671875,0.47918900847435,1.3314933776855469,0.3430062234401703
1773146083774547000,3.564546875,0.5718036890029907,1.2651147842407227,0.27548688650131226
1773146083787558100,3.57755810546875,0.6289654970169067,1.1481513977050781,0.16293317079544067
1773146083800569000,3.590569091796875,0.6379002332687378,0.9222412109375,0.14688640832901
1773146083813580000,3.603580078125,0.6269842386245728,0.7469301223754883,0.24588727951049805
1773146083826591000,3.616591064453125,0.6860095858573914,0.6412324905395508,0.416994571685791
1773146083839602200,3.629602294921875,0.729960560798645,0.46027088165283203,0.6023156046867371
1773146083852613000,3.642613037109375,0.7868387699127197,0.3568077087402344,0.7597461342811584
1773146083865624000,3.6556240234375,0.7983512878417969,0.27635765075683594,0.8892082571983337
1773146083878635000,3.668635009765625,0.7542840242385864,0.2027568817138672,1.010343313217163
1773146083891646000,3.68164599609375,0.6255844235420227,0.17085552215576172,1.1244056224822998
1773146083904657200,3.6946572265625,0.5641186237335205,0.2631816864013672,1.1353671550750732
1773146083917668000,3.707668212890625,0.6560769081115723,0.36803245544433594,1.1173921823501587
1773146083930679000,3.720678955078125,0.719061553478241,0.4693460464477539,1.2445335388183594
1773146083943690000,3.73368994140625,0.6590399146080017,0.6243581771850586,1.3106932640075684
1773146083956701000,3.746700927734375,0.5944267511367798,0.9508600234985352,1.1448559761047363
1773146083969712000,3.759712158203125,0.47754737734794617,0.5721187591552734,1.1540923118591309
1773146083982723000,3.77272314453125,0.29596376419067383,0.4315299987792969,1.1091396808624268
1773146083995734000,3.785734130859375,0.12455743551254272,0.20215511322021484,1.0640883445739746
1773146084008745000,3.798744873046875,0.04684704542160034,-0.11104106903076172,0.9556729793548584
1773146084021756000,3.811755859375,0.21860182285308838,-0.34078502655029297,0.7906460762023926
1773146084034767000,3.82476708984375,0.6233282089233398,-0.6049985885620117,0.7748027443885803
1773146084047778000,3.837778076171875,1.1370222568511963,-0.8366899490356445,0.9972004890441895
1773146084060789000,3.8507890625,1.29745614528656,-0.9894189834594727,1.4917579889297485
1773146084073800000,3.863800048828125,0.034311071038246155,-1.9867334365844727,2.08744478225708
1773146084086811100,3.87681103515625,-1.8334463834762573,-3.993213653564453,2.161013126373291
1773146084099822000,3.889822021484375,-3.229330062866211,-5.961671829223633,0.7489340901374817
1773146084112833000,3.9028330078125,-3.2053987979888916,-6.728211402893066,-1.298680305480957
1773146084125844000,3.915843994140625,-2.3039584159851074,-8.067849159240723,-2.580321788787842
1773146084138855000,3.92885498046875,-1.9178838729858398,-8.370862007141113,-4.351193428039551
1773146084151866000,3.9418662109375,-0.8408087491989136,-1.9412059783935547,-4.3781280517578125
1773146084164877000,3.954876953125,0.244159534573555,2.139522075653076,-1.8651047945022583
1773146084177888000,3.967887939453125,1.0966925621032715,4.210531711578369,-0.03710275888442993
1773146084190899000,3.98089892578125,1.1656906604766846,5.325550556182861,0.7516946792602539
1773146084203910000,3.993909912109375,1.042905330657959,5.255128383636475,1.1773555278778076
1773146084216921000,4.006921142578125,0.4754403829574585,4.77205228805542,1.1885684728622437
1773146084229932000,4.01993212890625,-0.3048861026763916,4.029017925262451,0.8172173500061035
1773146084242943000,4.03294287109375,-1.4623459577560425,2.672607898712158,0.17940565943717957
1773146084255954000,4.045953857421875,-2.7232017517089844,0.819911003112793,-0.2661622166633606
1773146084268964900,4.05896484375,-3.212005376815796,-0.4402284622192383,-0.4756084680557251
1773146084281976000,4.07197607421875,-2.866914987564087,-1.556884765625,-0.42082178592681885
1773146084294987000,4.084987060546875,-1.980530023574829,-1.680302619934082,-0.3433340787887573
1773146084307998000,4.097998046875,-1.3482944965362549,-0.9569492340087891,-0.4976312220096588
1773146084321009000,4.1110087890625,-0.5928788781166077,-0.07588481903076172,-1.0934207439422607
1773146084334020000,4.12402001953125,0.07643592357635498,0.5676717758178711,-1.8229409456253052
1773146084347031000,4.137031005859375,0.23094409704208374,1.0927190780639648,-2.9543609619140625
1773146084360042000,4.1500419921875,0.07419478893280029,1.1447134017944336,-3.3965792655944824
1773146084373053000,4.163052978515625,-0.14641237258911133,1.280451774597168,-3.4787423610687256
1773146084386064000,4.17606396484375,-0.5594422817230225,1.2522897720336914,-3.3323049545288086
1773146084399074800,4.18907470703125,-0.7945865392684937,0.9450778961181641,-3.4060511589050293
1773146084412086000,4.2020859375,-0.4842020273208618,0.5185728073120117,-3.5396265983581543
1773146084425097000,4.215096923828125,0.02321493625640869,0.2298908233642578,-3.5434389114379883
1773146084438108000,4.22810791015625,0.6031765341758728,-0.3727998733520508,-2.964622974395752
1773146084451118800,4.241118896484375,0.7236601710319519,-0.2696084976196289,-2.3913350105285645
1773146084464130000,4.254130126953125,0.9059436321258545,-0.17401981353759766,-1.489452838897705
1773146084477141000,4.26714111328125,0.8048300743103027,-0.04360675811767578,-0.5831573009490967
1773146084490152000,4.28015185546875,0.5230604410171509,0.11313343048095703,0.14139054715633392
1773146084503163000,4.293162841796875,0.26671260595321655,0.22133636474609375,0.4786098599433899
1773146084516173800,4.306173828125,0.21056580543518066,0.1634836196899414,0.4515315890312195
1773146084529184800,4.319184814453125,0.26061469316482544,0.03362274169921875,0.2853478789329529
1773146084542196000,4.332196044921875,0.29364943504333496,-0.08117389678955078,0.14201310276985168
1773146084555207000,4.34520703125,0.35295408964157104,-0.14168739318847656,0.09955237805843353
1773146084568217900,4.3582177734375,0.42308253049850464,-0.1114206314086914,0.1027693971991539
1773146084581228800,4.371228759765625,0.44190549850463867,-0.10794353485107422,0.1854792684316635
1773146084594240000,4.384239990234375,0.4523347020149231,-0.048053741455078125,0.38959047198295593
1773146084607251000,4.3972509765625,0.3104759454727173,-0.0304412841796875,0.563924252986908
1773146084620262000,4.410261962890625,0.2381354570388794,0.06603813171386719,0.6675910949707031
1773146084633272800,4.42327294921875,0.32437217235565186,0.17134571075439453,0.7525575160980225
1773146084646283800,4.43628369140625,0.4585520029067993,0.25846385955810547,0.8357771039009094
1773146084659295000,4.449294921875,0.5653012990951538,0.2972993850708008,0.9636926651000977
1773146084672306000,4.462305908203125,0.6339678764343262,0.28952598571777344,1.08051335811615
1773146084685316900,4.47531689453125,0.6840511560440063,0.24636363983154297,1.141589641571045
1773146084698327800,4.488327880859375,0.7520936131477356,0.1361370086669922,1.1051931381225586
1773146084711338800,4.5013388671875,0.7702840566635132,0.0018930435180664062,0.927895188331604
1773146084724350000,4.514349853515625,0.7554023265838623,-0.1245889663696289,0.6769249439239502
1773146084737361000,4.52736083984375,0.7119176387786865,-0.21966266632080078,0.4045058786869049
1773146084750371800,4.540371826171875,0.676960825920105,-0.25966358184814453,0.15890805423259735
1773146084763382800,4.5533828125,0.6450152397155762,-0.13494873046875,-0.04535192251205444
1773146084776393700,4.566393798828125,0.5874990224838257,0.01590728759765625,-0.2088119387626648
1773146084789404700,4.57940478515625,0.613434910774231,-0.09605693817138672,-0.28699055314064026
1773146084802415900,4.592415771484375,0.6856849193572998,-0.22026920318603516,-0.37587782740592957
1773146084815426800,4.6054267578125,0.8300491571426392,-0.2804727554321289,-0.36455202102661133
1773146084828437800,4.618437744140625,1.1559581756591797,-0.23163795471191406,-0.20764115452766418
1773146084841448700,4.63144873046875,1.6700782775878906,-0.00049591064453125,0.07572993636131287
1773146084854460000,4.6444599609375,2.3194313049316406,0.0692291259765625,0.33709973096847534
1773146084867470800,4.657470947265625,2.8308706283569336,-0.10669803619384766,0.49420487880706787
1773146084880481800,4.670481689453125,2.9042704105377197,-0.3965282440185547,0.7846239805221558
1773146084893492700,4.68349267578125,2.8922128677368164,-1.0100574493408203,1.3939869403839111
1773146084906503700,4.696503662109375,0.6895779371261597,-2.6007814407348633,1.83145272731781
1773146084919514600,4.7095146484375,-0.31641674041748047,-3.260146141052246,1.9110734462738037
1773146084932525800,4.72252587890625,-0.1995220184326172,-3.336790084838867,1.1301658153533936
1773146084945536800,4.735536865234375,-0.08369278907775879,-2.6038875579833984,0.8272905349731445
1773146084958547700,4.748547607421875,-0.3767521381378174,-1.5431489944458008,0.68597412109375
1773146084971558700,4.76155859375,-0.8085098266601562,-0.5133934020996094,0.2102682888507843
1773146084984569600,4.774569580078125,-0.8427391052246094,0.16759014129638672,-0.593675971031189
1773146084997580500,4.78758056640625,-0.6145756244659424,0.8392934799194336,-1.5815174579620361
1773146085010591700,4.800591796875,-0.2927427291870117,1.678389549255371,-2.258859395980835
1773146085023602700,4.813602783203125,-0.062354207038879395,2.5959062576293945,-2.6592605113983154
1773146085036613600,4.826613525390625,0.17667782306671143,3.4499764442443848,-2.8294503688812256
1773146085049624600,4.83962451171875,0.3499394655227661,4.113009929656982,-2.67116379737854
1773146085062635800,4.8526357421875,0.26497113704681396,4.388906955718994,-2.0679619312286377
1773146085075646700,4.865646728515625,0.10105109214782715,4.074606418609619,-1.2196162939071655
1773146085088657700,4.87865771484375,0.015663504600524902,3.0107760429382324,-0.06561526656150818
1773146085101668600,4.891668701171875,-0.3104754686355591,1.6349601745605469,1.0342135429382324
1773146085114679600,4.904679443359375,-0.6527483463287354,0.12406730651855469,2.007152557373047
1773146085127690800,4.917690673828125,-1.4915462732315063,-1.3207778930664062,2.901440382003784
1773146085140701700,4.93070166015625,-2.5767414569854736,-2.8476734161376953,3.636850357055664
1773146085153712600,4.943712646484375,-3.402956008911133,-4.0133562088012695,3.9088361263275146
1773146085166723600,4.9567236328125,-3.1457324028015137,-3.9818248748779297,3.6848976612091064
1773146085179734500,4.969734619140625,-2.4959897994995117,-2.888922691345215,3.4827523231506348
1773146085192745700,4.982745849609375,-1.911739468574524,-1.671961784362793,3.2648603916168213
1773146085205756700,4.995756591796875,-1.1290957927703857,-0.5901632308959961,2.6327807903289795
1773146085218767600,5.008767578125,-0.2582457363605499,-0.1325826644897461,2.0558414459228516
1773146085231778600,5.021778564453125,0.6579064726829529,0.2833566665649414,1.8469288349151611
1773146085244789500,5.03478955078125,0.5256118774414062,0.03413963317871094,1.2966252565383911
1773146085257800700,5.04780078125,0.28075462579727173,-0.2852344512939453,0.8583407402038574
1773146085270811600,5.060811767578125,0.026236891746520996,-0.45815563201904297,0.5935150980949402
1773146085283822600,5.073822509765625,-0.1281794011592865,-0.5007762908935547,0.2579115331172943
1773146085296833500,5.08683349609375,-0.08837075531482697,-0.2494525909423828,0.06687462329864502
1773146085309844700,5.0998447265625,-0.1492416262626648,0.24559497833251953,-0.11985215544700623
1773146085322855700,5.112855712890625,-0.2336948961019516,0.7786722183227539,-0.3615803122520447
1773146085335866600,5.12586669921875,-0.22323036193847656,1.2927818298339844,-0.5013987421989441
1773146085348877600,5.138877685546875,-0.15400105714797974,1.5894641876220703,-0.5104841589927673
1773146085361888500,5.151888427734375,0.052942387759685516,1.653529167175293,-0.4509291350841522
1773146085374899500,5.1648994140625,0.29186195135116577,1.4920320510864258,-0.4924266040325165
1773146085387910700,5.17791064453125,0.5611741542816162,1.2106294631958008,-0.5442485809326172
1773146085400921600,5.190921630859375,0.7763833999633789,0.9607124328613281,-0.6057863831520081
1773146085413932500,5.2039326171875,0.8948065042495728,0.7707967758178711,-0.6791629195213318
1773146085426943500,5.216943603515625,0.8991259932518005,0.6200895309448242,-0.7452787756919861
1773146085439954700,5.22995458984375,0.8621490001678467,0.5387639999389648,-0.737128734588623
1773146085452965600,5.242965576171875,0.7857324481010437,0.49006175994873047,-0.6376299858093262
1773146085465976600,5.2559765625,0.7187067270278931,0.4453163146972656,-0.45127618312835693
1773146085478987500,5.268987548828125,0.4799947142601013,0.39022350311279297,-0.141074538230896
1773146085491998500,5.28199853515625,0.38103389739990234,0.25005054473876953,0.2668699622154236
1773146085505009700,5.295009765625,0.5739229917526245,0.1011514663696289,0.5841600298881531
1773146085518020600,5.3080205078125,0.9430317878723145,0.23910903930664062,0.7332731485366821
1773146085531031600,5.321031494140625,1.2638914585113525,0.56280517578125,0.7412276864051819
1773146085544042500,5.33404248046875,1.2284475564956665,0.7059164047241211,0.7863650321960449
1773146085557053400,5.347053466796875,0.9024978876113892,0.5176925659179688,1.0515494346618652
1773146085570064600,5.360064697265625,0.5913314819335938,0.10531330108642578,1.40738046169281
1773146085583075600,5.37307568359375,0.6822863817214966,-0.21890544891357422,1.4260661602020264
1773146085596086500,5.38608642578125,0.935093104839325,-0.4455137252807617,1.1633696556091309
1773146085609097500,5.399097412109375,1.183486819267273,-0.565159797668457,1.0257188081741333
1773146085622108700,5.412108642578125,1.2937827110290527,-0.6417198181152344,1.084786057472229
1773146085635119600,5.42511962890625,1.3161613941192627,-0.6672992706298828,1.3139293193817139
1773146085648130600,5.438130615234375,0.7030475735664368,-1.368917465209961,1.8513786792755127
1773146085661141500,5.4511416015625,-0.6208500862121582,-3.921497344970703,2.237427234649658
1773146085674152400,5.46415234375,-1.543957233428955,-8.27969741821289,0.17427819967269897
1773146085687163600,5.47716357421875,-1.778296947479248,-9.671942710876465,-3.1778576374053955
1773146085700174600,5.490174560546875,-2.01491117477417,-4.760030746459961,-5.0143327713012695
1773146085713185500,5.503185546875,-1.843804121017456,-2.3524112701416016,-4.023387908935547
1773146085726196500,5.516196533203125,-1.3249455690383911,-0.8819723129272461,-3.200700044631958
1773146085739207400,5.52920751953125,-0.8442840576171875,1.5783319473266602,-1.689491629600525
1773146085752218600,5.542218505859375,-0.6863250136375427,3.606900691986084,0.13686373829841614
1773146085765229600,5.5552294921875,-0.6559920310974121,5.099283695220947,1.0012532472610474
1773146085778240500,5.568240478515625,-0.6471918821334839,5.258987903594971,1.0987569093704224
1773146085791251500,5.58125146484375,-0.7702001333236694,4.532591342926025,0.5654099583625793
1773146085804262400,5.594262451171875,-1.3060529232025146,3.398118495941162,-0.10332661867141724
1773146085817273600,5.607273681640625,-1.964658260345459,2.1263508796691895,-0.7629368305206299
1773146085830284500,5.620284423828125,-2.532876491546631,0.6277589797973633,-1.4532160758972168
1773146085843295500,5.63329541015625,-2.5054283142089844,-0.38710880279541016,-2.1688857078552246
1773146085856306400,5.646306396484375,-2.048025369644165,-0.7042179107666016,-2.931272506713867
1773146085869317400,5.6593173828125,-1.1179842948913574,-1.2169227600097656,-2.5961015224456787
1773146085882328600,5.67232861328125,-0.5379002094268799,-0.943272590637207,-2.5328338146209717
1773146085895339500,5.685339599609375,-0.29492151737213135,-0.1708812713623047,-2.5985653400421143
1773146085908350500,5.6983505859375,-0.11530554294586182,0.6078977584838867,-2.6845901012420654
1773146085921361400,5.711361328125,-0.3461378812789917,1.066370964050293,-2.8146426677703857
1773146085934372600,5.72437255859375,-0.5829818248748779,1.144608497619629,-2.7544407844543457
1773146085947383600,5.737383544921875,-0.5932513475418091,0.974268913269043,-2.559708833694458
1773146085960394500,5.75039453125,-0.1755208969116211,0.6390523910522461,-2.506126880645752
1773146085973405400,5.763405517578125,0.5637208819389343,0.21766948699951172,-2.7429444789886475
1773146085986416400,5.77641650390625,1.1857647895812988,-0.10916519165039062,-2.892071485519409
1773146085999427300,5.78942724609375,1.1911176443099976,-0.2212514877319336,-2.55491304397583
1773146086012438500,5.8024384765625,0.8613012433052063,-0.10914897918701172,-1.9655117988586426
1773146086025449500,5.815449462890625,0.5107375979423523,-0.08787345886230469,-1.145134687423706
1773146086038460400,5.82846044921875,0.3254948854446411,-0.17858600616455078,-0.22983093559741974
1773146086051471400,5.841471435546875,0.2924445867538452,-0.16643619537353516,0.41085755825042725
1773146086064482600,5.854482666015625,0.4715391993522644,-0.08638763427734375,0.7485523223876953
1773146086077493500,5.867493408203125,0.7780197262763977,0.028243064880371094,0.90284264087677
1773146086090504400,5.88050439453125,0.9398533701896667,0.06119346618652344,0.8791254758834839
1773146086103515400,5.893515380859375,0.9928267002105713,0.07115459442138672,0.8507595062255859
1773146086116526300,5.9065263671875,0.9652537703514099,0.04362201690673828,0.8834435939788818
1773146086129537300,5.919537353515625,0.6624904870986938,-0.05176544189453125,0.8869098424911499
1773146086142548500,5.932548583984375,0.9153535962104797,0.011028289794921875,1.096938967704773
1773146086155559400,5.945559326171875,0.7218343019485474,-0.02563190460205078,1.0836241245269775
1773146086168570400,5.9585703125,0.7472030520439148,-0.04235363006591797,1.1542080640792847
1773146086181581300,5.971581298828125,0.8399150967597961,0.03232097625732422,1.1661170721054077
1773146086194592300,5.98459228515625,0.9463755488395691,0.10762691497802734,1.1231521368026733
1773146086207603500,5.997603515625,0.9588829874992371,0.1471691131591797,1.053310751914978
1773146086220614400,6.010614501953125,1.0060596466064453,0.19910430908203125,0.9849905967712402
1773146086233625300,6.023625244140625,1.1041278839111328,0.30207157135009766,0.8227529525756836
1773146086246636300,6.03663623046875,1.2242121696472168,0.43552398681640625,0.5975152254104614
1773146086259647200,6.049647216796875,1.545625925064087,0.5747594833374023,0.39216694235801697
1773146086272658400,6.062658447265625,1.4498194456100464,0.5981712341308594,0.09134715795516968
1773146086285669400,6.07566943359375,1.4329438209533691,0.5388708114624023,-0.07056252658367157
1773146086298680300,6.088680419921875,1.5612740516662598,0.23027992248535156,-0.1452145278453827
1773146086311691300,6.101691162109375,1.7884281873703003,-0.1050577163696289,-0.16886413097381592
1773146086324702200,6.1147021484375,2.017352819442749,-0.4237070083618164,-0.16127336025238037
1773146086337713200,6.127713134765625,2.0770668983459473,-0.7258491516113281,-0.1805267632007599
1773146086350724400,6.140724365234375,1.5883660316467285,-0.949742317199707,-0.02449457347393036
1773146086363735300,6.1537353515625,1.418278455734253,-1.0475702285766602,0.651390016078949
1773146086376746200,6.166746337890625,0.7967729568481445,-2.0118885040283203,1.2724049091339111
1773146086389757200,6.179757080078125,-1.2837190628051758,-3.3043041229248047,1.89301598072052
1773146086402768400,6.192768310546875,-1.3835169076919556,-3.1761484146118164,1.8906254768371582
1773146086415779300,6.205779296875,-0.5221086740493774,-2.43582820892334,1.2563382387161255
1773146086428790300,6.218790283203125,-0.16216802597045898,-1.5510749816894531,0.7121196985244751
1773146086441801200,6.23180126953125,-0.49498987197875977,-0.8151712417602539,-0.09441840648651123
1773146086454812200,6.244812255859375,-0.7270569801330566,-0.1671743392944336,-0.8619928956031799
1773146086467823000,6.257822998046875,-0.9776469469070435,0.19720077514648438,-1.7659666538238525
1773146086480834300,6.270834228515625,-1.0114904642105103,0.6976547241210938,-2.2303740978240967
1773146086493845200,6.28384521484375,-0.9857970476150513,1.4873237609863281,-2.2323787212371826
1773146086506856200,6.296856201171875,-0.8329557180404663,2.4876461029052734,-2.1810789108276367
1773146086519867100,6.3098671875,-0.5783072710037231,3.332108974456787,-2.0798583030700684
1773146086532878000,6.322878173828125,-0.4054594039916992,3.8699188232421875,-1.97968327999115
1773146086545889300,6.33588916015625,-0.3309290409088135,4.182942867279053,-1.8576632738113403
1773146086558900200,6.348900146484375,-0.4783008098602295,4.293732166290283,-1.5784720182418823
1773146086571911200,6.3619111328125,-0.604547381401062,4.2166361808776855,-1.161786437034607
1773146086584922000,6.374922119140625,-0.6829819083213806,3.711304187774658,-0.8028178215026855
1773146086597933000,6.38793310546875,-0.6514134407043457,2.6986427307128906,-0.21388974785804749
1773146086610944300,6.4009443359375,-0.7840627431869507,1.0950489044189453,0.6888220906257629
1773146086623955200,6.413955078125,-1.140005350112915,-0.6627655029296875,1.1054942607879639
1773146086636966100,6.426966064453125,-1.4825483560562134,-2.56868839263916,1.6894029378890991
1773146086649977000,6.43997705078125,-2.1409010887145996,-4.107415199279785,2.2176504135131836
1773146086662988300,6.45298828125,-2.8612704277038574,-5.218471527099609,2.8297269344329834
1773146086675999200,6.465999267578125,-3.0432960987091064,-4.833884239196777,2.869666814804077
1773146086689010200,6.47901025390625,-3.0533995628356934,-3.965939521789551,2.9650890827178955
1773146086702021000,6.492021240234375,-2.9586644172668457,-3.2179317474365234,3.143711805343628
1773146086715032000,6.505031982421875,-2.5243518352508545,-2.262300491333008,2.7181506156921387
1773146086728043300,6.518043212890625,-1.9275455474853516,-1.1972017288208008,2.391716957092285
1773146086741054200,6.53105419921875,-1.083269476890564,-0.3848695755004883,1.6506919860839844
1773146086754065200,6.544065185546875,-0.2212858498096466,0.07592391967773438,1.1141759157180786
1773146086767076000,6.557076171875,0.09483706951141357,0.3192787170410156,0.530555248260498
1773146086780087000,6.570087158203125,0.12430644035339355,0.39507579803466797,0.08092302083969116
1773146086793098000,6.583097900390625,-0.030515849590301514,0.3137331008911133,-0.21943983435630798
1773146086806109200,6.596109130859375,0.09898757934570312,0.5339431762695312,-0.3355811536312103
1773146086819120000,6.6091201171875,-0.19776839017868042,0.8533668518066406,-0.2658442556858063
1773146086832131000,6.622131103515625,-0.3891458511352539,1.138636589050293,-0.010197311639785767
1773146086845142000,6.63514208984375,-0.43487754464149475,1.2947101593017578,0.28597357869148254
1773146086858153200,6.6481533203125,-0.3201470971107483,1.336252212524414,0.5931468605995178
1773146086871164200,6.6611640625,-0.16588711738586426,1.263509750366211,0.8587013483047485
1773146086884175000,6.674175048828125,-0.05127286911010742,1.027796745300293,0.9813861846923828
1773146086897186000,6.68718603515625,0.1640106439590454,0.7936077117919922,1.0437841415405273
1773146086910197200,6.700197265625,0.36724621057510376,0.5560855865478516,0.99632728099823
1773146086923208200,6.713208251953125,0.49256324768066406,0.35338401794433594,0.8888866305351257
1773146086936219100,6.72621923828125,0.5537986159324646,0.21100902557373047,0.7689617872238159
1773146086949230000,6.73922998046875,0.5752877593040466,0.194061279296875,0.7521324157714844
1773146086962241000,6.752240966796875,0.5276779532432556,0.219512939453125,0.8191656470298767
1773146086975252200,6.765252197265625,0.420570969581604,0.3158292770385742,0.9593086242675781
1773146086988263200,6.77826318359375,0.2234872579574585,0.39684009552001953,1.1237050294876099
1773146087001274000,6.791274169921875,0.13890910148620605,0.4623727798461914,1.2866811752319336
1773146087014285000,6.80428515625,0.1262052059173584,0.47872352600097656,1.4387682676315308
1773146087027296000,6.8172958984375,0.1478915810585022,0.5093002319335938,1.4776579141616821
1773146087040307000,6.830306884765625,0.18220305442810059,0.4823274612426758,1.324567198753357
1773146087053318100,6.843318115234375,0.14347243309020996,0.3836193084716797,1.0777453184127808
1773146087066329000,6.8563291015625,-0.06487724184989929,0.2642507553100586,0.8910377621650696
1773146087079340000,6.869340087890625,-0.13891243934631348,0.1383829116821289,0.8602614402770996
1773146087092351000,6.88235107421875,-0.12784048914909363,0.04082965850830078,0.792920708656311
1773146087105362200,6.895362060546875,0.1706726849079132,-0.06662559509277344,0.6315976977348328
1773146087118373000,6.908373046875,0.6960667371749878,-0.1742706298828125,0.5758560299873352
1773146087131384000,6.921384033203125,0.8218710422515869,-0.5394487380981445,0.8903016448020935
1773146087144395000,6.93439501953125,-0.15405723452568054,-1.9088125228881836,1.6872247457504272
1773146087157406000,6.947406005859375,-0.8034412264823914,-4.564545631408691,1.4977896213531494
1773146087170417200,6.960417236328125,-1.9987937211990356,-6.935818672180176,-0.1969102919101715
1773146087183428000,6.973427978515625,-2.0442848205566406,-5.567100524902344,-1.5876208543777466
1773146087196439000,6.98643896484375,-1.4174591302871704,-3.4263267517089844,-1.8875231742858887
1773146087209450000,6.999449951171875,-1.6245731115341187,-2.6204309463500977,-2.7235870361328125
1773146087222461200,7.012461181640625,-1.5342241525650024,-1.303964614868164,-3.1085429191589355
1773146087235472100,7.02547216796875,-1.0242196321487427,0.40663623809814453,-1.9471306800842285
1773146087248483000,7.038483154296875,-0.38681572675704956,1.884139060974121,-0.5200692415237427
1773146087261494000,7.051493896484375,0.13996794819831848,3.20322322845459,0.19143342971801758
1773146087274505000,7.0645048828125,0.5421750545501709,4.140656471252441,0.3404172360897064
1773146087287516200,7.07751611328125,0.5734972357749939,4.053653240203857,0.3951423466205597
1773146087300527000,7.090527099609375,0.15881438553333282,3.204397201538086,0.41792815923690796
1773146087313538000,7.1035380859375,-0.5830996632575989,1.9954614639282227,0.35153940320014954
1773146087326549000,7.116549072265625,-1.3550397157669067,0.6484804153442383,0.13453254103660583
1773146087339560000,7.129559814453125,-1.6873892545700073,-0.3386087417602539,-0.3697732985019684
1773146087352571100,7.142571044921875,-2.0478904247283936,-1.1118507385253906,-0.9491511583328247
1773146087365582000,7.15558203125,-1.9993681907653809,-1.164780616760254,-1.4283151626586914
1773146087378593000,7.168593017578125,-2.0646800994873047,-0.3997077941894531,-1.6559561491012573
1773146087391604000,7.18160400390625,-1.9762321710586548,0.5427923202514648,-1.6908280849456787
1773146087404615000,7.194614990234375,-1.7129478454589844,1.1881914138793945,-2.139078378677368
1773146087417626000,7.207626220703125,-1.3386781215667725,1.2565851211547852,-2.8342573642730713
1773146087430637000,7.220636962890625,-1.0257329940795898,0.8603057861328125,-3.3841166496276855
1773146087443648000,7.23364794921875,-0.8545951247215271,0.33256053924560547,-3.7399120330810547
1773146087456659000,7.246658935546875,-1.0365478992462158,-0.16671085357666016,-4.003336429595947
1773146087469670000,7.259669921875,-1.2422387599945068,-0.40575313568115234,-4.493934631347656
1773146087482681000,7.27268115234375,-1.386247158050537,-0.33182239532470703,-4.814002513885498
1773146087495692000,7.285692138671875,-1.2197513580322266,-0.1431140899658203,-4.788621425628662
1773146087508703000,7.298702880859375,-0.7827786207199097,-0.08455562591552734,-4.693355560302734
1773146087521714000,7.3117138671875,-0.39625734090805054,0.014386177062988281,-4.514261245727539
1773146087534725000,7.32472509765625,-0.1018478274345398,0.1422719955444336,-4.350235939025879
1773146087547736000,7.337736083984375,0.11468476057052612,0.2622089385986328,-4.195581912994385
1773146087560747000,7.3507470703125,0.3528614938259125,0.3724546432495117,-3.861206293106079
1773146087573758000,7.363758056640625,0.5865590572357178,0.27408599853515625,-3.442429780960083
1773146087586769000,7.376768798828125,0.8246662616729736,-0.13414764404296875,-2.9880542755126953
1773146087599780000,7.389780029296875,1.0331072807312012,-0.6255998611450195,-2.5195372104644775
1773146087612791000,7.402791015625,1.1950581073760986,-0.9171285629272461,-2.0434563159942627
1773146087625802000,7.415802001953125,1.2576172351837158,-0.9474563598632812,-1.5713131427764893
1773146087638813000,7.42881298828125,1.2991769313812256,-0.8590946197509766,-1.2385934591293335
1773146087651823900,7.441823974609375,1.3944660425186157,-0.7002801895141602,-1.0075111389160156
1773146087664835000,7.4548349609375,1.5788910388946533,-0.5013971328735352,-0.8135248422622681
1773146087677846000,7.467845947265625,1.8114869594573975,-0.3100929260253906,-0.5624760389328003
1773146087690857000,7.48085693359375,2.100612163543701,-0.2788105010986328,-0.3632467985153198
1773146087703868000,7.493867919921875,2.075606346130371,-0.3908977508544922,-0.21662387251853943
1773146087716878800,7.50687890625,2.1509130001068115,-0.3340339660644531,-0.234067901968956
1773146087729890000,7.51989013671875,2.122425079345703,-0.507716178894043,0.10061586648225784
1773146087742901000,7.53290087890625,1.8563532829284668,-0.46939563751220703,0.007473200559616089
1773146087755912000,7.545911865234375,2.014845371246338,-0.38046836853027344,-0.015764892101287842
1773146087768923000,7.5589228515625,2.255500555038452,-0.2760019302368164,0.14215300977230072
1773146087781933800,7.571933837890625,2.472677230834961,-0.25936126708984375,0.545871913433075
1773146087794945000,7.584945068359375,2.469197988510132,-0.3110008239746094,0.9998183250427246
1773146087807956000,7.5979560546875,2.2805190086364746,-0.3955059051513672,1.3668626546859741
1773146087820967000,7.610966796875,2.0191826820373535,-0.35379981994628906,1.6234939098358154
1773146087833977900,7.623977783203125,1.8940646648406982,-0.20556068420410156,1.7748712301254272
1773146087846988800,7.63698876953125,1.8586032390594482,-0.04988670349121094,1.8279556035995483
1773146087860000000,7.65,1.8286633491516113,0.054305076599121094,1.9698089361190796
1773146087873011000,7.663010986328125,1.7865104675292969,0.09288215637207031,2.188692808151245
1773146087886022000,7.67602197265625,1.6412854194641113,-0.0007143020629882812,2.3196144104003906
1773146087899032800,7.68903271484375,1.4340898990631104,-0.06698036193847656,2.3300631046295166
1773146087912043800,7.702043701171875,1.3511946201324463,-0.01534271240234375,2.243537425994873
1773146087925055000,7.715054931640625,1.1958996057510376,-0.11821937561035156,2.296339750289917
1773146087938066000,7.72806591796875,1.08365797996521,-0.11919021606445312,2.241485118865967
1773146087951076900,7.741076904296875,0.9726356267929077,-0.07420063018798828,2.2113451957702637
1773146087964087800,7.754087890625,0.8582525253295898,0.027912139892578125,2.144892454147339
1773146087977099000,7.76709912109375,0.7655484080314636,0.22678470611572266,2.04854416847229
1773146087990110000,7.78010986328125,0.7179511189460754,0.45378684997558594,1.9381941556930542
1773146088003121000,7.793120849609375,0.759306013584137,0.672123908996582,1.8291451930999756
1773146088016131800,7.8061318359375,0.8549481630325317,0.7592906951904297,1.8171082735061646
1773146088029142800,7.819142822265625,0.9076545238494873,0.6822977066040039,1.8999369144439697
1773146088042154000,7.832154052734375,0.7997773289680481,0.510045051574707,1.9796196222305298
1773146088055165000,7.8451650390625,0.5948277115821838,0.3285493850708008,2.028703212738037
1773146088068176000,7.85817578125,0.3725396394729614,0.15326309204101562,1.9518694877624512
1773146088081186800,7.871186767578125,0.24033725261688232,-0.0019245147705078125,1.8578187227249146
1773146088094197800,7.88419775390625,0.16715168952941895,-0.16910362243652344,1.7711949348449707
1773146088107209000,7.897208984375,0.11561524868011475,-0.2719001770019531,1.6965582370758057
1773146088120220000,7.910219970703125,0.11919522285461426,-0.2576265335083008,1.6027835607528687
1773146088133230800,7.92323095703125,0.30835962295532227,-0.0753164291381836,1.4821686744689941
1773146088146241800,7.93624169921875,0.5008705854415894,0.15238380432128906,1.262175440788269
1773146088159252700,7.949252685546875,0.7507977485656738,0.15527057647705078,1.147719383239746
1773146088172264000,7.962263916015625,0.8048667907714844,-0.11298847198486328,0.9784131050109863
1773146088185275000,7.97527490234375,0.5894443988800049,-0.31859493255615234,0.8738200068473816
1773146088198285800,7.988285888671875,0.39250648021698,-0.5520734786987305,1.001239538192749
1773146088211296800,8.001296875,0.06535696983337402,-0.6695137023925781,1.1649893522262573
1773146088224308000,8.014307861328126,-0.2582519054412842,-0.46436405181884766,1.3638663291931152
1773146088237319000,8.02731884765625,-0.34940099716186523,-0.18474769592285156,1.4307100772857666
1773146088250329900,8.040329833984375,-0.5515178442001343,-0.0698709487915039,1.180992603302002
1773146088263340800,8.0533408203125,-0.7860987186431885,0.016859054565429688,0.4899405837059021
1773146088276351700,8.066351806640625,-0.8381690979003906,0.11108016967773438,-0.3705345392227173
1773146088289363000,8.079363037109376,-0.7657291889190674,0.13442611694335938,-1.164057731628418
1773146088302374000,8.092373779296874,-0.557195782661438,0.13805294036865234,-1.7212908267974854
1773146088315384800,8.105384765625,-0.21100950241088867,0.2174844741821289,-1.7534260749816895
1773146088328395800,8.118395751953125,0.15056896209716797,0.26299190521240234,-1.3294687271118164
1773146088341407000,8.131406982421876,0.3960148096084595,0.2290668487548828,-0.553935706615448
1773146088354418000,8.14441796875,0.4311596155166626,0.19267654418945312,0.35174304246902466
1773146088367428900,8.157428955078124,0.27301025390625,0.09484386444091797,1.0637102127075195
1773146088380439800,8.170439697265625,-0.003970742225646973,0.10671806335449219,1.4877822399139404
1773146088393450800,8.18345068359375,-0.25398194789886475,0.1877298355102539,1.6596893072128296
1773146088406462000,8.1964619140625,-0.4856630563735962,0.22169971466064453,1.6793479919433594
1773146088419473000,8.209472900390624,-0.6624003648757935,0.24248600006103516,1.5651001930236816
1773146088432483800,8.22248388671875,-0.7362416982650757,0.3346719741821289,1.4204857349395752
1773146088445494800,8.235494873046875,-0.6554133892059326,0.47905731201171875,1.301655888557434
1773146088458505700,8.248505615234375,-0.5103964805603027,0.5420875549316406,1.134132981300354
1773146088471517000,8.261516845703126,-0.3346693515777588,0.5035934448242188,0.8084267377853394
1773146088484527900,8.27452783203125,-0.18081378936767578,0.41027259826660156,0.41921716928482056
1773146088497538800,8.287538818359375,-0.06307649612426758,0.26862239837646484,-0.04506368190050125
1773146088510549800,8.3005498046875,0.02520573139190674,0.18526458740234375,-0.49215906858444214
1773146088523560700,8.313560791015625,0.03723347187042236,0.17441844940185547,-0.8924169540405273
1773146088536572000,8.326572021484376,-0.0819159746170044,0.24050521850585938,-1.306179165840149
1773146088549582800,8.339582763671874,0.013060688972473145,0.44530677795410156,-1.5513830184936523
1773146088562593800,8.35259375,0.21944499015808105,0.6118783950805664,-1.6864410638809204
1773146088575604700,8.365604736328125,0.4017648696899414,0.7609491348266602,-1.612616777420044
1773146088588616000,8.378615966796875,0.43245935440063477,0.8959846496582031,-1.3270390033721924
1773146088601627000,8.391626953125,0.2952319383621216,0.8614616394042969,-0.9046037793159485
1773146088614637800,8.404637939453124,0.2402327060699463,0.5607986450195312,-0.475580632686615
1773146088627648800,8.417648681640625,0.31707602739334106,0.23949337005615234,-0.18409743905067444
1773146088640659700,8.43065966796875,0.19428503513336182,-0.17604541778564453,0.1557229459285736
1773146088653671000,8.4436708984375,0.04068112373352051,-0.4870014190673828,0.40500521659851074
1773146088666681900,8.456681884765626,-0.24125683307647705,-0.9707241058349609,0.8856769800186157
1773146088679692800,8.46969287109375,-0.6142457723617554,-1.1929683685302734,0.8769633173942566
1773146088692703700,8.482703857421875,-0.7898471355438232,-1.161062240600586,1.166760802268982
1773146088705715000,8.49571484375,-0.8901264667510986,-0.8094635009765625,1.1863664388656616
1773146088718726000,8.508725830078125,-0.47918397188186646,-0.44101619720458984,1.0427709817886353
1773146088731736800,8.52173681640625,-0.2564465403556824,-0.08574390411376953,1.075217366218567
1773146088744747800,8.534747802734374,-0.01704007387161255,0.03242015838623047,1.2565269470214844
1773146088757758700,8.5477587890625,0.0929560661315918,-0.022085189819335938,1.4358642101287842
1773146088770769700,8.560769775390625,0.06568571925163269,-0.1438312530517578,1.5775601863861084
1773146088783780900,8.57378076171875,0.14172199368476868,-0.02256298065185547,1.8998010158538818
1773146088796791800,8.586791748046876,-0.32136720418930054,-0.09828567504882812,1.6674154996871948
1773146088809802800,8.599802734375,-0.4244154393672943,-0.10780525207519531,1.3185333013534546
1773146088822813700,8.612813720703125,-0.458936482667923,0.05243110656738281,1.1260706186294556
1773146088835825000,8.625824951171875,-0.40094250440597534,0.2388153076171875,0.9291144609451294
1773146088848835800,8.6388359375,-0.3184701204299927,0.25587940216064453,0.5781394243240356
1773146088861846800,8.6518466796875,-0.16825591027736664,0.10277271270751953,0.3428979516029358
1773146088874857700,8.664857666015624,0.002642035484313965,-0.04010581970214844,0.2534911036491394
1773146088887868700,8.67786865234375,0.06078922003507614,-0.13929176330566406,0.23638933897018433
1773146088900880000,8.6908798828125,0.15359722077846527,-0.1634531021118164,0.04713708162307739
1773146088913890800,8.703890869140626,-0.008850917220115662,-0.4111490249633789,0.5098415613174438
1773146088926901800,8.71690185546875,-0.0421636700630188,-0.005755424499511719,0.3924781084060669
1773146088939912700,8.72991259765625,0.10389978438615799,0.17116355895996094,0.29171836376190186
1773146088952924000,8.742923828125,0.31723952293395996,0.35237789154052734,0.27748411893844604
1773146088965934800,8.755934814453125,0.44671207666397095,0.3994016647338867,0.34041184186935425
1773146088978945800,8.76894580078125,0.13024887442588806,0.237579345703125,0.3370991349220276
1773146088991956700,8.781956787109374,0.5874161124229431,0.24371719360351562,0.49227941036224365
1773146089004967700,8.7949677734375,0.11662542819976807,0.26347827911376953,0.8553569912910461
1773146089017979000,8.807978759765625,0.3843382000923157,0.37907981872558594,0.8058278560638428
1773146089030989800,8.82098974609375,0.33710765838623047,0.5813865661621094,0.36716681718826294
1773146089044000800,8.834000732421876,0.8331823348999023,0.7749099731445312,0.23841717839241028
1773146089057011700,8.84701171875,1.2181655168533325,0.9941930770874023,0.13644981384277344
1773146089070023000,8.86002294921875,1.1104165315628052,0.740077018737793,0.3409593403339386
1773146089083033900,8.873033935546875,0.9179647564888,0.12415122985839844,0.5416524410247803
1773146089096044800,8.886044921875,0.5321797728538513,-0.6871013641357422,0.5651501417160034
1773146089109055700,8.8990556640625,1.042625904083252,-0.43335914611816406,0.07196608185768127
1773146089122066700,8.912066650390624,1.1583536863327026,-0.20579147338867188,-0.013881772756576538
1773146089135078000,8.925077880859375,1.0329759120941162,-0.42792224884033203,0.16166439652442932
1773146089148088800,8.9380888671875,0.13664889335632324,-1.4365053176879883,0.33347582817077637
1773146089161099800,8.951099853515625,-0.682979166507721,-1.2661828994750977,0.3999863564968109
1773146089174110700,8.96411083984375,-0.0009597539901733398,-2.312643051147461,-0.057187750935554504
1773146089187122000,8.977121826171874,-0.09080445766448975,-2.085446357727051,-0.6034317016601562
1773146089200132900,8.9901328125,-0.4709630608558655,-0.866755485534668,-0.6032987833023071
1773146089213143800,9.003143798828125,-0.4067014455795288,-0.07227706909179688,-0.019664600491523743
1773146089226154800,9.01615478515625,0.43197187781333923,0.3577737808227539,0.2128700613975525
1773146089239165700,9.029165771484376,0.8395296931266785,0.43084049224853516,0.7305780053138733
1773146089252176600,9.0421767578125,0.6792140007019043,0.6093978881835938,1.2874174118041992
1773146089265187800,9.055187744140625,0.47711777687072754,0.9210300445556641,1.5574979782104492
1773146089278198800,9.06819873046875,-0.1084364652633667,0.9414215087890625,1.3671334981918335
1773146089291209700,9.081209716796875,-0.24404680728912354,0.8365039825439453,0.7695685029029846
1773146089304220700,9.094220703125,-0.40128278732299805,0.49031829833984375,-0.15026450157165527
1773146089317231900,9.10723193359375,-0.49583113193511963,0.3844318389892578,-1.743205189704895
1773146089330242800,9.120242919921875,-0.3836287260055542,-0.0214385986328125,-1.859354853630066
1773146089343253800,9.133253662109375,-0.22392511367797852,-0.2883167266845703,-1.9525513648986816
1773146089356264700,9.1462646484375,-0.09329783916473389,-0.5495138168334961,-2.009491205215454
1773146089369275600,9.159275634765624,-0.1149371862411499,-0.13447189331054688,-2.3132076263427734
1773146089382286800,9.172286865234375,0.1831653118133545,0.18285655975341797,-2.037480354309082
1773146089395297800,9.1852978515625,0.39547455310821533,0.5301685333251953,-2.037097692489624
1773146089408308700,9.198308837890625,1.1406065225601196,1.123509407043457,-1.4607203006744385
1773146089421319700,9.211319580078126,0.8954863548278809,0.6162290573120117,-1.2595651149749756
1773146089434331000,9.224330810546874,0.30916738510131836,0.07953548431396484,-1.082791805267334
1773146089447341800,9.237341796875,-0.06933367252349854,-0.16882801055908203,-0.6747248768806458
1773146089460352800,9.250352783203125,-0.35648655891418457,-0.5478458404541016,-0.36324191093444824
1773146089473363700,9.26336376953125,-0.6953455209732056,-0.13286972045898438,-0.2558317184448242
1773146089486374700,9.276374755859376,0.24582481384277344,0.19901371002197266,-0.6301388740539551
1773146089499385600,9.289385498046874,0.8730363249778748,0.21365833282470703,-0.9225245118141174
1773146089512396800,9.302396728515625,1.2627556324005127,-0.33153343200683594,-1.4412810802459717
1773146089525407700,9.31540771484375,1.4904413223266602,2.0461220741271973,-1.2871112823486328
1773146089538418700,9.328418701171875,1.1860243082046509,1.1563663482666016,-0.5892529487609863
1773146089551429600,9.3414296875,-0.36750566959381104,-1.3060827255249023,-0.2582278847694397
1773146089564440800,9.35444091796875,-0.11020755767822266,-1.796006202697754,-1.0094300508499146
1773146089577451800,9.36745166015625,0.5917937755584717,-1.538034439086914,-1.0788934230804443
1773146089590462700,9.380462646484375,-0.07928609848022461,-1.5395469665527344,-1.259387493133545
1773146089603473700,9.3934736328125,0.014980912208557129,-1.149057388305664,-0.9783101677894592
1773146089616484600,9.406484619140626,0.42731165885925293,-0.4941415786743164,-0.8931914567947388
1773146089629495800,9.419495849609374,0.7851389646530151,-0.3007793426513672,-0.5871526598930359
1773146089642506800,9.4325068359375,0.8402441143989563,-0.532374382019043,-0.30991503596305847
1773146089655517700,9.445517578125,0.30984020233154297,-0.8621358871459961,-0.15253674983978271
1773146089668528600,9.458528564453125,0.7308802604675293,-0.49164295196533203,-0.5836848616600037
1773146089681539600,9.47153955078125,0.44560033082962036,-0.21951007843017578,-0.3037627339363098
1773146089694550800,9.48455078125,0.9618422985076904,-1.0821199417114258,-0.4544801115989685
1773146089707561700,9.497561767578125,0.6688644886016846,-1.4123516082763672,-0.5471078157424927
1773146089720572700,9.51057275390625,1.1573009490966797,-1.5150489807128906,-0.5467667579650879
1773146089733583600,9.52358349609375,1.0794676542282104,-1.3011102676391602,-0.22669431567192078
1773146089746594600,9.536594482421876,0.8723819851875305,-1.261704444885254,-0.15807588398456573
1773146089759605800,9.549605712890624,1.082465648651123,-1.7408523559570312,-0.2991390824317932
1773146089772616700,9.56261669921875,1.3070337772369385,-2.5137596130371094,-0.39648324251174927
1773146089785627600,9.575627685546875,1.0097472667694092,-2.7400569915771484,0.054252490401268005
1773146089798638600,9.588638671875,1.0113537311553955,-2.463468551635742,0.2671669125556946
1773146089811649800,9.60164990234375,1.471906065940857,-2.925787925720215,0.29112353920936584
1773146089824660700,9.61466064453125,1.8723623752593994,0.08421802520751953,-0.44071298837661743
1773146089837671700,9.627671630859375,2.4195973873138428,-3.091465950012207,-0.2598925530910492
1773146089850682600,9.6406826171875,2.3218154907226562,-3.449103355407715,-1.4739497900009155
1773146089863693600,9.653693603515626,2.849135398864746,-3.674624443054199,-2.2229247093200684
1773146089876704500,9.66670458984375,2.945314645767212,-4.1007280349731445,-2.2361457347869873
1773146089889715700,9.6797158203125,2.983588218688965,-2.399245262145996,-3.401076555252075
1773146089902726700,9.6927265625,1.9490329027175903,-2.8158159255981445,-3.7572999000549316
1773146089915737600,9.705737548828125,0.15292638540267944,-2.5639963150024414,-3.126389503479004
1773146089928748500,9.71874853515625,0.908123254776001,0.2063922882080078,-2.282977819442749
1773146089941759700,9.731759765625,-0.342657208442688,4.121142864227295,1.4216315746307373
1773146089954770700,9.744770751953125,-4.241565704345703,-5.5637712478637695,4.957828044891357
1773146089967781600,9.75778173828125,-6.705070495605469,3.1658053398132324,1.1509637832641602
1773146089980792600,9.77079248046875,-7.349404335021973,0.7489681243896484,5.7611846923828125
1773146089993803500,9.783803466796876,-9.589433670043945,0.4815988540649414,4.989123344421387
1773146090006814700,9.796814697265624,-3.5566141605377197,0.78369140625,5.527631759643555
1773146090019825700,9.80982568359375,-4.676993370056152,0.27571582794189453,5.19688606262207
1773146090032836600,9.822836669921875,-6.387232780456543,-0.04512977600097656,3.0962271690368652
1773146090045847600,9.83584765625,-5.223120212554932,-0.624506950378418,2.3417835235595703
1773146090058858800,9.848858642578126,-3.2383995056152344,-0.5039615631103516,2.2203354835510254
1773146090071869700,9.86186962890625,-2.4664220809936523,0.31787872314453125,1.9791100025177002
1773146090084880600,9.874880615234375,-2.2701752185821533,1.2885370254516602,1.541565179824829
1773146090097891600,9.8878916015625,-2.9222018718719482,1.326439380645752,1.4742382764816284
1773146090110902500,9.900902587890625,-1.7939708232879639,1.2474136352539062,2.313188314437866
1773146090123913700,9.913913818359376,-0.12297916412353516,1.716355800628662,4.002627372741699
1773146090136924700,9.926924560546874,1.40126371383667,2.4859557151794434,5.941424369812012
1773146090149935600,9.939935546875,2.6831979751586914,3.433228015899658,7.100069522857666
1773146090162946600,9.952946533203125,3.09401273727417,3.890855312347412,7.693339824676514
1773146090175957500,9.96595751953125,3.164156913757324,3.708796977996826,7.352109909057617
1773146090188968700,9.97896875,3.004329204559326,3.3905978202819824,6.047057628631592
1773146090201979600,9.991979736328124,1.949319839477539,1.788313388824463,4.990561008453369
1773146090214990600,10.004990478515625,1.4756088256835938,0.8136487007141113,3.8692879676818848
1773146090228001500,10.01800146484375,1.1788477897644043,0.45662593841552734,2.713387966156006
1773146090241012500,10.031012451171875,2.199613094329834,-1.5514864921569824,1.4894156455993652
1773146090254023700,10.044023681640626,4.550868034362793,-2.3737306594848633,-0.3285179138183594
1773146090267034600,10.05703466796875,5.955605983734131,-1.5379772186279297,-2.694932460784912
1773146090280045600,10.070045654296875,5.809743881225586,-1.1212830543518066,-4.307083606719971
1773146090293056500,10.083056396484375,5.068455696105957,-0.6850786209106445,-5.068797588348389
1773146090306067700,10.096067626953126,3.7153525352478027,-2.23350191116333,-4.196551322937012
1773146090319078700,10.10907861328125,3.0912294387817383,-1.5112671852111816,-4.677019119262695
1773146090332089600,10.122089599609374,1.765815258026123,-2.972407341003418,-4.538321018218994
1773146090345100500,10.1351005859375,1.3979434967041016,-1.708094596862793,-5.454377174377441
1773146090358111500,10.148111572265625,0.9859218597412109,-2.2815356254577637,-4.883346080780029
1773146090371122700,10.161122802734376,0.16443538665771484,-2.998023748397827,-3.6963939666748047
1773146090384133600,10.174133544921874,-0.6594061851501465,-2.9103810787200928,-3.211956262588501
1773146090397144600,10.18714453125,-1.4838805198669434,-2.9662487506866455,-3.221930980682373
1773146090410155500,10.200155517578125,-2.3893399238586426,-3.34967303276062,-3.141381025314331
1773146090423166700,10.213166748046875,-2.897171974182129,-4.036293029785156,-3.1034085750579834
1773146090436177700,10.226177734375,-3.0713858604431152,-4.623546600341797,-3.285179853439331
1773146090449188600,10.239188720703124,-2.9391591548919678,-4.275074481964111,-3.688852310180664
1773146090462199600,10.252199462890625,-3.1708908081054688,-4.477869033813477,-3.1661224365234375
1773146090475210500,10.26521044921875,-4.11065673828125,-4.611268520355225,-2.4103903770446777
1773146090488221700,10.2782216796875,-4.7081403732299805,-4.850991249084473,-1.6959404945373535
1773146090501232600,10.291232666015626,-4.73975133895874,-4.888476848602295,-1.0823626518249512
1773146090514243600,10.30424365234375,-3.8127217292785645,-5.053643703460693,-0.697052001953125
1773146090527254500,10.317254638671875,-2.545208692550659,-5.082754135131836,-0.6207389831542969
1773146090540265700,10.330265625,-1.196500301361084,-4.997063159942627,-0.45438647270202637
1773146090553276700,10.343276611328125,-0.46637630462646484,-4.589745044708252,-0.38370537757873535
1773146090566287600,10.35628759765625,-0.3018360137939453,-3.1680455207824707,-0.6685693264007568
1773146090579298600,10.369298583984374,-0.9569039344787598,-2.9894635677337646,-0.27445077896118164
1773146090592309500,10.3823095703125,-0.4914278984069824,-3.769958734512329,-0.1296989917755127
1773146090605320700,10.39532080078125,1.9390926361083984,-3.7207210063934326,-1.0780678987503052
1773146090618331600,10.40833154296875,4.707949638366699,-3.9463791847229004,-1.9683847427368164
1773146090631342600,10.421342529296876,7.427645206451416,-3.4113070964813232,-1.7655491828918457
1773146090644353500,10.434353515625,7.324399471282959,-1.2838444709777832,-1.3406375646591187
1773146090657364700,10.44736474609375,5.182894229888916,-0.3198680877685547,-0.1623927354812622
1773146090670375700,10.460375732421875,2.1345834732055664,1.5081124305725098,0.06676316261291504
1773146090683386600,10.47338671875,-0.2025318145751953,3.997587203979492,-0.2268262356519699
1773146090696397600,10.4863974609375,-1.0204682350158691,4.922792434692383,0.4071420431137085
1773146090709408500,10.499408447265624,-0.4547553062438965,4.5513153076171875,1.4744974374771118
1773146090722419700,10.512419677734375,1.8136825561523438,3.2722058296203613,2.0264196395874023
1773146090735430700,10.5254306640625,4.57409143447876,1.4884319305419922,2.1556801795959473
1773146090748441600,10.538441650390626,6.758895397186279,-0.03456687927246094,2.4115962982177734
1773146090761452500,10.55145263671875,7.780642509460449,-0.49474334716796875,2.524838924407959
1773146090774463700,10.564463623046874,7.324109077453613,-0.019243240356445312,2.676072597503662
1773146090787474700,10.577474609375,5.832258224487305,0.42517662048339844,2.7764151096343994
1773146090800485600,10.590485595703125,3.9534549713134766,1.1174077987670898,2.428046464920044
1773146090813496600,10.60349658203125,2.200162887573242,1.6243805885314941,1.982931137084961
1773146090826507500,10.616507568359374,1.3481225967407227,1.8232641220092773,1.949099063873291
1773146090839518700,10.629518798828125,1.3734550476074219,1.8994717597961426,2.1017820835113525
1773146090852529700,10.64252978515625,1.5683393478393555,1.96775484085083,2.308812379837036
1773146090865540600,10.65554052734375,1.8701858520507812,1.890571117401123,2.4044954776763916
1773146090878551600,10.668551513671876,1.8416576385498047,1.784355878829956,2.1603174209594727
1773146090891562800,10.681562744140624,1.2334957122802734,1.8299572467803955,1.7259104251861572
1773146090904573700,10.69457373046875,0.6354532241821289,1.675611972808838,1.2941852807998657
1773146090917584600,10.707584716796875,0.16310882568359375,1.9215552806854248,0.7039301991462708
1773146090930595600,10.720595703125,-0.46853065490722656,2.0966148376464844,0.2960408926010132
1773146090943606500,10.7336064453125,-1.1472954750061035,2.3571219444274902,0.13815689086914062
1773146090956617700,10.74661767578125,-1.6460919380187988,2.4537010192871094,0.021425962448120117
1773146090969628700,10.759628662109375,-1.693981647491455,2.52797269821167,-0.21117520332336426
1773146090982639600,10.7726396484375,-1.5017313957214355,2.6233439445495605,-0.5353256464004517
1773146090995650600,10.785650634765625,-0.9279522895812988,2.355384349822998,-0.5859289169311523
1773146091008661800,10.798661865234376,0.0007314682006835938,2.2337145805358887,-0.2625850439071655
1773146091021672700,10.811672607421874,0.6167593002319336,2.147439479827881,0.23490369319915771
1773146091034683600,10.82468359375,0.7114505767822266,1.8430976867675781,0.3639064133167267
1773146091047694600,10.837694580078125,0.8453407287597656,1.8086485862731934,0.2790606617927551
1773146091060705500,10.85070556640625,0.7401723861694336,1.7793912887573242,-0.0004323124885559082
1773146091073716700,10.863716796875,0.6843957901000977,1.8756775856018066,-0.09743912518024445
1773146091086727700,10.876727783203124,0.4714846611022949,2.0674853324890137,-0.0185098797082901
1773146091099738600,10.889738525390625,0.22005462646484375,2.2832627296447754,0.08454442024230957
1773146091112749600,10.90274951171875,0.43068408966064453,2.114809989929199,0.24016085267066956
1773146091125760500,10.915760498046875,0.8820595741271973,1.6751699447631836,-0.12576261162757874
1773146091138771700,10.928771728515626,1.274735927581787,0.6678619384765625,-0.2641277015209198
1773146091151782700,10.94178271484375,1.4360971450805664,0.24490785598754883,0.18880492448806763
1773146091164793600,10.954793701171875,1.120521068572998,0.19368839263916016,0.5287242531776428
1773146091177804500,10.967804443359375,0.5951924324035645,0.07062673568725586,0.3920642137527466
1773146091190815500,10.9808154296875,0.12849760055541992,0.035649776458740234,-0.0995747447013855
1773146091203826700,10.99382666015625,-0.4630312919616699,-0.0012574195861816406,-0.6763665080070496
1773146091216837600,11.006837646484374,-0.5717005729675293,-0.3542923927307129,-1.0761666297912598
1773146091229848600,11.0198486328125,-0.0491943359375,-0.4161849021911621,-1.0755003690719604
1773146091242859500,11.032859619140625,0.3810591697692871,-0.827547550201416,-0.7161080837249756
1773146091255870700,11.04587060546875,0.4558382034301758,-1.5293464660644531,-0.7830872535705566
1773146091268881700,11.058881591796874,0.605954647064209,-1.5930867195129395,-0.9938572645187378
1773146091281892600,11.071892578125,0.29010486602783203,-1.9374785423278809,-0.7881163954734802
1773146091294903600,11.084903564453125,-0.25334692001342773,-1.6819467544555664,-0.43892860412597656
1773146091307914500,11.09791455078125,-0.9654974937438965,-1.5152616500854492,-0.2128305733203888
1773146091320925700,11.11092578125,-0.7881941795349121,-2.225088596343994,0.08896258473396301
1773146091333936600,11.1239365234375,-0.5616540908813477,-2.5090041160583496,0.10921680927276611
1773146091346947600,11.136947509765625,-0.7627959251403809,-1.9962987899780273,-0.13997821509838104
1773146091359958500,11.14995849609375,-1.042945384979248,-1.6982731819152832,-0.21506422758102417
1773146091372969700,11.1629697265625,-1.5611400604248047,-1.7283859252929688,-0.08596833795309067
1773146091385980700,11.175980712890626,-2.0001227855682373,-2.032835006713867,0.18187817931175232
1773146091398991600,11.18899169921875,-1.5204675197601318,-1.6909213066101074,0.26840710639953613
1773146091412002600,11.20200244140625,-0.6103010177612305,-1.4469356536865234,0.19918030500411987
1773146091425013500,11.215013427734375,0.136138916015625,-0.2408914566040039,-0.6053352952003479
1773146091438024700,11.228024658203125,0.13355541229248047,-0.3110837936401367,-1.0248165130615234
1773146091451035600,11.24103564453125,-0.9275429248809814,-0.5249595642089844,-1.2595832347869873
1773146091464046600,11.254046630859374,-1.908963680267334,-0.08013725280761719,-1.3778557777404785
1773146091477057500,11.2670576171875,-2.2305004596710205,0.3941926956176758,-1.3339601755142212
1773146091490068700,11.28006884765625,-1.9954893589019775,0.6965103149414062,-1.3678529262542725
1773146091503079700,11.29307958984375,-1.6937448978424072,0.3232412338256836,-1.2025060653686523
1773146091516090600,11.306090576171876,-1.4315869808197021,-0.32718563079833984,-0.6189461946487427
1773146091529101600,11.3191015625,-1.247767686843872,0.02663898468017578,-0.05577261745929718
1773146091542112800,11.33211279296875,-0.3776111602783203,0.5312881469726562,-0.021435558795928955
1773146091555123700,11.345123779296875,0.12768030166625977,0.10536670684814453,0.3363812267780304
1773146091568134700,11.358134765625,0.4435768127441406,-0.034821510314941406,0.1754903495311737
1773146091581145600,11.3711455078125,0.7579565048217773,-0.14497852325439453,-0.06156758964061737
1773146091594156500,11.384156494140624,0.9941830635070801,-0.29541873931884766,-0.1852119266986847
1773146091607167500,11.39716748046875,0.8358216285705566,-0.30834388732910156,-0.2603341341018677
1773146091620178700,11.4101787109375,0.49247026443481445,-0.3081779479980469,-0.3623288571834564
1773146091633189600,11.423189697265625,0.12519216537475586,-0.24129867553710938,-0.3675200343132019
1773146091646200600,11.43620068359375,-0.5959563255310059,-0.14873123168945312,-0.3854341208934784
1773146091659211500,11.44921142578125,-0.40671396255493164,-0.1335439682006836,-0.4491473436355591
1773146091672222500,11.462222412109375,-0.647458553314209,0.041385650634765625,-0.46379953622817993
1773146091685233700,11.475233642578125,-0.6340045928955078,-0.0626993179321289,-0.4730835258960724
1773146091698244600,11.48824462890625,-0.3017740249633789,-0.30577659606933594,-0.4284135699272156
1773146091711255600,11.501255615234374,0.15252256393432617,-0.3176841735839844,-0.49667173624038696
1773146091724266800,11.514266845703125,0.6085715293884277,-0.3222532272338867,-0.4739292860031128
1773146091737277700,11.527277587890625,0.9329366683959961,-0.2596559524536133,-0.4688987731933594
1773146091750288600,11.54028857421875,1.0474634170532227,-0.23945045471191406,-0.5104313492774963
1773146091763299600,11.553299560546876,1.0092458724975586,-0.28716373443603516,-0.6777811646461487
1773146091776310500,11.566310546875,1.0991463661193848,-0.35954904556274414,-0.8605089783668518
1773146091789321700,11.57932177734375,1.0386404991149902,-0.2728109359741211,-1.0622390508651733
1773146091802332700,11.592332763671875,0.900444507598877,-0.0926656723022461,-1.020232915878296
1773146091815343600,11.605343505859375,0.6165981292724609,0.13864517211914062,-0.9320245385169983
1773146091828354600,11.6183544921875,0.3836178779602051,0.31397438049316406,-0.8871362209320068
1773146091841365500,11.631365478515624,0.3634757995605469,0.4246673583984375,-1.079905390739441
1773146091854376700,11.644376708984375,0.5145769119262695,0.1717214584350586,-1.339341402053833
1773146091867387600,11.6573876953125,0.9113907814025879,-0.13464832305908203,-1.5177483558654785
1773146091880398600,11.670398681640625,1.1558332443237305,-0.24685430526733398,-1.5165272951126099
1773146091893409500,11.683409423828126,1.03145170211792,-0.49535322189331055,-1.2819252014160156
1773146091906420700,11.696420654296874,0.9212217330932617,-0.6331143379211426,-0.939773678779602
1773146091919431700,11.709431640625,1.0889554023742676,-0.37874937057495117,-0.866259753704071
1773146091932442600,11.722442626953125,1.2988877296447754,-0.36014223098754883,-0.837971031665802
1773146091945453600,11.73545361328125,1.523120403289795,-1.1315670013427734,-0.4912453293800354
1773146091958464500,11.748464599609376,1.605438232421875,-1.27042818069458,-0.24025672674179077
1773146091971475700,11.761475830078124,1.6097102165222168,-1.2515687942504883,0.04268568754196167
1773146091984486700,11.774486572265625,1.728292465209961,-1.482560157775879,0.3322725296020508
1773146091997497600,11.78749755859375,1.8664312362670898,-1.3237566947937012,0.3401731848716736
1773146092010508500,11.800508544921875,1.945937156677246,-1.3809661865234375,0.4049467444419861
1773146092023519700,11.813519775390626,1.9232897758483887,-1.5233049392700195,0.38629835844039917
1773146092036530700,11.82653076171875,1.8020787239074707,-1.6470651626586914,0.23426270484924316
1773146092049541600,11.839541748046875,1.7594194412231445,-1.5413079261779785,-0.05219995975494385
1773146092062552600,11.852552490234375,1.600189208984375,-1.391232967376709,-0.27403366565704346
1773146092075563500,11.8655634765625,1.3412976264953613,-1.4386744499206543,-0.2419232726097107
1773146092088574700,11.87857470703125,0.9586424827575684,-1.783914566040039,0.18273144960403442
1773146092101585700,11.891585693359374,0.6101813316345215,-1.7662086486816406,0.47580909729003906
1773146092114596600,11.9045966796875,0.36916446685791016,-1.7174172401428223,0.6989754438400269
1773146092127607600,11.917607666015625,0.2606019973754883,-1.314347267150879,0.6326234340667725
1773146092140618500,11.930618408203125,0.16988658905029297,-1.1517548561096191,0.5955043435096741
1773146092153629700,11.943629638671876,0.09673023223876953,-1.3215947151184082,0.695244550704956
1773146092166640600,11.956640625,0.14798307418823242,-1.2053847312927246,0.7693235874176025
1773146092179651600,11.969651611328125,0.04950428009033203,-1.0449976921081543,1.014539122581482
1773146092192662500,11.98266259765625,-0.17680644989013672,-0.9517073631286621,1.2089670896530151
1773146092205673500,11.995673583984376,-0.29861879348754883,-0.9511580467224121,1.2900078296661377
1773146092218684700,12.0086845703125,-0.10876750946044922,-0.879448413848877,1.2903478145599365
1773146092231695600,12.021695556640625,0.07158231735229492,-0.8031635284423828,1.1348785161972046
1773146092244706600,12.03470654296875,0.24367618560791016,-0.9899578094482422,1.2127102613449097
1773146092257717500,12.047717529296875,0.44001293182373047,-0.929877758026123,1.2513833045959473
1773146092270728700,12.060728759765626,0.5722131729125977,-0.826383113861084,1.3719706535339355
1773146092283739600,12.07373974609375,0.6464200019836426,-0.7122249603271484,1.4519844055175781
1773146092296750600,12.08675048828125,0.7076582908630371,-0.6273808479309082,1.4884071350097656
1773146092309761500,12.099761474609375,0.727808952331543,-0.6889910697937012,1.4871385097503662
1773146092322772500,12.1127724609375,0.6848068237304688,-0.7774362564086914,1.50029718875885
1773146092335783700,12.12578369140625,0.5867867469787598,-0.47693634033203125,1.3211637735366821
1773146092348794600,12.138794677734374,0.19087743759155273,-0.6536345481872559,1.3445500135421753
1773146092361805600,12.1518056640625,-0.19366693496704102,-0.8762459754943848,1.318829894065857
1773146092374816500,12.16481640625,-0.4187321662902832,-0.904564380645752,1.1929359436035156
1773146092387827700,12.17782763671875,-0.3950037956237793,-0.6321396827697754,0.780816912651062
1773146092400838700,12.190838623046876,-0.3304781913757324,-0.5271477699279785,0.41804108023643494
1773146092413849600,12.203849609375,-0.14585351943969727,-0.22980022430419922,0.33805155754089355
1773146092426860500,12.216860595703125,0.0487823486328125,0.21244239807128906,0.4884035289287567
1773146092439871500,12.22987158203125,0.06849908828735352,-0.05287933349609375,0.8936166763305664
1773146092452882700,12.242882568359375,0.14765024185180664,-0.17709636688232422,1.124804973602295
1773146092465893600,12.2558935546875,0.19396352767944336,-0.09355926513671875,1.0421667098999023
1773146092478904600,12.268904541015624,0.29688072204589844,-0.08439922332763672,0.8319653868675232
1773146092491915500,12.28191552734375,0.3795132637023926,-0.08083820343017578,0.5276463627815247
1773146092504926700,12.2949267578125,0.3844327926635742,0.057193756103515625,0.19742655754089355
1773146092517937700,12.307937744140625,0.2818913459777832,0.17824459075927734,-0.011822760105133057
1773146092530948600,12.320948486328126,0.2384471893310547,0.27814388275146484,-0.1756380796432495
1773146092543959600,12.33395947265625,0.19921159744262695,0.3093900680541992,-0.30778002738952637
1773146092556970500,12.346970458984375,0.25034666061401367,0.28432369232177734,-0.4312443733215332
1773146092569981700,12.359981689453125,0.4727153778076172,0.43872547149658203,-0.6244035959243774
1773146092582992600,12.37299267578125,0.5429596900939941,0.5132312774658203,-0.7352257966995239
1773146092596003600,12.386003662109376,0.5702619552612305,0.7712955474853516,-0.9130635261535645
1773146092609014500,12.3990146484375,0.3038463592529297,0.3887481689453125,-0.740975022315979
1773146092622025700,12.412025634765625,0.14380884170532227,0.11468887329101562,-0.6607873439788818
1773146092635036700,12.42503662109375,0.02073526382446289,0.14418888092041016,-0.7355637550354004
1773146092648047600,12.438047607421876,-0.0335536003112793,0.08911418914794922,-0.7857329845428467
1773146092661058600,12.45105859375,-0.08200263977050781,0.06271076202392578,-0.8419171571731567
1773146092674069500,12.464069580078124,-0.1989116668701172,0.04929924011230469,-0.8899774551391602
1773146092687080700,12.477080810546875,-0.41744327545166016,-0.0008258819580078125,-0.8838495016098022
1773146092700091600,12.490091552734375,-0.44805002212524414,0.0310821533203125,-0.8830958604812622
1773146092713102600,12.5031025390625,-0.45685243606567383,0.03733634948730469,-0.8398027420043945
1773146092726113500,12.516113525390624,-0.5255870819091797,0.09874725341796875,-0.8700896501541138
1773146092739124700,12.529124755859375,-0.6242766380310059,0.2829008102416992,-1.0924855470657349
1773146092752135700,12.5421357421875,-0.728675365447998,0.3604574203491211,-1.3328006267547607
1773146092765146600,12.555146728515625,-0.9416100978851318,0.2677898406982422,-1.450294017791748
1773146092778157600,12.568157470703126,-0.9649994373321533,0.27823352813720703,-1.421814203262329
1773146092791168500,12.58116845703125,-0.9799003601074219,0.21060848236083984,-1.2299799919128418
1773146092804179500,12.594179443359375,-0.8074171543121338,0.05655193328857422,-0.8586944341659546
1773146092817190700,12.607190673828125,-0.4572300910949707,-0.24008655548095703,-0.3740440607070923
1773146092830201600,12.62020166015625,-0.22412586212158203,-0.4996476173400879,0.0113602876663208
1773146092843212500,12.633212646484376,0.078125,-0.5238327980041504,0.1884765625
1773146092856223500,12.646223388671874,0.1280198097229004,-0.5012269020080566,0.19784784317016602
1773146092869234700,12.659234619140625,0.07534599304199219,-0.4759345054626465,0.04557609558105469
1773146092882245600,12.67224560546875,0.0650486946105957,-0.4150118827819824,-0.14896011352539062
1773146092895256600,12.685256591796875,0.019888877868652344,-0.3673410415649414,-0.3949376344680786
1773146092908267500,12.698267578125,0.13504409790039062,-0.2336864471435547,-0.6706857681274414
1773146092921278500,12.711278564453124,0.37471675872802734,-0.38660097122192383,-0.8272390365600586
1773146092934289700,12.72428955078125,0.591820240020752,-0.10936450958251953,-1.1156073808670044
1773146092947300600,12.737300537109375,0.5227017402648926,0.2485485076904297,-1.324402928352356
1773146092960311600,12.7503115234375,0.5372424125671387,0.057247161865234375,-1.1241965293884277
1773146092973322800,12.76332275390625,0.5629920959472656,0.008351325988769531,-0.8523918390274048
1773146092986333700,12.776333740234374,0.5691208839416504,-0.1201314926147461,-0.5645797252655029
1773146092999344600,12.7893447265625,0.6619482040405273,-0.21935653686523438,-0.40674448013305664
1773146093012355600,12.80235546875,0.6765737533569336,-0.19736003875732422,-0.4641000032424927
1773146093025366500,12.815366455078125,0.6601037979125977,-0.17386722564697266,-0.541332483291626
1773146093038377500,12.82837744140625,0.5462923049926758,-0.12810516357421875,-0.6630887985229492
1773146093051388700,12.841388671875,0.509498119354248,-0.17297077178955078,-0.7229070663452148
1773146093064399600,12.854399658203125,0.48087644577026367,-0.1792163848876953,-0.7356741428375244
1773146093077410600,12.86741064453125,0.4521675109863281,-0.25046348571777344,-0.6079058647155762
1773146093090421500,12.88042138671875,0.40102338790893555,-0.29513072967529297,-0.4186372756958008
1773146093103432700,12.8934326171875,0.4901752471923828,-0.3699760437011719,-0.21215105056762695
1773146093116443600,12.906443603515624,0.5896244049072266,-0.5048222541809082,-0.0053403377532958984
1773146093129454600,12.91945458984375,0.6790947914123535,-0.6280550956726074,0.05166268348693848
1773146093142465500,12.932465576171875,0.6169071197509766,-0.6823797225952148,0.01858055591583252
1773146093155476500,12.9454765625,0.5821881294250488,-0.7183537483215332,-0.029331207275390625
1773146093168487700,12.95848779296875,0.47933149337768555,-0.7617692947387695,-0.07627224922180176
1773146093181498600,12.97149853515625,0.30617570877075195,-0.8135933876037598,-0.16694927215576172
1773146093194509600,12.984509521484375,0.14014673233032227,-0.9017486572265625,-0.2623767852783203
1773146093207520500,12.9975205078125,-0.013638496398925781,-0.9768176078796387,-0.34421563148498535
1773146093220531700,13.01053173828125,-0.03789949417114258,-1.029700756072998,-0.4130692481994629
1773146093233542700,13.023542724609374,0.08802509307861328,-1.0581021308898926,-0.4933919906616211
1773146093246553600,13.0365537109375,0.24851131439208984,-1.0446419715881348,-0.5992498397827148
1773146093259564500,13.049564453125,0.3753628730773926,-1.0298991203308105,-0.7186033725738525
1773146093272575500,13.062575439453125,0.533238410949707,-1.020195484161377,-0.7634521722793579
1773146093285586700,13.075586669921876,0.6778345108032227,-0.9645276069641113,-0.7490464448928833
1773146093298597600,13.08859765625,0.7839546203613281,-0.9092755317687988,-0.5677146911621094
1773146093311608600,13.101608642578125,0.8848896026611328,-0.8221349716186523,-0.33359384536743164
1773146093324619500,13.11461962890625,0.8801913261413574,-0.7273802757263184,-0.12877726554870605
1773146093337630700,13.127630615234375,0.8419179916381836,-0.6271867752075195,-0.026764988899230957
1773146093350641700,13.1406416015625,0.7696452140808105,-0.5368590354919434,0.0012651681900024414
1773146093363652600,13.153652587890624,0.670654296875,-0.44585227966308594,-0.0398331880569458
1773146093376663600,13.16666357421875,0.619631290435791,-0.37962818145751953,-0.08831954002380371
1773146093389674500,13.179674560546875,0.6296720504760742,-0.3226957321166992,-0.1531440019607544
1773146093402685700,13.192685791015625,0.729029655456543,-0.2821226119995117,-0.12351882457733154
1773146093415696600,13.205696533203126,0.8167643547058105,-0.2861757278442383,-0.06485438346862793
1773146093428707600,13.21870751953125,0.8336124420166016,-0.2752399444580078,0.003829479217529297
1773146093441718500,13.231718505859375,0.8064980506896973,-0.26175785064697266,0.09140169620513916
1773146093454729700,13.244729736328125,0.7959394454956055,-0.28354930877685547,0.19545269012451172
1773146093467740700,13.25774072265625,0.7987465858459473,-0.30307865142822266,0.19459879398345947
1773146093480751600,13.270751708984376,0.8436460494995117,-0.33636951446533203,0.14164698123931885
1773146093493762600,13.283762451171874,0.8899083137512207,-0.39386463165283203,0.0733412504196167
1773146093506773500,13.2967734375,0.954409122467041,-0.44388914108276367,0.030558228492736816
1773146093519784700,13.30978466796875,0.9787502288818359,-0.42377758026123047,0.018935680389404297
1773146093532795600,13.322795654296876,0.8961553573608398,-0.38411712646484375,0.0410764217376709
1773146093545806600,13.335806640625,0.9152083396911621,-0.31553077697753906,0.07395076751708984
1773146093558817500,13.348817626953124,0.9498858451843262,-0.3542022705078125,0.24445950984954834
1773146093571828700,13.361828857421875,0.9643416404724121,-0.35948657989501953,0.40744733810424805
1773146093584839700,13.374839599609375,0.8785519599914551,-0.3304109573364258,0.5458029508590698
1773146093597850600,13.3878505859375,0.8141474723815918,-0.3149585723876953,0.6522285342216492
1773146093610861600,13.400861572265624,0.7797794342041016,-0.33490467071533203,0.7078264951705933
1773146093623872800,13.413872802734375,0.6897048950195312,-0.365692138671875,0.6734848618507385
1773146093636883700,13.4268837890625,0.5896754264831543,-0.35413646697998047,0.6068008542060852
1773146093649894700,13.439894775390625,0.5304803848266602,-0.35147857666015625,0.5206673741340637
1773146093662905600,13.452905517578126,0.4728889465332031,-0.33975887298583984,0.513185441493988
1773146093675916500,13.46591650390625,0.4805440902709961,-0.3522777557373047,0.540421724319458
1773146093688927700,13.478927734375,0.4929780960083008,-0.3667306900024414,0.5629034638404846
1773146093701938700,13.491938720703125,0.4981265068054199,-0.4120140075683594,0.5478482246398926
1773146093714949600,13.50494970703125,0.4198484420776367,-0.44026899337768555,0.41669929027557373
1773146093727960600,13.517960693359376,0.34427499771118164,-0.43560361862182617,0.23997855186462402
1773146093740971800,13.5309716796875,0.2853703498840332,-0.42849111557006836,0.054000020027160645
1773146093753982700,13.543982666015625,0.2286982536315918,-0.41469907760620117,-0.10934746265411377
1773146093766993700,13.55699365234375,0.18364620208740234,-0.41034555435180664,-0.23624670505523682
1773146093780004600,13.570004638671875,0.23639631271362305,-0.43036699295043945,-0.2679668664932251
1773146093793015600,13.583015625,0.33858442306518555,-0.39013051986694336,-0.23727083206176758
1773146093806026800,13.59602685546875,0.3950634002685547,-0.3395709991455078,-0.17453813552856445
1773146093819037700,13.60903759765625,0.3635540008544922,-0.28952980041503906,-0.2194305658340454
1773146093832048600,13.622048583984375,0.34273815155029297,-0.24660778045654297,-0.36667585372924805
1773146093845059600,13.6350595703125,0.3415699005126953,-0.2814607620239258,-0.5704584121704102
1773146093858070800,13.64807080078125,0.41135120391845703,-0.37238454818725586,-0.839859127998352
1773146093871081700,13.661081787109374,0.5440230369567871,-0.5187292098999023,-1.111822247505188
1773146093884092700,13.6740927734375,0.6614260673522949,-0.6439952850341797,-1.3496264219284058
1773146093897103600,13.687103515625,0.7315940856933594,-0.712897777557373,-1.4597374200820923
1773146093910114600,13.700114501953125,0.4911632537841797,-0.8497757911682129,-1.3305046558380127
1773146093923125800,13.713125732421876,0.723968505859375,-0.716306209564209,-1.152561902999878
1773146093936136700,13.72613671875,0.7587122917175293,-0.8436436653137207,-0.6249608993530273
1773146093949147600,13.739147705078125,0.6154079437255859,-0.7284479141235352,-0.24931049346923828
1773146093962158600,13.75215869140625,0.21919488906860352,-0.8117885589599609,0.1424177885055542
1773146093975169800,13.765169677734375,-0.21288728713989258,-0.7862391471862793,0.3373010754585266
1773146093988180700,13.7781806640625,-0.5345292091369629,-0.7327466011047363,0.3477347493171692
1773146094001191700,13.791191650390624,-0.5403261184692383,-0.8069205284118652,0.23395681381225586
1773146094014202600,13.80420263671875,-0.3872718811035156,-0.8280720710754395,0.11528366804122925
1773146094027213600,13.817213623046875,-0.23614215850830078,-0.7896428108215332,0.17485255002975464
1773146094040224800,13.830224853515626,-0.10787725448608398,-0.7932476997375488,0.307206928730011
1773146094053235700,13.843235595703124,-0.006526470184326172,-0.7657475471496582,0.3317607641220093
1773146094066246700,13.85624658203125,-0.01648855209350586,-0.7330899238586426,0.25102561712265015
1773146094079257600,13.869257568359375,-0.01857757568359375,-0.7158041000366211,0.14950597286224365
1773146094092268800,13.882268798828125,0.0012555122375488281,-0.6861181259155273,0.08460819721221924
1773146094105279700,13.89527978515625,-0.01951885223388672,-1.0976319313049316,0.25943291187286377
1773146094118290700,13.908290771484374,0.3260035514831543,-0.7184147834777832,0.1474025845527649
1773146094131301600,13.921301513671875,0.7037138938903809,-0.13637065887451172,-0.2791208028793335
1773146094144312600,13.9343125,1.1017742156982422,-0.10325002670288086,-0.4050954580307007
1773146094157323800,13.94732373046875,1.4767718315124512,0.14566802978515625,-0.3723522424697876
1773146094170334700,13.960334716796876,1.8476171493530273,0.4948463439941406,-0.05363374948501587
1773146094183345700,13.973345703125,2.1828880310058594,0.7559976577758789,0.3460703194141388
1773146094196356600,13.986356689453125,2.526669979095459,1.035201072692871,0.5465178489685059
1773146094209367800,13.999367919921875,2.666562557220459,1.2464427947998047,0.3788054287433624
1773146094222378800,14.012378662109375,2.4599666595458984,1.4945964813232422,-0.01481175422668457
1773146094235389700,14.0253896484375,1.8989381790161133,1.1528215408325195,-0.10498714447021484
1773146094248400600,14.038400634765624,1.5044021606445312,0.9441652297973633,-0.008402884006500244
1773146094261411600,14.05141162109375,1.6019654273986816,1.3309669494628906,-0.06250977516174316
1773146094274422800,14.0644228515625,1.7372188568115234,0.8094329833984375,0.13933557271957397
1773146094287433700,14.077433837890625,2.084947109222412,0.4407835006713867,0.36977070569992065
1773146094300444700,14.090444580078126,2.2349753379821777,-0.10960674285888672,0.852586030960083
1773146094313455600,14.10345556640625,2.192418098449707,-0.5745482444763184,1.190453052520752
1773146094326466800,14.116466796875,2.074859142303467,-1.0272798538208008,1.3168984651565552
1773146094339477800,14.129477783203125,1.9329452514648438,-1.2923355102539062,1.2664934396743774
1773146094352488700,14.14248876953125,1.8051152229309082,-1.5527300834655762,1.1228283643722534
1773146094365499600,14.155499755859376,1.5750160217285156,-1.8498797416687012,0.9133726358413696
1773146094378510600,14.168510498046874,1.3664960861206055,-2.0964455604553223,0.6813639998435974
1773146094391521800,14.181521728515625,1.435636043548584,-2.309854030609131,0.3390768766403198
1773146094404532700,14.19453271484375,1.7100515365600586,-2.5783114433288574,0.043992042541503906
1773146094417543700,14.207543701171875,2.5586843490600586,-2.5250611305236816,-0.46766674518585205
1773146094430554600,14.2205546875,3.6496682167053223,-2.0397934913635254,-0.17424845695495605
1773146094443565800,14.23356591796875,4.658088207244873,-2.01145601272583,0.6958602666854858
1773146094456576800,14.24657666015625,5.1717963218688965,-1.6647295951843262,1.1445739269256592
1773146094469587700,14.259587646484375,4.725125312805176,-1.50091552734375,1.3375952243804932
1773146094482598700,14.2725986328125,3.912393569946289,-1.3312959671020508,1.4457876682281494
1773146094495609600,14.285609619140626,3.155332565307617,-1.1231422424316406,1.2795724868774414
1773146094508620800,14.298620849609375,2.515876293182373,-1.0180134773254395,0.9717885851860046
1773146094521631700,14.3116318359375,1.995584487915039,-0.7753505706787109,0.728762149810791
1773146094534642700,14.324642578125,1.6350502967834473,-0.49538421630859375,0.7185583114624023
1773146094547653600,14.337653564453126,1.3451857566833496,-0.2608804702758789,0.6521502733230591
1773146094560664800,14.350664794921874,1.0910911560058594,-0.049793243408203125,0.5756384134292603
1773146094573675800,14.36367578125,0.8987216949462891,0.09230232238769531,0.648149847984314
1773146094586686700,14.376686767578125,0.6858558654785156,0.0895986557006836,0.7947638034820557
1773146094599697700,14.38969775390625,0.5237658023834229,0.07867813110351562,1.0822973251342773
1773146094612708600,14.40270849609375,0.40024328231811523,-0.030193328857421875,1.4244393110275269
1773146094625719800,14.4157197265625,0.36270856857299805,-0.2736482620239258,1.688231348991394
1773146094638730800,14.428730712890625,0.3522682189941406,-0.4883613586425781,1.7452937364578247
1773146094651741700,14.44174169921875,0.33568763732910156,-0.6935510635375977,1.6126693487167358
1773146094664752600,14.454752685546875,0.14624786376953125,-0.8714399337768555,1.530541181564331
1773146094677763800,14.467763916015626,-0.07125139236450195,-1.0284876823425293,1.4497934579849243
1773146094690774800,14.48077490234375,-0.10865950584411621,-1.2282662391662598,1.2790683507919312
1773146094703785700,14.49378564453125,-0.062011003494262695,-1.392270565032959,1.0885710716247559
1773146094716796700,14.506796630859375,0.011689901351928711,-1.5047178268432617,0.987064778804779
1773146094729808000,14.519807861328125,0.08298778533935547,-1.6198906898498535,0.9804818630218506
1773146094742818800,14.53281884765625,0.05928349494934082,-1.678056240081787,0.9849637150764465
1773146094755829800,14.545829833984374,-0.06733059883117676,-1.6600699424743652,1.0180045366287231
1773146094768840700,14.5588408203125,-0.18585205078125,-1.5989727973937988,0.9768223166465759
1773146094781851600,14.5718515625,-0.10090017318725586,-1.4963908195495605,0.828000545501709
1773146094794862800,14.58486279296875,0.09714508056640625,-1.1742901802062988,0.49819397926330566
1773146094807873800,14.597873779296876,0.4131612777709961,-0.9711952209472656,0.3318347930908203
1773146094820884700,14.610884765625,0.6214389801025391,-0.5542564392089844,0.2996971607208252
1773146094833895700,14.623895751953125,0.7017946243286133,-0.43178272247314453,0.3905627727508545
1773146094846907000,14.636906982421875,0.5527634620666504,-0.3482494354248047,0.4274660348892212
1773146094859917800,14.649917724609375,1.4549121856689453,0.45446300506591797,0.06276154518127441
1773146094872928800,14.6629287109375,1.2799873352050781,0.5135326385498047,0.018333792686462402
1773146094885939700,14.675939697265624,1.4562492370605469,0.31764698028564453,0.1765502691268921
1773146094898950700,14.68895068359375,1.4932689666748047,0.3566884994506836,0.1308532953262329
1773146094911961900,14.7019619140625,1.3221449851989746,0.44375038146972656,0.00605618953704834
1773146094924972800,14.714972900390626,1.3029818534851074,0.3392829895019531,0.03605842590332031
1773146094937983700,14.727983642578126,1.4365801811218262,0.16861343383789062,0.01351916790008545
1773146094950995000,14.740994873046875,1.611194133758545,0.10764026641845703,-0.10799181461334229
1773146094964006000,14.754005859375,1.7341151237487793,-0.07071304321289062,-0.13136553764343262
1773146094977016800,14.767016845703125,1.7854409217834473,-0.3800086975097656,-0.14510297775268555
1773146094990027800,14.78002783203125,1.7260169982910156,-0.45615482330322266,0.15023481845855713
1773146095003038700,14.793038818359374,1.540895938873291,-0.81109619140625,0.43725842237472534
1773146095016049700,14.806049560546874,1.4303383827209473,-0.9310517311096191,0.6949285268783569
1773146095029060900,14.819060791015625,1.1717824935913086,-1.088930606842041,0.7971762418746948
1773146095042071800,14.83207177734375,0.9737911224365234,-1.3452649116516113,0.7772989273071289
1773146095055082800,14.845082763671876,0.7087464332580566,-1.407303810119629,0.5904756188392639
1773146095068093700,14.85809375,0.35093069076538086,-1.3470673561096191,0.3693814277648926
1773146095081105000,14.87110498046875,0.037045955657958984,-1.2682886123657227,0.1617029309272766
1773146095094115800,14.88411572265625,-0.10420560836791992,-1.3145456314086914,0.07362258434295654
1773146095107126800,14.897126708984375,-0.11148691177368164,-1.1820554733276367,0.005929231643676758
1773146095120137700,14.9101376953125,-0.055600643157958984,-0.7937827110290527,-0.014771819114685059
1773146095133149000,14.92314892578125,0.20546627044677734,-0.676908016204834,0.29913967847824097
1773146095146159900,14.936159912109375,0.391878604888916,-0.7220382690429688,0.850452184677124
1773146095159170800,14.9491708984375,0.5533113479614258,-0.6095995903015137,1.2485458850860596
1773146095172181800,14.962181640625,0.6792726516723633,-0.5383949279785156,1.3625240325927734
1773146095185192700,14.975192626953126,0.77655029296875,-0.4533653259277344,1.2576872110366821
1773146095198204000,14.988203857421874,0.9260611534118652,-0.3194608688354492,1.0481925010681152
1773146095211214800,15.00121484375,1.0936613082885742,-0.21412181854248047,0.8284204006195068
1773146095224225800,15.014225830078125,1.2948803901672363,-0.14637088775634766,0.6979246735572815
1773146095237236700,15.02723681640625,1.389270305633545,-0.02391815185546875,0.5506998896598816
1773146095250248000,15.040248046875,1.3147716522216797,0.1472177505493164,0.4272528886795044
1773146095263259000,15.0532587890625,1.1580266952514648,0.25058460235595703,0.42662549018859863
1773146095276269800,15.066269775390625,1.0890746116638184,0.3781003952026367,0.456082284450531
1773146095289280800,15.07928076171875,1.1017422676086426,0.4615955352783203,0.49496543407440186
1773146095302292000,15.0922919921875,1.1854047775268555,0.48035144805908203,0.5830669403076172
1773146095315303000,15.105302978515626,1.2244443893432617,0.43678951263427734,0.6927288174629211
1773146095328313900,15.11831396484375,1.2361869812011719,0.27718448638916016,0.7497628331184387
1773146095341324800,15.13132470703125,1.2015247344970703,0.07741546630859375,0.7233210802078247
1773146095354335700,15.144335693359375,1.1165895462036133,-0.08810234069824219,0.5708681344985962
1773146095367347000,15.157346923828126,0.9981780052185059,-0.22938823699951172,0.356673002243042
1773146095380358000,15.17035791015625,0.8584198951721191,-0.3557753562927246,0.11456668376922607
1773146095393368800,15.183368896484374,0.6724309921264648,-0.5232219696044922,-0.06715023517608643
1773146095406379800,15.1963798828125,0.5102143287658691,-0.6404175758361816,-0.17571723461151123
1773146095419391000,15.209390869140625,0.44620418548583984,-0.5872969627380371,-0.28874194622039795
1773146095432402000,15.22240185546875,0.35552453994750977,-0.38521575927734375,-0.42475831508636475
1773146095445412900,15.235412841796874,0.17844057083129883,-0.4394087791442871,-0.4285033941268921
1773146095458423800,15.248423828125,0.0016870498657226562,-0.5564513206481934,-0.42094695568084717
1773146095471435000,15.26143505859375,-0.047389984130859375,-0.5429401397705078,-0.4306635856628418
1773146095484446000,15.274446044921875,0.030946731567382812,-0.5141501426696777,-0.3395324945449829
1773146095497457000,15.287456787109376,0.16581201553344727,-0.46708154678344727,-0.23922908306121826
1773146095510467800,15.3004677734375,0.3279118537902832,-0.3841361999511719,-0.12460076808929443
1773146095523478800,15.313478759765625,0.4239835739135742,-0.2959575653076172,0.05661666393280029
1773146095536490000,15.326489990234375,0.33875179290771484,-0.24092769622802734,0.3143042325973511
1773146095549501000,15.3395009765625,0.11278390884399414,-0.19721317291259766,0.5720188021659851
1773146095562512000,15.352511962890626,-0.06362438201904297,-0.10904502868652344,0.7167801260948181
1773146095575522800,15.365522705078124,-0.1905503273010254,-0.13959312438964844,0.8284842371940613
1773146095588534000,15.378533935546875,-0.24217891693115234,-0.10278511047363281,0.8951666951179504
1773146095601545000,15.391544921875,-0.2811393737792969,0.014383316040039062,0.8836597800254822
1773146095614556000,15.404555908203125,-0.22502946853637695,0.07228565216064453,0.8290519118309021
1773146095627566800,15.41756689453125,-0.1499495506286621,0.1315450668334961,0.7973011136054993
1773146095640577800,15.430577880859374,-0.03847217559814453,0.2898883819580078,0.6188921332359314
1773146095653589000,15.443589111328125,0.13498163223266602,0.4719858169555664,0.374833345413208
1773146095666600000,15.456599853515625,0.2868671417236328,0.5985698699951172,0.2293705940246582
1773146095679611000,15.46961083984375,0.48579978942871094,0.7461833953857422,0.2968035936355591
1773146095692621800,15.482621826171876,0.6564278602600098,0.895573616027832,0.5097349286079407
1773146095705633000,15.495633056640624,0.7562904357910156,0.9601602554321289,0.7258803844451904
1773146095718644000,15.50864404296875,0.5883150100708008,1.0310688018798828,0.7290451526641846
1773146095731655000,15.521655029296875,0.7592225074768066,1.3186464309692383,0.770256757736206
1773146095744665900,15.534665771484375,0.8373627662658691,1.105271339416504,0.7635515928268433
1773146095757676800,15.5476767578125,1.0797972679138184,0.7362918853759766,0.8592896461486816
1773146095770688000,15.56068798828125,1.406644344329834,0.8937702178955078,0.6770026683807373
1773146095783699000,15.573698974609375,1.2753920555114746,0.3503599166870117,0.7690156102180481
1773146095796710000,15.5867099609375,0.8744959831237793,-0.14513778686523438,0.9383361339569092
1773146095809720800,15.599720947265626,0.49801111221313477,-0.5799622535705566,1.136262059211731
1773146095822732000,15.61273193359375,0.37244129180908203,-0.8703441619873047,1.443811058998108
1773146095835743000,15.625742919921874,0.663966178894043,-1.0379176139831543,1.5398280620574951
1773146095848754000,15.63875390625,1.090806007385254,-1.0147895812988281,1.3971149921417236
1773146095861764900,15.651764892578125,1.1630315780639648,-1.0073537826538086,1.0343010425567627
1773146095874775800,15.66477587890625,0.9575023651123047,-0.995945930480957,0.49090802669525146
1773146095887787000,15.677787109375,0.5891847610473633,-1.034949779510498,-0.11705958843231201
1773146095900798000,15.6907978515625,0.40528440475463867,-1.6330795288085938,-0.39248228073120117
1773146095913809000,15.703808837890625,0.24111700057983398,-1.3962750434875488,-0.6818227171897888
1773146095926819800,15.71681982421875,0.7197971343994141,-1.1512393951416016,-1.0456478595733643
1773146095939831000,15.7298310546875,0.46874523162841797,-1.731698989868164,-1.3080101013183594
1773146095952842000,15.742842041015624,0.6488251686096191,-1.688547134399414,-1.2928061485290527
1773146095965853000,15.75585302734375,0.5486211776733398,-1.6980814933776855,-1.3132274150848389
1773146095978863900,15.76886376953125,0.42305946350097656,-1.3664398193359375,-1.3259868621826172
1773146095991875000,15.781875,0.07954597473144531,-0.8988027572631836,-1.4368185997009277
1773146096004886000,15.794885986328126,0.2538571357727051,-0.7303643226623535,-1.4867839813232422
1773146096017897000,15.80789697265625,-0.2843465805053711,-0.34697628021240234,-1.5910725593566895
1773146096030908000,15.820907958984375,0.13730907440185547,-0.16034889221191406,-1.387071132659912
1773146096043918800,15.8339189453125,-0.5881776809692383,0.1537027359008789,-1.1042394638061523
1773146096056930000,15.846929931640625,-0.5252060890197754,0.04769325256347656,-0.6178996562957764
1773146096069941000,15.85994091796875,-0.5514645576477051,-0.20182037353515625,-0.3477886915206909
1773146096082952000,15.872951904296874,-0.31070899963378906,-0.7560439109802246,-0.2883310317993164
1773146096095963000,15.885962890625,0.03494882583618164,-0.9888882637023926,-0.5456436276435852
1773146096108974000,15.89897412109375,0.45743560791015625,-0.7554526329040527,-1.0071145296096802
1773146096121985000,15.911985107421875,0.8120789527893066,-0.6003737449645996,-1.3573849201202393
1773146096134996000,15.924995849609376,0.78466796875,-0.7171010971069336,-1.3761351108551025
1773146096148007000,15.9380068359375,0.19664764404296875,-0.816612720489502,-1.5686858892440796
1773146096161017900,15.951017822265625,0.6870589256286621,-0.7195477485656738,-1.695046067237854
1773146096174029000,15.964029052734375,0.939507007598877,-0.5924382209777832,-1.3060157299041748
1773146096187040000,15.9770400390625,1.1589975357055664,-0.07248687744140625,-1.2804049253463745
1773146096200051000,15.990051025390626,1.048391342163086,-0.3839836120605469,-0.8295179605484009
1773146096213062100,16.003062255859376,0.8817219734191895,-0.4576287269592285,-0.5837602615356445
1773146096226073000,16.016072998046877,0.6815738677978516,-0.35564279556274414,-0.5793881416320801
1773146096239084000,16.029083984375,0.5738940238952637,-0.30976104736328125,-0.7070434093475342
1773146096252095000,16.042094970703126,0.5184826850891113,-0.20256519317626953,-0.7612160444259644
1773146096265106000,16.05510595703125,0.4200572967529297,-0.07665061950683594,-0.6834656000137329
1773146096278117000,16.0681171875,0.4291539192199707,-0.06911468505859375,-0.45761656761169434
1773146096291128000,16.081128173828127,0.5058674812316895,-0.1664271354675293,-0.22576558589935303
1773146096304139000,16.094138916015623,0.3984532356262207,-0.5409340858459473,0.03587687015533447
1773146096317150000,16.10714990234375,0.6176257133483887,-0.3102269172668457,-0.11179089546203613
1773146096330161200,16.1201611328125,0.792792797088623,-0.5562186241149902,-0.0899052619934082
1773146096343172000,16.133172119140625,0.7432675361633301,-0.46462202072143555,-0.14512646198272705
1773146096356183000,16.14618310546875,0.5915713310241699,-0.5559382438659668,-0.14935660362243652
1773146096369194000,16.159194091796873,0.4371047019958496,-0.652916431427002,-0.16782569885253906
1773146096382205000,16.172204833984374,0.35830163955688477,-0.6458930969238281,-0.23516833782196045
1773146096395216100,16.185216064453126,0.5029768943786621,-0.6685476303100586,-0.26532816886901855
1773146096408227000,16.19822705078125,0.6264557838439941,-0.6832265853881836,-0.32878363132476807
1773146096421238000,16.211238037109375,0.7013740539550781,-0.6355776786804199,-0.35416388511657715
1773146096434249000,16.2242490234375,0.6852579116821289,-0.5932211875915527,-0.35685551166534424
1773146096447260200,16.23726025390625,0.5700554847717285,-0.5257163047790527,-0.3738802671432495
1773146096460271000,16.25027099609375,0.26979732513427734,-0.41185426712036133,-0.4095231294631958
1773146096473282000,16.263281982421876,-0.011344432830810547,-0.3374204635620117,-0.39425599575042725
1773146096486293000,16.27629296875,-0.1434917449951172,-0.33826494216918945,-0.30681324005126953
1773146096499304000,16.289303955078125,-0.2111506462097168,-0.29871129989624023,-0.20574605464935303
1773146096512315100,16.302315185546874,-0.2623157501220703,-0.19603347778320312,-0.037599921226501465
1773146096525326000,16.315326171875,-0.2019820213317871,-0.23662424087524414,0.2736034393310547
1773146096538337000,16.3283369140625,-0.18141603469848633,-0.2792549133300781,0.45727717876434326
