time,seconds_elapsed,z,y,x
1773146080287604500,0.0776044921875,9.543402671813965,2.0242114067077637,0.9982081055641174
1773146080300611000,0.090611083984375,9.571041107177734,1.9446499347686768,0.8853763937950134
1773146080313622000,0.1036220703125,9.584112167358398,1.9090747833251953,0.8189119696617126
1773146080326633200,0.11663330078125,9.57284164428711,1.975974678993225,0.7915842533111572
1773146080339644200,0.12964404296875,9.533735275268555,2.119633436203003,0.8862386345863342
1773146080352655000,0.142655029296875,9.483804702758789,2.322824478149414,0.9123188853263855
1773146080365666000,0.155666015625,9.437439918518066,2.4952950477600098,0.9373493194580078
1773146080378677200,0.16867724609375,9.38506031036377,2.6699159145355225,0.9811190962791443
1773146080391688000,0.18168798828125,9.324358940124512,2.8719351291656494,0.9892867207527161
1773146080404699100,0.19469921875,9.25688362121582,3.1027672290802,0.9237590432167053
1773146080417710000,0.2077099609375,9.229314804077148,3.197113275527954,0.8767071962356567
1773146080430721000,0.220720947265625,9.160370826721191,3.362525463104248,0.9754080772399902
1773146080443732000,0.23373193359375,9.125099182128906,3.4923007488250732,0.8407127261161804
1773146080456743200,0.2467431640625,9.100502967834473,3.5892324447631836,0.6845793724060059
1773146080469754000,0.259754150390625,9.058235168457031,3.71429443359375,0.5681280493736267
1773146080482765000,0.27276513671875,9.004501342773438,3.85868239402771,0.447109192609787
1773146080495776000,0.28577587890625,8.961638450622559,3.964003801345825,0.3822256922721863
1773146080508787000,0.298786865234375,8.927372932434082,4.037001132965088,0.41836315393447876
1773146080521798100,0.311798095703125,8.905759811401367,4.072964668273926,0.5184447765350342
1773146080534809000,0.32480908203125,8.89500617980957,4.077320575714111,0.6516931653022766
1773146080547820000,0.337820068359375,8.882597923278809,4.0789289474487305,0.7950985431671143
1773146080560831000,0.3508310546875,8.87860107421875,4.0707268714904785,0.8775002956390381
1773146080573842000,0.363842041015625,8.917250633239746,3.9863147735595703,0.8731132745742798
1773146080586853000,0.37685302734375,8.985998153686523,3.8460068702697754,0.7940064668655396
1773146080599864000,0.389864013671875,9.056527137756348,3.700723171234131,0.6740572452545166
1773146080612875000,0.402875,9.120729446411133,3.560819149017334,0.5506774187088013
1773146080625886000,0.415885986328125,9.177149772644043,3.426586389541626,0.45694488286972046
1773146080638897000,0.42889697265625,9.229153633117676,3.2849252223968506,0.44987204670906067
1773146080651908000,0.441908203125,9.262835502624512,3.1714367866516113,0.5588018894195557
1773146080664919000,0.4549189453125,9.271690368652344,3.100196361541748,0.7713229656219482
1773146080677930000,0.467929931640625,9.261862754821777,3.0530576705932617,1.033018708229065
1773146080690941000,0.48094091796875,9.24560546875,2.9950311183929443,1.3110878467559814
1773146080703952100,0.4939521484375,9.225458145141602,2.910667657852173,1.6091375350952148
1773146080716963000,0.506963134765625,9.206334114074707,2.7868874073028564,1.9097274541854858
1773146080729974000,0.51997412109375,9.187244415283203,2.6304805278778076,2.201249122619629
1773146080742985000,0.53298486328125,9.161669731140137,2.4610886573791504,2.485405683517456
1773146080755996000,0.545995849609375,9.123777389526367,2.270674467086792,2.787672758102417
1773146080769006800,0.5590068359375,9.066399574279785,2.082531690597534,3.1038436889648438
1773146080782018000,0.57201806640625,8.977798461914062,1.899488091468811,3.458533763885498
1773146080795029000,0.585029052734375,8.852473258972168,1.7091618776321411,3.857830762863159
1773146080808040000,0.5980400390625,8.687788009643555,1.5043398141860962,4.292981147766113
1773146080821051000,0.61105078125,8.497617721557617,1.2949035167694092,4.7206034660339355
1773146080834062000,0.62406201171875,8.28172779083252,1.040766954421997,5.147830963134766
1773146080847073000,0.637072998046875,8.048870086669922,0.7544623017311096,5.551294326782227
1773146080860084000,0.650083984375,7.794749736785889,0.40806952118873596,5.9368133544921875
1773146080873095000,0.663094970703125,7.518217086791992,0.01483417022973299,6.296553134918213
1773146080886105900,0.67610595703125,7.231995105743408,-0.41004619002342224,6.6106343269348145
1773146080899117000,0.689116943359375,6.921242713928223,-0.878974974155426,6.891602039337158
1773146080912128000,0.7021279296875,6.591287612915039,-1.392879605293274,7.126373767852783
1773146080925139000,0.715138916015625,6.242197513580322,-1.9520176649093628,7.307187557220459
1773146080938150000,0.72814990234375,5.891196250915527,-2.5477423667907715,7.414391040802002
1773146080951160800,0.741160888671875,5.541961193084717,-3.1795003414154053,7.439611911773682
1773146080964172000,0.754172119140625,5.208024978637695,-3.8193202018737793,7.379678249359131
1773146080977183000,0.767182861328125,4.8802571296691895,-4.454991817474365,7.246139049530029
1773146080990194000,0.78019384765625,4.558984279632568,-5.0753655433654785,7.044622421264648
1773146081003204900,0.793204833984375,4.233618259429932,-5.6747612953186035,6.785569190979004
1773146081016215800,0.8062158203125,3.919309139251709,-6.2444233894348145,6.466573715209961
1773146081029227000,0.81922705078125,3.626756429672241,-6.765256404876709,6.103140830993652
1773146081042238000,0.832238037109375,3.3549463748931885,-7.218558311462402,5.727752208709717
1773146081055249000,0.845248779296875,3.077009677886963,-7.612399578094482,5.362254619598389
1773146081068259800,0.858259765625,2.7915749549865723,-7.954129219055176,5.010919094085693
1773146081081271000,0.87127099609375,2.513333797454834,-8.264188766479492,4.642920017242432
1773146081094282000,0.884281982421875,2.2519924640655518,-8.553152084350586,4.235859394073486
1773146081107293000,0.89729296875,2.01248836517334,-8.812833786010742,3.8018741607666016
1773146081120303900,0.910303955078125,1.7767317295074463,-9.038702011108398,3.363847255706787
1773146081133314800,0.923314697265625,1.4971323013305664,-9.232832908630371,2.946824550628662
1773146081146325800,0.93632568359375,1.191858172416687,-9.392566680908203,2.55529522895813
1773146081159337000,0.9493369140625,0.8969100713729858,-9.52610969543457,2.149223804473877
1773146081172348000,0.962347900390625,0.6487329006195068,-9.630270004272461,1.7341948747634888
1773146081185358800,0.97535888671875,0.47721603512763977,-9.706265449523926,1.3157013654708862
1773146081198369800,0.988369873046875,0.40829020738601685,-9.756412506103516,0.9033803939819336
1773146081211381000,1.001381103515625,0.4298133850097656,-9.784518241882324,0.49885812401771545
1773146081224392000,1.014391845703125,0.5057834386825562,-9.792882919311523,0.11840710043907166
1773146081237403000,1.02740283203125,0.6146508455276489,-9.78445816040039,-0.23868867754936218
1773146081250413800,1.040413818359375,0.7367098927497864,-9.761889457702637,-0.5771967768669128
1773146081263424800,1.0534248046875,0.8485500812530518,-9.728728294372559,-0.8956508636474609
1773146081276436000,1.06643603515625,0.9439941644668579,-9.688135147094727,-1.1913474798202515
1773146081289447000,1.079447021484375,1.0358213186264038,-9.64114761352539,-1.4648314714431763
1773146081302457900,1.092457763671875,1.1396223306655884,-9.589619636535645,-1.7061229944229126
1773146081315468800,1.10546875,1.2686858177185059,-9.537250518798828,-1.8978019952774048
1773146081328479700,1.118479736328125,1.4296637773513794,-9.482048034667969,-2.0535850524902344
1773146081341491000,1.131490966796875,1.5999544858932495,-9.428683280944824,-2.170358896255493
1773146081354502000,1.144501953125,1.7669681310653687,-9.375885963439941,-2.2673721313476562
1773146081367512800,1.157512939453125,1.915794849395752,-9.323674201965332,-2.3599236011505127
1773146081380523800,1.170523681640625,2.0366756916046143,-9.274711608886719,-2.4499104022979736
1773146081393535000,1.183534912109375,2.1325902938842773,-9.230250358581543,-2.5347442626953125
1773146081406546000,1.1965458984375,2.2148685455322266,-9.187954902648926,-2.616530656814575
1773146081419556900,1.209556884765625,2.283115863800049,-9.147981643676758,-2.696699857711792
1773146081432567800,1.22256787109375,2.3400580883026123,-9.10870361328125,-2.7795732021331787
1773146081445578800,1.235578857421875,2.3895022869110107,-9.067156791687012,-2.871819019317627
1773146081458590000,1.24858984375,2.4276885986328125,-9.02382755279541,-2.974433660507202
1773146081471601000,1.261600830078125,2.454784631729126,-8.980422019958496,-3.081629991531372
1773146081484611800,1.27461181640625,2.4736506938934326,-8.939386367797852,-3.1841492652893066
1773146081497622800,1.287622802734375,2.5049378871917725,-8.891870498657227,-3.290942907333374
1773146081510633700,1.3006337890625,2.5551939010620117,-8.832655906677246,-3.4096274375915527
1773146081523645000,1.31364501953125,2.6060984134674072,-8.767130851745605,-3.5378026962280273
1773146081536656000,1.32665576171875,2.6530144214630127,-8.696850776672363,-3.6737844944000244
1773146081549666800,1.339666748046875,2.695216417312622,-8.621197700500488,-3.818526029586792
1773146081562677800,1.352677734375,2.6444177627563477,-8.570719718933105,-3.9648711681365967
1773146081575689000,1.36568896484375,2.5209035873413086,-8.511981010437012,-4.166727542877197
1773146081588700000,1.378699951171875,2.5864737033843994,-8.439709663391113,-4.272218227386475
1773146081601710800,1.3917109375,2.650817394256592,-8.40668773651123,-4.297806739807129
1773146081614721800,1.4047216796875,2.6404895782470703,-8.38940143585205,-4.337757110595703
1773146081627732700,1.417732666015625,2.485193967819214,-8.404115676879883,-4.400570869445801
1773146081640744000,1.430743896484375,2.186060905456543,-8.462484359741211,-4.447233200073242
1773146081653755000,1.4437548828125,1.8851515054702759,-8.551631927490234,-4.414316654205322
1773146081666765800,1.456765869140625,1.618730068206787,-8.670297622680664,-4.286726474761963
1773146081679776800,1.46977685546875,1.3794167041778564,-8.802946090698242,-4.09581995010376
1773146081692787700,1.48278759765625,1.1385526657104492,-8.933585166931152,-3.8813834190368652
1773146081705799000,1.495798828125,0.8568528890609741,-9.063029289245605,-3.6465988159179688
1773146081718809900,1.508809814453125,0.5556773543357849,-9.187786102294922,-3.383223533630371
1773146081731820800,1.52182080078125,0.31454944610595703,-9.291031837463379,-3.1222054958343506
1773146081744831700,1.534831787109375,0.16807368397712708,-9.366618156433105,-2.899759531021118
1773146081757842700,1.5478427734375,0.128645122051239,-9.4057035446167,-2.772470474243164
1773146081770854000,1.56085400390625,0.11657899618148804,-9.41231632232666,-2.7504706382751465
1773146081783864800,1.57386474609375,0.11810681223869324,-9.414820671081543,-2.7418227195739746
1773146081796875800,1.586875732421875,0.12400398403406143,-9.415882110595703,-2.7379140853881836
1773146081809886700,1.59988671875,0.1326793134212494,-9.41325855255127,-2.746513605117798
1773146081822898000,1.61289794921875,0.16159851849079132,-9.407902717590332,-2.7632665634155273
1773146081835908900,1.625908935546875,0.2240259200334549,-9.396627426147461,-2.797065496444702
1773146081848919800,1.638919921875,0.3012249171733856,-9.377744674682617,-2.8526406288146973
1773146081861930800,1.6519306640625,0.3721081614494324,-9.360875129699707,-2.8993008136749268
1773146081874941700,1.664941650390625,0.3973589241504669,-9.346335411071777,-2.942533016204834
1773146081887953000,1.677952880859375,0.4007824659347534,-9.338922500610352,-2.965515375137329
1773146081900963800,1.6909638671875,0.39444708824157715,-9.337396621704102,-2.9711642265319824
1773146081913974800,1.703974853515625,0.3530007004737854,-9.349698066711426,-2.937504529953003
1773146081926985700,1.71698583984375,0.2741967737674713,-9.388642311096191,-2.8193283081054688
1773146081939996700,1.72999658203125,0.20906992256641388,-9.431488990783691,-2.678377628326416
1773146081953007900,1.7430078125,0.13637685775756836,-9.451695442199707,-2.610980987548828
1773146081966018800,1.756018798828125,0.01717120222747326,-9.477375984191895,-2.519808292388916
1773146081979029800,1.76902978515625,-0.10972817987203598,-9.518771171569824,-2.3561301231384277
1773146081992040700,1.782040771484375,-0.20694340765476227,-9.560468673706055,-2.1737020015716553
1773146082005051600,1.7950517578125,-0.314398854970932,-9.607489585876465,-1.9410550594329834
1773146082018062800,1.808062744140625,-0.4252522885799408,-9.662464141845703,-1.6205989122390747
1773146082031073800,1.82107373046875,-0.5259829163551331,-9.713640213012695,-1.2405329942703247
1773146082044084700,1.834084716796875,-0.5654675960540771,-9.755487442016602,-0.825288712978363
1773146082057095700,1.847095703125,-0.5935570597648621,-9.780640602111816,-0.3964044153690338
1773146082070106600,1.860106689453125,-0.6372033953666687,-9.785834312438965,0.042338743805885315
1773146082083117800,1.873117919921875,-0.6551159024238586,-9.774348258972168,0.4509126543998718
1773146082096128800,1.886128662109375,-0.6597415208816528,-9.747477531433105,0.8495943546295166
1773146082109139700,1.8991396484375,-0.6424061059951782,-9.710488319396973,1.2100069522857666
1773146082122150700,1.912150634765625,-0.6124420166015625,-9.671587944030762,1.5018948316574097
1773146082135161600,1.92516162109375,-0.5774146914482117,-9.635809898376465,1.7286232709884644
1773146082148172800,1.9381728515625,-0.5270311236381531,-9.607667922973633,1.8934969902038574
1773146082161183700,1.951183837890625,-0.5022356510162354,-9.582923889160156,2.021312952041626
1773146082174194700,1.964194580078125,-0.48827189207077026,-9.570019721984863,2.0848770141601562
1773146082187205600,1.97720556640625,-0.48395735025405884,-9.575693130493164,2.0596792697906494
1773146082200216600,1.990216552734375,-0.5039852857589722,-9.58877182006836,1.9929447174072266
1773146082213227500,2.0032275390625,-0.5283592939376831,-9.603301048278809,1.9151623249053955
1773146082226238700,2.01623876953125,-0.5342568159103394,-9.61699390411377,1.8434745073318481
1773146082239249700,2.029249755859375,-0.5218085646629333,-9.630980491638184,1.7726569175720215
1773146082252260600,2.042260498046875,-0.4992271065711975,-9.645698547363281,1.6975423097610474
1773146082265271600,2.055271484375,-0.473613440990448,-9.662978172302246,1.604034423828125
1773146082278282800,2.06828271484375,-0.45337942242622375,-9.682648658752441,1.4869978427886963
1773146082291293700,2.081293701171875,-0.44308269023895264,-9.702616691589355,1.3539865016937256
1773146082304304600,2.0943046875,-0.4372478723526001,-9.721084594726562,1.2164305448532104
1773146082317315600,2.107315673828125,-0.42603233456611633,-9.736507415771484,1.0905518531799316
1773146082330326500,2.120326416015625,-0.412271112203598,-9.742164611816406,1.0443352460861206
1773146082343337500,2.13333740234375,-0.37765440344810486,-9.742740631103516,1.05203378200531
1773146082356348700,2.1463486328125,-0.37167325615882874,-9.750834465026855,0.9764639139175415
1773146082369359600,2.159359619140625,-0.38949054479599,-9.75848388671875,0.889198899269104
1773146082382370600,2.17237060546875,-0.4338902533054352,-9.765005111694336,0.7917102575302124
1773146082395381500,2.185381591796875,-0.4872756004333496,-9.768852233886719,0.7088507413864136
1773146082408392700,2.198392822265625,-0.5208885669708252,-9.771829605102539,0.6406383514404297
1773146082421403600,2.211403564453125,-0.5300728678703308,-9.775135040283203,0.5797716975212097
1773146082434414600,2.22441455078125,-0.5190586447715759,-9.77828598022461,0.5348717570304871
1773146082447425500,2.237425537109375,-0.504113495349884,-9.780497550964355,0.5080446004867554
1773146082460436500,2.2504365234375,-0.49868878722190857,-9.781143188476562,0.5009443759918213
1773146082473447700,2.26344775390625,-0.5050833821296692,-9.780647277832031,0.504188597202301
1773146082486458600,2.276458740234375,-0.5120794177055359,-9.779966354370117,0.5103261470794678
1773146082499469600,2.289469482421875,-0.5086763501167297,-9.780208587646484,0.5090657472610474
1773146082512480500,2.30248046875,-0.4891500771045685,-9.781668663024902,0.500075101852417
1773146082525491500,2.315491455078125,-0.45260488986968994,-9.784158706665039,0.48556914925575256
1773146082538502400,2.32850244140625,-0.42067456245422363,-9.786295890808105,0.47099027037620544
1773146082551513600,2.341513671875,-0.3934059143066406,-9.788336753845215,0.45175328850746155
1773146082564524500,2.354524658203125,-0.3611537516117096,-9.79097843170166,0.42037540674209595
1773146082577535500,2.367535400390625,-0.3237151801586151,-9.79392147064209,0.38041478395462036
1773146082590546400,2.38054638671875,-0.31460726261138916,-9.795543670654297,0.34456300735473633
1773146082603557400,2.393557373046875,-0.38089096546173096,-9.794527053833008,0.30421388149261475
1773146082616568600,2.406568603515625,-0.5067232251167297,-9.78995132446289,0.26542729139328003
1773146082629579500,2.41957958984375,-0.5613436698913574,-9.788081169128418,0.220831498503685
1773146082642590500,2.432590576171875,-0.5441577434539795,-9.789728164672852,0.1884104162454605
1773146082655601400,2.445601318359375,-0.48034781217575073,-9.793661117553711,0.1544647514820099
1773146082668612600,2.458612548828125,-0.4729854464530945,-9.794100761413574,0.14918464422225952
1773146082681623600,2.47162353515625,-0.4943820834159851,-9.793262481689453,0.13408836722373962
1773146082694634500,2.484634521484375,-0.5137286186218262,-9.792488098144531,0.11686873435974121
1773146082707645400,2.4976455078125,-0.5246825814247131,-9.792098045349121,0.09954140335321426
1773146082720656400,2.510656494140625,-0.5289003849029541,-9.792020797729492,0.0835307240486145
1773146082733667600,2.52366748046875,-0.529940664768219,-9.792078971862793,0.06890926510095596
1773146082746678500,2.536678466796875,-0.5302000045776367,-9.792136192321777,0.05776628106832504
1773146082759689500,2.549689453125,-0.5319705009460449,-9.792078971862793,0.0509147085249424
1773146082772700400,2.562700439453125,-0.5369647741317749,-9.791823387145996,0.04749571159482002
1773146082785711400,2.57571142578125,-0.5421333312988281,-9.791546821594238,0.04564545303583145
1773146082798722600,2.58872265625,-0.5473982691764832,-9.791257858276367,0.044718727469444275
1773146082811733500,2.6017333984375,-0.5517799854278564,-9.791008949279785,0.04556751251220703
1773146082824744400,2.614744384765625,-0.5555596351623535,-9.790776252746582,0.04953813925385475
1773146082837755400,2.62775537109375,-0.5591627955436707,-9.790531158447266,0.056863002479076385
1773146082850766300,2.640766357421875,-0.5645033121109009,-9.790162086486816,0.06663987040519714
1773146082863777300,2.65377734375,-0.5721725225448608,-9.78963565826416,0.07772107422351837
1773146082876788500,2.66678857421875,-0.5809622406959534,-9.789011001586914,0.09010526537895203
1773146082889799400,2.67979931640625,-0.5917686223983765,-9.78823471069336,0.10319076478481293
1773146082902810400,2.692810302734375,-0.603991687297821,-9.787345886230469,0.11592552810907364
1773146082915821300,2.7058212890625,-0.6173227429389954,-9.786364555358887,0.12791807949543
1773146082928832300,2.718832275390625,-0.6316958665847778,-9.785296440124512,0.13902314007282257
1773146082941843500,2.731843505859375,-0.6474408507347107,-9.784122467041016,0.14888206124305725
1773146082954854400,2.7448544921875,-0.6654986143112183,-9.782768249511719,0.15795199573040009
1773146082967865300,2.757865234375,-0.6858527660369873,-9.78121280670166,0.16694805026054382
1773146082980876300,2.770876220703125,-0.7088707089424133,-9.779409408569336,0.17616550624370575
1773146082993887200,2.78388720703125,-0.735567033290863,-9.777270317077637,0.1852053999900818
1773146083006898400,2.7968984375,-0.7668686509132385,-9.774706840515137,0.19336548447608948
1773146083019909400,2.809909423828125,-0.8035340309143066,-9.771604537963867,0.20118685066699982
1773146083032920300,2.82292041015625,-0.8462212085723877,-9.76783561706543,0.20900356769561768
1773146083045931300,2.83593115234375,-0.8954133987426758,-9.76327896118164,0.21681788563728333
1773146083058942200,2.848942138671875,-0.9532909393310547,-9.757627487182617,0.22435711324214935
1773146083071953400,2.861953369140625,-1.020251989364624,-9.750699043273926,0.2309650331735611
1773146083084964400,2.87496435546875,-1.0996116399765015,-9.741928100585938,0.23680436611175537
1773146083097975300,2.887975341796875,-1.1917415857315063,-9.730938911437988,0.24284492433071136
1773146083110986200,2.900986328125,-1.2981454133987427,-9.717106819152832,0.25108522176742554
1773146083123997200,2.9139970703125,-1.415408730506897,-9.700441360473633,0.2616308927536011
1773146083137008400,2.92700830078125,-1.5362062454223633,-9.6817045211792,0.2739674150943756
1773146083150019300,2.940019287109375,-1.6566444635391235,-9.661445617675781,0.286988228559494
1773146083163030300,2.9530302734375,-1.7740206718444824,-9.640213012695312,0.29920586943626404
1773146083176041200,2.966041259765625,-1.8905428647994995,-9.617731094360352,0.30897462368011475
1773146083189052200,2.97905224609375,-2.0057802200317383,-9.594133377075195,0.31596943736076355
1773146083202063400,2.9920634765625,-2.0889081954956055,-9.575912475585938,0.3297536373138428
1773146083215074300,3.00507421875,-2.155214786529541,-9.56112289428711,0.33217233419418335
1773146083228085200,3.018085205078125,-2.220776319503784,-9.547225952148438,0.29835015535354614
1773146083241096200,3.03109619140625,-2.240006685256958,-9.544248580932617,0.2451103776693344
1773146083254107100,3.044107177734375,-2.2211358547210693,-9.550190925598145,0.17549815773963928
1773146083267118300,3.057118408203125,-2.1834068298339844,-9.559995651245117,0.09799142181873322
1773146083280129300,3.07012939453125,-2.140418291091919,-9.570194244384766,0.019329026341438293
1773146083293140200,3.08314013671875,-2.1077158451080322,-9.577301025390625,-0.05673515424132347
1773146083306151200,3.096151123046875,-2.1014084815979004,-9.578119277954102,-0.11872349679470062
1773146083319162000,3.109162109375,-2.124208688735962,-9.572529792785645,-0.15753290057182312
1773146083332173300,3.12217333984375,-2.169773817062378,-9.562019348144531,-0.1739305555820465
1773146083345184300,3.135184326171875,-2.2243480682373047,-9.549541473388672,-0.17004123330116272
1773146083358195200,3.1481953125,-2.2729015350341797,-9.538344383239746,-0.15584897994995117
1773146083371206100,3.1612060546875,-2.305850028991699,-9.530627250671387,-0.14349208772182465
1773146083384217000,3.174217041015625,-2.321329355239868,-9.52686882019043,-0.14344091713428497
1773146083397228300,3.187228271484375,-2.316854238510132,-9.527641296386719,-0.1631544828414917
1773146083410239200,3.2002392578125,-2.2888736724853516,-9.533679008483887,-0.2010173201560974
1773146083423250200,3.213250244140625,-2.2348670959472656,-9.545309066772461,-0.25065290927886963
1773146083436261000,3.22626123046875,-2.1551575660705566,-9.562137603759766,-0.30200210213661194
1773146083449272000,3.23927197265625,-2.0530858039855957,-9.583093643188477,-0.3457527756690979
1773146083462283300,3.252283203125,-1.932440161705017,-9.606987953186035,-0.37663504481315613
1773146083475294200,3.265294189453125,-1.7990361452102661,-9.632174491882324,-0.39378678798675537
1773146083488305200,3.27830517578125,-1.657732367515564,-9.65712833404541,-0.4027113914489746
1773146083501316000,3.291316162109375,-1.5126781463623047,-9.68050479888916,-0.412311315536499
1773146083514327300,3.304327392578125,-1.367527723312378,-9.701390266418457,-0.42812544107437134
1773146083527338200,3.317338134765625,-1.2205498218536377,-9.720293045043945,-0.4433495104312897
1773146083540349200,3.33034912109375,-1.0700806379318237,-9.737397193908691,-0.4565039873123169
1773146083553360100,3.343360107421875,-0.9195678234100342,-9.752391815185547,-0.4643666446208954
1773146083566371000,3.35637109375,-0.7786492705345154,-9.764660835266113,-0.46422699093818665
1773146083579382000,3.369382080078125,-0.6567914485931396,-9.773964881896973,-0.45677649974823
1773146083592393200,3.382393310546875,-0.5605332255363464,-9.780789375305176,-0.4385741651058197
1773146083605404200,3.395404052734375,-0.4926489591598511,-9.785950660705566,-0.40356650948524475
1773146083618415000,3.4084150390625,-0.44529226422309875,-9.790384292602539,-0.347093403339386
1773146083631426000,3.421426025390625,-0.4136589765548706,-9.79436206817627,-0.26408106088638306
1773146083644437000,3.43443701171875,-0.38188549876213074,-9.797603607177734,-0.1775176227092743
1773146083657448200,3.4474482421875,-0.33779606223106384,-9.800378799438477,-0.09422069042921066
1773146083670459100,3.460459228515625,-0.2814334034919739,-9.802600860595703,-0.014075502753257751
1773146083683470000,3.473469970703125,-0.21676847338676453,-9.804045677185059,0.06389064341783524
1773146083696481000,3.48648095703125,-0.16026945412158966,-9.804390907287598,0.1364905834197998
1773146083709492200,3.4994921875,-0.11393558233976364,-9.803834915161133,0.20550671219825745
1773146083722503200,3.512503173828125,-0.07476707547903061,-9.802530288696289,0.27421239018440247
1773146083735514000,3.52551416015625,-0.037845492362976074,-9.800687789916992,0.33982977271080017
1773146083748525000,3.538525146484375,0.001531737158074975,-9.798441886901855,0.4011644721031189
1773146083761536000,3.551535888671875,0.04518883675336838,-9.795917510986328,0.45645788311958313
1773146083774547000,3.564546875,0.09252770990133286,-9.793222427368164,0.5045962333679199
1773146083787558100,3.57755810546875,0.14184044301509857,-9.790542602539062,0.5436341166496277
1773146083800569000,3.590569091796875,0.18838289380073547,-9.78812026977539,0.5723781585693359
1773146083813580000,3.603580078125,0.22773294150829315,-9.786150932312012,0.5914174318313599
1773146083826591000,3.616591064453125,0.25784432888031006,-9.784745216369629,0.6022085547447205
1773146083839602200,3.629602294921875,0.27758216857910156,-9.783923149108887,0.6067720055580139
1773146083852613000,3.642613037109375,0.28765279054641724,-9.783598899841309,0.6073278784751892
1773146083865624000,3.6556240234375,0.2904958128929138,-9.783625602722168,0.6055414080619812
1773146083878635000,3.668635009765625,0.28991439938545227,-9.783829689025879,0.6025025248527527
1773146083891646000,3.68164599609375,0.28783145546913147,-9.784133911132812,0.5985591411590576
1773146083904657200,3.6946572265625,0.2855251729488373,-9.784570693969727,0.5924691557884216
1773146083917668000,3.707668212890625,0.28453129529953003,-9.78514289855957,0.5834553241729736
1773146083930679000,3.720678955078125,0.2869710624217987,-9.785693168640137,0.5729231238365173
1773146083943690000,3.73368994140625,0.2911846339702606,-9.786249160766602,0.5611958503723145
1773146083956701000,3.746700927734375,0.2920742630958557,-9.787199020385742,0.5438799858093262
1773146083969712000,3.759712158203125,0.2846294641494751,-9.788263320922852,0.5284644961357117
1773146083982723000,3.77272314453125,0.2733047306537628,-9.789327621459961,0.5145558714866638
1773146083995734000,3.785734130859375,0.26610851287841797,-9.790162086486816,0.502286970615387
1773146084008745000,3.798744873046875,0.26564130187034607,-9.79066276550293,0.4926917254924774
1773146084021756000,3.811755859375,0.27088338136672974,-9.790882110595703,0.48541736602783203
1773146084034767000,3.82476708984375,0.27761197090148926,-9.790782928466797,0.4836125075817108
1773146084047778000,3.837778076171875,0.2806554138660431,-9.790422439575195,0.48913341760635376
1773146084060789000,3.8507890625,0.27331048250198364,-9.790243148803711,0.4968203008174896
1773146084073800000,3.863800048828125,0.24753998219966888,-9.790739059448242,0.5005390644073486
1773146084086811100,3.87681103515625,0.22326195240020752,-9.791528701782227,0.49649131298065186
1773146084099822000,3.889822021484375,0.20868922770023346,-9.792123794555664,0.4910615086555481
1773146084112833000,3.9028330078125,0.18619666993618011,-9.792820930480957,0.4861762225627899
1773146084125844000,3.915843994140625,0.12281119078397751,-9.793539047241211,0.4918181300163269
1773146084138855000,3.92885498046875,0.009812571108341217,-9.793323516845703,0.5109833478927612
1773146084151866000,3.9418662109375,-0.13119766116142273,-9.791729927062988,0.5245788097381592
1773146084164877000,3.954876953125,-0.2785843312740326,-9.78831672668457,0.5306838154792786
1773146084177888000,3.967887939453125,-0.3987334370613098,-9.783855438232422,0.5362517237663269
1773146084190899000,3.98089892578125,-0.47361230850219727,-9.780848503112793,0.5301799774169922
1773146084203910000,3.993909912109375,-0.5027875900268555,-9.780416488647461,0.5109238028526306
1773146084216921000,4.006921142578125,-0.4992813169956207,-9.781920433044434,0.4849109947681427
1773146084229932000,4.01993212890625,-0.4823310971260071,-9.784122467041016,0.45683661103248596
1773146084242943000,4.03294287109375,-0.4739350974559784,-9.78574275970459,0.4301275610923767
1773146084255954000,4.045953857421875,-0.4907795786857605,-9.785768508911133,0.41020211577415466
1773146084268964900,4.05896484375,-0.5342152118682861,-9.783934593200684,0.39954185485839844
1773146084281976000,4.07197607421875,-0.599107563495636,-9.780012130737305,0.4035065770149231
1773146084294987000,4.084987060546875,-0.680184543132782,-9.773683547973633,0.42758652567863464
1773146084307998000,4.097998046875,-0.7766120433807373,-9.764793395996094,0.4648316502571106
1773146084321009000,4.1110087890625,-0.8798967599868774,-9.754033088684082,0.5049837231636047
1773146084334020000,4.12402001953125,-0.9803016781806946,-9.74264907836914,0.5386960506439209
1773146084347031000,4.137031005859375,-1.0703644752502441,-9.732690811157227,0.5472102761268616
1773146084360042000,4.1500419921875,-1.144555687904358,-9.725174903869629,0.5304311513900757
1773146084373053000,4.163052978515625,-1.1982821226119995,-9.720319747924805,0.4999074339866638
1773146084386064000,4.17606396484375,-1.2368179559707642,-9.717114448547363,0.4672810137271881
1773146084399074800,4.18907470703125,-1.2681564092636108,-9.714519500732422,0.4362012445926666
1773146084412086000,4.2020859375,-1.2914196252822876,-9.712637901306152,0.4090099632740021
1773146084425097000,4.215096923828125,-1.3027684688568115,-9.712251663208008,0.3812345862388611
1773146084438108000,4.22810791015625,-1.3004240989685059,-9.713574409484863,0.35459959506988525
1773146084451118800,4.241118896484375,-1.2901620864868164,-9.715960502624512,0.325552374124527
1773146084464130000,4.254130126953125,-1.274784803390503,-9.71896743774414,0.2949545681476593
1773146084477141000,4.26714111328125,-1.2584078311920166,-9.72197151184082,0.26473286747932434
1773146084490152000,4.28015185546875,-1.2448358535766602,-9.724495887756348,0.2344113141298294
1773146084503163000,4.293162841796875,-1.2343486547470093,-9.726556777954102,0.20220494270324707
1773146084516173800,4.306173828125,-1.2262070178985596,-9.728272438049316,0.16583269834518433
1773146084529184800,4.319184814453125,-1.222082257270813,-9.729402542114258,0.12502944469451904
1773146084542196000,4.332196044921875,-1.226345181465149,-9.729323387145996,0.0821305587887764
1773146084555207000,4.34520703125,-1.2423878908157349,-9.72754955291748,0.040440402925014496
1773146084568217900,4.3582177734375,-1.2691673040390015,-9.724176406860352,0.002490968443453312
1773146084581228800,4.371228759765625,-1.3035932779312134,-9.719572067260742,-0.030451633036136627
1773146084594240000,4.384239990234375,-1.342371940612793,-9.714163780212402,-0.05881771817803383
1773146084607251000,4.3972509765625,-1.3851568698883057,-9.707964897155762,-0.08455061912536621
1773146084620262000,4.410261962890625,-1.4304777383804321,-9.701154708862305,-0.1082337275147438
1773146084633272800,4.42327294921875,-1.4765032529830933,-9.693979263305664,-0.1307813674211502
1773146084646283800,4.43628369140625,-1.5226744413375854,-9.686506271362305,-0.15318739414215088
1773146084659295000,4.449294921875,-1.5685771703720093,-9.678796768188477,-0.17563126981258392
1773146084672306000,4.462305908203125,-1.6146976947784424,-9.670774459838867,-0.19815261662006378
1773146084685316900,4.47531689453125,-1.6613701581954956,-9.662376403808594,-0.22076517343521118
1773146084698327800,4.488327880859375,-1.708412766456604,-9.653629302978516,-0.2432130128145218
1773146084711338800,4.5013388671875,-1.756577491760254,-9.644403457641602,-0.26513636112213135
1773146084724350000,4.514349853515625,-1.8066784143447876,-9.634571075439453,-0.28517910838127136
1773146084737361000,4.52736083984375,-1.8599916696548462,-9.623929023742676,-0.30134496092796326
1773146084750371800,4.540371826171875,-1.9169819355010986,-9.612383842468262,-0.3124668002128601
1773146084763382800,4.5533828125,-1.977023959159851,-9.600008964538574,-0.31871941685676575
1773146084776393700,4.566393798828125,-2.038687229156494,-9.587075233459473,-0.319572389125824
1773146084789404700,4.57940478515625,-2.099203109741211,-9.574216842651367,-0.3132372498512268
1773146084802415900,4.592415771484375,-2.1581194400787354,-9.56155014038086,-0.2994396388530731
1773146084815426800,4.6054267578125,-2.215763807296753,-9.549020767211914,-0.27745187282562256
1773146084828437800,4.618437744140625,-2.2684502601623535,-9.537453651428223,-0.24798712134361267
1773146084841448700,4.63144873046875,-2.3134706020355225,-9.527416229248047,-0.21581807732582092
1773146084854460000,4.6444599609375,-2.348829984664917,-9.519367218017578,-0.18714697659015656
1773146084867470800,4.657470947265625,-2.370797634124756,-9.514370918273926,-0.16263748705387115
1773146084880481800,4.670481689453125,-2.3789782524108887,-9.512703895568848,-0.13901127874851227
1773146084893492700,4.68349267578125,-2.379483222961426,-9.512554168701172,-0.14057286083698273
1773146084906503700,4.696503662109375,-2.3686001300811768,-9.514744758605957,-0.17246060073375702
1773146084919514600,4.7095146484375,-2.3351986408233643,-9.521956443786621,-0.22268444299697876
1773146084932525800,4.72252587890625,-2.2843263149261475,-9.532590866088867,-0.2863008975982666
1773146084945536800,4.735536865234375,-2.2298707962036133,-9.543024063110352,-0.3588000237941742
1773146084958547700,4.748547607421875,-2.177233934402466,-9.552435874938965,-0.4254496097564697
1773146084971558700,4.76155859375,-2.130056142807007,-9.560710906982422,-0.47544190287590027
1773146084984569600,4.774569580078125,-2.0899224281311035,-9.568277359008789,-0.5006828308105469
1773146084997580500,4.78758056640625,-2.0525596141815186,-9.576541900634766,-0.4972301125526428
1773146085010591700,4.800591796875,-2.0089826583862305,-9.587320327758789,-0.4665524959564209
1773146085023602700,4.813602783203125,-1.9528203010559082,-9.601222038269043,-0.416426420211792
1773146085036613600,4.826613525390625,-1.8788213729858398,-9.61823558807373,-0.36050671339035034
1773146085049624600,4.83962451171875,-1.7841516733169556,-9.637825012207031,-0.31546902656555176
1773146085062635800,4.8526357421875,-1.670587182044983,-9.65883731842041,-0.2939421236515045
1773146085075646700,4.865646728515625,-1.5383403301239014,-9.680583000183105,-0.3003503382205963
1773146085088657700,4.87865771484375,-1.3866229057312012,-9.702624320983887,-0.3266814947128296
1773146085101668600,4.891668701171875,-1.2167452573776245,-9.72435474395752,-0.3561502993106842
1773146085114679600,4.904679443359375,-1.0301381349563599,-9.745179176330566,-0.3750765323638916
1773146085127690800,4.917690673828125,-0.8347775936126709,-9.763700485229492,-0.37905460596084595
1773146085140701700,4.93070166015625,-0.6480522155761719,-9.778306007385254,-0.3676254153251648
1773146085153712600,4.943712646484375,-0.4953033924102783,-9.788359642028809,-0.33627578616142273
1773146085166723600,4.9567236328125,-0.3906829357147217,-9.794590950012207,-0.289381206035614
1773146085179734500,4.969734619140625,-0.326026052236557,-9.798467636108398,-0.2326747626066208
1773146085192745700,4.982745849609375,-0.2899271547794342,-9.800996780395508,-0.16370852291584015
1773146085205756700,4.995756591796875,-0.2687445878982544,-9.802547454833984,-0.09067251533269882
1773146085218767600,5.008767578125,-0.2496497929096222,-9.803462028503418,-0.013823731802403927
1773146085231778600,5.021778564453125,-0.22016356885433197,-9.803940773010254,0.06822724640369415
1773146085244789500,5.03478955078125,-0.18237407505512238,-9.8036527633667,0.1597701907157898
1773146085257800700,5.04780078125,-0.1436806619167328,-9.802386283874512,0.25093814730644226
1773146085270811600,5.060811767578125,-0.1049005538225174,-9.800271034240723,0.337748646736145
1773146085283822600,5.073822509765625,-0.06573856621980667,-9.797550201416016,0.4172183573246002
1773146085296833500,5.08683349609375,-0.024625951424241066,-9.794479370117188,0.48782482743263245
1773146085309844700,5.0998447265625,0.016661783680319786,-9.791050910949707,0.5526658296585083
1773146085322855700,5.112855712890625,0.05288735404610634,-9.78748607635498,0.6104863286018372
1773146085335866600,5.12586669921875,0.08045628666877747,-9.78414249420166,0.6591523885726929
1773146085348877600,5.138877685546875,0.0988323912024498,-9.781241416931152,0.6985178589820862
1773146085361888500,5.151888427734375,0.11196506768465042,-9.778801918029785,0.7299860119819641
1773146085374899500,5.1648994140625,0.1250341683626175,-9.776814460754395,0.7540887594223022
1773146085387910700,5.17791064453125,0.14118580520153046,-9.775277137756348,0.7709801197052002
1773146085400921600,5.190921630859375,0.16037066280841827,-9.774134635925293,0.7816339135169983
1773146085413932500,5.2039326171875,0.18062210083007812,-9.773385047912598,0.7865809798240662
1773146085426943500,5.216943603515625,0.19854427874088287,-9.773094177246094,0.7858687043190002
1773146085439954700,5.22995458984375,0.21153835952281952,-9.773331642150879,0.7795037031173706
1773146085452965600,5.242965576171875,0.21775798499584198,-9.774109840393066,0.7679509520530701
1773146085465976600,5.2559765625,0.2162320762872696,-9.775466918945312,0.7509179711341858
1773146085478987500,5.268987548828125,0.20618359744548798,-9.777409553527832,0.72809898853302
1773146085491998500,5.28199853515625,0.19040650129318237,-9.779891967773438,0.6984655857086182
1773146085505009700,5.295009765625,0.1762765496969223,-9.78268051147461,0.6621808409690857
1773146085518020600,5.3080205078125,0.1677512675523758,-9.785577774047852,0.6202548742294312
1773146085531031600,5.321031494140625,0.16121678054332733,-9.788578987121582,0.5728171467781067
1773146085544042500,5.33404248046875,0.14891232550144196,-9.79171371459961,0.5201420783996582
1773146085557053400,5.347053466796875,0.12884117662906647,-9.79472827911377,0.46592384576797485
1773146085570064600,5.360064697265625,0.10674025863409042,-9.797213554382324,0.4166717827320099
1773146085583075600,5.37307568359375,0.09243220835924149,-9.799129486083984,0.3726899325847626
1773146085596086500,5.38608642578125,0.08690346032381058,-9.800681114196777,0.33089983463287354
1773146085609097500,5.399097412109375,0.08258823305368423,-9.801963806152344,0.2916676104068756
1773146085622108700,5.412108642578125,0.07125246524810791,-9.803030967712402,0.2566954493522644
1773146085635119600,5.42511962890625,0.052177876234054565,-9.803954124450684,0.2239290028810501
1773146085648130600,5.438130615234375,0.02736235223710537,-9.804600715637207,0.19862651824951172
1773146085661141500,5.4511416015625,0.009799142368137836,-9.804702758789062,0.19520699977874756
1773146085674152400,5.46415234375,0.002946469932794571,-9.804206848144531,0.21888989210128784
1773146085687163600,5.47716357421875,-0.023955082520842552,-9.803264617919922,0.2565569281578064
1773146085700174600,5.490174560546875,-0.1066441759467125,-9.80179500579834,0.2895409166812897
1773146085713185500,5.503185546875,-0.2388119250535965,-9.798401832580566,0.32355132699012756
1773146085726196500,5.516196533203125,-0.38350728154182434,-9.792417526245117,0.3631301820278168
1773146085739207400,5.52920751953125,-0.5097787380218506,-9.785264015197754,0.3988875150680542
1773146085752218600,5.542218505859375,-0.6078174710273743,-9.778373718261719,0.42935624718666077
1773146085765229600,5.5552294921875,-0.6812033653259277,-9.772574424743652,0.45070865750312805
1773146085778240500,5.568240478515625,-0.7351512312889099,-9.768123626708984,0.46228331327438354
1773146085791251500,5.58125146484375,-0.7691606283187866,-9.765447616577148,0.4634701609611511
1773146085804262400,5.594262451171875,-0.7890640497207642,-9.764266967773438,0.4548078179359436
1773146085817273600,5.607273681640625,-0.8040111064910889,-9.763723373413086,0.4400599002838135
1773146085830284500,5.620284423828125,-0.8212125301361084,-9.762939453125,0.4254463016986847
1773146085843295500,5.63329541015625,-0.846709668636322,-9.761062622070312,0.41847530007362366
1773146085856306400,5.646306396484375,-0.8887740969657898,-9.757467269897461,0.4150875210762024
1773146085869317400,5.6593173828125,-0.9469419717788696,-9.751532554626465,0.42581841349601746
1773146085882328600,5.67232861328125,-1.017210602760315,-9.743368148803711,0.44993579387664795
1773146085895339500,5.685339599609375,-1.0935255289077759,-9.733959197998047,0.473949134349823
1773146085908350500,5.6983505859375,-1.172155737876892,-9.723861694335938,0.49290624260902405
1773146085921361400,5.711361328125,-1.2489384412765503,-9.713841438293457,0.5018240213394165
1773146085934372600,5.72437255859375,-1.3166711330413818,-9.704943656921387,0.5008453726768494
1773146085947383600,5.737383544921875,-1.3733530044555664,-9.697324752807617,0.4961451292037964
1773146085960394500,5.75039453125,-1.416182041168213,-9.691447257995605,0.4905811846256256
1773146085973405400,5.763405517578125,-1.443933367729187,-9.687788963317871,0.48187291622161865
1773146085986416400,5.77641650390625,-1.4534351825714111,-9.687026977539062,0.46842658519744873
1773146085999427300,5.78942724609375,-1.4492851495742798,-9.688426971435547,0.4520466923713684
1773146086012438500,5.8024384765625,-1.4386446475982666,-9.690771102905273,0.43547317385673523
1773146086025449500,5.815449462890625,-1.4279621839523315,-9.692999839782715,0.4207998514175415
1773146086038460400,5.82846044921875,-1.421380877494812,-9.694427490234375,0.41005152463912964
1773146086051471400,5.841471435546875,-1.4201812744140625,-9.694976806640625,0.40112078189849854
1773146086064482600,5.854482666015625,-1.4221700429916382,-9.695117950439453,0.3905232548713684
1773146086077493500,5.867493408203125,-1.4255815744400024,-9.695223808288574,0.3751513659954071
1773146086090504400,5.88050439453125,-1.4311161041259766,-9.695189476013184,0.3543853759765625
1773146086103515400,5.893515380859375,-1.4410274028778076,-9.694571495056152,0.33031797409057617
1773146086116526300,5.9065263671875,-1.4564789533615112,-9.693065643310547,0.3058161437511444
1773146086129537300,5.919537353515625,-1.4789764881134033,-9.69029426574707,0.28496602177619934
1773146086142548500,5.932548583984375,-1.5067583322525024,-9.686495780944824,0.2680986523628235
1773146086155559400,5.945559326171875,-1.5379539728164673,-9.681961059570312,0.2544049918651581
1773146086168570400,5.9585703125,-1.5726525783538818,-9.676600456237793,0.24610209465026855
1773146086181581300,5.971581298828125,-1.6109074354171753,-9.670402526855469,0.2422100454568863
1773146086194592300,5.98459228515625,-1.6517791748046875,-9.663548469543457,0.24054008722305298
1773146086207603500,5.997603515625,-1.69442880153656,-9.656168937683105,0.24021616578102112
1773146086220614400,6.010614501953125,-1.7366997003555298,-9.648622512817383,0.2415543794631958
1773146086233625300,6.023625244140625,-1.7757291793823242,-9.641446113586426,0.24428768455982208
1773146086246636300,6.03663623046875,-1.8097970485687256,-9.63493824005127,0.2509841024875641
1773146086259647200,6.049647216796875,-1.834821105003357,-9.630046844482422,0.2569581866264343
1773146086272658400,6.062658447265625,-1.8558342456817627,-9.62582015991211,0.26428186893463135
1773146086285669400,6.07566943359375,-1.8760017156600952,-9.621665000915527,0.2730647325515747
1773146086298680300,6.088680419921875,-1.8944703340530396,-9.617825508117676,0.28071820735931396
1773146086311691300,6.101691162109375,-1.9079372882843018,-9.61507797241211,0.2836351990699768
1773146086324702200,6.1147021484375,-1.9150749444961548,-9.6138334274292,0.27767351269721985
1773146086337713200,6.127713134765625,-1.9171651601791382,-9.613858222961426,0.26190057396888733
1773146086350724400,6.140724365234375,-1.9162260293960571,-9.614579200744629,0.24153642356395721
1773146086363735300,6.1537353515625,-1.9179431200027466,-9.614901542663574,0.21343198418617249
1773146086376746200,6.166746337890625,-1.9317067861557007,-9.613252639770508,0.1558091640472412
1773146086389757200,6.179757080078125,-1.9355578422546387,-9.61334228515625,0.08752572536468506
1773146086402768400,6.192768310546875,-1.915207028388977,-9.617783546447754,0.024996694177389145
1773146086415779300,6.205779296875,-1.880527138710022,-9.624571800231934,-0.04037849232554436
1773146086428790300,6.218790283203125,-1.8395713567733765,-9.631908416748047,-0.1127253994345665
1773146086441801200,6.23180126953125,-1.7954360246658325,-9.639159202575684,-0.18276479840278625
1773146086454812200,6.244812255859375,-1.7487436532974243,-9.646425247192383,-0.24243633449077606
1773146086467823000,6.257822998046875,-1.70440673828125,-9.65331745147705,-0.2808128595352173
1773146086480834300,6.270834228515625,-1.660119891166687,-9.660564422607422,-0.2964368760585785
1773146086493845200,6.28384521484375,-1.6104174852371216,-9.669127464294434,-0.2914111614227295
1773146086506856200,6.296856201171875,-1.5512380599975586,-9.679337501525879,-0.27291178703308105
1773146086519867100,6.3098671875,-1.4794584512710571,-9.691181182861328,-0.250177800655365
1773146086532878000,6.322878173828125,-1.3930988311767578,-9.70444393157959,-0.2311517745256424
1773146086545889300,6.33588916015625,-1.28981614112854,-9.71890640258789,-0.22271621227264404
1773146086558900200,6.348900146484375,-1.1686784029006958,-9.734098434448242,-0.22780266404151917
1773146086571911200,6.3619111328125,-1.0285067558288574,-9.749465942382812,-0.24591906368732452
1773146086584922000,6.374922119140625,-0.8686892986297607,-9.764230728149414,-0.27489301562309265
1773146086597933000,6.38793310546875,-0.689102828502655,-9.777531623840332,-0.3088659346103668
1773146086610944300,6.4009443359375,-0.49470946192741394,-9.788457870483398,-0.3342854380607605
1773146086623955200,6.413955078125,-0.2904949486255646,-9.7960786819458,-0.3504659831523895
1773146086636966100,6.426966064453125,-0.0805845707654953,-9.799715995788574,-0.35979464650154114
1773146086649977000,6.43997705078125,0.12411678582429886,-9.79903507232666,-0.365926057100296
1773146086662988300,6.45298828125,0.3041883409023285,-9.79531478881836,-0.3600974380970001
1773146086675999200,6.465999267578125,0.44338083267211914,-9.790698051452637,-0.3406141996383667
1773146086689010200,6.47901025390625,0.5352009534835815,-9.787280082702637,-0.3051009476184845
1773146086702021000,6.492021240234375,0.5862776637077332,-9.785890579223633,-0.25100404024124146
1773146086715032000,6.505031982421875,0.6091943979263306,-9.785964965820312,-0.1848195642232895
1773146086728043300,6.518043212890625,0.6119585037231445,-9.786959648132324,-0.10634106397628784
1773146086741054200,6.53105419921875,0.605175256729126,-9.787935256958008,-0.02176487259566784
1773146086754065200,6.544065185546875,0.6014693379402161,-9.787967681884766,0.06564382463693619
1773146086767076000,6.557076171875,0.6075795888900757,-9.786625862121582,0.15232323110103607
1773146086780087000,6.570087158203125,0.6258671283721924,-9.783890724182129,0.23271410167217255
1773146086793098000,6.583097900390625,0.6528822183609009,-9.780159950256348,0.3043108880519867
1773146086806109200,6.596109130859375,0.6890590190887451,-9.775574684143066,0.3656996786594391
1773146086819120000,6.6091201171875,0.7272409200668335,-9.770759582519531,0.41684308648109436
1773146086832131000,6.622131103515625,0.7622570991516113,-9.766185760498047,0.4592917263507843
1773146086845142000,6.63514208984375,0.7921116948127747,-9.76207447052002,0.49482741951942444
1773146086858153200,6.6481533203125,0.8178955912590027,-9.75832748413086,0.5258089900016785
1773146086871164200,6.6611640625,0.8408552408218384,-9.754828453063965,0.5537738800048828
1773146086884175000,6.674175048828125,0.8587780594825745,-9.751870155334473,0.5778505206108093
1773146086897186000,6.68718603515625,0.8701329231262207,-9.749625205993652,0.5983949303627014
1773146086910197200,6.700197265625,0.875959038734436,-9.748037338256836,0.615516185760498
1773146086923208200,6.713208251953125,0.8767289519309998,-9.747119903564453,0.6288008093833923
1773146086936219100,6.72621923828125,0.8713923692703247,-9.747064590454102,0.6370289921760559
1773146086949230000,6.73922998046875,0.8595777153968811,-9.74795150756836,0.6395044326782227
1773146086962241000,6.752240966796875,0.8403463363647461,-9.749835968017578,0.6363248229026794
1773146086975252200,6.765252197265625,0.81368488073349,-9.752694129943848,0.6270930767059326
1773146086988263200,6.77826318359375,0.7797569632530212,-9.756474494934082,0.6112136244773865
1773146087001274000,6.791274169921875,0.7402464151382446,-9.760927200317383,0.5888280272483826
1773146087014285000,6.80428515625,0.6974692344665527,-9.765691757202148,0.5614074468612671
1773146087027296000,6.8172958984375,0.6538029909133911,-9.770426750183105,0.53075110912323
1773146087040307000,6.830306884765625,0.6102576851844788,-9.774993896484375,0.4974636733531952
1773146087053318100,6.843318115234375,0.5663512945175171,-9.779367446899414,0.46218568086624146
1773146087066329000,6.8563291015625,0.521356999874115,-9.783520698547363,0.4258022606372833
1773146087079340000,6.869340087890625,0.4776100814342499,-9.787190437316895,0.39138275384902954
1773146087092351000,6.88235107421875,0.43963494896888733,-9.79017448425293,0.35999825596809387
1773146087105362200,6.895362060546875,0.4108618199825287,-9.792479515075684,0.3300531208515167
1773146087118373000,6.908373046875,0.39123404026031494,-9.794207572937012,0.3013887107372284
1773146087131384000,6.921384033203125,0.37234604358673096,-9.795653343200684,0.27735647559165955
1773146087144395000,6.93439501953125,0.3464164733886719,-9.796854972839355,0.2683556377887726
1773146087157406000,6.947406005859375,0.32863572239875793,-9.79718017578125,0.2786523401737213
1773146087170417200,6.960417236328125,0.30792441964149475,-9.797247886657715,0.2991519570350647
1773146087183428000,6.973427978515625,0.27037471532821655,-9.797736167907715,0.3188170790672302
1773146087196439000,6.98643896484375,0.2056177407503128,-9.798468589782715,0.34368064999580383
1773146087209450000,6.999449951171875,0.11865092813968658,-9.79893684387207,0.370329350233078
1773146087222461200,7.012461181640625,0.02794562466442585,-9.798869132995605,0.3895697593688965
1773146087235472100,7.02547216796875,-0.051825281232595444,-9.797740936279297,0.41470614075660706
1773146087248483000,7.038483154296875,-0.11414891481399536,-9.796074867248535,0.44078853726387024
1773146087261494000,7.051493896484375,-0.15559121966362,-9.79476261138916,0.45695388317108154
1773146087274505000,7.0645048828125,-0.17809388041496277,-9.794380187988281,0.4569284915924072
1773146087287516200,7.07751611328125,-0.1872241199016571,-9.795001029968262,0.4396522641181946
1773146087300527000,7.090527099609375,-0.1827414333820343,-9.796388626098633,0.40960076451301575
1773146087313538000,7.1035380859375,-0.17164093255996704,-9.797995567321777,0.37443864345550537
1773146087326549000,7.116549072265625,-0.1654869168996811,-9.799310684204102,0.34133288264274597
1773146087339560000,7.129559814453125,-0.1665102243423462,-9.800137519836426,0.31619027256965637
1773146087352571100,7.142571044921875,-0.1791241317987442,-9.800259590148926,0.30531665682792664
1773146087365582000,7.15558203125,-0.2050207406282425,-9.79953670501709,0.3121242821216583
1773146087378593000,7.168593017578125,-0.24935920536518097,-9.797688484191895,0.3369135856628418
1773146087391604000,7.18160400390625,-0.3149468004703522,-9.794365882873535,0.3762872517108917
1773146087404615000,7.194614990234375,-0.39582571387290955,-9.78955364227295,0.42230597138404846
1773146087417626000,7.207626220703125,-0.47769275307655334,-9.783970832824707,0.46488508582115173
1773146087430637000,7.220636962890625,-0.5509493947029114,-9.77841854095459,0.49937328696250916
1773146087443648000,7.23364794921875,-0.6084842085838318,-9.773841857910156,0.5216796398162842
1773146087456659000,7.246658935546875,-0.651136577129364,-9.770655632019043,0.5298065543174744
1773146087469670000,7.259669921875,-0.6875929236412048,-9.768540382385254,0.5227088928222656
1773146087482681000,7.27268115234375,-0.7251150608062744,-9.766937255859375,0.501530110836029
1773146087495692000,7.285692138671875,-0.7605341076850891,-9.7658109664917,0.47000598907470703
1773146087508703000,7.298702880859375,-0.7857662439346313,-9.765547752380371,0.4324610233306885
1773146087521714000,7.3117138671875,-0.7989504337310791,-9.766104698181152,0.3940565288066864
1773146087534725000,7.32472509765625,-0.8014920949935913,-9.76728630065918,0.3579534590244293
1773146087547736000,7.337736083984375,-0.7964320778846741,-9.7688570022583,0.3248237073421478
1773146087560747000,7.3507470703125,-0.7859616875648499,-9.77064037322998,0.2953971326351166
1773146087573758000,7.363758056640625,-0.7725985646247864,-9.772459983825684,0.26926493644714355
1773146087586769000,7.376768798828125,-0.7587597370147705,-9.774203300476074,0.24417759478092194
1773146087599780000,7.389780029296875,-0.747026264667511,-9.77573299407959,0.217685729265213
1773146087612791000,7.402791015625,-0.7397510409355164,-9.776863098144531,0.19001004099845886
1773146087625802000,7.415802001953125,-0.7383177876472473,-9.777457237243652,0.16308756172657013
1773146087638813000,7.42881298828125,-0.7445589900016785,-9.777365684509277,0.1384003460407257
1773146087651823900,7.441823974609375,-0.7598270177841187,-9.776457786560059,0.1180250272154808
1773146087664835000,7.4548349609375,-0.7828583717346191,-9.774811744689941,0.10281342267990112
1773146087677846000,7.467845947265625,-0.8109967708587646,-9.772632598876953,0.09113790094852448
1773146087690857000,7.48085693359375,-0.8414217233657837,-9.770143508911133,0.08181346207857132
1773146087703868000,7.493867919921875,-0.8719401955604553,-9.76751708984375,0.0756157785654068
1773146087716878800,7.50687890625,-0.9007079005241394,-9.764965057373047,0.06760020554065704
1773146087729890000,7.51989013671875,-0.9261541366577148,-9.76263427734375,0.059993285685777664
1773146087742901000,7.53290087890625,-0.9517034888267517,-9.760200500488281,0.055857714265584946
1773146087755912000,7.545911865234375,-0.9775166511535645,-9.757670402526855,0.05200713500380516
1773146087768923000,7.5589228515625,-1.002587914466858,-9.755143165588379,0.04885157197713852
1773146087781933800,7.571933837890625,-1.0265369415283203,-9.752660751342773,0.04714164510369301
1773146087794945000,7.584945068359375,-1.0483766794204712,-9.750341415405273,0.046243295073509216
1773146087807956000,7.5979560546875,-1.0668647289276123,-9.748336791992188,0.0460975207388401
1773146087820967000,7.610966796875,-1.0829094648361206,-9.746565818786621,0.04629223421216011
1773146087833977900,7.623977783203125,-1.0980385541915894,-9.744873046875,0.04645894467830658
1773146087846988800,7.63698876953125,-1.1135435104370117,-9.743115425109863,0.046022649854421616
1773146087860000000,7.65,-1.1298161745071411,-9.741241455078125,0.046146247535943985
1773146087873011000,7.663010986328125,-1.1466485261917114,-9.73926830291748,0.04739563539624214
1773146087886022000,7.67602197265625,-1.164055585861206,-9.737187385559082,0.050448909401893616
1773146087899032800,7.68903271484375,-1.1816725730895996,-9.735044479370117,0.05432618409395218
1773146087912043800,7.702043701171875,-1.1991814374923706,-9.732892990112305,0.056291308254003525
1773146087925055000,7.715054931640625,-1.2176179885864258,-9.730594635009766,0.057714805006980896
1773146087938066000,7.72806591796875,-1.237614393234253,-9.728067398071289,0.058327481150627136
1773146087951076900,7.741076904296875,-1.2588331699371338,-9.725345611572266,0.05816003307700157
1773146087964087800,7.754087890625,-1.2799197435379028,-9.72259521484375,0.0576205812394619
1773146087977099000,7.76709912109375,-1.3004364967346191,-9.719878196716309,0.056674517691135406
1773146087990110000,7.78010986328125,-1.3199046850204468,-9.71726131439209,0.055379584431648254
1773146088003121000,7.793120849609375,-1.3390977382659912,-9.71465015411377,0.05279708653688431
1773146088016131800,7.8061318359375,-1.3583934307098389,-9.711990356445312,0.0489254891872406
1773146088029142800,7.819142822265625,-1.3778045177459717,-9.709271430969238,0.04589204862713814
1773146088042154000,7.832154052734375,-1.3976727724075317,-9.706430435180664,0.04597833752632141
1773146088055165000,7.8451650390625,-1.419272780418396,-9.703269958496094,0.05110236629843712
1773146088068176000,7.85817578125,-1.4457446336746216,-9.69930362701416,0.06087317690253258
1773146088081186800,7.871186767578125,-1.4792245626449585,-9.694168090820312,0.07348186522722244
1773146088094197800,7.88419775390625,-1.5205345153808594,-9.687665939331055,0.08663097769021988
1773146088107209000,7.897208984375,-1.5690271854400635,-9.679810523986816,0.0989605113863945
1773146088120220000,7.910219970703125,-1.6215602159500122,-9.67103385925293,0.1096998080611229
1773146088133230800,7.92323095703125,-1.6747334003448486,-9.661863327026367,0.11858527362346649
1773146088146241800,7.93624169921875,-1.7266193628311157,-9.652626991271973,0.12636850774288177
1773146088159252700,7.949252685546875,-1.7753620147705078,-9.643656730651855,0.1354881227016449
1773146088172264000,7.962263916015625,-1.8179826736450195,-9.635547637939453,0.14679069817066193
1773146088185275000,7.97527490234375,-1.852640986442566,-9.628727912902832,0.16035155951976776
1773146088198285800,7.988285888671875,-1.8785613775253296,-9.623510360717773,0.17161034047603607
1773146088211296800,8.001296875,-1.8938711881637573,-9.620499610900879,0.17212752997875214
1773146088224308000,8.014307861328126,-1.8985224962234497,-9.619843482971191,0.1567869335412979
1773146088237319000,8.02731884765625,-1.8949761390686035,-9.62106704711914,0.12051554024219513
1773146088250329900,8.040329833984375,-1.884257197380066,-9.623700141906738,0.06595876812934875
1773146088263340800,8.0533408203125,-1.8682639598846436,-9.627042770385742,0.0045409901067614555
1773146088276351700,8.066351806640625,-1.851388931274414,-9.630156517028809,-0.05337946489453316
1773146088289363000,8.079363037109376,-1.836195945739746,-9.632675170898438,-0.10175452381372452
1773146088302374000,8.092373779296874,-1.8231008052825928,-9.634716033935547,-0.1376638114452362
1773146088315384800,8.105384765625,-1.8121287822723389,-9.636420249938965,-0.1611860692501068
1773146088328395800,8.118395751953125,-1.8022499084472656,-9.63805866241455,-0.17349791526794434
1773146088341407000,8.131406982421876,-1.791115641593933,-9.640101432800293,-0.17535361647605896
1773146088354418000,8.14441796875,-1.7770699262619019,-9.64281940460205,-0.16863469779491425
1773146088367428900,8.157428955078124,-1.7611031532287598,-9.645954132080078,-0.1564726084470749
1773146088380439800,8.170439697265625,-1.7475039958953857,-9.648627281188965,-0.14355692267417908
1773146088393450800,8.18345068359375,-1.738526701927185,-9.650368690490723,-0.13527250289916992
1773146088406462000,8.1964619140625,-1.7334890365600586,-9.651311874389648,-0.13262416422367096
1773146088419473000,8.209472900390624,-1.730729341506958,-9.651798248291016,-0.13323353230953217
1773146088432483800,8.22248388671875,-1.7288076877593994,-9.65213394165039,-0.13378900289535522
1773146088445494800,8.235494873046875,-1.7269048690795898,-9.652507781982422,-0.13144232332706451
1773146088458505700,8.248505615234375,-1.7238410711288452,-9.6531400680542,-0.1250988394021988
1773146088471517000,8.261516845703126,-1.71799898147583,-9.654302597045898,-0.11532866954803467
1773146088484527900,8.27452783203125,-1.7078217267990112,-9.656250953674316,-0.10268721729516983
1773146088497538800,8.287538818359375,-1.69338858127594,-9.658934593200684,-0.08835869282484055
1773146088510549800,8.3005498046875,-1.6750091314315796,-9.662261962890625,-0.07366661727428436
1773146088523560700,8.313560791015625,-1.652180552482605,-9.666279792785645,-0.06113024428486824
1773146088536572000,8.326572021484376,-1.6258352994918823,-9.670795440673828,-0.052610863000154495
1773146088549582800,8.339582763671874,-1.5952051877975464,-9.675909042358398,-0.04990394786000252
1773146088562593800,8.35259375,-1.5596511363983154,-9.681683540344238,-0.05361727997660637
1773146088575604700,8.365604736328125,-1.519273281097412,-9.688041687011719,-0.06358948349952698
1773146088588616000,8.378615966796875,-1.4725128412246704,-9.695141792297363,-0.07950851321220398
1773146088601627000,8.391626953125,-1.4173429012298584,-9.703205108642578,-0.09669316560029984
1773146088614637800,8.404637939453124,-1.3533544540405273,-9.712183952331543,-0.1109078899025917
1773146088627648800,8.417648681640625,-1.2807215452194214,-9.721901893615723,-0.12159094214439392
1773146088640659700,8.43065966796875,-1.2029186487197876,-9.731772422790527,-0.12638676166534424
1773146088653671000,8.4436708984375,-1.1213312149047852,-9.741525650024414,-0.1252070665359497
1773146088666681900,8.456681884765626,-1.0388880968093872,-9.750811576843262,-0.11298403143882751
1773146088679692800,8.46969287109375,-0.9594669938087463,-9.759156227111816,-0.09317369759082794
1773146088692703700,8.482703857421875,-0.8844532370567322,-9.766474723815918,-0.06407162547111511
1773146088705715000,8.49571484375,-0.8194399476051331,-9.772323608398438,-0.02488929219543934
1773146088718726000,8.508725830078125,-0.7600610852241516,-9.777129173278809,0.021097900345921516
1773146088731736800,8.52173681640625,-0.7039812207221985,-9.781078338623047,0.07285348325967789
1773146088744747800,8.534747802734374,-0.64705890417099,-9.78441047668457,0.1304440051317215
1773146088757758700,8.5477587890625,-0.586759090423584,-9.787175178527832,0.19316045939922333
1773146088770769700,8.560769775390625,-0.5231913924217224,-9.789274215698242,0.25839340686798096
1773146088783780900,8.57378076171875,-0.45609724521636963,-9.790647506713867,0.3249303698539734
1773146088796791800,8.586791748046876,-0.3906354010105133,-9.790937423706055,0.3941153883934021
1773146088809802800,8.599802734375,-0.3326278626918793,-9.790421485900879,0.45541584491729736
1773146088822813700,8.612813720703125,-0.28408074378967285,-9.78948974609375,0.5055580139160156
1773146088835825000,8.625824951171875,-0.2450481504201889,-9.78819751739502,0.5491055250167847
1773146088848835800,8.6388359375,-0.2144828587770462,-9.786799430847168,0.5856152176856995
1773146088861846800,8.6518466796875,-0.19098158180713654,-9.785490036010742,0.6148920059204102
1773146088874857700,8.664857666015624,-0.17217198014259338,-9.784416198730469,0.6371389627456665
1773146088887868700,8.67786865234375,-0.15703336894512177,-9.783658027648926,0.6525101065635681
1773146088900880000,8.6908798828125,-0.15255561470985413,-9.782916069030762,0.6645770072937012
1773146088913890800,8.703890869140626,-0.1543802171945572,-9.782684326171875,0.6675599217414856
1773146088926901800,8.71690185546875,-0.16406898200511932,-9.78278923034668,0.66370689868927
1773146088939912700,8.72991259765625,-0.18081198632717133,-9.783114433288574,0.6544930338859558
1773146088952924000,8.742923828125,-0.20735013484954834,-9.783535957336426,0.6401822566986084
1773146088965934800,8.755934814453125,-0.24566444754600525,-9.783912658691406,0.6205362677574158
1773146088978945800,8.76894580078125,-0.3021247088909149,-9.78389835357666,0.5953458547592163
1773146088991956700,8.781956787109374,-0.3823186755180359,-9.782811164855957,0.5664223432540894
1773146089004967700,8.7949677734375,-0.4693165123462677,-9.78094482421875,0.5322209596633911
1773146089017979000,8.807978759765625,-0.5293229222297668,-9.77962875366211,0.49907082319259644
1773146089030989800,8.82098974609375,-0.558580219745636,-9.77956485748291,0.4674316942691803
1773146089044000800,8.834000732421876,-0.5840604901313782,-9.779414176940918,0.43854737281799316
1773146089057011700,8.84701171875,-0.6149318814277649,-9.778693199157715,0.411601722240448
1773146089070023000,8.86002294921875,-0.6491317749023438,-9.77752685546875,0.3859976530075073
1773146089083033900,8.873033935546875,-0.6830565333366394,-9.776289939880371,0.35775741934776306
1773146089096044800,8.886044921875,-0.718070924282074,-9.774930953979492,0.3247931897640228
1773146089109055700,8.8990556640625,-0.7370031476020813,-9.77392864227295,0.3123270571231842
1773146089122066700,8.912066650390624,-0.7378430366516113,-9.774603843688965,0.2882291376590729
1773146089135078000,8.925077880859375,-0.7336426377296448,-9.776288032531738,0.23736968636512756
1773146089148088800,8.9380888671875,-0.7208091616630554,-9.777783393859863,0.21395021677017212
1773146089161099800,8.951099853515625,-0.6479215025901794,-9.78283977508545,0.21593070030212402
1773146089174110700,8.96411083984375,-0.5865448713302612,-9.786764144897461,0.21354122459888458
1773146089187122000,8.977121826171874,-0.6030583381652832,-9.785748481750488,0.21407581865787506
1773146089200132900,8.9901328125,-0.6688428521156311,-9.781371116638184,0.21863019466400146
1773146089213143800,9.003143798828125,-0.7546993494033813,-9.774788856506348,0.23307405412197113
1773146089226154800,9.01615478515625,-0.8366605639457703,-9.767425537109375,0.26036399602890015
1773146089239165700,9.029165771484376,-0.8992761969566345,-9.760701179504395,0.30069631338119507
1773146089252176600,9.0421767578125,-0.9445668458938599,-9.754616737365723,0.3544614017009735
1773146089265187800,9.055187744140625,-0.9817419052124023,-9.748454093933105,0.4174056053161621
1773146089278198800,9.06819873046875,-1.0214906930923462,-9.741260528564453,0.4845622181892395
1773146089291209700,9.081209716796875,-1.067657232284546,-9.732888221740723,0.548988401889801
1773146089304220700,9.094220703125,-1.120775580406189,-9.723162651062012,0.6118349432945251
1773146089317231900,9.10723193359375,-1.1712087392807007,-9.712839126586914,0.6777944564819336
1773146089330242800,9.120242919921875,-1.2224727869033813,-9.702868461608887,0.7282149195671082
1773146089343253800,9.133253662109375,-1.2732927799224854,-9.69397258758545,0.7589511275291443
1773146089356264700,9.1462646484375,-1.3204799890518188,-9.68682861328125,0.7694606184959412
1773146089369275600,9.159275634765624,-1.3639576435089111,-9.680878639221191,0.7685057520866394
1773146089382286800,9.172286865234375,-1.4019417762756348,-9.675549507141113,0.767254114151001
1773146089395297800,9.1852978515625,-1.4293584823608398,-9.671049118041992,0.7733940482139587
1773146089408308700,9.198308837890625,-1.4475975036621094,-9.667325973510742,0.7859188914299011
1773146089421319700,9.211319580078126,-1.4612133502960205,-9.66357421875,0.8065897822380066
1773146089434331000,9.224330810546874,-1.471545934677124,-9.660367965698242,0.8259714245796204
1773146089447341800,9.237341796875,-1.4805736541748047,-9.657318115234375,0.8452785611152649
1773146089460352800,9.250352783203125,-1.4882240295410156,-9.654650688171387,0.8621569871902466
1773146089473363700,9.26336376953125,-1.5017235279083252,-9.65103816986084,0.8790121078491211
1773146089486374700,9.276374755859376,-1.5224703550338745,-9.647252082824707,0.8848711848258972
1773146089499385600,9.289385498046874,-1.5419999361038208,-9.645682334899902,0.8680051565170288
1773146089512396800,9.302396728515625,-1.5535845756530762,-9.646045684814453,0.842939019203186
1773146089525407700,9.31540771484375,-1.573367714881897,-9.646126747131348,0.8044559955596924
1773146089538418700,9.328418701171875,-1.5838510990142822,-9.647544860839844,0.7659539580345154
1773146089551429600,9.3414296875,-1.5738693475723267,-9.650389671325684,0.7505353689193726
1773146089564440800,9.35444091796875,-1.5480999946594238,-9.6544771194458,0.7515708804130554
1773146089577451800,9.36745166015625,-1.5158342123031616,-9.659429550170898,0.7537003755569458
1773146089590462700,9.380462646484375,-1.4918736219406128,-9.663043975830078,0.7551758885383606
1773146089603473700,9.3934736328125,-1.4725098609924316,-9.665810585021973,0.7577745318412781
1773146089616484600,9.406484619140626,-1.4525094032287598,-9.668763160705566,0.7587050795555115
1773146089629495800,9.419495849609374,-1.426011562347412,-9.673432350158691,0.749407947063446
1773146089642506800,9.4325068359375,-1.3871009349822998,-9.68147087097168,0.717965304851532
1773146089655517700,9.445517578125,-1.3400397300720215,-9.69212818145752,0.6613197922706604
1773146089668528600,9.458528564453125,-1.2875418663024902,-9.704102516174316,0.5856807827949524
1773146089681539600,9.47153955078125,-1.2323287725448608,-9.715677261352539,0.5073187947273254
1773146089694550800,9.48455078125,-1.1712121963500977,-9.72742748260498,0.41929128766059875
1773146089707561700,9.497561767578125,-1.1253817081451416,-9.736034393310547,0.3369496464729309
1773146089720572700,9.51057275390625,-1.0919831991195679,-9.742305755615234,0.25581082701683044
1773146089733583600,9.52358349609375,-1.066612958908081,-9.746774673461914,0.18197469413280487
1773146089746594600,9.536594482421876,-1.0396453142166138,-9.750624656677246,0.12183208018541336
1773146089759605800,9.549605712890624,-1.0070430040359497,-9.75452995300293,0.0734826847910881
1773146089772616700,9.56261669921875,-0.9648981094360352,-9.759025573730469,0.027692092582583427
1773146089785627600,9.575627685546875,-0.9162151217460632,-9.763744354248047,-0.015785032883286476
1773146089798638600,9.588638671875,-0.8666921257972717,-9.768097877502441,-0.059062276035547256
1773146089811649800,9.60164990234375,-0.813513994216919,-9.772384643554688,-0.09525041282176971
1773146089824660700,9.61466064453125,-0.7411977052688599,-9.777623176574707,-0.138132244348526
1773146089837671700,9.627671630859375,-0.6320443749427795,-9.784701347351074,-0.17473912239074707
1773146089850682600,9.6406826171875,-0.4989091455936432,-9.791336059570312,-0.2263142466545105
1773146089863693600,9.653693603515626,-0.33284205198287964,-9.796812057495117,-0.28646519780158997
1773146089876704500,9.66670458984375,-0.13848648965358734,-9.79959487915039,-0.3452106714248657
1773146089889715700,9.6797158203125,0.1185150071978569,-9.797346115112305,-0.41030165553092957
1773146089902726700,9.6927265625,0.42437851428985596,-9.784526824951172,-0.5033127069473267
1773146089915737600,9.705737548828125,0.7475429773330688,-9.757067680358887,-0.6412453651428223
1773146089928748500,9.71874853515625,1.087698221206665,-9.709390640258789,-0.8455860018730164
1773146089941759700,9.731759765625,1.4931819438934326,-9.625402450561523,-1.1368446350097656
1773146089954770700,9.744770751953125,1.8637083768844604,-9.522686958312988,-1.4196546077728271
1773146089967781600,9.75778173828125,2.1206164360046387,-9.421394348144531,-1.7060743570327759
1773146089980792600,9.77079248046875,2.3439788818359375,-9.30362319946289,-2.0294718742370605
1773146089993803500,9.783803466796876,2.463484048843384,-9.195294380187988,-2.355458974838257
1773146090006814700,9.796814697265624,2.6406235694885254,-9.079314231872559,-2.6006832122802734
1773146090019825700,9.80982568359375,2.900097370147705,-8.958505630493164,-2.7395246028900146
1773146090032836600,9.822836669921875,3.192603826522827,-8.845344543457031,-2.781644582748413
1773146090045847600,9.83584765625,3.5336673259735107,-8.733993530273438,-2.7204649448394775
1773146090058858800,9.848858642578126,3.921103000640869,-8.622208595275879,-2.540248155593872
1773146090071869700,9.86186962890625,4.317682266235352,-8.506053924560547,-2.2748751640319824
1773146090084880600,9.874880615234375,4.66981840133667,-8.392011642456055,-1.984269142150879
1773146090097891600,9.8878916015625,4.93266487121582,-8.29969596862793,-1.7187936305999756
1773146090110902500,9.900902587890625,5.122427463531494,-8.229109764099121,-1.4875693321228027
1773146090123913700,9.913913818359376,5.27358341217041,-8.171043395996094,-1.2624388933181763
1773146090136924700,9.926924560546874,5.416805267333984,-8.113349914550781,-1.0010817050933838
1773146090149935600,9.939935546875,5.5645880699157715,-8.047981262207031,-0.6601132750511169
1773146090162946600,9.952946533203125,5.710655212402344,-7.969346523284912,-0.21984343230724335
1773146090175957500,9.96595751953125,5.846977710723877,-7.866742134094238,0.31243541836738586
1773146090188968700,9.97896875,5.963530540466309,-7.7320170402526855,0.9069762825965881
1773146090201979600,9.991979736328124,6.053297519683838,-7.563488483428955,1.523685336112976
1773146090214990600,10.004990478515625,6.1159772872924805,-7.365914821624756,2.123323917388916
1773146090228001500,10.01800146484375,6.169216632843018,-7.135509490966797,2.682471990585327
1773146090241012500,10.031012451171875,6.234769821166992,-6.861698627471924,3.196110486984253
1773146090254023700,10.044023681640626,6.316247463226318,-6.533928394317627,3.6855368614196777
1773146090267034600,10.05703466796875,6.451426982879639,-6.128427505493164,4.122117042541504
1773146090280045600,10.070045654296875,6.6564812660217285,-5.636537551879883,4.482308864593506
1773146090293056500,10.083056396484375,6.883088111877441,-5.076834678649902,4.797835826873779
1773146090306067700,10.096067626953126,7.051914691925049,-4.4716925621032715,5.142457008361816
1773146090319078700,10.10907861328125,7.122763633728027,-3.8362815380096436,5.542524814605713
1773146090332089600,10.122089599609374,7.125277042388916,-3.176913022994995,5.942056655883789
1773146090345100500,10.1351005859375,7.115067958831787,-2.5020272731781006,6.267858982086182
1773146090358111500,10.148111572265625,7.096590995788574,-1.845170497894287,6.511846542358398
1773146090371122700,10.161122802734376,7.064817428588867,-1.2021371126174927,6.6942973136901855
1773146090384133600,10.174133544921874,7.05225133895874,-0.5348083972930908,6.793388843536377
1773146090397144600,10.18714453125,7.042105197906494,0.15412914752960205,6.823150634765625
1773146090410155500,10.200155517578125,6.9969892501831055,0.8468708992004395,6.818748474121094
1773146090423166700,10.213166748046875,6.906764507293701,1.5307700634002686,6.791446685791016
1773146090436177700,10.226177734375,6.812586307525635,2.2167320251464844,6.696652412414551
1773146090449188600,10.239188720703124,6.718578338623047,2.8805501461029053,6.537087440490723
1773146090462199600,10.252199462890625,6.613429069519043,3.496753692626953,6.340793609619141
1773146090475210500,10.26521044921875,6.500399112701416,4.058988571166992,6.118806838989258
1773146090488221700,10.2782216796875,6.399251937866211,4.570362567901611,5.859331130981445
1773146090501232600,10.291232666015626,6.320236682891846,5.034179210662842,5.5571608543396
1773146090514243600,10.30424365234375,6.263963222503662,5.449094295501709,5.219244003295898
1773146090527254500,10.317254638671875,6.232786178588867,5.815483093261719,4.847980499267578
1773146090540265700,10.330265625,6.224156856536865,6.142732620239258,4.4381422996521
1773146090553276700,10.343276611328125,6.230007171630859,6.4346466064453125,3.9940860271453857
1773146090566287600,10.35628759765625,6.243074893951416,6.689971446990967,3.526850700378418
1773146090579298600,10.369298583984374,6.264327526092529,6.8997697830200195,3.053156614303589
1773146090592309500,10.3823095703125,6.309702396392822,7.047809600830078,2.5858113765716553
1773146090605320700,10.39532080078125,6.394662857055664,7.110130310058594,2.1736457347869873
1773146090618331600,10.40833154296875,6.505411624908447,7.107890605926514,1.824256181716919
1773146090631342600,10.421342529296876,6.60111141204834,7.089085578918457,1.5298939943313599
1773146090644353500,10.434353515625,6.639287948608398,7.106660842895508,1.2592079639434814
1773146090657364700,10.44736474609375,6.604020595550537,7.184286594390869,0.9712426066398621
1773146090670375700,10.460375732421875,6.533937454223633,7.281715393066406,0.6742919683456421
1773146090683386600,10.47338671875,6.500679016113281,7.330472946166992,0.4191916286945343
1773146090696397600,10.4863974609375,6.585788726806641,7.262314319610596,0.23784737288951874
1773146090709408500,10.499408447265624,6.814847469329834,7.0509352684021,0.1120375245809555
1773146090722419700,10.512419677734375,7.139468193054199,6.7229719161987305,-0.00531850615516305
1773146090735430700,10.5254306640625,7.492703914642334,6.325596809387207,-0.12885767221450806
1773146090748441600,10.538441650390626,7.823241710662842,5.907707691192627,-0.25741443037986755
1773146090761452500,10.55145263671875,8.093365669250488,5.523103713989258,-0.403920441865921
1773146090774463700,10.564463623046874,8.287039756774902,5.212495803833008,-0.5703043937683105
1773146090787474700,10.577474609375,8.42220401763916,4.969122409820557,-0.738034188747406
1773146090800485600,10.590485595703125,8.52468204498291,4.7660369873046875,-0.8860488533973694
1773146090813496600,10.60349658203125,8.608674049377441,4.586160659790039,-1.014027714729309
1773146090826507500,10.616507568359374,8.683377265930176,4.417284965515137,-1.1211267709732056
1773146090839518700,10.629518798828125,8.756400108337402,4.2516188621521,-1.1914671659469604
1773146090852529700,10.64252978515625,8.823698043823242,4.10017204284668,-1.2252871990203857
1773146090865540600,10.65554052734375,8.877549171447754,3.9790689945220947,-1.2355159521102905
1773146090878551600,10.668551513671876,8.912611961364746,3.8996975421905518,-1.2361631393432617
1773146090891562800,10.681562744140624,8.924233436584473,3.8698391914367676,-1.2461059093475342
1773146090904573700,10.69457373046875,8.913118362426758,3.887129545211792,-1.2715826034545898
1773146090917584600,10.707584716796875,8.882452964782715,3.9475507736206055,-1.299709439277649
1773146090930595600,10.720595703125,8.835367202758789,4.047145843505859,-1.3142666816711426
1773146090943606500,10.7336064453125,8.77614688873291,4.17647123336792,-1.3064143657684326
1773146090956617700,10.74661767578125,8.710248947143555,4.32171630859375,-1.274644374847412
1773146090969628700,10.759628662109375,8.641514778137207,4.471622943878174,-1.2244230508804321
1773146090982639600,10.7726396484375,8.567923545837402,4.627086639404297,-1.1623822450637817
1773146090995650600,10.785650634765625,8.491345405578613,4.784701824188232,-1.083545446395874
1773146091008661800,10.798661865234376,8.41520881652832,4.9415788650512695,-0.967187225818634
1773146091021672700,10.811672607421874,8.336299896240234,5.1020283699035645,-0.8036174178123474
1773146091034683600,10.82468359375,8.24783992767334,5.269834518432617,-0.6102089881896973
1773146091047694600,10.837694580078125,8.147174835205078,5.443274021148682,-0.40583011507987976
1773146091060705500,10.85070556640625,8.038678169250488,5.6130900382995605,-0.20795877277851105
1773146091073716700,10.863716796875,7.930273056030273,5.768946647644043,-0.020382607355713844
1773146091086727700,10.876727783203124,7.826019763946533,5.907548904418945,0.15707965195178986
1773146091099738600,10.889738525390625,7.731664657592773,6.023980617523193,0.3215600252151489
1773146091112749600,10.90274951171875,7.653491973876953,6.113132476806641,0.47333866357803345
1773146091125760500,10.915760498046875,7.5879740715026855,6.183167934417725,0.6012319922447205
1773146091138771700,10.928771728515626,7.526176452636719,6.247288227081299,0.7060068845748901
1773146091151782700,10.94178271484375,7.45842981338501,6.318958759307861,0.7829220294952393
1773146091164793600,10.954793701171875,7.380281925201416,6.405184268951416,0.8218541741371155
1773146091177804500,10.967804443359375,7.297793388366699,6.500280380249023,0.8117630481719971
1773146091190815500,10.9808154296875,7.21665096282959,6.595855236053467,0.764869749546051
1773146091203826700,10.99382666015625,7.140177249908447,6.686512470245361,0.6919549107551575
1773146091216837600,11.006837646484374,7.071214199066162,6.767173767089844,0.6112996339797974
1773146091229848600,11.0198486328125,7.009862422943115,6.835328102111816,0.557228684425354
1773146091242859500,11.032859619140625,6.949728488922119,6.897248268127441,0.5473878979682922
1773146091255870700,11.04587060546875,6.8887457847595215,6.957144737243652,0.5600982308387756
1773146091268881700,11.058881591796874,6.817860126495361,7.0264716148376465,0.5620087385177612
1773146091281892600,11.071892578125,6.727638244628906,7.114111423492432,0.5465242862701416
1773146091294903600,11.084903564453125,6.608860015869141,7.227319717407227,0.5091222524642944
1773146091307914500,11.09791455078125,6.461928367614746,7.363033771514893,0.4467718005180359
1773146091320925700,11.11092578125,6.306877613067627,7.500631332397461,0.36633819341659546
1773146091333936600,11.1239365234375,6.153589248657227,7.630772113800049,0.27394500374794006
1773146091346947600,11.136947509765625,5.999757289886475,7.755136489868164,0.17652300000190735
1773146091359958500,11.14995849609375,5.844867706298828,7.874100685119629,0.08032525330781937
1773146091372969700,11.1629697265625,5.687561511993408,7.988823413848877,-0.027062321081757545
1773146091385980700,11.175980712890626,5.525107383728027,8.100199699401855,-0.1741759330034256
1773146091398991600,11.18899169921875,5.348949432373047,8.211615562438965,-0.3584684729576111
1773146091412002600,11.20200244140625,5.154156684875488,8.325139999389648,-0.5450620651245117
1773146091425013500,11.215013427734375,4.957873821258545,8.433125495910645,-0.6872203350067139
1773146091438024700,11.228024658203125,4.797362804412842,8.520657539367676,-0.7443765997886658
1773146091451035600,11.24103564453125,4.683122158050537,8.584802627563477,-0.7347856163978577
1773146091464046600,11.254046630859374,4.600717544555664,8.633419036865234,-0.6840090155601501
1773146091477057500,11.2670576171875,4.553319931030273,8.66467571258545,-0.6008824706077576
1773146091490068700,11.28006884765625,4.549989223480225,8.674050331115723,-0.4783766567707062
1773146091503079700,11.29307958984375,4.585326194763184,8.662633895874023,-0.32239413261413574
1773146091516090600,11.306090576171876,4.640145778656006,8.63786506652832,-0.16348181664943695
1773146091529101600,11.3191015625,4.700952529907227,8.606417655944824,-0.031810011714696884
1773146091542112800,11.33211279296875,4.763267517089844,8.571757316589355,0.08165059238672256
1773146091555123700,11.345123779296875,4.826905250549316,8.534810066223145,0.16846154630184174
1773146091568134700,11.358134765625,4.878941535949707,8.503937721252441,0.2221911996603012
1773146091581145600,11.3711455078125,4.9117560386657715,8.484295845031738,0.2485276162624359
1773146091594156500,11.384156494140624,4.922358512878418,8.477792739868164,0.26042601466178894
1773146091607167500,11.39716748046875,4.911455154418945,8.48391056060791,0.26690784096717834
1773146091620178700,11.4101787109375,4.886493682861328,8.498114585876465,0.27315959334373474
1773146091633189600,11.423189697265625,4.860137462615967,8.512943267822266,0.2815116047859192
1773146091646200600,11.43620068359375,4.8386993408203125,8.525185585021973,0.2803281843662262
1773146091659211500,11.44921142578125,4.833441734313965,8.528426170349121,0.27232587337493896
1773146091672222500,11.462222412109375,4.851227760314941,8.518659591674805,0.26153281331062317
1773146091685233700,11.475233642578125,4.893997669219971,8.494688034057617,0.24381397664546967
1773146091698244600,11.48824462890625,4.9577531814575195,8.458330154418945,0.21843643486499786
1773146091711255600,11.501255615234374,5.03463888168335,8.413565635681152,0.18635566532611847
1773146091724266800,11.514266845703125,5.112576484680176,8.367203712463379,0.1478339433670044
1773146091737277700,11.527277587890625,5.179886341094971,8.326414108276367,0.09994163364171982
1773146091750288600,11.54028857421875,5.2320237159729,8.294251441955566,0.041242565959692
1773146091763299600,11.553299560546876,5.27114200592041,8.269499778747559,-0.028760040178894997
1773146091776310500,11.566310546875,5.300232410430908,8.25025749206543,-0.1056700348854065
1773146091789321700,11.57932177734375,5.3201584815979,8.236039161682129,-0.18428935110569
1773146091802332700,11.592332763671875,5.333113670349121,8.225481033325195,-0.26414039731025696
1773146091815343600,11.605343505859375,5.344882011413574,8.21468448638916,-0.3486657440662384
1773146091828354600,11.6183544921875,5.361541748046875,8.199213027954102,-0.44401904940605164
1773146091841365500,11.631365478515624,5.391626834869385,8.173200607299805,-0.5472840070724487
1773146091854376700,11.644376708984375,5.4355902671813965,8.13628101348877,-0.6524448990821838
1773146091867387600,11.6573876953125,5.485833644866943,8.093811988830566,-0.7524897456169128
1773146091880398600,11.670398681640625,5.538355350494385,8.050055503845215,-0.8328332304954529
1773146091893409500,11.683409423828126,5.590095043182373,8.007721900939941,-0.8930964469909668
1773146091906420700,11.696420654296874,5.642376899719238,7.965222358703613,-0.9429768919944763
1773146091919431700,11.709431640625,5.701630115509033,7.919077396392822,-0.9746851921081543
1773146091932442600,11.722442626953125,5.766221523284912,7.870665073394775,-0.9867674112319946
1773146091945453600,11.73545361328125,5.831784725189209,7.822340965270996,-0.9857267737388611
1773146091958464500,11.748464599609376,5.894250869750977,7.7765116691589355,-0.9767611026763916
1773146091971475700,11.761475830078124,5.951837539672852,7.734043598175049,-0.9646739959716797
1773146091984486700,11.774486572265625,6.002277851104736,7.696038246154785,-0.9560554623603821
1773146091997497600,11.78749755859375,6.040796756744385,7.666444778442383,-0.951201856136322
1773146092010508500,11.800508544921875,6.066237449645996,7.647000789642334,-0.9457956552505493
1773146092023519700,11.813519775390626,6.079289436340332,7.637933731079102,-0.9352036118507385
1773146092036530700,11.82653076171875,6.078044414520264,7.640899181365967,-0.9189251661300659
1773146092049541600,11.839541748046875,6.065171718597412,7.654963493347168,-0.886348307132721
1773146092062552600,11.852552490234375,6.042851448059082,7.67880916595459,-0.8308032155036926
1773146092075563500,11.8655634765625,6.012173175811768,7.710805892944336,-0.7534197568893433
1773146092088574700,11.87857470703125,5.97394323348999,7.748408317565918,-0.6667479276657104
1773146092101585700,11.891585693359374,5.927497386932373,7.790517807006836,-0.5856500864028931
1773146092114596600,11.9045966796875,5.8743462562561035,7.8353681564331055,-0.5190731883049011
1773146092127607600,11.917607666015625,5.822214126586914,7.877881050109863,-0.45956361293792725
1773146092140618500,11.930618408203125,5.775961875915527,7.915063381195068,-0.40052559971809387
1773146092153629700,11.943629638671876,5.7331862449646,7.948597431182861,-0.3474998474121094
1773146092166640600,11.956640625,5.690181255340576,7.981342792510986,-0.3006442189216614
1773146092179651600,11.969651611328125,5.6499924659729,8.011246681213379,-0.2605581283569336
1773146092192662500,11.98266259765625,5.6148681640625,8.036645889282227,-0.23660622537136078
1773146092205673500,11.995673583984376,5.5869927406311035,8.05610179901123,-0.234776109457016
1773146092218684700,12.0086845703125,5.5693464279174805,8.067819595336914,-0.251078724861145
1773146092231695600,12.021695556640625,5.560871124267578,8.07296371459961,-0.27266794443130493
1773146092244706600,12.03470654296875,5.554372310638428,8.076546669006348,-0.29785221815109253
1773146092257717500,12.047717529296875,5.545689105987549,8.081706047058105,-0.31897810101509094
1773146092270728700,12.060728759765626,5.533877849578857,8.089310646057129,-0.33110347390174866
1773146092283739600,12.07373974609375,5.5176215171813965,8.100265502929688,-0.3345678746700287
1773146092296750600,12.08675048828125,5.496615409851074,8.114739418029785,-0.32954463362693787
1773146092309761500,12.099761474609375,5.468925476074219,8.133794784545898,-0.3203425407409668
1773146092322772500,12.1127724609375,5.431203365325928,8.159200668334961,-0.31599533557891846
1773146092335783700,12.12578369140625,5.385951519012451,8.189160346984863,-0.3155389130115509
1773146092348794600,12.138794677734374,5.337728977203369,8.220320701599121,-0.3246006369590759
1773146092361805600,12.1518056640625,5.29155969619751,8.249011039733887,-0.35157203674316406
1773146092374816500,12.16481640625,5.252025604248047,8.272056579589844,-0.3996126651763916
1773146092387827700,12.17782763671875,5.223256587982178,8.287225723266602,-0.4581231474876404
1773146092400838700,12.190838623046876,5.20448637008667,8.2955961227417,-0.5165315270423889
1773146092413849600,12.203849609375,5.194231986999512,8.298918724060059,-0.564173698425293
1773146092426860500,12.216860595703125,5.192326545715332,8.29808521270752,-0.5932354927062988
1773146092439871500,12.22987158203125,5.19664192199707,8.293990135192871,-0.6124045848846436
1773146092452882700,12.242882568359375,5.203866958618164,8.287785530090332,-0.6346325278282166
1773146092465893600,12.2558935546875,5.213458061218262,8.279353141784668,-0.6652430891990662
1773146092478904600,12.268904541015624,5.222155570983887,8.270130157470703,-0.710239589214325
1773146092491915500,12.28191552734375,5.227100372314453,8.261543273925781,-0.7711598873138428
1773146092504926700,12.2949267578125,5.22816801071167,8.253703117370605,-0.8444133400917053
1773146092517937700,12.307937744140625,5.2249250411987305,8.246719360351562,-0.9285273551940918
1773146092530948600,12.320948486328126,5.21829080581665,8.239945411682129,-1.021335244178772
1773146092543959600,12.33395947265625,5.209012031555176,8.233175277709961,-1.1186628341674805
1773146092556970500,12.346970458984375,5.197065830230713,8.226824760437012,-1.2166563272476196
1773146092569981700,12.359981689453125,5.182528018951416,8.222131729125977,-1.3070374727249146
1773146092582992600,12.37299267578125,5.165193557739258,8.22044849395752,-1.3839727640151978
1773146092596003600,12.386003662109376,5.1457200050354,8.222753524780273,-1.4416272640228271
1773146092609014500,12.3990146484375,5.122472763061523,8.228840827941895,-1.488905429840088
1773146092622025700,12.412025634765625,5.095486164093018,8.237353324890137,-1.533760905265808
1773146092635036700,12.42503662109375,5.063494682312012,8.248641967773438,-1.578392744064331
1773146092648047600,12.438047607421876,5.0282368659973145,8.261713027954102,-1.6221362352371216
1773146092661058600,12.45105859375,4.990394115447998,8.276504516601562,-1.6630750894546509
1773146092674069500,12.464069580078124,4.950922966003418,8.292813301086426,-1.6994155645370483
1773146092687080700,12.477080810546875,4.91121768951416,8.309536933898926,-1.7326055765151978
1773146092700091600,12.490091552734375,4.870204448699951,8.32713508605957,-1.7636094093322754
1773146092713102600,12.5031025390625,4.829721450805664,8.344869613647461,-1.7909026145935059
1773146092726113500,12.516113525390624,4.791691780090332,8.361613273620605,-1.8147988319396973
1773146092739124700,12.529124755859375,4.754664897918701,8.378033638000488,-1.8363314867019653
1773146092752135700,12.5421357421875,4.7200541496276855,8.393989562988281,-1.85267972946167
1773146092765146600,12.555146728515625,4.690514087677002,8.408308029174805,-1.8627443313598633
1773146092778157600,12.568157470703126,4.6724042892456055,8.418442726135254,-1.8624818325042725
1773146092791168500,12.58116845703125,4.666662693023682,8.423985481262207,-1.8517847061157227
1773146092804179500,12.594179443359375,4.674680709838867,8.423779487609863,-1.8323974609375
1773146092817190700,12.607190673828125,4.695064544677734,8.41830062866211,-1.8052611351013184
1773146092830201600,12.62020166015625,4.7179484367370605,8.411331176757812,-1.7778795957565308
1773146092843212500,12.633212646484376,4.7417402267456055,8.403230667114258,-1.7527118921279907
1773146092856223500,12.646223388671874,4.764193534851074,8.394484519958496,-1.7336339950561523
1773146092869234700,12.659234619140625,4.780720233917236,8.386175155639648,-1.7283419370651245
1773146092882245600,12.67224560546875,4.79304313659668,8.377111434936523,-1.738139033317566
1773146092895256600,12.685256591796875,4.801854133605957,8.366772651672363,-1.7634321451187134
1773146092908267500,12.698267578125,4.806347370147705,8.355995178222656,-1.8018786907196045
1773146092921278500,12.711278564453124,4.805942058563232,8.346186637878418,-1.8478299379348755
1773146092934289700,12.72428955078125,4.798788070678711,8.340645790100098,-1.8909404277801514
1773146092947300600,12.737300537109375,4.78228235244751,8.342906951904297,-1.922515869140625
1773146092960311600,12.7503115234375,4.763782024383545,8.349325180053711,-1.940499186515808
1773146092973322800,12.76332275390625,4.750143527984619,8.3555326461792,-1.947203278541565
1773146092986333700,12.776333740234374,4.737234115600586,8.362001419067383,-1.950880527496338
1773146092999344600,12.7893447265625,4.723879814147949,8.368119239807129,-1.9570213556289673
1773146093012355600,12.80235546875,4.705737590789795,8.375744819641113,-1.9680744409561157
1773146093025366500,12.815366455078125,4.683568954467773,8.38498592376709,-1.981557846069336
1773146093038377500,12.82837744140625,4.658243179321289,8.395857810974121,-1.9951754808425903
1773146093051388700,12.841388671875,4.63095235824585,8.4081392288208,-2.0069539546966553
1773146093064399600,12.854399658203125,4.603494644165039,8.421720504760742,-2.0131676197052
1773146093077410600,12.86741064453125,4.579458713531494,8.435176849365234,-2.011651039123535
1773146093090421500,12.88042138671875,4.562036514282227,8.446260452270508,-2.004718065261841
1773146093103432700,12.8934326171875,4.551153659820557,8.454214096069336,-1.9959080219268799
1773146093116443600,12.906443603515624,4.542891025543213,8.460264205932617,-1.9890832901000977
1773146093129454600,12.91945458984375,4.533555507659912,8.466081619262695,-1.9856301546096802
1773146093142465500,12.932465576171875,4.519659519195557,8.473363876342773,-1.9862418174743652
1773146093155476500,12.9454765625,4.499105930328369,8.483138084411621,-1.9911800622940063
1773146093168487700,12.95848779296875,4.471838474273682,8.495771408081055,-1.9987281560897827
1773146093181498600,12.97149853515625,4.443232536315918,8.509130477905273,-2.005683183670044
1773146093194509600,12.984509521484375,4.4188361167907715,8.52090835571289,-2.009577751159668
1773146093207520500,12.9975205078125,4.4014811515808105,8.529504776000977,-2.0111916065216064
1773146093220531700,13.01053173828125,4.393422603607178,8.533594131469727,-2.0114645957946777
1773146093233542700,13.023542724609374,4.393021583557129,8.533815383911133,-2.011404514312744
1773146093246553600,13.0365537109375,4.397784233093262,8.531769752502441,-2.009671449661255
1773146093259564500,13.049564453125,4.407332420349121,8.528186798095703,-2.003957509994507
1773146093272575500,13.062575439453125,4.41923189163208,8.524611473083496,-1.9929325580596924
1773146093285586700,13.075586669921876,4.4314961433410645,8.522626876831055,-1.9740959405899048
1773146093298597600,13.08859765625,4.44387149810791,8.522490501403809,-1.9466760158538818
1773146093311608600,13.101608642578125,4.472926139831543,8.513286590576172,-1.9202250242233276
1773146093324619500,13.11461962890625,4.498752117156982,8.506840705871582,-1.888193130493164
1773146093337630700,13.127630615234375,4.5209736824035645,8.50196647644043,-1.8568083047866821
1773146093350641700,13.1406416015625,4.538510799407959,8.498215675354004,-1.8310221433639526
1773146093363652600,13.153652587890624,4.552045822143555,8.494603157043457,-1.8141052722930908
1773146093376663600,13.16666357421875,4.565040111541748,8.489442825317383,-1.805586338043213
1773146093389674500,13.179674560546875,4.578521728515625,8.482771873474121,-1.8028067350387573
1773146093402685700,13.192685791015625,4.594437599182129,8.475085258483887,-1.798460841178894
1773146093415696600,13.205696533203126,4.613708019256592,8.466837882995605,-1.7879480123519897
1773146093428707600,13.21870751953125,4.633594989776611,8.459433555603027,-1.7714828252792358
1773146093441718500,13.231718505859375,4.652918815612793,8.452957153320312,-1.7516424655914307
1773146093454729700,13.244729736328125,4.6736273765563965,8.445802688598633,-1.730896234512329
1773146093467740700,13.25774072265625,4.6970415115356445,8.436623573303223,-1.7121796607971191
1773146093480751600,13.270751708984376,4.7229695320129395,8.425171852111816,-1.6971842050552368
1773146093493762600,13.283762451171874,4.749246597290039,8.41263198852539,-1.68602454662323
1773146093506773500,13.2967734375,4.773247241973877,8.40063190460205,-1.6780604124069214
1773146093519784700,13.30978466796875,4.795575141906738,8.389666557312012,-1.6692345142364502
1773146093532795600,13.322795654296876,4.816435813903809,8.380033493041992,-1.6575182676315308
1773146093545806600,13.335806640625,4.838644027709961,8.370609283447266,-1.6403677463531494
1773146093558817500,13.348817626953124,4.8584208488464355,8.363917350769043,-1.615863561630249
1773146093571828700,13.361828857421875,4.876302719116211,8.35931396484375,-1.585534930229187
1773146093584839700,13.374839599609375,4.89272403717041,8.356112480163574,-1.5514600276947021
1773146093597850600,13.3878505859375,4.893261909484863,8.359697341918945,-1.5303068161010742
1773146093610861600,13.400861572265624,4.890956401824951,8.363696098327637,-1.5157573223114014
1773146093623872800,13.413872802734375,4.883854389190674,8.369139671325684,-1.508588194847107
1773146093636883700,13.4268837890625,4.87399959564209,8.375391006469727,-1.5057697296142578
1773146093649894700,13.439894775390625,4.864806652069092,8.38100814819336,-1.5042427778244019
1773146093662905600,13.452905517578126,4.8572235107421875,8.385590553283691,-1.5032093524932861
1773146093675916500,13.46591650390625,4.851406574249268,8.388924598693848,-1.5033971071243286
1773146093688927700,13.478927734375,4.847200870513916,8.391029357910156,-1.5052118301391602
1773146093701938700,13.491938720703125,4.84395170211792,8.392156600952148,-1.5093811750411987
1773146093714949600,13.50494970703125,4.841242790222168,8.392326354980469,-1.5171113014221191
1773146093727960600,13.517960693359376,4.8390278816223145,8.391496658325195,-1.528716802597046
1773146093740971800,13.5309716796875,4.837678909301758,8.389801979064941,-1.5422258377075195
1773146093753982700,13.543982666015625,4.837271690368652,8.387784004211426,-1.554437518119812
1773146093766993700,13.55699365234375,4.844766139984131,8.381108283996582,-1.5670521259307861
1773146093780004600,13.570004638671875,4.856399059295654,8.373010635375977,-1.574314832687378
1773146093793015600,13.583015625,4.871983528137207,8.363798141479492,-1.5751339197158813
1773146093806026800,13.59602685546875,4.889554977416992,8.35429859161377,-1.5710914134979248
1773146093819037700,13.60903759765625,4.907010078430176,8.344681739807129,-1.5677778720855713
1773146093832048600,13.622048583984375,4.925994873046875,8.333292961120605,-1.5688155889511108
1773146093845059600,13.6350595703125,4.949213981628418,8.318257331848145,-1.575512170791626
1773146093858070800,13.64807080078125,4.978005886077881,8.298612594604492,-1.5883564949035645
1773146093871081700,13.661081787109374,5.010988712310791,8.275519371032715,-1.605042815208435
1773146093884092700,13.6740927734375,5.0449018478393555,8.252121925354004,-1.619206190109253
1773146093897103600,13.687103515625,5.078191757202148,8.23138427734375,-1.6206947565078735
1773146093910114600,13.700114501953125,5.1004533767700195,8.225339889526367,-1.580994963645935
1773146093923125800,13.713125732421876,5.114967346191406,8.227579116821289,-1.521323800086975
1773146093936136700,13.72613671875,5.120460510253906,8.237442016601562,-1.4476934671401978
1773146093949147600,13.739147705078125,5.120616912841797,8.252126693725586,-1.3609107732772827
1773146093962158600,13.75215869140625,5.117395401000977,8.268417358398438,-1.2711855173110962
1773146093975169800,13.765169677734375,5.115318775177002,8.281710624694824,-1.1904481649398804
1773146093988180700,13.7781806640625,5.119453430175781,8.288131713867188,-1.1262603998184204
1773146094001191700,13.791191650390624,5.131660461425781,8.286763191223145,-1.0798208713531494
1773146094014202600,13.80420263671875,5.152403831481934,8.278428077697754,-1.0443910360336304
1773146094027213600,13.817213623046875,5.178102970123291,8.2660551071167,-1.0148706436157227
1773146094040224800,13.830224853515626,5.20426082611084,8.2524995803833,-0.9911115169525146
1773146094053235700,13.843235595703124,5.228501796722412,8.23953628540039,-0.9711872339248657
1773146094066246700,13.85624658203125,5.2507476806640625,8.227707862854004,-0.9512397050857544
1773146094079257600,13.869257568359375,5.274664402008057,8.215230941772461,-0.9264358282089233
1773146094092268800,13.882268798828125,5.3037238121032715,8.199801445007324,-0.896746039390564
1773146094105279700,13.89527978515625,5.335752487182617,8.181459426879883,-0.8739845752716064
1773146094118290700,13.908290771484374,5.369114398956299,8.160652160644531,-0.8641451597213745
1773146094131301600,13.921301513671875,5.40573263168335,8.1376953125,-0.8522676825523376
1773146094144312600,13.9343125,5.443872928619385,8.11423397064209,-0.8329784870147705
1773146094157323800,13.94732373046875,5.480405330657959,8.092455863952637,-0.8047921061515808
1773146094170334700,13.960334716796876,5.513844966888428,8.072897911071777,-0.7721457481384277
1773146094183345700,13.973345703125,5.537486553192139,8.059065818786621,-0.747052013874054
1773146094196356600,13.986356689453125,5.542288303375244,8.056453704833984,-0.7395870089530945
1773146094209367800,13.999367919921875,5.520819187164307,8.070075988769531,-0.7515347003936768
1773146094222378800,14.012378662109375,5.4772162437438965,8.097502708435059,-0.7752000093460083
1773146094235389700,14.0253896484375,5.425459384918213,8.12930679321289,-0.8056942224502563
1773146094248400600,14.038400634765624,5.372281074523926,8.159815788269043,-0.8522849678993225
1773146094261411600,14.05141162109375,5.3209309577941895,8.18728256225586,-0.9091110229492188
1773146094274422800,14.0644228515625,5.272480487823486,8.211617469787598,-0.9698778390884399
1773146094287433700,14.077433837890625,5.219263553619385,8.23818588256836,-1.0305109024047852
1773146094300444700,14.090444580078126,5.158795356750488,8.268980979919434,-1.086816430091858
1773146094313455600,14.10345556640625,5.093940258026123,8.301701545715332,-1.1418873071670532
1773146094326466800,14.116466796875,5.028319358825684,8.333070755004883,-1.2026257514953613
1773146094339477800,14.129477783203125,4.963627338409424,8.361078262329102,-1.2748223543167114
1773146094352488700,14.14248876953125,4.902826309204102,8.383642196655273,-1.3591270446777344
1773146094365499600,14.155499755859376,4.850673198699951,8.397712707519531,-1.4559509754180908
1773146094378510600,14.168510498046874,4.812400817871094,8.400323867797852,-1.56388258934021
1773146094391521800,14.181521728515625,4.793234348297119,8.38923454284668,-1.678102731704712
1773146094404532700,14.19453271484375,4.795292377471924,8.36314582824707,-1.798151969909668
1773146094417543700,14.207543701171875,4.809266567230225,8.331267356872559,-1.905604600906372
1773146094430554600,14.2205546875,4.826753616333008,8.305224418640137,-1.97384774684906
1773146094443565800,14.23356591796875,4.830595016479492,8.294875144958496,-2.0076839923858643
1773146094456576800,14.24657666015625,4.806921482086182,8.307872772216797,-2.0107548236846924
1773146094469587700,14.259587646484375,4.75810432434082,8.341378211975098,-1.9880236387252808
1773146094482598700,14.2725986328125,4.693027496337891,8.385775566101074,-1.955670952796936
1773146094495609600,14.285609619140626,4.61726188659668,8.435152053833008,-1.9234050512313843
1773146094508620800,14.298620849609375,4.532665252685547,8.485918998718262,-1.9011896848678589
1773146094521631700,14.3116318359375,4.440609455108643,8.536351203918457,-1.8926383256912231
1773146094534642700,14.324642578125,4.343466758728027,8.5859956741333,-1.8935061693191528
1773146094547653600,14.337653564453126,4.245753765106201,8.63463306427002,-1.8939584493637085
1773146094560664800,14.350664794921874,4.152042388916016,8.682531356811523,-1.8827087879180908
1773146094573675800,14.36367578125,4.066747188568115,8.729156494140625,-1.8530458211898804
1773146094586686700,14.376686767578125,3.9893250465393066,8.774152755737305,-1.8082916736602783
1773146094599697700,14.38969775390625,3.9234604835510254,8.814971923828125,-1.753031849861145
1773146094612708600,14.40270849609375,3.8718655109405518,8.849053382873535,-1.695076584815979
1773146094625719800,14.4157197265625,3.830286979675293,8.876553535461426,-1.6450209617614746
1773146094638730800,14.428730712890625,3.7953245639801025,8.898252487182617,-1.608415961265564
1773146094651741700,14.44174169921875,3.763490915298462,8.915719985961914,-1.5863314867019653
1773146094664752600,14.454752685546875,3.7356605529785156,8.928874015808105,-1.5781090259552002
1773146094677763800,14.467763916015626,3.716956615447998,8.936182975769043,-1.5809091329574585
1773146094690774800,14.48077490234375,3.7113373279571533,8.937273025512695,-1.5879273414611816
1773146094703785700,14.49378564453125,3.7190587520599365,8.933198928833008,-1.5927823781967163
1773146094716796700,14.506796630859375,3.7380712032318115,8.92558479309082,-1.5909587144851685
1773146094729808000,14.519807861328125,3.7643728256225586,8.916116714477539,-1.5820070505142212
1773146094742818800,14.53281884765625,3.794846296310425,8.905633926391602,-1.5681904554367065
1773146094755829800,14.545829833984374,3.8325917720794678,8.892465591430664,-1.5510305166244507
1773146094768840700,14.5588408203125,3.8814122676849365,8.874398231506348,-1.53299880027771
1773146094781851600,14.5718515625,3.9403882026672363,8.851073265075684,-1.5173060894012451
1773146094794862800,14.58486279296875,4.007030963897705,8.823949813842773,-1.500666618347168
1773146094807873800,14.597873779296876,4.073348522186279,8.796799659729004,-1.4813932180404663
1773146094820884700,14.610884765625,4.135138511657715,8.771425247192383,-1.4605154991149902
1773146094833895700,14.623895751953125,4.190670013427734,8.748210906982422,-1.4413416385650635
1773146094846907000,14.636906982421875,4.236279487609863,8.727225303649902,-1.435223937034607
1773146094859917800,14.649917724609375,4.283560276031494,8.706453323364258,-1.4209715127944946
1773146094872928800,14.6629287109375,4.3263397216796875,8.689196586608887,-1.3967889547348022
1773146094885939700,14.675939697265624,4.357834339141846,8.676780700683594,-1.3759175539016724
1773146094898950700,14.68895068359375,4.3801045417785645,8.668558120727539,-1.3569021224975586
1773146094911961900,14.7019619140625,4.395120143890381,8.663314819335938,-1.3417425155639648
1773146094924972800,14.714972900390626,4.408262252807617,8.658464431762695,-1.3298906087875366
1773146094937983700,14.727983642578126,4.421896934509277,8.653057098388672,-1.319777250289917
1773146094950995000,14.740994873046875,4.4359235763549805,8.647908210754395,-1.3063932657241821
1773146094964006000,14.754005859375,4.449130535125732,8.64395523071289,-1.2875081300735474
1773146094977016800,14.767016845703125,4.459305286407471,8.642411231994629,-1.2624213695526123
1773146094990027800,14.78002783203125,4.468748569488525,8.642573356628418,-1.2274357080459595
1773146095003038700,14.793038818359374,4.473700046539307,8.64515209197998,-1.1906903982162476
1773146095016049700,14.806049560546874,4.474545001983643,8.649346351623535,-1.1565605401992798
1773146095029060900,14.819060791015625,4.4690423011779785,8.655516624450684,-1.131400227546692
1773146095042071800,14.83207177734375,4.456068992614746,8.663710594177246,-1.119805932044983
1773146095055082800,14.845082763671876,4.438579559326172,8.672660827636719,-1.119977593421936
1773146095068093700,14.85809375,4.423043727874756,8.679221153259277,-1.130577802658081
1773146095081105000,14.87110498046875,4.416281700134277,8.680133819580078,-1.1498379707336426
1773146095094115800,14.88411572265625,4.42526388168335,8.672335624694824,-1.1738945245742798
1773146095107126800,14.897126708984375,4.453273773193359,8.654520988464355,-1.19916832447052
1773146095120137700,14.9101376953125,4.497387409210205,8.62872314453125,-1.2202529907226562
1773146095133149000,14.92314892578125,4.556236267089844,8.596220016479492,-1.2313016653060913
1773146095146159900,14.936159912109375,4.625997543334961,8.558249473571777,-1.2356812953948975
1773146095159170800,14.9491708984375,4.699838161468506,8.517070770263672,-1.2415310144424438
1773146095172181800,14.962181640625,4.770706653594971,8.475334167480469,-1.2567617893218994
1773146095185192700,14.975192626953126,4.833353042602539,8.43535041809082,-1.2860572338104248
1773146095198204000,14.988203857421874,4.889676570892334,8.396949768066406,-1.3238849639892578
1773146095211214800,15.00121484375,4.940332889556885,8.361043930053711,-1.3625123500823975
1773146095224225800,15.014225830078125,4.98258113861084,8.330360412597656,-1.396201729774475
1773146095237236700,15.02723681640625,5.014894008636475,8.306737899780273,-1.4210323095321655
1773146095250248000,15.040248046875,5.0387959480285645,8.289949417114258,-1.4344594478607178
1773146095263259000,15.0532587890625,5.05877161026001,8.27711009979248,-1.4382805824279785
1773146095276269800,15.066269775390625,5.078568935394287,8.265469551086426,-1.435455083847046
1773146095289280800,15.07928076171875,5.0979719161987305,8.254591941833496,-1.4292593002319336
1773146095302292000,15.0922919921875,5.116479873657227,8.244523048400879,-1.4212158918380737
1773146095315303000,15.105302978515626,5.131791591644287,8.236242294311523,-1.4140136241912842
1773146095328313900,15.11831396484375,5.141113758087158,8.231101036071777,-1.4100805521011353
1773146095341324800,15.13132470703125,5.142899990081787,8.229913711547852,-1.4104909896850586
1773146095354335700,15.144335693359375,5.13620662689209,8.233186721801758,-1.4157692193984985
1773146095367347000,15.157346923828126,5.120174407958984,8.241339683532715,-1.4263691902160645
1773146095380358000,15.17035791015625,5.095425605773926,8.254117965698242,-1.4410256147384644
1773146095393368800,15.183368896484374,5.06461763381958,8.270233154296875,-1.457146167755127
1773146095406379800,15.1963798828125,5.0310468673706055,8.287591934204102,-1.4747116565704346
1773146095419391000,15.209390869140625,4.996530055999756,8.305253028869629,-1.4925949573516846
1773146095432402000,15.22240185546875,4.961329460144043,8.323524475097656,-1.5081579685211182
1773146095445412900,15.235412841796874,4.929792881011963,8.340006828308105,-1.520466923713684
1773146095458423800,15.248423828125,4.904598712921143,8.352849006652832,-1.5314104557037354
1773146095471435000,15.26143505859375,4.887332916259766,8.361193656921387,-1.5410414934158325
1773146095484446000,15.274446044921875,4.878166198730469,8.36529541015625,-1.5478088855743408
1773146095497457000,15.287456787109376,4.874542236328125,8.366827011108398,-1.5509425401687622
1773146095510467800,15.3004677734375,4.872189998626709,8.368818283081055,-1.5475960969924927
1773146095523478800,15.313478759765625,4.86871862411499,8.373298645019531,-1.5342185497283936
1773146095536490000,15.326489990234375,4.863156318664551,8.380717277526855,-1.5111838579177856
1773146095549501000,15.3395009765625,4.858126640319824,8.388587951660156,-1.4834409952163696
1773146095562512000,15.352511962890626,4.85782527923584,8.39356517791748,-1.4560165405273438
1773146095575522800,15.365522705078124,4.862442970275879,8.39470386505127,-1.4338665008544922
1773146095588534000,15.378533935546875,4.873129367828369,8.390705108642578,-1.4209345579147339
1773146095601545000,15.391544921875,4.890167713165283,8.381094932556152,-1.4191136360168457
1773146095614556000,15.404555908203125,4.912508964538574,8.36671257019043,-1.4268033504486084
1773146095627566800,15.41756689453125,4.941269397735596,8.3475341796875,-1.4397661685943604
1773146095640577800,15.430577880859374,4.97636604309082,8.324405670166016,-1.4527311325073242
1773146095653589000,15.443589111328125,5.014444351196289,8.300716400146484,-1.4573372602462769
1773146095666600000,15.456599853515625,5.053009510040283,8.279358863830566,-1.445578694343567
1773146095679611000,15.46961083984375,5.09041690826416,8.261927604675293,-1.4137152433395386
1773146095692621800,15.482621826171876,5.1223039627075195,8.250211715698242,-1.366170048713684
1773146095705633000,15.495633056640624,5.148232936859131,8.243325233459473,-1.309078574180603
1773146095718644000,15.50864404296875,5.170836925506592,8.238160133361816,-1.251220703125
1773146095731655000,15.521655029296875,5.196957111358643,8.230812072753906,-1.1898516416549683
1773146095744665900,15.534665771484375,5.225109100341797,8.222275733947754,-1.123747706413269
1773146095757676800,15.5476767578125,5.250372409820557,8.215092658996582,-1.0565162897109985
1773146095770688000,15.56068798828125,5.26086950302124,8.21814250946045,-0.9776318073272705
1773146095783699000,15.573698974609375,5.258199691772461,8.22952651977539,-0.8925312757492065
1773146095796710000,15.5867099609375,5.2487030029296875,8.244115829467773,-0.8099702596664429
1773146095809720800,15.599720947265626,5.241278648376465,8.255393981933594,-0.7401749491691589
1773146095822732000,15.61273193359375,5.240299701690674,8.260303497314453,-0.6906745433807373
1773146095835743000,15.625742919921874,5.243333339691162,8.260432243347168,-0.6656529903411865
1773146095848754000,15.63875390625,5.241440296173096,8.262197494506836,-0.6586273312568665
1773146095861764900,15.651764892578125,5.228766918182373,8.269893646240234,-0.6627669334411621
1773146095874775800,15.66477587890625,5.208430767059326,8.281764030456543,-0.6745620369911194
1773146095887787000,15.677787109375,5.182110786437988,8.296688079833984,-0.6935980916023254
1773146095900798000,15.6907978515625,5.160557270050049,8.307600021362305,-0.7230697870254517
1773146095913809000,15.703808837890625,5.139765739440918,8.315925598144531,-0.773681640625
1773146095926819800,15.71681982421875,5.1165947914123535,8.327486038208008,-0.8023777008056641
1773146095939831000,15.7298310546875,5.091926574707031,8.339829444885254,-0.830612301826477
1773146095952842000,15.742842041015624,5.057043552398682,8.358339309692383,-0.8572367429733276
1773146095965853000,15.75585302734375,5.020167350769043,8.378663063049316,-0.8753888607025146
1773146095978863900,15.76886376953125,4.9811577796936035,8.400211334228516,-0.8915812373161316
1773146095991875000,15.781875,4.941161632537842,8.422329902648926,-0.9053531885147095
1773146096004886000,15.794885986328126,4.907785892486572,8.441522598266602,-0.9081366062164307
1773146096017897000,15.80789697265625,4.873746395111084,8.460933685302734,-0.9108144044876099
1773146096030908000,15.820907958984375,4.850792407989502,8.475160598754883,-0.9010345339775085
1773146096043918800,15.8339189453125,4.831387996673584,8.486692428588867,-0.8967410922050476
1773146096056930000,15.846929931640625,4.832474231719971,8.486257553100586,-0.8949897885322571
1773146096069941000,15.85994091796875,4.851412773132324,8.473675727844238,-0.9115939736366272
1773146096082952000,15.872951904296874,4.89426326751709,8.446128845214844,-0.9378072619438171
1773146096095963000,15.885962890625,4.948696136474609,8.409833908081055,-0.9774900078773499
1773146096108974000,15.89897412109375,5.006937026977539,8.370186805725098,-1.020263671875
1773146096121985000,15.911985107421875,5.0606560707092285,8.332953453063965,-1.0592628717422485
1773146096134996000,15.924995849609376,5.107349395751953,8.299803733825684,-1.0948160886764526
1773146096148007000,15.9380068359375,5.153726100921631,8.264737129211426,-1.1417611837387085
1773146096161017900,15.951017822265625,5.1930460929870605,8.23311996459961,-1.190964698791504
1773146096174029000,15.964029052734375,5.23069953918457,8.201224327087402,-1.2450165748596191
1773146096187040000,15.9770400390625,5.258881092071533,8.177040100097656,-1.2847447395324707
1773146096200051000,15.990051025390626,5.279580593109131,8.158971786499023,-1.3143831491470337
1773146096213062100,16.003062255859376,5.296020984649658,8.144405364990234,-1.338358759880066
1773146096226073000,16.016072998046877,5.309281826019287,8.131335258483887,-1.3650258779525757
1773146096239084000,16.029083984375,5.320996284484863,8.118535995483398,-1.3952597379684448
1773146096252095000,16.042094970703126,5.331368923187256,8.106457710266113,-1.4255611896514893
1773146096265106000,16.05510595703125,5.341612815856934,8.094698905944824,-1.4537625312805176
1773146096278117000,16.0681171875,5.354437828063965,8.0817289352417,-1.4785192012786865
1773146096291128000,16.081128173828127,5.369959354400635,8.066916465759277,-1.5029270648956299
1773146096304139000,16.094138916015623,5.391644477844238,8.04638671875,-1.5349947214126587
1773146096317150000,16.10714990234375,5.408397197723389,8.029158592224121,-1.5659632682800293
1773146096330161200,16.1201611328125,5.416690349578857,8.01672077178955,-1.6006380319595337
1773146096343172000,16.133172119140625,5.416667938232422,8.009525299072266,-1.636342167854309
1773146096356183000,16.14618310546875,5.40901517868042,8.006982803344727,-1.6736700534820557
1773146096369194000,16.159194091796873,5.399620532989502,8.005729675292969,-1.709609866142273
1773146096382205000,16.172204833984374,5.391176700592041,8.004229545593262,-1.742954969406128
1773146096395216100,16.185216064453126,5.385661602020264,8.001925468444824,-1.7703739404678345
1773146096408227000,16.19822705078125,5.38048791885376,8.001044273376465,-1.7899776697158813
1773146096421238000,16.211238037109375,5.374277591705322,8.003026962280273,-1.7997428178787231
1773146096434249000,16.2242490234375,5.363338947296143,8.010245323181152,-1.8002675771713257
1773146096447260200,16.23726025390625,5.347804069519043,8.022645950317383,-1.79123854637146
1773146096460271000,16.25027099609375,5.329198360443115,8.038314819335938,-1.7763832807540894
1773146096473282000,16.263281982421876,5.310778617858887,8.053777694702148,-1.7614436149597168
1773146096486293000,16.27629296875,5.2950615882873535,8.066581726074219,-1.7501380443572998
1773146096499304000,16.289303955078125,5.28348970413208,8.075730323791504,-1.7429009675979614
1773146096512315100,16.302315185546874,5.2777180671691895,8.080703735351562,-1.7373249530792236
1773146096525326000,16.315326171875,5.280195713043213,8.080727577209473,-1.7296682596206665
1773146096538337000,16.3283369140625,5.289047718048096,8.07654857635498,-1.7221285104751587
1773146096551348000,16.341347900390623,5.303311824798584,8.068232536315918,-1.7172284126281738
1773146096564359200,16.354359130859375,5.321393966674805,8.056384086608887,-1.7169233560562134
1773146096577370000,16.3673701171875,5.34321403503418,8.041478157043457,-1.7190362215042114
1773146096590381000,16.380381103515624,5.370934963226318,8.022740364074707,-1.720198392868042
1773146096603392000,16.39339208984375,5.399862766265869,8.003212928771973,-1.7205957174301147
1773146096616403000,16.40640283203125,5.427338123321533,7.984617710113525,-1.7205430269241333
1773146096629414100,16.4194140625,5.453014850616455,7.966646194458008,-1.722665786743164
1773146096642425000,16.432425048828126,5.477748870849609,7.948359489440918,-1.7286524772644043
1773146096655436000,16.44543603515625,5.502670764923096,7.929107666015625,-1.7378872632980347
1773146096668447000,16.458447021484375,5.526163101196289,7.909745216369629,-1.7515223026275635
1773146096681458200,16.471458251953123,5.545886516571045,7.891433238983154,-1.7716706991195679
1773146096694469000,16.48446923828125,5.561145305633545,7.8749918937683105,-1.7968165874481201
1773146096707480000,16.49747998046875,5.573953628540039,7.860286712646484,-1.8213523626327515
1773146096720491000,16.510490966796876,5.584279537200928,7.848452091217041,-1.8406578302383423
1773146096733502000,16.523501953125,5.59323787689209,7.839543342590332,-1.8513914346694946
1773146096746513200,16.53651318359375,5.601190567016602,7.832945346832275,-1.8552676439285278
1773146096759524000,16.549524169921874,5.608355522155762,7.8270039558410645,-1.8586945533752441
1773146096772535000,16.56253515625,5.614376068115234,7.820938587188721,-1.8660370111465454
1773146096785546000,16.5755458984375,5.619647979736328,7.814302921295166,-1.8779263496398926
1773146096798557200,16.58855712890625,5.623327732086182,7.808389663696289,-1.8914604187011719
