time,seconds_elapsed,z,y,x
1773146080291937000,0.08193701171875,-1.7339396476745605,-1.0920735597610474,-0.3646862804889679
1773146080304948200,0.0949482421875,-1.774256706237793,-1.4830269813537598,-0.18921536207199097
1773146080317959200,0.107959228515625,-1.6994258165359497,-1.5228859186172485,-0.11988221108913422
1773146080330970000,0.12097021484375,-1.4607304334640503,-1.2744166851043701,-0.15409064292907715
1773146080343981000,0.13398095703125,-1.1756092309951782,-0.9030108451843262,-0.15500694513320923
1773146080356992000,0.146991943359375,-0.7623592615127563,-0.6053670048713684,-0.11133010685443878
1773146080370003200,0.160003173828125,-0.397825688123703,-0.5694786906242371,0.10735948383808136
1773146080383014100,0.17301416015625,-0.2263254076242447,-0.42012226581573486,0.4514290690422058
1773146080396025000,0.186025146484375,-0.21410810947418213,0.04581485688686371,0.7886264324188232
1773146080409036000,0.1990361328125,-0.43279770016670227,0.6046034097671509,0.9637919068336487
1773146080422047200,0.212047119140625,-1.6097813844680786,0.18341214954853058,0.7698423266410828
1773146080435058200,0.22505810546875,-2.5292856693267822,-0.3068068325519562,0.5731438994407654
1773146080448069000,0.238069091796875,-2.3293800354003906,0.1003345400094986,0.45066550374031067
1773146080461080000,0.251080078125,-1.9709552526474,-0.13179408013820648,0.3605629503726959
1773146080474091000,0.264091064453125,-1.5748094320297241,-0.7918334603309631,0.3162752389907837
1773146080487102000,0.27710205078125,-1.244484305381775,-1.1229221820831299,0.20387612283229828
1773146080500113200,0.290113037109375,-0.9847140312194824,-1.3904809951782227,0.11667517572641373
1773146080513124000,0.3031240234375,-0.8405499458312988,-1.590080976486206,0.11743875592947006
1773146080526135000,0.316135009765625,-0.8889609575271606,-1.8214460611343384,0.10399972647428513
1773146080539146000,0.32914599609375,-1.0661118030548096,-2.0208933353424072,0.10201441496610641
1773146080552157200,0.3421572265625,-1.2745693922042847,-1.8226678371429443,-0.18387030065059662
1773146080565168000,0.355168212890625,-1.2794562578201294,-1.1514800786972046,-1.0080796480178833
1773146080578179000,0.368178955078125,-1.102000117301941,-0.49418962001800537,-1.687361240386963
1773146080591190000,0.38118994140625,-0.934623122215271,0.2706131041049957,-2.023336887359619
1773146080604201000,0.394200927734375,-0.7574723362922668,0.7954986691474915,-2.050215005874634
1773146080617212000,0.4072119140625,-0.5852084755897522,0.7793107628822327,-1.8153374195098877
1773146080630223000,0.42022314453125,-0.5334376692771912,0.4428769648075104,-1.307403326034546
1773146080643234000,0.433234130859375,-0.6551524996757507,-0.36514443159103394,-0.8167262077331543
1773146080656245000,0.446244873046875,-0.8633046746253967,-1.4149155616760254,-0.531605064868927
1773146080669256000,0.459255859375,-1.072678565979004,-2.2698206901550293,-0.430659681558609
1773146080682267100,0.47226708984375,-1.1181880235671997,-2.600909471511841,-0.43631017208099365
1773146080695278000,0.485278076171875,-1.0062470436096191,-2.7734787464141846,-0.5780308246612549
1773146080708289000,0.4982890625,-0.8295543789863586,-2.7646212577819824,-0.7747292518615723
1773146080721300000,0.511300048828125,-0.6458367705345154,-2.522718906402588,-1.0012073516845703
1773146080734311000,0.524310791015625,-0.5522217750549316,-2.251800298690796,-1.162017583847046
1773146080747321900,0.53732177734375,-0.5676460862159729,-2.1227550506591797,-1.2773182392120361
1773146080760333000,0.5503330078125,-0.6617192625999451,-2.2698206901550293,-1.387273907661438
1773146080773344000,0.563343994140625,-0.8222240209579468,-2.506378173828125,-1.3584105968475342
1773146080786355000,0.57635498046875,-0.8310815095901489,-3.000720500946045,-1.3180934190750122
1773146080799366000,0.589365966796875,-0.7550288438796997,-3.520871877670288,-1.2899936437606812
1773146080812377000,0.602377197265625,-0.5138899683952332,-3.8715083599090576,-1.2455532550811768
1773146080825388000,0.615387939453125,0.03711003437638283,-3.9438958168029785,-1.216995358467102
1773146080838399000,0.62839892578125,0.5119046568870544,-3.715890407562256,-1.271667718887329
1773146080851410000,0.641409912109375,0.8255837559700012,-3.4072511196136475,-1.4915790557861328
1773146080864420900,0.6544208984375,0.9502001404762268,-3.191004991531372,-1.8510730266571045
1773146080877432000,0.66743212890625,0.9660826325416565,-3.0634868144989014,-2.1862850189208984
1773146080890443000,0.680443115234375,1.1024582386016846,-3.070358991622925,-2.4790420532226562
1773146080903454000,0.693453857421875,1.3545926809310913,-3.074024200439453,-2.7588181495666504
1773146080916465000,0.70646484375,1.6559016704559326,-2.972620725631714,-3.0573782920837402
1773146080929475800,0.719475830078125,1.934914231300354,-2.7304129600524902,-3.403127670288086
1773146080942487000,0.732487060546875,2.1893393993377686,-2.2820382118225098,-3.749335289001465
1773146080955498000,0.745498046875,2.4492623805999756,-1.8112140893936157,-4.163806915283203
1773146080968509000,0.758509033203125,2.59006667137146,-1.3237439393997192,-4.50222635269165
1773146080981520000,0.771519775390625,2.6870415210723877,-0.8443678617477417,-4.786125659942627
1773146080994530800,0.78453076171875,2.732703685760498,-0.5145008563995361,-5.041924953460693
1773146081007542000,0.7975419921875,2.90893816947937,-0.30970844626426697,-5.171428680419922
1773146081020553000,0.810552978515625,3.1639740467071533,-0.05635227635502815,-5.03337287902832
1773146081033564000,0.82356396484375,3.2559092044830322,0.20662501454353333,-4.713279724121094
1773146081046574800,0.836574951171875,3.257589101791382,0.10690133273601532,-4.402502536773682
1773146081059586000,0.8495859375,3.1928374767303467,-0.1692095398902893,-4.175260543823242
1773146081072597000,0.862596923828125,3.1676392555236816,-0.3520108163356781,-4.021322727203369
1773146081085608000,0.87560791015625,3.3487606048583984,-0.29504770040512085,-3.847837209701538
1773146081098619000,0.888618896484375,3.5466809272766113,0.057268574833869934,-3.6816821098327637
1773146081111629800,0.9016298828125,3.6761841773986816,0.3500255048274994,-3.529423952102661
1773146081124641000,0.91464111328125,3.677100658416748,0.37033677101135254,-3.445430040359497
1773146081137652000,0.92765185546875,3.5361435413360596,0.023365577682852745,-3.543626546859741
1773146081150663000,0.940662841796875,3.486816167831421,-0.10644318908452988,-3.5504987239837646
1773146081163673900,0.953673828125,3.6094472408294678,-0.0001527161948615685,-3.3986988067626953
1773146081176684800,0.966684814453125,3.6749625205993652,0.13790272176265717,-3.031263828277588
1773146081189696000,0.979696044921875,3.7096290588378906,0.30772313475608826,-2.400851249694824
1773146081202707000,0.99270703125,3.679543972015381,0.5752819180488586,-1.5656464099884033
1773146081215718000,1.0057177734375,3.6143341064453125,0.6908880472183228,-0.8167262077331543
1773146081228728800,1.018728759765625,3.4713919162750244,0.6774490475654602,-0.24327689409255981
1773146081241739800,1.03173974609375,3.3374598026275635,0.6537780165672302,0.1818849891424179
1773146081254751000,1.0447509765625,3.227809429168701,0.6322450637817383,0.43310311436653137
1773146081267762000,1.057761962890625,3.092655658721924,0.6782126426696777,0.49250972270965576
1773146081280772900,1.07077294921875,2.947727918624878,0.7263182401657104,0.494647741317749
1773146081293783800,1.08378369140625,2.7623305320739746,0.7434224486351013,0.5645917654037476
1773146081306795000,1.096794921875,2.478889226913452,0.7751874327659607,0.7531962990760803
1773146081319806000,1.109805908203125,2.093280792236328,0.9127846956253052,1.0639737844467163
1773146081332817000,1.12281689453125,1.7556253671646118,0.8460476994514465,1.2802199125289917
1773146081345827800,1.135827880859375,1.3993384838104248,0.957683265209198,1.444695234298706
1773146081358838800,1.1488388671875,1.1325433254241943,1.2052361965179443,1.5028800964355469
1773146081371849700,1.161849609375,0.9497420191764832,1.496466040611267,1.4781399965286255
1773146081384861000,1.17486083984375,0.7693842053413391,1.6760601997375488,1.3523019552230835
1773146081397871900,1.187871826171875,0.6084213256835938,1.7053817510604858,1.2137882709503174
1773146081410882800,1.2008828125,0.4903717041015625,1.633299708366394,1.111926555633545
1773146081423893800,1.213893798828125,0.3943132162094116,1.540753722190857,1.021213173866272
1773146081436904700,1.22690478515625,0.39018988609313965,1.2985458374023438,0.920115053653717
1773146081449916000,1.239916015625,0.4964803457260132,0.9369138479232788,0.7771727442741394
1773146081462926800,1.2529267578125,0.6386591196060181,0.6420188546180725,0.6033816933631897
1773146081475937800,1.265937744140625,0.7342594861984253,0.4734202027320862,0.4298960864543915
1773146081488948700,1.27894873046875,0.750141978263855,0.5064069032669067,0.38011062145233154
1773146081501960000,1.2919599609375,0.8035926222801208,0.5902481079101562,0.5222893953323364
1773146081514971000,1.304970947265625,0.8573487401008606,0.8061888217926025,0.7405208349227905
1773146081527981800,1.31798193359375,0.8539889454841614,1.0891718864440918,0.9066760540008545
1773146081540992800,1.33099267578125,0.8588758707046509,1.2052361965179443,0.9983057379722595
1773146081554003700,1.344003662109375,0.9167553186416626,1.0813833475112915,0.957683265209198
1773146081567015000,1.357014892578125,1.1716386079788208,0.2444986253976822,-0.2009745091199875
1773146081580025900,1.37002587890625,1.2608249187469482,1.2008074522018433,0.10888664424419403
1773146081593036800,1.383036865234375,0.8833104968070984,0.015729768201708794,0.5303833484649658
1773146081606047700,1.3960478515625,0.360410213470459,-0.04260781779885292,0.5687150955200195
1773146081619058700,1.40905859375,0.3958403766155243,0.3133736252784729,0.1000291109085083
1773146081632070000,1.42206982421875,0.40897396206855774,0.9498947262763977,-0.8138245940208435
1773146081645080800,1.435080810546875,0.13484840095043182,1.2626575231552124,-1.7032437324523926
1773146081658091800,1.448091796875,-0.45769044756889343,0.7597630620002747,-1.9989023208618164
1773146081671102700,1.461102783203125,-1.0763437747955322,0.033139415085315704,-2.126420259475708
1773146081684113700,1.47411376953125,-1.450192928314209,-0.3822486400604248,-2.1549782752990723
1773146081697124900,1.487124755859375,-1.6366595029830933,-0.14034618437290192,-2.1442880630493164
1773146081710135800,1.5001357421875,-1.85092031955719,0.5291616320610046,-2.215606451034546
1773146081723146800,1.513146728515625,-2.086714029312134,1.0480912923812866,-2.109774351119995
1773146081736157700,1.52615771484375,-2.0642647743225098,0.8672752976417542,-1.6621630191802979
1773146081749169000,1.5391689453125,-1.7983858585357666,0.2237292230129242,-1.0989457368850708
1773146081762179800,1.552179931640625,-1.099861979484558,-0.4066832363605499,-0.49342602491378784
1773146081775190800,1.565190673828125,-0.4315759539604187,-0.3194822669029236,-0.23273947834968567
1773146081788201700,1.57820166015625,-0.2626718580722809,-0.14599667489528656,-0.0616973415017128
1773146081801212700,1.591212646484375,-0.2626718580722809,-0.22663083672523499,-0.009162971749901772
1773146081814224000,1.604223876953125,-0.1718057245016098,-0.3915643095970154,0.03848448023200035
1773146081827234800,1.61723486328125,-0.022754713892936707,-0.5471821427345276,0.1415679156780243
1773146081840245800,1.630245849609375,0.2162461280822754,-0.5748237371444702,0.3529271185398102
1773146081853256700,1.643256591796875,0.49480047821998596,-0.23686282336711884,0.5051851868629456
1773146081866268000,1.656267822265625,0.5619956254959106,0.31459537148475647,0.5039634704589844
1773146081879278800,1.66927880859375,0.47372564673423767,0.458301305770874,0.264046311378479
1773146081892289800,1.682289794921875,0.29535311460494995,0.29138249158859253,0.09147699922323227
1773146081905300700,1.69530078125,0.09819651395082474,0.44577857851982117,-0.02260199747979641
1773146081918312000,1.70831201171875,-0.31230461597442627,0.6965385675430298,-0.24572035670280457
1773146081931323000,1.721322998046875,-0.9549343585968018,0.729983389377594,-0.4192059636116028
1773146081944333800,1.734333740234375,-1.0111339092254639,0.6256782412528992,-0.35537058115005493
1773146081957344800,1.7473447265625,-0.5871937870979309,0.7597630620002747,-0.5349648594856262
1773146081970355700,1.760355712890625,-0.8022181987762451,0.9457713961601257,-0.7548761367797852
1773146081983366700,1.77336669921875,-1.3283255100250244,0.915686309337616,-0.7771727442741394
1773146081996377900,1.7863779296875,-1.6077960729599,0.800385594367981,-0.6537780165672302
1773146082009388800,1.799388916015625,-2.033721685409546,0.5093085169792175,-0.7287616729736328
1773146082022399700,1.812399658203125,-2.7171266078948975,-0.4269944727420807,-0.8839213252067566
1773146082035410700,1.82541064453125,-3.254992961883545,-1.4610358476638794,-0.8492547869682312
1773146082048421600,1.838421630859375,-3.5051422119140625,-1.6980513334274292,-0.4335612654685974
1773146082061432800,1.851432861328125,-3.498575210571289,-1.2570070028305054,-0.3630063831806183
1773146082074443800,1.86444384765625,-3.465130567550659,-1.0615302324295044,-0.3805687427520752
1773146082087454700,1.877454833984375,-3.1887142658233643,-0.6559160351753235,-0.11621702462434769
1773146082100465700,1.890465576171875,-3.0966262817382812,-1.0158681869506836,0.004734201822429895
1773146082113476600,1.9034765625,-2.776991367340088,-1.2573124170303345,0.2591593861579895
1773146082126487800,1.91648779296875,-2.2898266315460205,-0.9938769936561584,0.3964512348175049
1773146082139498800,1.929498779296875,-1.7405065298080444,-0.6791289448738098,0.3874409794807434
1773146082152509700,1.942509765625,-1.2925899028778076,-0.4172206521034241,0.4298960864543915
1773146082165520600,1.955520751953125,-0.952949047088623,0.06856957077980042,0.18952079117298126
1773146082178531600,1.968531494140625,-0.3582721948623657,0.9735657572746277,-0.08002328872680664
1773146082191542800,1.981542724609375,0.33399030566215515,1.695913314819336,-0.37323838472366333
1773146082204553700,1.9945537109375,0.6633991599082947,1.53510320186615,-0.583375871181488
1773146082217564700,2.007564697265625,0.6907353401184082,1.074511170387268,-0.425009161233902
1773146082230575600,2.02057568359375,0.665842592716217,1.1197150945663452,-0.24663665890693665
1773146082243586600,2.033586669921875,0.6682860851287842,1.4121665954589844,-0.12278381735086441
1773146082256597800,2.04659765625,0.7322741746902466,1.5961896181106567,-0.06612611562013626
1773146082269608700,2.059608642578125,0.887891948223114,1.6003129482269287,-0.047494735568761826
1773146082282619600,2.07261962890625,1.0816887617111206,1.4869976043701172,-0.07147117704153061
1773146082295630600,2.085630615234375,1.1753038167953491,1.2851067781448364,-0.07391463965177536
1773146082308641500,2.0986416015625,1.1728603839874268,1.0036507844924927,-0.047036588191986084
1773146082321652500,2.111652587890625,1.0474803447723389,0.8785762786865234,0.02260199747979641
1773146082334663700,2.12466357421875,0.4243983030319214,0.7426588535308838,0.15210533142089844
1773146082347674600,2.137674560546875,0.18493930995464325,0.09834922850131989,0.17119485139846802
1773146082360685600,2.150685546875,0.6117810606956482,0.9995275139808655,-0.09957095980644226
1773146082373696500,2.163696533203125,0.7012727856636047,0.9931133985519409,-0.33368489146232605
1773146082386707700,2.176707763671875,0.7261655330657959,0.7793107628822327,-0.4819723069667816
1773146082399718700,2.18971875,0.6218603253364563,0.64278244972229,-0.44898560643196106
1773146082412729600,2.2027294921875,0.5409207344055176,0.3993528485298157,-0.24663665890693665
1773146082425740500,2.215740478515625,0.4618137776851654,0.379347026348114,-0.027488915249705315
1773146082438751500,2.22875146484375,0.3559814393520355,0.462424635887146,0.09957095980644226
1773146082451762400,2.241762451171875,0.2049451321363449,0.46486809849739075,0.09147699922323227
1773146082464773600,2.254773681640625,0.05497783049941063,0.42653632164001465,-0.005955931730568409
1773146082477784600,2.26778466796875,-0.03741546720266342,0.3480401933193207,-0.08078686892986298
1773146082490795500,2.28079541015625,-0.03940077871084213,0.27259841561317444,-0.05482511222362518
1773146082503806500,2.293806396484375,0.024434590712189674,0.25060728192329407,0.05803215503692627
1773146082516817700,2.306817626953125,0.0896444097161293,0.23716825246810913,0.21029019355773926
1773146082529828600,2.31982861328125,0.13072505593299866,0.24663665890693665,0.2906189262866974
1773146082542839600,2.332839599609375,0.1441640853881836,0.3165806829929352,0.24663665890693665
1773146082555850500,2.3458505859375,0.20647229254245758,0.34437501430511475,0.22128576040267944
1773146082568861400,2.358861328125,0.2900080680847168,0.48853909969329834,0.27550002932548523
1773146082581872400,2.371872314453125,0.35155269503593445,0.7466294765472412,0.2490801066160202
1773146082594883600,2.384883544921875,0.2692386507987976,0.6916516423225403,-0.17653992772102356
1773146082607894500,2.39789453125,0.2868010103702545,0.019394956529140472,-0.8297070860862732
1773146082620905500,2.410905517578125,0.25091269612312317,0.16966769099235535,-0.9095776677131653
1773146082633916400,2.42391650390625,0.3347539007663727,-0.031612250953912735,-0.2600756883621216
1773146082646927400,2.43692724609375,0.20937390625476837,-0.1049160286784172,0.347582072019577
1773146082659938600,2.4499384765625,0.1844811588525772,-0.02458730712532997,0.36712974309921265
1773146082672949500,2.462949462890625,0.08307760953903198,0.4734202027320862,-0.07513637095689774
1773146082685960400,2.47596044921875,0.14950916171073914,0.5174024701118469,-0.2176205813884735
1773146082698971400,2.488971435546875,0.1490510106086731,0.4465421438217163,-0.16676609218120575
1773146082711982600,2.501982666015625,0.13652828335762024,0.43310311436653137,-0.08567378669977188
1773146082724993500,2.51499365234375,0.11972949653863907,0.4705185890197754,-0.02916879393160343
1773146082738004500,2.52800439453125,0.10965022444725037,0.5112938284873962,-0.01359174121171236
1773146082751015400,2.541015380859375,0.09208786487579346,0.4754055142402649,-0.0206166859716177
1773146082764026400,2.5540263671875,0.0769689604640007,0.4338667094707489,-0.03481929376721382
1773146082777037300,2.567037353515625,0.06352993845939636,0.44700029492378235,-0.04993819445371628
1773146082790048500,2.580048583984375,0.0639880821108818,0.4604393243789673,-0.05238165333867073
1773146082803059500,2.5930595703125,0.05864302068948746,0.4917461574077606,-0.05146535858511925
1773146082816070400,2.6060703125,0.044440411031246185,0.5145008563995361,-0.052687086164951324
1773146082829081300,2.619081298828125,0.01954767294228077,0.5169443488121033,-0.053603384643793106
1773146082842092500,2.632092529296875,-0.003970621153712273,0.49739664793014526,-0.0539088174700737
1773146082855103500,2.645103515625,-0.022754713892936707,0.5105302333831787,-0.06368265300989151
1773146082868114400,2.658114501953125,-0.03329212963581085,0.5374082922935486,-0.07803797721862793
1773146082881125400,2.67112548828125,-0.04230238497257233,0.5157225728034973,-0.09300415962934494
1773146082894136300,2.68413623046875,-0.04673115536570549,0.5215258002281189,-0.10766492038965225
1773146082907147300,2.697147216796875,-0.04306596517562866,0.5374082922935486,-0.1207985132932663
1773146082920158500,2.710158447265625,-0.03741546720266342,0.5528326034545898,-0.13133592903614044
1773146082933169400,2.72316943359375,-0.03130681812763214,0.5784889459609985,-0.14233149588108063
1773146082946180400,2.736180419921875,-0.01954767294228077,0.5845975875854492,-0.1594357043504715
1773146082959191300,2.74919140625,-0.013744457624852657,0.5887209177017212,-0.17974695563316345
1773146082972202500,2.762202392578125,-0.008552107028663158,0.6114756464958191,-0.19898919761180878
1773146082985213400,2.77521337890625,-0.004428769461810589,0.6375901103019714,-0.22708898782730103
1773146082998224400,2.788224365234375,0.003359756199643016,0.6449204683303833,-0.26618432998657227
1773146083011235300,2.8012353515625,0.01511890348047018,0.6456840634346008,-0.3104720115661621
1773146083024246300,2.814246337890625,0.02367101050913334,0.6456840634346008,-0.3565923273563385
1773146083037257200,2.82725732421875,0.027336198836565018,0.6513345837593079,-0.40546149015426636
1773146083050268400,2.840268310546875,0.03145953640341759,0.6652317643165588,-0.45707955956459045
1773146083063279400,2.853279296875,0.03756818547844887,0.7047852277755737,-0.523969292640686
1773146083076290300,2.866290283203125,0.04978547990322113,0.6892082095146179,-0.607046902179718
1773146083089301200,2.87930126953125,0.05711585655808449,0.6940951347351074,-0.7026472091674805
1773146083102312400,2.8923125,0.05787943676114082,0.7092140316963196,-0.8057306408882141
1773146083115323400,2.905323486328125,0.04978547990322113,0.739757239818573,-0.9210313558578491
1773146083128334300,2.918334228515625,0.0461202897131443,0.7722858190536499,-1.0019710063934326
1773146083141345300,2.93134521484375,0.040775224566459656,0.7768672704696655,-1.041982650756836
1773146083154356200,2.944356201171875,0.04764745384454727,0.7771727442741394,-1.052061915397644
1773146083167367200,2.9573671875,0.07498364895582199,0.7996219992637634,-1.04076087474823
1773146083180378400,2.97037841796875,0.1185077652335167,0.8545998334884644,-1.0432043075561523
1773146083193389300,2.983389404296875,0.16737695038318634,0.9902117848396301,-1.0065524578094482
1773146083206400300,2.996400146484375,0.20861032605171204,0.9735657572746277,-0.9335541129112244
1773146083219411200,3.0094111328125,0.3283398151397705,0.6571378111839294,-0.7768672704696655
1773146083232422100,3.022422119140625,0.4757109582424164,0.4860956370830536,-0.42088583111763
1773146083245433000,3.03543310546875,0.5807796716690063,0.3116937577724457,-0.02672533318400383
1773146083258444300,3.0484443359375,0.6081159114837646,-0.05925388261675835,0.2237292230129242
1773146083271455200,3.061455322265625,0.5604684352874756,-0.4543306827545166,0.33658650517463684
1773146083284466200,3.074466064453125,0.5074759125709534,-0.6962331533432007,0.351705402135849
1773146083297477000,3.08747705078125,0.43463030457496643,-0.7405208349227905,0.2136499583721161
1773146083310488300,3.10048828125,0.3124573230743408,-0.5760455131530762,-0.018173227086663246
1773146083323499300,3.113499267578125,0.16783510148525238,-0.3040579557418823,-0.24297146499156952
1773146083336510200,3.12651025390625,0.03756818547844887,-0.004276053514331579,-0.39767298102378845
1773146083349521200,3.139521240234375,-0.056199558079242706,0.28328853845596313,-0.4350884258747101
1773146083362532000,3.152531982421875,-0.05864302068948746,0.5190823674201965,-0.35537058115005493
1773146083375543300,3.165543212890625,0.01511890348047018,0.60490882396698,-0.21930044889450073
1773146083388554200,3.17855419921875,0.1340848207473755,0.5279398560523987,-0.07101303339004517
1773146083401565200,3.191565185546875,0.26969680190086365,0.35124725103378296,0.10125083476305008
1773146083414576000,3.204576171875,0.3669770061969757,0.1415679156780243,0.29703301191329956
1773146083427587000,3.217587158203125,0.40607234835624695,-0.03283398225903511,0.5076286196708679
1773146083440598300,3.230598388671875,0.3767508566379547,-0.13912445306777954,0.7055488228797913
1773146083453609200,3.243609130859375,0.2948949635028839,-0.14431680738925934,0.8741474747657776
1773146083466620200,3.2566201171875,0.20570871233940125,-0.0616973415017128,1.008537769317627
1773146083479631000,3.269631103515625,0.12431098520755768,0.09590577334165573,1.1006256341934204
1773146083492642000,3.28264208984375,0.10751219838857651,0.2542724609375,1.1546871662139893
1773146083505653200,3.2956533203125,0.15241076052188873,0.36514443159103394,1.177594542503357
1773146083518664200,3.308664306640625,0.19150610268115997,0.4050033390522003,1.1864521503448486
1773146083531675100,3.321675048828125,0.18417572975158691,0.33857181668281555,1.2108867168426514
1773146083544686000,3.33468603515625,0.15928299725055695,0.21197007596492767,1.2402082681655884
1773146083557697000,3.347697021484375,0.09941824525594711,0.10079269111156464,1.2377647161483765
1773146083570708200,3.360708251953125,0.03145953640341759,-0.03481929376721382,1.1363612413406372
1773146083583719200,3.37371923828125,-0.035735588520765305,-0.16065743565559387,0.963333785533905
1773146083596730000,3.386730224609375,-0.1444695144891739,-0.26618432998657227,0.7402154207229614
1773146083609741000,3.399740966796875,-0.2935205399990082,-0.33536475896835327,0.514195442199707
1773146083622752000,3.412751953125,-0.4862483739852905,-0.38789913058280945,0.3585776388645172
1773146083635763200,3.42576318359375,-0.6600393652915955,-0.27137666940689087,0.2669478952884674
1773146083648774100,3.438774169921875,-0.6563742160797119,-0.16264274716377258,0.29016077518463135
1773146083661785000,3.45178515625,-0.6316341757774353,-0.1516471803188324,0.3842339515686035
1773146083674796000,3.464796142578125,-0.6059778332710266,-0.19898919761180878,0.4702131748199463
1773146083687807200,3.47780712890625,-0.5900954008102417,-0.2730565667152405,0.5157225728034973
1773146083700818200,3.490818115234375,-0.5444332361221313,-0.23884813487529755,0.4399753510951996
1773146083713829000,3.5038291015625,-0.5241219997406006,-0.29672756791114807,0.3610210716724396
1773146083726840000,3.516840087890625,-0.5192350745201111,-0.3370446562767029,0.30894485116004944
1773146083739851000,3.52985107421875,-0.49144071340560913,-0.3321577310562134,0.2991710305213928
1773146083752862000,3.542862060546875,-0.45280352234840393,-0.28848087787628174,0.3202458620071411
1773146083765873200,3.555873046875,-0.4043924808502197,-0.2364046722650528,0.3488037884235382
1773146083778884000,3.568884033203125,-0.3452913165092468,-0.19730933010578156,0.3715584874153137
1773146083791895000,3.58189501953125,-0.2712239623069763,-0.18921536207199097,0.3756818473339081
1773146083804906000,3.594906005859375,-0.1893680840730667,-0.20509785413742065,0.34315329790115356
1773146083817917200,3.607917236328125,-0.11117739230394363,-0.2383899837732315,0.2811505198478699
1773146083830928100,3.62092822265625,-0.04474584385752678,-0.28405213356018066,0.20708316564559937
1773146083843939000,3.63393896484375,0.004886918235570192,-0.33047783374786377,0.12690715491771698
1773146083856950000,3.646949951171875,0.03711003437638283,-0.3744601011276245,0.05757400393486023
1773146083869961000,3.6599609375,0.05711585655808449,-0.4079049527645111,0.013286309316754341
1773146083882972200,3.67297216796875,0.06719512492418289,-0.4050033390522003,-0.004734201822429895
1773146083895983000,3.685983154296875,0.07819069176912308,-0.35246896743774414,-0.01359174121171236
1773146083908994000,3.698994140625,0.09651663154363632,-0.3065013885498047,-0.014508038759231567
1773146083922005000,3.7120048828125,0.11728604137897491,-0.30314165353775024,-0.001832594396546483
1773146083935016000,3.725015869140625,0.13041962683200836,-0.3211621642112732,0.02672533318400383
1773146083948027100,3.738027099609375,0.1536324918270111,-0.34834563732147217,0.031612250953912735
1773146083961038000,3.7510380859375,0.17883066833019257,-0.3923279047012329,-0.007483093533664942
1773146083974049000,3.764049072265625,0.16096286475658417,-0.4384481906890869,-0.064598947763443
1773146083987060000,3.77706005859375,0.1487455666065216,-0.4355465769767761,-0.06734783947467804
1773146084000071000,3.79007080078125,0.12873975932598114,-0.3871355652809143,-0.021380268037319183
1773146084013082000,3.80308203125,0.1026252806186676,-0.31902414560317993,0.027488915249705315
1773146084026093000,3.816093017578125,0.07422006875276566,-0.2845102846622467,0.05482511222362518
1773146084039104000,3.82910400390625,0.024434590712189674,-0.33368489146232605,0.043371398001909256
1773146084052115000,3.842114990234375,-0.012217295356094837,-0.4812087416648865,-0.004734201822429895
1773146084065126100,3.855126220703125,0.006566796451807022,-0.687986433506012,-0.1000291109085083
1773146084078137000,3.86813720703125,0.0720820426940918,-0.687986433506012,-0.164322629570961
1773146084091148000,3.88114794921875,0.08277218043804169,-0.053145237267017365,-0.10125083476305008
1773146084104159000,3.894158935546875,0.01511890348047018,0.791528046131134,-0.04780016839504242
1773146084117170000,3.907169921875,-0.050090912729501724,0.8826996088027954,-0.22495095431804657
1773146084130181000,3.92018115234375,-0.18112140893936157,0.3370446562767029,-0.593149721622467
1773146084143192000,3.933192138671875,-0.29596397280693054,-0.030695954337716103,-0.9364557266235352
1773146084156203000,3.946203125,-0.16447533667087555,-0.18387030065059662,-1.1253656148910522
1773146084169214000,3.9592138671875,-0.08429934084415436,-0.2510654330253601,-1.1136064529418945
1773146084182225000,3.972224853515625,-0.013744457624852657,-0.19440771639347076,-0.8460476994514465
1773146084195236000,3.985236083984375,0.11728604137897491,0.01282816007733345,-0.48731738328933716
1773146084208247000,3.9982470703125,0.2211330533027649,0.15210533142089844,-0.15286891162395477
1773146084221258000,4.011258056640625,0.25045454502105713,0.07589995115995407,0.07712167501449585
1773146084234269000,4.02426904296875,0.23335035145282745,-0.1418733447790146,0.15699224174022675
1773146084247279900,4.03727978515625,0.18325942754745483,-0.337808221578598,0.07712167501449585
1773146084260291000,4.050291015625,0.10063996911048889,-0.4013381600379944,-0.11346813291311264
1773146084273302000,4.063302001953125,0.021991131827235222,-0.41676250100135803,-0.3065013885498047
1773146084286313000,4.07631298828125,-0.12736530601978302,-0.4961749315261841,-0.47174033522605896
1773146084299324000,4.089323974609375,-0.2883281707763672,-0.6815723776817322,-0.6094903349876404
1773146084312334800,4.1023349609375,-0.3900371491909027,-0.8049670457839966,-0.7218894362449646
1773146084325346000,4.115345947265625,-0.41416633129119873,-0.8297070860862732,-0.7637336850166321
1773146084338357000,4.12835693359375,-0.3481929302215576,-0.7903063297271729,-0.7267763614654541
1773146084351368000,4.141367919921875,-0.1441640853881836,-0.6925679445266724,-0.6378955245018005
1773146084364379000,4.15437890625,0.03543015569448471,-0.5120574235916138,-0.5007563829421997
1773146084377389800,4.167389892578125,0.13530655205249786,-0.2945895493030548,-0.3500255048274994
1773146084390401000,4.180401123046875,0.16661337018013,-0.0616973415017128,-0.25793763995170593
1773146084403412000,4.193411865234375,0.17638720571994781,0.18875721096992493,-0.21685700118541718
1773146084416423000,4.2064228515625,0.17883066833019257,0.41844236850738525,-0.16508620977401733
1773146084429433900,4.219433837890625,0.21426081657409668,0.5813905596733093,-0.08048143237829208
1773146084442445000,4.232445068359375,0.23548837006092072,0.6733257174491882,0.002290742937475443
1773146084455456000,4.2454560546875,0.28756460547447205,0.771064043045044,0.05024362727999687
1773146084468467000,4.258467041015625,0.3217730224132538,0.8309288024902344,0.08078686892986298
1773146084481478000,4.271477783203125,0.342542439699173,0.860708475112915,0.08292489498853683
1773146084494488800,4.28448876953125,0.36163195967674255,0.870482325553894,0.06734783947467804
1773146084507500000,4.2975,0.3860665261745453,0.8639155030250549,0.053603384643793106
1773146084520511000,4.310510986328125,0.41462448239326477,0.8297070860862732,0.03649916872382164
1773146084533522000,4.32352197265625,0.43463030457496643,0.780837893486023,-0.002290742937475443
1773146084546532900,4.336532958984375,0.4353938698768616,0.74540776014328,-0.07803797721862793
1773146084559543800,4.349543701171875,0.416304349899292,0.7292198538780212,-0.17043127119541168
1773146084572555000,4.362554931640625,0.38728827238082886,0.7463240623474121,-0.24663665890693665
1773146084585566000,4.37556591796875,0.35475972294807434,0.7735075354576111,-0.2942841053009033
1773146084598577000,4.388576904296875,0.33322674036026,0.7515164017677307,-0.32360562682151794
1773146084611587800,4.401587890625,0.3168860971927643,0.7380773425102234,-0.347582072019577
1773146084624598800,4.414598876953125,0.31001389026641846,0.7451022863388062,-0.35934120416641235
1773146084637610000,4.42760986328125,0.3087921440601349,0.7392991185188293,-0.36422812938690186
1773146084650621000,4.440620849609375,0.31154105067253113,0.717307984828949,-0.36514443159103394
1773146084663632000,4.4536318359375,0.31520622968673706,0.6953168511390686,-0.36514443159103394
1773146084676642800,4.466642822265625,0.3185659945011139,0.6717985272407532,-0.36880961060523987
1773146084689653800,4.47965380859375,0.31932955980300903,0.6534726023674011,-0.37323838472366333
1773146084702664700,4.492664794921875,0.3173442482948303,0.6420188546180725,-0.37858346104621887
1773146084715676000,4.505676025390625,0.3087921440601349,0.6412553191184998,-0.389120876789093
1773146084728686800,4.518686767578125,0.28924447298049927,0.6635518670082092,-0.4062250852584839
1773146084741697800,4.53169775390625,0.25900667905807495,0.6998983025550842,-0.43142324686050415
1773146084754708700,4.544708740234375,0.22693626582622528,0.7512109875679016,-0.4575377106666565
1773146084767720000,4.557719970703125,0.20372340083122253,0.8277217745780945,-0.4741837978363037
1773146084780731000,4.57073095703125,0.17883066833019257,0.9259182810783386,-0.4766272306442261
1773146084793741800,4.583741943359375,0.14630211889743805,1.0285435914993286,-0.462424635887146
1773146084806752800,4.596752685546875,0.10995566099882126,1.1226167678833008,-0.4546361267566681
1773146084819763700,4.609763671875,0.07742711156606674,1.2289072275161743,-0.44211336970329285
1773146084832774700,4.622774658203125,0.06230820715427399,1.333975911140442,-0.4021017551422119
1773146084845785900,4.635785888671875,0.09086613357067108,1.4088069200515747,-0.3500255048274994
1773146084858796800,4.648796875,0.15073087811470032,1.450345754623413,-0.28405213356018066
1773146084871807700,4.661807861328125,0.18814635276794434,1.4923427104949951,-0.17898337543010712
1773146084884818700,4.674818603515625,0.21135921776294708,1.3672680854797363,-0.09422589093446732
1773146084897829600,4.68782958984375,0.38698282837867737,0.9469931125640869,-0.033139415085315704
1773146084910840800,4.7008408203125,0.5580250024795532,0.7800742983818054,0.1366809904575348
1773146084923851800,4.713851806640625,0.6459894776344299,0.6395754218101501,0.33169957995414734
1773146084936862700,4.72686279296875,0.6682860851287842,0.4042397737503052,0.42653632164001465
1773146084949873700,4.739873779296875,0.6447677612304688,0.17088942229747772,0.4335612654685974
1773146084962884600,4.752884521484375,0.5409207344055176,0.11423171311616898,0.4237874448299408
1773146084975895600,4.7658955078125,0.39217519760131836,0.2237292230129242,0.3903425931930542
1773146084988906800,4.77890673828125,0.19837833940982819,0.4335612654685974,0.3507890999317169
1773146085001917700,4.791917724609375,-0.004886918235570192,0.6786707639694214,0.3614792227745056
1773146085014928600,4.8049287109375,-0.18081597983837128,0.8993456959724426,0.43631017208099365
1773146085027939600,4.817939697265625,-0.282524973154068,1.0737475156784058,0.5528326034545898
1773146085040950800,4.83095068359375,-0.2813032269477844,1.1397209167480469,0.6994401812553406
1773146085053961700,4.843961669921875,-0.17623448371887207,1.041066288948059,0.8521563410758972
1773146085066972700,4.85697265625,-0.0007635809597559273,0.8191696405410767,0.9902117848396301
1773146085079983600,4.869983642578125,0.17837251722812653,0.5386300086975098,1.1299470663070679
1773146085092994600,4.88299462890625,0.2692386507987976,0.19562944769859314,1.2695297002792358
1773146085106005800,4.896005859375,0.22846342623233795,-0.11957678198814392,1.397047758102417
1773146085119016700,4.9090166015625,0.1233946830034256,-0.42134398221969604,1.5111267566680908
1773146085132027600,4.922027587890625,0.022449281066656113,-0.6012436747550964,1.5526655912399292
1773146085145038600,4.93503857421875,-0.0899498388171196,-0.5960513353347778,1.444695234298706
1773146085158049500,4.948049560546875,-0.2202167510986328,-0.48731738328933716,1.1380411386489868
1773146085171060700,4.961060791015625,-0.318871408700943,-0.4482220411300659,0.7597630620002747
1773146085184071700,4.97407177734375,-0.41126471757888794,-0.43753188848495483,0.4653262495994568
1773146085197082600,4.98708251953125,-0.4938841760158539,-0.4387536346912384,0.26450446248054504
1773146085210093600,5.000093505859375,-0.5378664135932922,-0.5137372612953186,0.16386447846889496
1773146085223104500,5.0131044921875,-0.5774199366569519,-0.6786707639694214,0.1623373180627823
1773146085236115700,5.02611572265625,-0.6568323373794556,-1.004414439201355,0.2522871494293213
1773146085249126700,5.039126708984375,-0.7191405892372131,-1.1991275548934937,0.30772313475608826
1773146085262137600,5.0521376953125,-0.7061597108840942,-1.2692242860794067,0.32971426844596863
1773146085275148500,5.0651484375,-0.6682860851287842,-1.2191333770751953,0.3455967605113983
1773146085288159500,5.078159423828125,-0.6018545031547546,-1.0997092723846436,0.35934120416641235
1773146085301170700,5.091170654296875,-0.5412262082099915,-1.0264055728912354,0.37858346104621887
1773146085314181600,5.104181640625,-0.49602219462394714,-1.023962140083313,0.37690356373786926
1773146085327192600,5.117192626953125,-0.43493571877479553,-1.080161690711975,0.33536475896835327
1773146085340203500,5.13020361328125,-0.3582721948623657,-1.1580469608306885,0.2730565667152405
1773146085353214500,5.14321435546875,-0.2842048406600952,-1.2023346424102783,0.2136499583721161
1773146085366225700,5.1562255859375,-0.22266021370887756,-1.1856884956359863,0.18341214954853058
1773146085379236600,5.169236572265625,-0.16615521907806396,-1.1136064529418945,0.185092031955719
1773146085392247600,5.18224755859375,-0.1127045527100563,-1.0261001586914062,0.20021092891693115
1773146085405258500,5.195258544921875,-0.06719512492418289,-0.9474512934684753,0.21120649576187134
1773146085418269700,5.208269775390625,-0.023518294095993042,-0.8912517428398132,0.20540328323841095
1773146085431280600,5.22128076171875,0.02000582218170166,-0.8538362383842468,0.17653992772102356
1773146085444291600,5.23429150390625,0.06520981341600418,-0.8220712542533875,0.1305723488330841
1773146085457302500,5.247302490234375,0.10873392969369888,-0.7849612236022949,0.07192932814359665
1773146085470313500,5.2603134765625,0.1568395346403122,-0.7417425513267517,0.007483093533664942
1773146085483324700,5.27332470703125,0.21135921776294708,-0.680350661277771,-0.058795735239982605
1773146085496335600,5.286335693359375,0.2724456787109375,-0.5984947681427002,-0.09300415962934494
1773146085509346600,5.2993466796875,0.3271180987358093,-0.5548179149627686,-0.07589995115995407
1773146085522357500,5.312357421875,0.37232208251953125,-0.60490882396698,-0.043371398001909256
1773146085535368700,5.32536865234375,0.4182896614074707,-0.7402154207229614,-0.0487164668738842
1773146085548379600,5.338379638671875,0.4581485986709595,-0.8883501291275024,-0.09834922850131989
1773146085561390600,5.351390625,0.4586067199707031,-0.9527963399887085,-0.14401137828826904
1773146085574401500,5.364401611328125,0.4153880476951599,-0.8660535216331482,-0.1366809904575348
1773146085587412500,5.37741259765625,0.37720900774002075,-0.7263182401657104,-0.07635809481143951
1773146085600423400,5.39042333984375,0.35475972294807434,-0.6400335431098938,-0.03527744114398956
1773146085613434600,5.4034345703125,0.3266599476337433,-0.6464476585388184,-0.056810423731803894
1773146085626445600,5.416445556640625,0.30054548382759094,-0.6830995678901672,-0.12476912885904312
1773146085639456500,5.42945654296875,0.28267768025398254,-0.7026472091674805,-0.18096868693828583
1773146085652467500,5.442467529296875,0.21059563755989075,-0.6473639607429504,-0.18753549456596375
1773146085665478400,5.455478515625,-0.010537417605519295,-0.2009745091199875,-0.06612611562013626
1773146085678489600,5.468489501953125,-0.25809037685394287,0.4062250852584839,-0.04169152304530144
1773146085691500500,5.48150048828125,-0.41004297137260437,0.32360562682151794,-0.29825472831726074
1773146085704511500,5.494511474609375,-0.36163195967674255,-0.2906189262866974,-0.7463240623474121
1773146085717522400,5.5075224609375,-0.3966039717197418,-0.5752819180488586,-1.0456477403640747
1773146085730533600,5.52053369140625,-0.38728827238082886,-0.4147771894931793,-1.0627520084381104
1773146085743544600,5.533544677734375,-0.2968802750110626,-0.14110976457595825,-0.8929315805435181
1773146085756555500,5.546555419921875,-0.19914191961288452,0.060933761298656464,-0.6791289448738098
1773146085769566500,5.55956640625,-0.09728021919727325,0.13545925915241241,-0.5064069032669067
1773146085782577400,5.572577392578125,-0.029626941308379173,0.10613775253295898,-0.35124725103378296
1773146085795588600,5.585588623046875,0.02611446939408779,-0.08491020649671555,-0.18875721096992493
1773146085808599600,5.598599609375,0.056199558079242706,-0.3292561173439026,-0.07803797721862793
1773146085821610500,5.611610595703125,0.059864748269319534,-0.5051851868629456,-0.03848448023200035
1773146085834621400,5.624621337890625,0.005803215317428112,-0.5780308246612549,-0.06291907280683517
1773146085847632400,5.63763232421875,-0.06719512492418289,-0.6102539300918579,-0.1533270627260208
1773146085860643600,5.6506435546875,-0.12583814561367035,-0.6195695996284485,-0.3104720115661621
1773146085873654500,5.663654541015625,-0.2548833191394806,-0.6192641854286194,-0.4482220411300659
1773146085886665500,5.67666552734375,-0.3127627670764923,-0.5007563829421997,-0.5435169339179993
1773146085899676400,5.689676513671875,-0.2724456787109375,-0.2620609998703003,-0.5919279456138611
1773146085912687400,5.702687255859375,-0.19822561740875244,-0.039248060435056686,-0.6134609580039978
1773146085925698600,5.715698486328125,-0.08307760953903198,0.18753549456596375,-0.583375871181488
1773146085938709500,5.72870947265625,0.010690134018659592,0.4013381600379944,-0.5112938284873962
1773146085951720400,5.741720458984375,0.0591011680662632,0.5716167092323303,-0.42653632164001465
1773146085964731400,5.7547314453125,0.08918625861406326,0.6957749724388123,-0.33826637268066406
1773146085977742600,5.76774267578125,0.13072505593299866,0.8000801205635071,-0.23105959594249725
1773146085990753500,5.78075341796875,0.17806708812713623,0.8709404468536377,-0.10644318908452988
1773146086003764500,5.793764404296875,0.2130390852689743,0.924238383769989,-0.014049889519810677
1773146086016775400,5.806775390625,0.23136503994464874,0.975092887878418,0.027488915249705315
1773146086029786400,5.819786376953125,0.2370155304670334,1.0244202613830566,0.020922118797898293
1773146086042797300,5.83279736328125,0.23426663875579834,1.0667226314544678,-0.015271619893610477
1773146086055808500,5.84580859375,0.24724751710891724,1.1013891696929932,-0.05558869615197182
1773146086068819500,5.8588193359375,0.27855435013771057,1.1221586465835571,-0.08048143237829208
1773146086081830400,5.871830322265625,0.32009315490722656,1.088408350944519,-0.09300415962934494
1773146086094841300,5.88484130859375,0.35063639283180237,1.039539098739624,-0.11545344442129135
1773146086107852300,5.897852294921875,0.3633118271827698,0.9926552772521973,-0.15012001991271973
1773146086120863500,5.910863525390625,0.35643959045410156,0.9579886794090271,-0.19165882468223572
1773146086133874400,5.92387451171875,0.3222311735153198,0.9828814268112183,-0.24251331388950348
1773146086146885400,5.936885498046875,0.30024003982543945,0.9286671876907349,-0.2767217457294464
1773146086159896300,5.949896240234375,0.2672533392906189,0.9149227142333984,-0.29794928431510925
1773146086172907300,5.9629072265625,0.22724169492721558,0.9022472500801086,-0.32681265473365784
1773146086185918500,5.97591845703125,0.19883649051189423,0.880256175994873,-0.35537058115005493
1773146086198929400,5.988929443359375,0.18173226714134216,0.8541416525840759,-0.3744601011276245
1773146086211940400,6.0019404296875,0.17104214429855347,0.8355103135108948,-0.3837758004665375
1773146086224951300,6.014951416015625,0.1568395346403122,0.8277217745780945,-0.37522369623184204
1773146086237962200,6.027962158203125,0.14462223649024963,0.8431460857391357,-0.3451386094093323
1773146086250973400,6.040973388671875,0.12461641430854797,0.8794925808906555,-0.30283620953559875
1773146086263984400,6.053984375,0.11774418503046036,0.8484911918640137,-0.24083344638347626
1773146086276995300,6.066995361328125,0.10430516302585602,0.864831805229187,-0.2185368686914444
1773146086290006300,6.08000634765625,0.09941824525594711,0.8765909671783447,-0.21731515228748322
1773146086303017200,6.093017333984375,0.11407899856567383,0.8684970140457153,-0.20051635801792145
1773146086316028400,6.1060283203125,0.15806126594543457,0.8248201608657837,-0.1611155867576599
1773146086329039400,6.119039306640625,0.2240346521139145,0.773202121257782,-0.11591159552335739
1773146086342050300,6.13205029296875,0.29046618938446045,0.7414371371269226,-0.0792597085237503
1773146086355061200,6.145061279296875,0.3090975880622864,0.6786707639694214,-0.04657844081521034
1773146086368072200,6.158072265625,0.39507678151130676,0.4335612654685974,-0.09789107739925385
1773146086381083400,6.17108349609375,0.5832231640815735,0.12843431532382965,-0.12400554865598679
1773146086394094300,6.18409423828125,0.6438514590263367,0.30604326725006104,0.05070177838206291
1773146086407105300,6.197105224609375,0.610559344291687,0.36835145950317383,0.2237292230129242
1773146086420116200,6.2101162109375,0.6088794469833374,0.19165882468223572,0.295811265707016
1773146086433127200,6.223127197265625,0.6081159114837646,0.07024945318698883,0.33826637268066406
1773146086446138000,6.23613818359375,0.5526798963546753,0.12446369975805283,0.3727802336215973
1773146086459149300,6.2491494140625,0.43340855836868286,0.2029598206281662,0.39446592330932617
1773146086472160300,6.26216015625,0.25503605604171753,0.33857181668281555,0.3813323378562927
1773146086485171200,6.275171142578125,0.09498947113752365,0.4929678738117218,0.40546149015426636
1773146086498182100,6.28818212890625,-0.028099779039621353,0.6659952998161316,0.4673115611076355
1773146086511193000,6.301193115234375,-0.08918625861406326,0.8184061050415039,0.5520690679550171
1773146086524204300,6.314204345703125,-0.09361502528190613,0.8814778923988342,0.6542361974716187
1773146086537215200,6.32721533203125,-0.05406153202056885,0.8570432662963867,0.7695369124412537
1773146086550226200,6.34022607421875,0.025350889191031456,0.7673988938331604,0.9027054309844971
1773146086563237000,6.353237060546875,0.11942406743764877,0.6676751971244812,1.0459532737731934
1773146086576248000,6.366248046875,0.20769402384757996,0.5748237371444702,1.1962260007858276
1773146086589259300,6.37925927734375,0.27656903862953186,0.4909825623035431,1.3481786251068115
1773146086602270200,6.392270263671875,0.2831358313560486,0.36514443159103394,1.4874557256698608
1773146086615281200,6.40528125,0.20204351842403412,0.18952079117298126,1.5835142135620117
1773146086628292000,6.4182919921875,0.14217877388000488,0.07880155742168427,1.6560543775558472
1773146086641303000,6.431302978515625,0.11362084746360779,0.029932374134659767,1.687361240386963
1773146086654314200,6.444314208984375,0.0896444097161293,0.1081230640411377,1.624747633934021
1773146086667325200,6.4573251953125,-0.014660755172371864,0.24495677649974823,1.4031563997268677
1773146086680336100,6.470336181640625,-0.12950333952903748,0.24785839021205902,1.0581705570220947
1773146086693347000,6.48334716796875,-0.26099199056625366,0.1899789422750473,0.6884446144104004
1773146086706358000,6.49635791015625,-0.39736753702163696,0.18875721096992493,0.39889469742774963
1773146086719369200,6.509369140625,-0.49480047821998596,0.18142683804035187,0.18066325783729553
1773146086732380200,6.522380126953125,-0.5952877402305603,0.08811724185943604,0.031612250953912735
1773146086745391000,6.53539111328125,-0.6340776681900024,-0.04535670951008797,-0.036804601550102234
1773146086758402000,6.548402099609375,-0.6548470258712769,-0.191964253783226,-0.005039634648710489
1773146086771413200,6.561413330078125,-0.6453786492347717,-0.2315177470445633,0.08002328872680664
1773146086784424200,6.574424072265625,-0.5977311730384827,-0.18264856934547424,0.17119485139846802
1773146086797435100,6.58743505859375,-0.5371028780937195,-0.10735948383808136,0.23884813487529755
1773146086810446000,6.600446044921875,-0.45448338985443115,-0.11468986421823502,0.29993459582328796
1773146086823457000,6.61345703125,-0.3685041666030884,-0.17653992772102356,0.3072649836540222
1773146086836468200,6.62646826171875,-0.29077163338661194,-0.2530507445335388,0.28206682205200195
1773146086849479200,6.639479248046875,-0.2280052751302719,-0.32681265473365784,0.24694208800792694
1773146086862490000,6.652489990234375,-0.18600831925868988,-0.37369653582572937,0.2188423126935959
1773146086875501000,6.6655009765625,-0.15347976982593536,-0.39110618829727173,0.1931859850883484
1773146086888512000,6.678511962890625,-0.12003492563962936,-0.379347026348114,0.14401137828826904
1773146086901523200,6.691523193359375,-0.09437860548496246,-0.3646862804889679,0.08857539296150208
1773146086914534100,6.7045341796875,-0.06872228533029556,-0.3646862804889679,0.04505127668380737
1773146086927545000,6.717545166015625,-0.03695731982588768,-0.3825540542602539,0.001832594396546483
1773146086940556000,6.73055615234375,0.006566796451807022,-0.42164942622184753,-0.04505127668380737
1773146086953567200,6.743567138671875,0.05543597787618637,-0.46608981490135193,-0.09590577334165573
1773146086966578200,6.756578125,0.1055268943309784,-0.5056433081626892,-0.15088360011577606
1773146086979589000,6.769589111328125,0.1588248461484909,-0.523969292640686,-0.20509785413742065
1773146086992600000,6.78260009765625,0.21258094906806946,-0.5039634704589844,-0.2571740746498108
1773146087005611000,6.795611083984375,0.2611446976661682,-0.47097674012184143,-0.29703301191329956
1773146087018622200,6.808622314453125,0.2932150959968567,-0.43722647428512573,-0.31902414560317993
1773146087031633200,6.821633056640625,0.3119991719722748,-0.4030180275440216,-0.3263545036315918
1773146087044644000,6.83464404296875,0.3217730224132538,-0.37003132700920105,-0.32879796624183655
1773146087057655000,6.847655029296875,0.32620179653167725,-0.3312414288520813,-0.3341430425643921
1773146087070666000,6.860666015625,0.31932955980300903,-0.26939135789871216,-0.3407098352909088
1773146087083677200,6.87367724609375,0.2919933497905731,-0.18432845175266266,-0.3199404180049896
1773146087096688000,6.886688232421875,0.2623664140701294,-0.0665842592716217,-0.27259841561317444
1773146087109699000,6.899698974609375,0.24602578580379486,0.020158538594841957,-0.20830489695072174
1773146087122710000,6.9127099609375,0.23335035145282745,0.008704823441803455,-0.16065743565559387
1773146087135721000,6.925720947265625,0.18906265497207642,-0.07880155742168427,-0.1818849891424179
1773146087148732200,6.938732177734375,0.06276635825634003,-0.03191768378019333,-0.17821979522705078
1773146087161743000,6.9517431640625,-0.11148282140493393,0.3646862804889679,-0.10690133273601532
1773146087174754000,6.964754150390625,-0.21288637816905975,0.8203914165496826,-0.16264274716377258
1773146087187765000,6.977764892578125,-0.22266021370887756,0.6921098232269287,-0.3370446562767029
1773146087200776200,6.990776123046875,-0.27488914132118225,0.17119485139846802,-0.5462658405303955
1773146087213787100,7.003787109375,-0.2577849328517914,-0.001832594396546483,-0.6693550944328308
1773146087226798000,7.016798095703125,-0.2292270064353943,0.1406516134738922,-0.6632464528083801
1773146087239809000,7.02980908203125,-0.24312418699264526,0.2945895493030548,-0.5765036344528198
1773146087252820000,7.042820068359375,-0.18325942754745483,0.4436405599117279,-0.45097091794013977
1773146087265831200,7.0558310546875,-0.06872228533029556,0.5462658405303955,-0.30115634202957153
1773146087278842000,7.068842041015625,0.06765327602624893,0.4738783538341522,-0.17455461621284485
1773146087291853000,7.08185302734375,0.1954767256975174,0.30283620953559875,-0.05971203371882439
1773146087304864000,7.094864013671875,0.2704603672027588,0.15256348252296448,0.05971203371882439
1773146087317875000,7.107875,0.2880227565765381,0.0824667438864708,0.1003345400094986
1773146087330886100,7.12088623046875,0.24556763470172882,0.11499529331922531,0.060933761298656464
1773146087343897000,7.13389697265625,0.1519526094198227,0.15256348252296448,0.006719512399286032
1773146087356908000,7.146907958984375,0.016798781231045723,0.18463388085365295,-0.08933897316455841
1773146087369919000,7.1599189453125,-0.13759729266166687,0.15042544901371002,-0.20143266022205353
1773146087382930000,7.172929931640625,-0.2744309902191162,0.10369429737329483,-0.35735589265823364
1773146087395941000,7.185941162109375,-0.37629270553588867,0.0743727833032608,-0.5203040838241577
1773146087408952000,7.1989521484375,-0.41004297137260437,0.11545344442129135,-0.6131555438041687
1773146087421963000,7.211962890625,-0.3799578845500946,0.20952661335468292,-0.607046902179718
1773146087434974000,7.224973876953125,-0.31154105067253113,0.30604326725006104,-0.5303833484649658
1773146087447985200,7.237985107421875,-0.2055560052394867,0.4179842174053192,-0.4079049527645111
1773146087460996000,7.25099609375,-0.08826996386051178,0.5829176902770996,-0.3165806829929352
1773146087474007000,7.264007080078125,0.03588830679655075,0.7800742983818054,-0.29672756791114807
1773146087487018000,7.27701806640625,0.15271618962287903,1.0048725605010986,-0.3165806829929352
1773146087500029000,7.29002880859375,0.249690979719162,1.2704460620880127,-0.29306238889694214
1773146087513040000,7.303039794921875,0.3124573230743408,1.554650902748108,-0.22220206260681152
1773146087526051000,7.316051025390625,0.3393353819847107,1.8397719860076904,-0.14278964698314667
1773146087539062000,7.32906201171875,0.34498587250709534,2.1219916343688965,-0.07681624591350555
1773146087552073000,7.342072998046875,0.3474293351173401,2.3907721042633057,-0.030390523374080658
1773146087565084000,7.355083984375,0.3413206934928894,2.6138904094696045,0.0010690133785828948
1773146087578095000,7.36809521484375,0.34086254239082336,2.7820308208465576,0.013286309316754341
1773146087591106000,7.38110595703125,0.35643959045410156,2.900538682937622,0.008399390615522861
1773146087604117000,7.394116943359375,0.3836230933666229,2.9833109378814697,-0.014508038759231567
1773146087617128000,7.4071279296875,0.40286532044410706,3.048367977142334,-0.05024362727999687
1773146087630139000,7.420138916015625,0.4068359434604645,3.1091489791870117,-0.09392046183347702
1773146087643150000,7.433150146484375,0.39797839522361755,3.1697773933410645,-0.15256348252296448
1773146087656161000,7.4461611328125,0.37430739402770996,3.2291839122772217,-0.21975859999656677
1773146087669172000,7.459171875,0.35277441143989563,3.2870633602142334,-0.2738201320171356
1773146087682183000,7.472182861328125,0.3503309488296509,3.344026565551758,-0.30802857875823975
1773146087695193900,7.48519384765625,0.3454440236091614,3.350593328475952,-0.32192572951316833
1773146087708205000,7.498205078125,0.33765551447868347,3.3266167640686035,-0.31459537148475647
1773146087721216000,7.511216064453125,0.37064221501350403,3.2557566165924072,-0.2955058515071869
1773146087734227000,7.52422705078125,0.3503309488296509,3.1966552734375,-0.26771149039268494
1773146087747238000,7.53723779296875,0.34086254239082336,3.190546751022339,-0.26740604639053345
1773146087760248800,7.550248779296875,0.34666576981544495,3.1665701866149902,-0.27107125520706177
1773146087773260000,7.563260009765625,0.3474293351173401,3.1172430515289307,-0.26740604639053345
1773146087786271000,7.57627099609375,0.34788748621940613,3.0378305912017822,-0.2603811025619507
1773146087799282000,7.589281982421875,0.35155269503593445,2.9600980281829834,-0.2364046722650528
1773146087812292900,7.60229296875,0.3523162603378296,2.897331714630127,-0.20509785413742065
1773146087825304000,7.615303955078125,0.3539961278438568,2.83013653755188,-0.18432845175266266
1773146087838315000,7.62831494140625,0.3539961278438568,2.743851900100708,-0.17776164412498474
1773146087851326000,7.641325927734375,0.35155269503593445,2.646419048309326,-0.18066325783729553
1773146087864337000,7.6543369140625,0.34055712819099426,2.5361578464508057,-0.185092031955719
1773146087877347800,7.667347900390625,0.3246746361255646,2.4098615646362305,-0.1870773434638977
1773146087890358800,7.68035888671875,0.30344706773757935,2.293797254562378,-0.1879936307668686
1773146087903370000,7.693369873046875,0.2929096519947052,2.182161808013916,-0.18387030065059662
1773146087916381000,7.706380859375,0.29856017231941223,2.0660974979400635,-0.1818849891424179
1773146087929391900,7.719391845703125,0.2919933497905731,1.966831922531128,-0.18921536207199097
1773146087942402800,7.73240283203125,0.29077163338661194,1.881616234779358,-0.19853104650974274
1773146087955414000,7.7454140625,0.291229784488678,1.8116722106933594,-0.2009745091199875
1773146087968425000,7.758425048828125,0.2880227565765381,1.75623619556427,-0.19532401859760284
1773146087981436000,7.771435791015625,0.28557929396629333,1.7066035270690918,-0.18555018305778503
1773146087994446800,7.78444677734375,0.28435754776000977,1.6580396890640259,-0.1773035079240799
1773146088007457800,7.797457763671875,0.29046618938446045,1.606421709060669,-0.1773035079240799
1773146088020469000,7.810468994140625,0.2929096519947052,1.553429126739502,-0.17944152653217316
1773146088033480000,7.82347998046875,0.27947062253952026,1.5094468593597412,-0.17974695563316345
1773146088046491000,7.836490966796875,0.25091269612312317,1.4906628131866455,-0.18310672044754028
1773146088059501800,7.849501708984375,0.2130390852689743,1.4879138469696045,-0.20021092891693115
1773146088072513000,7.862512939453125,0.1792888194322586,1.472795009613037,-0.24251331388950348
1773146088085524000,7.87552392578125,0.16004657745361328,1.4344632625579834,-0.30115634202957153
1773146088098535000,7.888534912109375,0.15561780333518982,1.38192880153656,-0.3646862804889679
1773146088111545900,7.9015458984375,0.16218459606170654,1.3330596685409546,-0.41554075479507446
1773146088124556800,7.914556884765625,0.17684535682201385,1.3110685348510742,-0.44089165329933167
1773146088137567700,7.927567626953125,0.19471314549446106,1.3083196878433228,-0.4448622763156891
1773146088150579000,7.940578857421875,0.20158538222312927,1.3229804039001465,-0.43753188848495483
1773146088163590000,7.95358984375,0.18982623517513275,1.3122903108596802,-0.41187557578086853
1773146088176600800,7.966600830078125,0.17073670029640198,1.3000729084014893,-0.35735589265823364
1773146088189611800,7.97961181640625,0.15806126594543457,1.2760965824127197,-0.2897026240825653
1773146088202623000,7.992623046875,0.1922696828842163,1.2003493309020996,-0.21120649576187134
1773146088215634000,8.005634033203124,0.27855435013771057,1.0928370952606201,-0.11377356201410294
1773146088228644900,8.018644775390625,0.39507678151130676,0.9372192621231079,-0.02260199747979641
1773146088241655800,8.03165576171875,0.5241219997406006,0.7292198538780212,0.04581485688686371
1773146088254666800,8.044666748046875,0.6093376278877258,0.6126973628997803,0.11346813291311264
1773146088267678000,8.057677978515626,0.6149880886077881,0.6236929297447205,0.1533270627260208
1773146088280689000,8.07068896484375,0.5595521330833435,0.7011200785636902,0.1545487940311432
1773146088293699800,8.083699951171875,0.47815442085266113,0.8289434909820557,0.1415679156780243
1773146088306710800,8.096710693359375,0.3906480371952057,0.9665408134460449,0.12278381735086441
1773146088319722000,8.109721923828126,0.3168860971927643,1.0664172172546387,0.10323614627122879
1773146088332733000,8.12273291015625,0.25503605604171753,1.1397209167480469,0.0951421856880188
1773146088345744000,8.135743896484374,0.20693044364452362,1.201570987701416,0.10766492038965225
1773146088358754800,8.1487548828125,0.1776089370250702,1.2626575231552124,0.1337793916463852
1773146088371765800,8.161765869140625,0.16294817626476288,1.2932007312774658,0.1418733447790146
1773146088384776700,8.174776611328125,0.17592905461788177,1.2748748064041138,0.11911863088607788
1773146088397788000,8.187787841796874,0.21181736886501312,1.2215768098831177,0.08659008145332336
1773146088410798800,8.200798828125,0.23793183267116547,1.1519381999969482,0.06337722390890121
1773146088423809800,8.213809814453125,0.2367101013660431,1.0684025287628174,0.05146535858511925
1773146088436820700,8.22682080078125,0.20769402384757996,0.9763146042823792,0.047036588191986084
1773146088449832000,8.23983203125,0.16050471365451813,0.8859066367149353,0.04657844081521034
1773146088462843000,8.2528427734375,0.10995566099882126,0.8101593852043152,0.0539088174700737
1773146088475853800,8.265853759765625,0.06841685622930527,0.773202121257782,0.07513637095689774
1773146088488864800,8.27886474609375,0.03711003437638283,0.773202121257782,0.10644318908452988
1773146088501875700,8.291875732421875,0.01588248461484909,0.7825177907943726,0.13423752784729004
1773146088514887000,8.304886962890626,0.007788525894284248,0.7881683111190796,0.16386447846889496
1773146088527897900,8.31789794921875,0.01954767294228077,0.7918334603309631,0.19685117900371552
1773146088540908800,8.33090869140625,0.04520399495959282,0.7954986691474915,0.22708898782730103
1773146088553919700,8.343919677734375,0.07910698652267456,0.7426588535308838,0.2603811025619507
1773146088566931000,8.356930908203125,0.10995566099882126,0.6591231226921082,0.2938259541988373
1773146088579942000,8.36994189453125,0.15027274191379547,0.5809323787689209,0.3309359848499298
1773146088592952800,8.382952880859374,0.18814635276794434,0.5462658405303955,0.38988444209098816
1773146088605963800,8.3959638671875,0.19471314549446106,0.56382817029953,0.46196648478507996
1773146088618974700,8.408974609375,0.17638720571994781,0.5853611826896667,0.531605064868927
1773146088631986000,8.42198583984375,0.1441640853881836,0.5606211423873901,0.5914698243141174
1773146088644996900,8.434996826171876,0.09376774728298187,0.5215258002281189,0.6273581385612488
1773146088658007800,8.4480078125,0.03588830679655075,0.4787652790546417,0.6554579138755798
1773146088671018800,8.461018798828125,-0.05406153202056885,0.4433351159095764,0.6546943187713623
1773146088684030000,8.474030029296875,-0.10659590363502502,0.41065385937690735,0.6371319890022278
1773146088697041000,8.487041015625,-0.19013166427612305,0.43432486057281494,0.5862774848937988
1773146088710051800,8.5000517578125,-0.2617555558681488,0.44730573892593384,0.5120574235916138
1773146088723062800,8.513062744140624,-0.3249800503253937,0.33857181668281555,0.4641045033931732
1773146088736073700,8.52607373046875,-0.3790415823459625,0.20631958544254303,0.44211336970329285
1773146088749084700,8.539084716796875,-0.4303542375564575,0.07024945318698883,0.45387253165245056
1773146088762095900,8.552095947265625,-0.46746426820755005,-0.033597562462091446,0.48075059056282043
1773146088775106800,8.56510693359375,-0.4789179861545563,-0.09392046183347702,0.5071704983711243
1773146088788117800,8.57811767578125,-0.49510589241981506,-0.17974695563316345,0.5364919900894165
1773146088801129000,8.59112890625,-0.5016726851463318,-0.19730933010578156,0.513279139995575
1773146088814140000,8.604139892578125,-0.4266890585422516,-0.21975859999656677,0.45219266414642334
1773146088827150800,8.61715087890625,-0.356286883354187,-0.2864955961704254,0.3813323378562927
1773146088840161800,8.630161865234374,-0.3139844834804535,-0.3727802336215973,0.31291547417640686
1773146088853172700,8.6431728515625,-0.26542073488235474,-0.4526508152484894,0.25350889563560486
1773146088866183700,8.65618359375,-0.21410810947418213,-0.5174024701118469,0.20463970303535461
1773146088879195000,8.66919482421875,-0.16126830875873566,-0.5548179149627686,0.1740964651107788
1773146088892205800,8.682205810546876,-0.1156061589717865,-0.5821541547775269,0.13423752784729004
1773146088905216800,8.695216796875,-0.07360920310020447,-0.6632464528083801,0.06246092543005943
1773146088918227700,8.708227783203125,-0.006108647678047419,-0.5606211423873901,-0.002290742937475443
1773146088931239000,8.721239013671875,0.044440411031246185,-0.5100721120834351,-0.05925388261675835
1773146088944249900,8.734249755859375,0.08277218043804169,-0.5157225728034973,-0.12354740500450134
1773146088957260800,8.7472607421875,0.12140937149524689,-0.577725350856781,-0.21120649576187134
1773146088970271700,8.760271728515624,0.1649334877729416,-0.6261364221572876,-0.30482152104377747
1773146088983282700,8.77328271484375,0.19669845700263977,-0.5520690679550171,-0.4831940531730652
1773146088996294000,8.7862939453125,0.24037529528141022,-0.5581777095794678,-0.646905779838562
1773146089009304800,8.799304931640625,0.27091851830482483,-0.38789913058280945,-0.6278162598609924
1773146089022315800,8.812315673828126,0.2631300091743469,-0.2701549530029297,-0.3630063831806183
1773146089035326700,8.82532666015625,0.24037529528141022,-0.1496618688106537,-0.20509785413742065
1773146089048338000,8.838337890625,0.2130390852689743,-0.2383899837732315,-0.22495095431804657
1773146089061348900,8.851348876953125,0.18814635276794434,-0.4062250852584839,-0.2669478952884674
1773146089074359800,8.86435986328125,0.17715078592300415,-0.42821621894836426,-0.27550002932548523
1773146089087370800,8.877370849609376,0.25411975383758545,-0.29336780309677124,-0.28328853845596313
1773146089100381700,8.890381591796874,0.21227550506591797,-0.03894263133406639,-0.2649625837802887
1773146089113393000,8.903392822265625,0.09651663154363632,0.08323032408952713,-0.12034036219120026
1773146089126403800,8.91640380859375,0.27458372712135315,0.05849030241370201,-0.016035201027989388
1773146089139414800,8.929414794921875,0.4007273018360138,0.02458730712532997,0.009926552884280682
1773146089152425700,8.94242578125,0.0974329337477684,0.379347026348114,0.2254091054201126
1773146089165437000,8.95543701171875,0.07055488228797913,0.9034690260887146,0.6415607333183289
1773146089178448000,8.96844775390625,0.04734202101826668,0.6925679445266724,0.268627792596817
1773146089191458800,8.981458740234375,-0.013744457624852657,0.31902414560317993,-0.3023780584335327
1773146089204469800,8.9944697265625,-0.04886918142437935,0.15378521382808685,-0.5809323787689209
1773146089217480700,9.007480712890626,-0.141262486577034,0.12232567369937897,-0.6815723776817322
1773146089230491600,9.02049169921875,-0.2419024556875229,-0.043371398001909256,-0.6159043908119202
1773146089243502800,9.0335029296875,-0.3526217043399811,-0.2315177470445633,-0.4514290690422058
1773146089256513800,9.046513671875,-0.45280352234840393,-0.3756818473339081,-0.32879796624183655
1773146089269524700,9.059524658203125,-0.526565432548523,-0.5352702736854553,-0.27137666940689087
1773146089282535700,9.07253564453125,-0.5619956254959106,-0.6268999576568604,-0.29306238889694214
1773146089295547000,9.085546875,-0.5639809370040894,-0.7238747477531433,-0.337808221578598
1773146089308557800,9.098557861328125,-0.6209440231323242,-0.749531090259552,-0.35735589265823364
1773146089321568800,9.11156884765625,-0.6218603253364563,-0.7690787315368652,-0.33460119366645813
1773146089334579700,9.124579833984376,-0.5012145638465881,-0.7959567904472351,-0.33948808908462524
1773146089347590700,9.137590576171876,-0.32330018281936646,-0.7043271064758301,-0.337350070476532
1773146089360601900,9.150601806640625,-0.168904110789299,-0.5308414697647095,-0.3199404180049896
1773146089373612800,9.16361279296875,-0.08063415437936783,-0.3068068325519562,-0.30802857875823975
1773146089386623700,9.176623779296875,-0.07116574794054031,-0.11133010685443878,-0.2738201320171356
1773146089399634700,9.189634765625,-0.10384701192378998,0.051159925758838654,-0.20463970303535461
1773146089412646000,9.20264599609375,-0.15760311484336853,-0.015271619893610477,-0.15286891162395477
1773146089425656800,9.21565673828125,-0.21090106666088104,-0.09911280870437622,-0.1049160286784172
1773146089438667800,9.228667724609375,-0.19333870708942413,-0.1357647031545639,-0.06902772188186646
1773146089451678700,9.2416787109375,-0.18402300775051117,-0.10323614627122879,-0.057268574833869934
1773146089464689700,9.254689697265626,-0.14691297709941864,-0.05803215503692627,-0.05024362727999687
1773146089477700900,9.267700927734374,-0.11728604137897491,0.08857539296150208,-0.12767073512077332
1773146089490711800,9.2807119140625,-0.001221729558892548,-0.025503603741526604,-0.1818849891424179
1773146089503722800,9.29372265625,0.09162971377372742,-0.18585561215877533,-0.1357647031545639
1773146089516733700,9.306733642578125,0.17104214429855347,-0.2787070572376251,-0.11499529331922531
1773146089529744600,9.31974462890625,0.2260199636220932,-0.38102689385414124,-0.14920371770858765
1773146089542755800,9.332755859375,0.20861032605171204,-0.3065013885498047,-0.020922118797898293
1773146089555766800,9.345766845703125,0.08796452730894089,0.27259841561317444,0.11102467030286789
1773146089568777700,9.35877783203125,0.04566214233636856,0.5129737257957458,0.17852523922920227
1773146089581788700,9.37178857421875,0.01588248461484909,0.42653632164001465,0.19730933010578156
1773146089594799600,9.384799560546876,0.016798781231045723,0.4228711426258087,0.13744457066059113
1773146089607810800,9.397810791015624,0.026572618633508682,0.44730573892593384,0.10888664424419403
1773146089620821800,9.41082177734375,0.04978547990322113,0.4546361267566681,0.12156209349632263
1773146089633832700,9.423832763671875,0.18814635276794434,0.4592176079750061,0.17974695563316345
1773146089646843600,9.43684375,0.38408124446868896,0.5276344418525696,0.28237223625183105
1773146089659854600,9.4498544921875,0.5962040424346924,0.7067705392837524,0.32268932461738586
1773146089672865500,9.462865478515624,0.6976075768470764,0.6114756464958191,0.37980517745018005
1773146089685876700,9.475876708984375,0.6924152374267578,0.5308414697647095,0.4079049527645111
1773146089698887700,9.4888876953125,0.7176133990287781,0.32559093832969666,0.4143190383911133
1773146089711898600,9.501898681640625,0.6695078015327454,0.3439168632030487,0.2857320010662079
1773146089724909600,9.51490966796875,0.6499601006507874,0.3162752389907837,0.19685117900371552
1773146089737920800,9.527920654296874,0.5820014476776123,0.3165806829929352,0.16310089826583862
1773146089750931700,9.540931640625,0.4708240330219269,0.3984365463256836,0.1948658674955368
1773146089763942700,9.553942626953125,0.401949018239975,0.4033234715461731,0.24327689409255981
1773146089776953600,9.56695361328125,0.3787361681461334,0.2906189262866974,0.31383177638053894
1773146089789964500,9.579964599609376,0.36942046880722046,0.26160284876823425,0.3597993552684784
1773146089802975700,9.592975830078124,0.360410213470459,0.27748534083366394,0.3630063831806183
1773146089815986700,9.605986572265625,0.33322674036026,0.3468184769153595,0.41157013177871704
1773146089828997600,9.61899755859375,0.3271180987358093,0.3402516841888428,0.6102539300918579
1773146089842008600,9.632008544921876,0.3205513060092926,0.22907429933547974,0.8590285778045654
1773146089855019500,9.64501953125,0.38850998878479004,0.10644318908452988,1.0908517837524414
1773146089868030700,9.65803076171875,0.45417797565460205,0.042913250625133514,1.2667808532714844
1773146089881041700,9.671041748046875,0.39675667881965637,0.1455385386943817,1.6323834657669067
1773146089894052600,9.684052490234375,0.47204574942588806,0.07391463965177536,2.087324857711792
1773146089907063600,9.6970634765625,0.7510582208633423,0.11835505068302155,2.4623959064483643
1773146089920074500,9.710074462890624,1.1403318643569946,0.18387030065059662,2.542572021484375
1773146089933085700,9.723085693359375,1.731190800666809,0.9274454712867737,2.9319982528686523
1773146089946096600,9.7360966796875,2.2220206260681152,1.8043417930603027,3.504531145095825
1773146089959107600,9.749107666015625,2.1116068363189697,0.9637919068336487,2.891986608505249
1773146089972118500,9.762118408203126,2.2430953979492188,0.8807142972946167,2.3507604598999023
1773146089985129700,9.775129638671874,2.5103487968444824,1.6519310474395752,2.081979990005493
1773146089998140700,9.788140625,2.1719298362731934,1.7151556015014648,1.6035200357437134
1773146090011151600,9.801151611328125,1.5308271646499634,1.3445134162902832,2.21881365776062
1773146090024162600,9.81416259765625,0.7770199775695801,0.6725621223449707,2.66275954246521
1773146090037173500,9.827173583984376,0.2000582218170166,-0.1663079410791397,2.75270938873291
1773146090050184700,9.840184814453124,-0.3069595396518707,-1.3183989524841309,2.835787057876587
1773146090063195600,9.853195556640625,-0.7186824083328247,-2.545473575592041,2.832580089569092
1773146090076206600,9.86620654296875,-0.9793689846992493,-3.034623622894287,2.7123923301696777
1773146090089217500,9.879217529296875,-1.0192278623580933,-2.8574726581573486,2.3060145378112793
1773146090102228700,9.892228759765626,-0.9004147052764893,-2.389092206954956,1.7008002996444702
1773146090115239700,9.90523974609375,-0.7504473924636841,-2.0636539459228516,1.2328778505325317
1773146090128250600,9.918250732421875,-0.776103675365448,-1.9879066944122314,1.0089958906173706
1773146090141261600,9.931261474609375,-1.0697768926620483,-2.1532983779907227,1.001665472984314
1773146090154272800,9.944272705078125,-1.5665627717971802,-2.593579053878784,1.0664172172546387
1773146090167283700,9.95728369140625,-2.21575927734375,-2.956432819366455,1.151021957397461
1773146090180294700,9.970294677734374,-2.9153521060943604,-3.1201446056365967,1.2512037754058838
1773146090193305600,9.9833056640625,-3.4468045234680176,-3.121366262435913,1.3034327030181885
1773146090206316500,9.996316650390625,-3.8964009284973145,-2.744157314300537,1.2895355224609375
1773146090219327700,10.00932763671875,-4.243371963500977,-2.1337506771087646,1.136055827140808
1773146090232338700,10.022338623046876,-4.621802806854248,-1.3151918649673462,1.0651954412460327
1773146090245349600,10.035349609375,-4.979769706726074,-0.7238747477531433,1.0664172172546387
1773146090258360600,10.048360595703125,-5.157226085662842,-0.5154171586036682,1.3049598932266235
1773146090271371500,10.06137158203125,-4.982976913452148,-0.30283620953559875,2.0279183387756348
1773146090284382500,10.074382568359376,-4.590343475341797,-0.15378521382808685,2.928333044052124
1773146090297393700,10.0873935546875,-4.236958026885986,-0.577725350856781,3.532172918319702
1773146090310404600,10.100404541015624,-4.224740982055664,-1.3694061040878296,3.777740478515625
1773146090323415600,10.11341552734375,-4.241386890411377,-2.252716541290283,3.7068800926208496
1773146090336426500,10.126426513671875,-4.27803897857666,-2.2620322704315186,3.799426317214966
1773146090349437700,10.139437744140626,-3.999026298522949,-1.8605413436889648,3.827526092529297
1773146090362448600,10.15244873046875,-3.828442335128784,-1.4796671867370605,3.626704216003418
1773146090375459600,10.16545947265625,-3.9383978843688965,-1.0383174419403076,3.447873592376709
1773146090388470500,10.178470458984375,-4.111425399780273,-0.45875945687294006,3.517512083053589
1773146090401481700,10.191481689453125,-4.230849266052246,-0.2124282270669937,3.5501933097839355
1773146090414492700,10.20449267578125,-4.386314392089844,-0.3402516841888428,3.419773817062378
1773146090427503600,10.217503662109374,-4.5920233726501465,-0.4445568323135376,3.191004991531372
1773146090440514600,10.2305146484375,-4.6763224601745605,-0.08368847519159317,3.1978771686553955
1773146090453525500,10.243525390625,-4.505738735198975,0.14767655730247498,3.110370635986328
1773146090466536700,10.25653662109375,-4.319119453430176,0.1821904182434082,2.8687736988067627
1773146090479547600,10.269547607421876,-4.218937397003174,0.2444986253976822,2.5112650394439697
1773146090492558600,10.28255859375,-4.185950756072998,0.4338667094707489,2.151313066482544
1773146090505569500,10.295569580078125,-4.1619744300842285,0.6583595275878906,1.8180862665176392
1773146090518580700,10.308580810546875,-4.143648624420166,0.7976366877555847,1.4740166664123535
1773146090531591700,10.321591796875,-4.054004192352295,1.05496346950531,1.239444613456726
1773146090544602600,10.3346025390625,-3.9046475887298584,1.437822937965393,1.1617120504379272
1773146090557613600,10.347613525390624,-3.643197536468506,1.8918482065200806,1.1583523750305176
1773146090570624500,10.36062451171875,-3.1899359226226807,2.409097909927368,1.1727076768875122
1773146090583635700,10.3736357421875,-2.8063127994537354,2.780503749847412,0.9943351149559021
1773146090596646700,10.386646728515625,-2.6103780269622803,2.640768527984619,0.4399753510951996
1773146090609657600,10.39965771484375,-2.1444408893585205,2.2649338245391846,-0.20998476445674896
1773146090622668500,10.41266845703125,-1.3674207925796509,2.333350658416748,-0.3874409794807434
1773146090635679500,10.425679443359375,-0.5852084755897522,2.5809037685394287,-0.11468986421823502
1773146090648690700,10.438690673828125,0.08643736690282822,3.2032222747802734,0.5955931544303894
1773146090661701600,10.45170166015625,0.40118545293807983,3.8661632537841797,1.193018913269043
1773146090674712600,10.464712646484376,0.6056724190711975,4.051866054534912,1.0984876155853271
1773146090687723500,10.4777236328125,0.7762564420700073,3.5981462001800537,0.15775582194328308
1773146090700734700,10.490734619140625,0.7122683525085449,2.665661096572876,-1.4246894121170044
1773146090713745700,10.50374560546875,0.4422661066055298,1.8735222816467285,-2.9527676105499268
1773146090726756600,10.516756591796875,0.13439024984836578,1.5028800964355469,-3.866621255874634
1773146090739767600,10.529767578125,-0.059864748269319534,1.3164136409759521,-4.17113733291626
1773146090752778800,10.54277880859375,-0.19501857459545135,1.2475385665893555,-3.9692466259002686
1773146090765789700,10.555789794921875,-0.3020726442337036,1.3477203845977783,-3.335932493209839
1773146090778800600,10.568800537109375,-0.3912588953971863,1.421024203300476,-2.547916889190674
1773146090791811600,10.5818115234375,-0.5090031027793884,1.274111270904541,-1.9903501272201538
1773146090804822500,10.594822509765624,-0.5187768936157227,1.0488548278808594,-1.690721035003662
1773146090817833700,10.607833740234375,-0.4381427764892578,0.9176716208457947,-1.5331178903579712
1773146090830844700,10.6208447265625,-0.40958482027053833,0.7079922556877136,-1.4637846946716309
1773146090843855600,10.633855712890625,-0.42592546343803406,0.35537058115005493,-1.4060579538345337
1773146090856866600,10.646866455078126,-0.4520399272441864,0.07589995115995407,-1.2130247354507446
1773146090869877500,10.65987744140625,-0.502894401550293,-0.11056652665138245,-0.896138608455658
1773146090882888700,10.672888671875,-0.5199986696243286,-0.15286891162395477,-0.4995346665382385
1773146090895899600,10.685899658203125,-0.4776962697505951,-0.024281874299049377,-0.08368847519159317
1773146090908910600,10.69891064453125,-0.3949240744113922,0.1052214577794075,0.29672756791114807
1773146090921921500,10.711921630859376,-0.22067490220069885,0.13545925915241241,0.6265945434570312
1773146090934932700,10.7249326171875,0.02000582218170166,0.08292489498853683,0.9051488637924194
1773146090947943700,10.737943603515625,0.27168211340904236,-0.009162971749901772,1.0835213661193848
1773146090960954600,10.75095458984375,0.4862483739852905,-0.10445787757635117,1.155145287513733
1773146090973965600,10.763965576171875,0.7082977294921875,-0.13011419773101807,1.1702642440795898
1773146090986976500,10.7769765625,0.9741765856742859,-0.08689551800489426,1.2023346424102783
1773146090999987700,10.78998779296875,1.2009601593017578,-0.14401137828826904,1.2118029594421387
1773146091012998700,10.80299853515625,1.300378441810608,-0.44730573892593384,1.239444613456726
1773146091026009600,10.816009521484375,1.2429571151733398,-0.8570432662963867,1.3388628959655762
1773146091039020500,10.8290205078125,1.1032217741012573,-1.136055827140808,1.4708096981048584
1773146091052031500,10.842031494140626,1.0030399560928345,-1.2467750310897827,1.5538872480392456
1773146091065042700,10.855042724609374,0.9379828572273254,-1.2020292282104492,1.5302162170410156
1773146091078053600,10.8680537109375,0.8849903345108032,-1.1485785245895386,1.4182753562927246
1773146091091064600,10.881064697265625,0.814588189125061,-1.0855066776275635,1.2699878215789795
1773146091104075500,10.894075439453125,0.6968439817428589,-1.0545053482055664,1.0541999340057373
1773146091117086700,10.907086669921876,0.5067123174667358,-1.0435097217559814,0.8122974634170532
1773146091130097700,10.92009765625,0.40897396206855774,-0.8944587707519531,0.6969966888427734
1773146091143108600,10.933108642578125,0.3698786199092865,-0.6823359727859497,0.7096721529960632
1773146091156119600,10.94611962890625,0.281914085149765,-0.43310311436653137,0.8345940113067627
1773146091169130500,10.959130615234375,0.10018182545900345,-0.13179408013820648,0.9608902931213379
1773146091182141700,10.9721416015625,-0.10338886082172394,0.16386447846889496,1.0068578720092773
1773146091195152600,10.985152587890624,-0.25121814012527466,0.3695732057094574,0.9723440408706665
1773146091208163600,10.99816357421875,-0.3098611533641815,0.523052990436554,0.9071341753005981
1773146091221174500,11.011174560546875,-0.31062474846839905,0.49342602491378784,0.7971785664558411
1773146091234185700,11.024185791015626,-0.2211330533027649,0.18677189946174622,0.7063124179840088
1773146091247196700,11.03719677734375,-0.12370011955499649,-0.1818849891424179,0.6876810193061829
1773146091260207600,11.05020751953125,-0.11636973917484283,-0.25350889563560486,0.7087558507919312
1773146091273218600,11.063218505859375,-0.1285870373249054,-0.13454297184944153,0.8675807118415833
1773146091286229500,11.0762294921875,-0.17058399319648743,0.05757400393486023,1.107956051826477
1773146091299240700,11.08924072265625,-0.189673513174057,0.31459537148475647,1.4170535802841187
1773146091312251600,11.102251708984374,-0.20677772164344788,0.5862774848937988,1.6372703313827515
1773146091325262600,11.1152626953125,-0.3575085997581482,0.6180424690246582,1.6450588703155518
1773146091338273500,11.1282734375,-0.5302306413650513,0.5320632457733154,1.5917608737945557
1773146091351284700,11.14128466796875,-0.5390881896018982,0.5389354228973389,1.557857871055603
1773146091364295700,11.154295654296876,-0.39828383922576904,0.7344121932983398,1.528230905532837
1773146091377306600,11.167306640625,-0.272751122713089,1.207221508026123,1.5187625885009766
1773146091390317600,11.180317626953125,-0.3061959743499756,1.8067853450775146,1.5306744575500488
1773146091403328500,11.19332861328125,-0.3656025826931,2.1586434841156006,1.6218459606170654
1773146091416339700,11.206339599609375,-0.3640754222869873,2.0575451850891113,1.7212642431259155
1773146091429350700,11.2193505859375,-0.1698204129934311,1.4393501281738281,1.61085045337677
1773146091442361600,11.232361572265624,0.06230820715427399,0.5572614073753357,1.2553271055221558
1773146091455372500,11.24537255859375,0.2516762912273407,-0.03191768378019333,0.8949168920516968
1773146091468383700,11.2583837890625,0.46059203147888184,-0.23441936075687408,0.614682674407959
1773146091481394700,11.271394775390625,0.6882919073104858,-0.3744601011276245,0.2652680277824402
1773146091494405600,11.284405517578126,0.9159917235374451,-0.6192641854286194,-0.11133010685443878
1773146091507416600,11.29741650390625,1.0235038995742798,-0.8240565657615662,-0.39599308371543884
1773146091520427500,11.310427490234375,0.9737184643745422,-0.7108938694000244,-0.5210676789283752
1773146091533438700,11.323438720703125,0.9334014058113098,-0.3309359848499298,-0.5703949928283691
1773146091546449700,11.33644970703125,0.8617774844169617,-0.15500694513320923,-0.5784889459609985
1773146091559460600,11.349460693359376,0.7005091905593872,0.04657844081521034,-0.5442805290222168
1773146091572471600,11.362471435546874,0.5934551358222961,0.3549124300479889,-0.39568766951560974
1773146091585482800,11.375482666015625,0.5404626131057739,0.6159043908119202,-0.1931859850883484
1773146091598493700,11.38849365234375,0.5086976289749146,0.7177661061286926,0.01893680728971958
1773146091611504600,11.401504638671875,0.495258629322052,0.7502946853637695,0.1948658674955368
1773146091624515600,11.414515625,0.5006036758422852,0.739757239818573,0.27748534083366394
1773146091637526500,11.427526611328124,0.5086976289749146,0.7629700899124146,0.2539670467376709
1773146091650537700,11.440537841796875,0.5030471682548523,0.9445496797561646,0.1769980639219284
1773146091663548700,11.453548583984375,0.48181959986686707,0.9621120095252991,0.005955931730568409
1773146091676559600,11.4665595703125,0.48670652508735657,1.036637544631958,-0.21975859999656677
1773146091689570600,11.479570556640626,0.5103775262832642,1.183245062828064,-0.43111783266067505
1773146091702581500,11.49258154296875,0.5155698657035828,1.2944225072860718,-0.5939132571220398
1773146091715592700,11.5055927734375,0.5172497630119324,1.363602876663208,-0.676227331161499
1773146091728603600,11.518603759765625,0.49770209193229675,1.419497013092041,-0.6473639607429504
1773146091741614600,11.531614501953126,0.44638943672180176,1.4617993831634521,-0.531605064868927
1773146091754625500,11.54462548828125,0.3796524703502655,1.4979931116104126,-0.4050033390522003
1773146091767636500,11.557636474609374,0.3352120518684387,1.5627448558807373,-0.3068068325519562
1773146091780647700,11.570647705078125,0.31444263458251953,1.5722131729125977,-0.233503058552742
1773146091793658600,11.58365869140625,0.328645259141922,1.606421709060669,-0.16875138878822327
1773146091806669600,11.596669677734376,0.36285367608070374,1.6797254085540771,-0.1455385386943817
1773146091819680500,11.609680419921874,0.3718639314174652,1.7933462858200073,-0.18432845175266266
1773146091832691700,11.622691650390625,0.3523162603378296,1.9199479818344116,-0.28695371747016907
1773146091845702700,11.63570263671875,0.38698282837867737,2.020129919052124,-0.46166107058525085
1773146091858713600,11.648713623046875,0.44837474822998047,2.0995421409606934,-0.5943714380264282
1773146091871724500,11.661724609375,0.5319104790687561,2.051131248474121,-0.6505709886550903
1773146091884735500,11.674735595703124,0.637742817401886,1.8752021789550781,-0.6681333780288696
1773146091897746700,11.68774658203125,0.6960803866386414,1.7359249591827393,-0.6542361974716187
1773146091910757600,11.700757568359375,0.7351757884025574,1.6088651418685913,-0.6867647171020508
1773146091923768600,11.7137685546875,0.8226821422576904,1.4495820999145508,-0.7470875978469849
1773146091936779500,11.726779541015626,0.928972601890564,1.335503101348877,-0.7703005075454712
1773146091949790700,11.739790771484374,0.9888373613357544,1.2597558498382568,-0.7470875978469849
1773146091962801700,11.7528017578125,1.0438151359558105,1.2370011806488037,-0.7072287201881409
1773146091975812600,11.7658125,1.0723731517791748,1.250440239906311,-0.6579013466835022
1773146091988823600,11.778823486328125,1.0474803447723389,1.2744166851043701,-0.569173276424408
1773146092001834500,11.79183447265625,1.0274745225906372,1.2634210586547852,-0.4404335021972656
1773146092014845700,11.804845703125,0.9847140312194824,1.1730130910873413,-0.300392746925354
1773146092027856600,11.817856689453125,0.9269872903823853,1.0285435914993286,-0.14920371770858765
1773146092040867600,11.83086767578125,0.8984293937683105,0.8765909671783447,0.008704823441803455
1773146092053878500,11.84387841796875,0.9456186890602112,0.680350661277771,0.1386663019657135
1773146092066889500,11.856889404296876,1.0528254508972168,0.5210676789283752,0.24572035670280457
1773146092079900700,11.869900634765624,1.172096848487854,0.4399753510951996,0.3329212963581085
1773146092092911600,11.88291162109375,1.203098177909851,0.46166107058525085,0.4091266989707947
1773146092105922600,11.895922607421875,1.1630865335464478,0.5548179149627686,0.47952884435653687
1773146092118933500,11.90893359375,1.0772600173950195,0.6366738080978394,0.5149590373039246
1773146092131944400,11.9219443359375,1.0267109870910645,0.6268999576568604,0.4770853817462921
1773146092144955600,11.93495556640625,0.9819651246070862,0.6021599769592285,0.4221075773239136
1773146092157966600,11.947966552734375,0.9086613655090332,0.6061305999755859,0.40698865056037903
1773146092170977500,11.9609775390625,0.8170316219329834,0.5699368119239807,0.4082103967666626
1773146092183988500,11.973988525390626,0.6931788325309753,0.5377137064933777,0.3663661479949951
1773146092196999700,11.986999755859374,0.5348120927810669,0.5878046154975891,0.3072649836540222
1773146092210010600,12.0000107421875,0.37629270553588867,0.6754637360572815,0.22617268562316895
1773146092223021600,12.013021484375,0.2753472924232483,0.7063124179840088,0.12156209349632263
1773146092236032500,12.026032470703125,0.2260199636220932,0.6982184648513794,0.058795735239982605
1773146092249043700,12.039043701171876,0.18661919236183167,0.6656898856163025,0.06368265300989151
1773146092262054700,12.0520546875,0.16829325258731842,0.5548179149627686,0.0922405794262886
1773146092275065600,12.065065673828125,0.14019346237182617,0.3915643095970154,0.13301581144332886
1773146092288076500,12.07807666015625,0.09697478264570236,0.21319180727005005,0.18432845175266266
1773146092301087500,12.09108740234375,0.056657709181308746,0.0487164668738842,0.23884813487529755
1773146092314098700,12.1040986328125,0.001221729558892548,-0.04780016839504242,0.31902414560317993
1773146092327109600,12.117109619140624,-0.06383536756038666,-0.0743727833032608,0.41034841537475586
1773146092340120600,12.13012060546875,-0.10140355676412582,-0.07269290834665298,0.45875945687294006
1773146092353131500,12.143131591796875,-0.1640172004699707,0.010384701192378998,0.4607447683811188
1773146092366142500,12.156142578125,-0.24953825771808624,0.1692095398902893,0.41523534059524536
1773146092379153700,12.169153564453126,-0.31841325759887695,0.32070401310920715,0.32360562682151794
1773146092392164600,12.18216455078125,-0.324063777923584,0.389120876789093,0.212733656167984
1773146092405175600,12.195175537109375,-0.28466299176216125,0.38957902789115906,0.12354740500450134
1773146092418186500,12.2081865234375,-0.20433427393436432,0.310166597366333,0.04825831577181816
1773146092431197700,12.22119775390625,-0.1282816082239151,0.17455461621284485,-0.019394956529140472
1773146092444208600,12.234208740234376,-0.16004657745361328,0.07712167501449585,-0.051159925758838654
1773146092457219600,12.247219482421874,-0.2409861534833908,0.02871064469218254,-0.07101303339004517
1773146092470230500,12.26023046875,-0.31352636218070984,0.060933761298656464,-0.08903354406356812
1773146092483241500,12.273241455078125,-0.3831649422645569,0.17043127119541168,-0.07559451460838318
1773146092496252700,12.286252685546875,-0.43004879355430603,0.30283620953559875,-0.053145237267017365
1773146092509263600,12.299263671875,-0.44348782300949097,0.43600472807884216,-0.03436114266514778
1773146092522274600,12.312274658203124,-0.4405862092971802,0.5907062292098999,-0.020922118797898293
1773146092535285500,12.325285400390625,-0.41615164279937744,0.7279980778694153,-0.017715077847242355
1773146092548296700,12.338296630859375,-0.3750709891319275,0.836732029914856,-0.019700389355421066
1773146092561307600,12.3513076171875,-0.33505934476852417,0.8875865340232849,-0.005955931730568409
1773146092574318600,12.364318603515626,-0.2883281707763672,0.7930551767349243,0.02458730712532997
1773146092587329500,12.37732958984375,-0.2487746775150299,0.6212494969367981,0.06536252796649933
1773146092600340700,12.3903408203125,-0.1925751268863678,0.4482220411300659,0.11545344442129135
1773146092613351700,12.4033515625,-0.15836669504642487,0.4042397737503052,0.1545487940311432
1773146092626362600,12.416362548828126,-0.12003492563962936,0.45097091794013977,0.18310672044754028
1773146092639373600,12.42937353515625,-0.06352993845939636,0.5361865758895874,0.20463970303535461
1773146092652384500,12.442384521484374,-0.01954767294228077,0.5890263915061951,0.2176205813884735
1773146092665395700,12.455395751953125,0.018325943499803543,0.5988001823425293,0.2331976294517517
1773146092678406700,12.46840673828125,0.06765327602624893,0.6119337677955627,0.233503058552742
1773146092691417600,12.48141748046875,0.12461641430854797,0.6754637360572815,0.2176205813884735
1773146092704428500,12.494428466796874,0.16661337018013,0.7124210596084595,0.2176205813884735
1773146092717439700,12.507439697265625,0.18173226714134216,0.6847794055938721,0.20631958544254303
1773146092730450700,12.52045068359375,0.18616104125976562,0.648127555847168,0.18875721096992493
1773146092743461600,12.533461669921875,0.2208276242017746,0.6571378111839294,0.16997312009334564
1773146092756472600,12.54647265625,0.31123560667037964,0.7145590782165527,0.12278381735086441
1773146092769483500,12.5594833984375,0.43493571877479553,0.8232930302619934,0.030695954337716103
1773146092782494700,12.57249462890625,0.5873464941978455,0.9185879230499268,-0.10445787757635117
1773146092795505700,12.585505615234375,0.720820426940918,1.0187697410583496,-0.23594652116298676
1773146092808516600,12.5985166015625,0.8116865754127502,1.0554215908050537,-0.3646862804889679
1773146092821527600,12.611527587890626,0.8390227556228638,1.030987024307251,-0.42821621894836426
1773146092834538500,12.62453857421875,0.7974839806556702,0.9897536635398865,-0.41554075479507446
1773146092847549400,12.637549560546875,0.7134900689125061,0.8834632039070129,-0.39568766951560974
1773146092860560600,12.650560546875,0.6157516837120056,0.8472694754600525,-0.35537058115005493
1773146092873571600,12.663571533203125,0.5204567909240723,0.9054543375968933,-0.3153589367866516
1773146092886582500,12.67658251953125,0.45127636194229126,1.014188289642334,-0.30802857875823975
1773146092899593500,12.689593505859374,0.42562004923820496,1.2003493309020996,-0.3174969553947449
1773146092912604700,12.702604736328125,0.4358520209789276,1.3868157863616943,-0.3182605504989624
1773146092925615600,12.71561572265625,0.4407389461994171,1.4666863679885864,-0.29016077518463135
1773146092938626600,12.72862646484375,0.4972439408302307,1.4417935609817505,-0.22174391150474548
1773146092951637800,12.7416376953125,0.6003273725509644,1.4271328449249268,-0.1513417512178421
1773146092964648700,12.754648681640624,0.6728675365447998,1.3481786251068115,-0.1496618688106537
1773146092977659600,12.76765966796875,0.7037162184715271,1.2802199125289917,-0.16752967238426208
1773146092990670600,12.780670654296875,0.6919570565223694,1.2670862674713135,-0.16264274716377258
1773146093003681500,12.793681640625,0.6663007736206055,1.2846486568450928,-0.1516471803188324
1773146093016692500,12.8066923828125,0.6545416116714478,1.3432916402816772,-0.11667517572641373
1773146093029703700,12.81970361328125,0.6655371785163879,1.387273907661438,-0.10125083476305008
1773146093042714600,12.832714599609375,0.7000510096549988,1.4500402212142944,-0.09269873052835464
1773146093055725600,12.8457255859375,0.7437278628349304,1.482110619544983,-0.0902552679181099
1773146093068736500,12.858736572265625,0.7877101302146912,1.4674499034881592,-0.09422589093446732
1773146093081747700,12.871747802734374,0.8202387094497681,1.4178171157836914,-0.12644900381565094
1773146093094758700,12.884758544921874,0.8341358304023743,1.391702651977539,-0.1821904182434082
1773146093107769600,12.89776953125,0.8268054723739624,1.382845163345337,-0.2237292230129242
1773146093120780500,12.910780517578125,0.7974839806556702,1.3868157863616943,-0.2315177470445633
1773146093133791500,12.92379150390625,0.7738129496574402,1.4075851440429688,-0.21197007596492767
1773146093146802700,12.936802734375,0.766940712928772,1.4708096981048584,-0.17898337543010712
1773146093159813600,12.949813720703125,0.7571669220924377,1.5233440399169922,-0.12812888622283936
1773146093172824600,12.962824462890625,0.7388409376144409,1.5248712301254272,-0.0824667438864708
1773146093185835500,12.97583544921875,0.7237220406532288,1.4720313549041748,-0.0824667438864708
1773146093198846700,12.9888466796875,0.7205150127410889,1.4149155616760254,-0.12110394239425659
1773146093211857700,13.001857666015624,0.7318159937858582,1.406821608543396,-0.1928805559873581
1773146093224868600,13.01486865234375,0.7510582208633423,1.4283546209335327,-0.2799287736415863
1773146093237879600,13.027879638671875,0.7677043080329895,1.4471386671066284,-0.3407098352909088
1773146093250890500,13.040890380859375,0.7913753390312195,1.4451533555984497,-0.38179048895835876
1773146093263901700,13.053901611328126,0.8378010392189026,1.4479022026062012,-0.4176788032054901
1773146093276912600,13.06691259765625,0.8959859013557434,1.4508038759231567,-0.42531460523605347
1773146093289923600,13.079923583984375,0.962722897529602,1.4320197105407715,-0.4192059636116028
1773146093302934500,13.0929345703125,1.0206023454666138,1.414151906967163,-0.4062250852584839
1773146093315945700,13.10594580078125,1.0487021207809448,1.3946043252944946,-0.3764454126358032
1773146093328956700,13.118956787109376,1.0494656562805176,1.392619013786316,-0.3488037884235382
1773146093341967600,13.131967529296874,1.0352630615234375,1.4300343990325928,-0.33047783374786377
1773146093354978600,13.144978515625,1.0132719278335571,1.5028800964355469,-0.3174969553947449
1773146093367989500,13.157989501953125,0.9917389750480652,1.595426082611084,-0.32971426844596863
1773146093381000700,13.171000732421875,0.9773836731910706,1.6788091659545898,-0.3565923273563385
1773146093394011600,13.18401171875,0.9758564829826355,1.7215696573257446,-0.37201663851737976
1773146093407022600,13.197022705078124,0.9856303334236145,1.6898046731948853,-0.37858346104621887
1773146093420033500,13.210033447265625,0.9966259002685547,1.618180751800537,-0.3744601011276245
1773146093433044700,13.223044677734375,1.0067051649093628,1.5651882886886597,-0.3617846667766571
1773146093446055700,13.2360556640625,1.0018181800842285,1.5428917407989502,-0.3536907136440277
1773146093459066600,13.249066650390626,0.9815070033073425,1.521206021308899,-0.36392268538475037
1773146093472077600,13.26207763671875,0.9582940936088562,1.505781650543213,-0.37980517745018005
1773146093485088500,13.275088623046875,0.9472985863685608,1.5192207098007202,-0.388662725687027
1773146093498099700,13.288099609375,0.9541707634925842,1.5599958896636963,-0.37690356373786926
1773146093511110700,13.301110595703125,0.9663881063461304,1.5949679613113403,-0.35246896743774414
1773146093524121600,13.31412158203125,0.9871574640274048,1.590080976486206,-0.33826637268066406
1773146093537132500,13.327132568359374,1.0103703737258911,1.5819870233535767,-0.34926193952560425
1773146093550143700,13.340143798828125,1.0584759712219238,1.5697697401046753,-0.3407098352909088
1773146093563154700,13.35315478515625,1.0735948085784912,1.5419753789901733,-0.29794928431510925
1773146093576165600,13.36616552734375,1.0613775253295898,1.4776818752288818,-0.26648977398872375
1773146093589176600,13.379176513671876,1.0308343172073364,1.4227041006088257,-0.25274530053138733
1773146093602187500,13.3921875,0.9810488224029541,1.4080432653427124,-0.23472478985786438
1773146093615198700,13.40519873046875,0.9233221411705017,1.4256056547164917,-0.2009745091199875
1773146093628209700,13.418209716796875,0.8833104968070984,1.4625630378723145,-0.16676609218120575
1773146093641220600,13.431220703125,0.8666644096374512,1.4825688600540161,-0.15775582194328308
1773146093654231600,13.4442314453125,0.8634573817253113,1.4886775016784668,-0.1721111536026001
1773146093667242800,13.45724267578125,0.8605557680130005,1.4996730089187622,-0.18875721096992493
1773146093680253700,13.470253662109375,0.8434515595436096,1.4943280220031738,-0.20387612283229828
1773146093693264600,13.4832646484375,0.8097012639045715,1.4686716794967651,-0.21197007596492767
1773146093706275600,13.496275634765626,0.7648026943206787,1.4312561750411987,-0.2136499583721161
1773146093719286500,13.50928662109375,0.720820426940918,1.410944938659668,-0.21639885008335114
1773146093732297700,13.522297607421875,0.6960803866386414,1.412472128868103,-0.22663083672523499
1773146093745308700,13.53530859375,0.6963858604431152,1.421024203300476,-0.2393062710762024
1773146093758319600,13.548319580078125,0.7249437570571899,1.4214823246002197,-0.2571740746498108
1773146093771330600,13.56133056640625,0.7757982611656189,1.422245979309082,-0.2857320010662079
1773146093784341800,13.574341796875,0.8222240209579468,1.402698278427124,-0.31261005997657776
1773146093797352700,13.587352783203125,0.8491020202636719,1.363602876663208,-0.32681265473365784
1773146093810363600,13.60036376953125,0.8483384847640991,1.3220640420913696,-0.32879796624183655
1773146093823374600,13.61337451171875,0.8329141139984131,1.2980875968933105,-0.33536475896835327
1773146093836385500,13.626385498046876,0.8161153197288513,1.2875502109527588,-0.3627009689807892
1773146093849396700,13.639396728515624,0.8097012639045715,1.2838850021362305,-0.40698865056037903
1773146093862407700,13.65240771484375,0.8214604258537292,1.2948806285858154,-0.4416552484035492
1773146093875418600,13.665418701171875,0.8715513348579407,1.3119847774505615,-0.44898560643196106
1773146093888429600,13.6784296875,0.9758564829826355,1.3147337436676025,-0.4355465769767761
1773146093901440800,13.691440673828126,1.1281145811080933,1.3220640420913696,-0.43142324686050415
1773146093914451700,13.70445166015625,1.3081669807434082,1.3408482074737549,-0.4326449930667877
1773146093927462700,13.717462646484375,1.4621047973632812,1.333975911140442,-0.32879796624183655
1773146093940473600,13.7304736328125,1.515860915184021,1.2386810779571533,-0.22617268562316895
1773146093953484800,13.74348486328125,1.521511435508728,1.1038326025009155,-0.1533270627260208
1773146093966495700,13.756495849609376,1.4665336608886719,1.0566433668136597,-0.11835505068302155
1773146093979506700,13.769506591796874,1.3826924562454224,1.1099413633346558,-0.15577052533626556
1773146093992517600,13.782517578125,1.3011419773101807,1.2475385665893555,-0.23441936075687408
1773146094005528600,13.795528564453125,1.2327251434326172,1.3672680854797363,-0.3194822669029236
1773146094018539800,13.808539794921876,1.1899645328521729,1.4190388917922974,-0.38957902789115906
1773146094031550700,13.82155078125,1.159879446029663,1.4495820999145508,-0.4159989058971405
1773146094044561700,13.834561767578125,1.1129956245422363,1.453247308731079,-0.4050033390522003
1773146094057572600,13.847572509765625,1.0548107624053955,1.388495683670044,-0.3727802336215973
1773146094070583800,13.860583740234375,0.9969313144683838,1.2634210586547852,-0.34437501430511475
1773146094083594800,13.8735947265625,0.9448550939559937,1.0847431421279907,-0.351705402135849
1773146094096605700,13.886605712890624,0.8866702318191528,0.9376774430274963,-0.38179048895835876
1773146094109616600,13.89961669921875,0.7672461867332458,0.9498947262763977,-0.38591381907463074
1773146094122627600,13.912627685546875,0.7327322959899902,0.9796743988990784,-0.41187557578086853
1773146094135638800,13.925638671875,0.8031344413757324,0.9980003237724304,-0.44089165329933167
1773146094148649700,13.938649658203126,0.8940005898475647,1.0041090250015259,-0.4355465769767761
1773146094161660700,13.95166064453125,0.9734130501747131,1.001665472984314,-0.41157013177871704
1773146094174671600,13.964671630859375,0.9908226728439331,1.021213173866272,-0.3630063831806183
1773146094187682800,13.977682861328125,0.9321796298027039,1.1070396900177002,-0.24327689409255981
1773146094200693800,13.99069384765625,0.8378010392189026,1.2402082681655884,-0.04214967042207718
1773146094213704700,14.00370458984375,0.7706059217453003,1.384372353553772,0.1931859850883484
1773146094226715600,14.016715576171874,0.7921388745307922,1.5285364389419556,0.3361283540725708
1773146094239726600,14.0297265625,0.8300125002861023,1.7325652837753296,0.34468045830726624
1773146094252737800,14.04273779296875,0.8422298431396484,2.030667304992676,0.3092502951622009
1773146094265748700,14.055748779296875,0.9135482907295227,2.2456915378570557,0.24006985127925873
1773146094278759700,14.068759765625,0.94439697265625,2.3797764778137207,0.21029019355773926
1773146094291770600,14.0817705078125,0.9660826325416565,2.4262022972106934,0.2637408673763275
1773146094304781800,14.09478173828125,0.9553925395011902,2.400545835494995,0.31780239939689636
1773146094317792800,14.107792724609375,0.8972076177597046,2.36419939994812,0.3407098352909088
1773146094330803700,14.1208037109375,0.8092431426048279,2.380998134613037,0.3211621642112732
1773146094343814700,14.133814697265626,0.7176133990287781,2.442390203475952,0.2787070572376251
1773146094356825600,14.14682568359375,0.6154462695121765,2.481485366821289,0.19654574990272522
1773146094369836800,14.1598369140625,0.5282453298568726,2.545931577682495,0.06001746281981468
1773146094382847700,14.17284765625,0.48914995789527893,2.632216453552246,-0.12935061752796173
1773146094395858700,14.185858642578125,0.4871646761894226,2.7197227478027344,-0.36712974309921265
1773146094408869600,14.19886962890625,0.5270236134529114,2.828151226043701,-0.5960513353347778
1773146094421880800,14.211880859375,0.7958040833473206,2.8675520420074463,-0.7060069441795349
1773146094434891800,14.224891845703125,1.0389282703399658,2.7030766010284424,-0.6672170758247375
1773146094447902700,14.23790283203125,1.11345374584198,2.344651699066162,-0.388662725687027
1773146094460913700,14.25091357421875,1.0877974033355713,1.8299981355667114,-0.004734201822429895
1773146094473924600,14.263924560546876,1.0091485977172852,1.4043781757354736,0.2926042377948761
1773146094486935800,14.276935791015624,0.9358448386192322,1.197447657585144,0.4497492015361786
1773146094499946800,14.28994677734375,0.9216422438621521,1.2487603425979614,0.5149590373039246
1773146094512957700,14.302957763671875,0.9480621218681335,1.5163191556930542,0.5137372612953186
1773146094525968600,14.31596875,0.9957095980644226,1.8686354160308838,0.48441576957702637
1773146094538979800,14.328979736328124,1.043357014656067,2.1305437088012695,0.44730573892593384
1773146094551990800,14.34199072265625,1.1000148057937622,2.2253804206848145,0.40698865056037903
1773146094565001700,14.355001708984375,1.1704169511795044,2.157727003097534,0.3627009689807892
1773146094578012700,14.3680126953125,1.2241730690002441,1.9944734573364258,0.32268932461738586
1773146094591023600,14.381023681640626,1.2295180559158325,1.8128939867019653,0.2906189262866974
1773146094604034800,14.394034912109374,1.193324327468872,1.6238312721252441,0.2188423126935959
1773146094617045800,14.407045654296875,1.110552191734314,1.5082250833511353,0.13622283935546875
1773146094630056700,14.420056640625,0.9941824078559875,1.4833323955535889,0.07559451460838318
1773146094643067600,14.433067626953125,0.8833104968070984,1.5257874727249146,0.02916879393160343
1773146094656078800,14.446078857421876,0.7889318466186523,1.6035200357437134,-0.0025961752980947495
1773146094669089800,14.45908984375,0.7029526233673096,1.6841541528701782,-0.06734783947467804
1773146094682100700,14.472100830078125,0.6374374032020569,1.7105741500854492,-0.1672242283821106
1773146094695111700,14.485111572265625,0.600785493850708,1.6540690660476685,-0.2735147178173065
1773146094708122600,14.49812255859375,0.602007269859314,1.5607595443725586,-0.36544984579086304
1773146094721133800,14.5111337890625,0.6345357894897461,1.472795009613037,-0.4350884258747101
1773146094734144800,14.524144775390624,0.6609556674957275,1.3950624465942383,-0.46776971220970154
1773146094747155700,14.53715576171875,0.6663007736206055,1.3054180145263672,-0.4912880063056946
1773146094760166700,14.550166748046875,0.6569850444793701,1.2186752557754517,-0.5540543794631958
1773146094773177900,14.563177734375,0.6394227147102356,1.1641556024551392,-0.6424770355224609
1773146094786188800,14.576188720703126,0.6374374032020569,1.1588104963302612,-0.7243329286575317
1773146094799199700,14.58919970703125,0.689513623714447,1.2089014053344727,-0.7759509682655334
1773146094812210700,14.602210693359375,0.7449495792388916,1.2467750310897827,-0.7576250433921814
1773146094825221600,14.6152216796875,0.7718276381492615,1.2655590772628784,-0.7170025110244751
1773146094838232800,14.62823291015625,0.7579304575920105,1.3371829986572266,-0.6554579138755798
1773146094851243800,14.641243896484376,0.720820426940918,1.410944938659668,-0.6097957491874695
1773146094864254700,14.654254638671874,0.7660244107246399,1.2023346424102783,-0.5890263915061951
1773146094877265700,14.667265625,0.7681624889373779,1.1478148698806763,-0.5047270059585571
1773146094890276900,14.68027685546875,0.7293725609779358,1.1131483316421509,-0.3969093859195709
1773146094903287800,14.693287841796876,0.6973021626472473,1.0798561573028564,-0.3133736252784729
1773146094916298800,14.706298828125,0.6931788325309753,1.131474256515503,-0.2750418782234192
1773146094929310000,14.71931005859375,0.6988292932510376,1.191797137260437,-0.2730565667152405
1773146094942321000,14.73232080078125,0.7049379348754883,1.202792763710022,-0.2759581506252289
1773146094955331800,14.745331787109375,0.7425061464309692,1.1800380945205688,-0.26648977398872375
1773146094968342800,14.7583427734375,0.782365083694458,1.1632392406463623,-0.24083344638347626
1773146094981353700,14.771353759765624,0.8295543789863586,1.1192569732666016,-0.20952661335468292
1773146094994364700,14.78436474609375,0.8698714375495911,1.0671807527542114,-0.1821904182434082
1773146095007376000,14.7973759765625,0.8356630206108093,1.0244202613830566,-0.1288924664258957
1773146095020386800,14.81038671875,0.7623592615127563,0.9601266980171204,-0.0795651376247406
1773146095033397800,14.823397705078126,0.6606502532958984,0.963333785533905,-0.016035201027989388
1773146095046409000,14.836408935546874,0.5539016127586365,0.9828814268112183,0.04214967042207718
1773146095059420000,14.849419921875,0.4786125421524048,1.0207550525665283,0.0539088174700737
1773146095072430800,14.862430908203125,0.43951719999313354,1.111926555633545,-0.005955931730568409
1773146095085441800,14.87544189453125,0.43661558628082275,1.225547432899475,-0.12935061752796173
1773146095098452700,14.88845263671875,0.44837474822998047,1.3095413446426392,-0.29993459582328796
1773146095111463700,14.901463623046874,0.48914995789527893,1.3681844472885132,-0.4790706932544708
1773146095124475000,14.914474853515625,0.5681042671203613,1.4019346237182617,-0.6256782412528992
1773146095137485800,14.92748583984375,0.6198750138282776,1.3293944597244263,-0.7405208349227905
1773146095150496800,14.940496826171875,0.5949822664260864,1.2215768098831177,-0.801301896572113
1773146095163508000,14.953508056640626,0.5253437161445618,1.1543817520141602,-0.8106175661087036
1773146095176519000,14.966518798828124,0.4407389461994171,1.1722495555877686,-0.7690787315368652
1773146095189529900,14.97952978515625,0.36651885509490967,1.2301290035247803,-0.7087558507919312
1773146095202540800,14.992540771484375,0.35063639283180237,1.2638791799545288,-0.672104001045227
1773146095215551700,15.0055517578125,0.3836230933666229,1.2756383419036865,-0.6207913160324097
1773146095228563000,15.01856298828125,0.43050694465637207,1.2377647161483765,-0.5337430834770203
1773146095241574000,15.031573974609374,0.4825831651687622,1.153923511505127,-0.43722647428512573
1773146095254584800,15.044584716796875,0.5441278219223022,1.073289394378662,-0.3630063831806183
1773146095267595800,15.057595703125,0.596662163734436,1.021518588066101,-0.33948808908462524
1773146095280607000,15.07060693359375,0.6365211009979248,1.001665472984314,-0.3390299379825592
1773146095293618000,15.083617919921876,0.6630937457084656,1.0004438161849976,-0.3329212963581085
1773146095306628900,15.09662890625,0.6626355648040771,0.9821178317070007,-0.31459537148475647
1773146095319639800,15.109639892578125,0.6325504779815674,0.9616538882255554,-0.26939135789871216
1773146095332650800,15.122650634765625,0.5812378525733948,0.9327905178070068,-0.19929464161396027
1773146095345662000,15.135661865234376,0.5229002237319946,0.9027054309844971,-0.11957678198814392
1773146095358673000,15.1486728515625,0.4757109582424164,0.8941532969474792,-0.037262752652168274
1773146095371683800,15.161683837890624,0.4410443603992462,0.9075923562049866,0.04581485688686371
1773146095384694800,15.17469482421875,0.42195484042167664,0.9169080257415771,0.11545344442129135
1773146095397706000,15.1877060546875,0.41584619879722595,0.924238383769989,0.15531237423419952
1773146095410717000,15.200717041015626,0.40973755717277527,0.934012234210968,0.1663079410791397
1773146095423727900,15.213727783203124,0.40607234835624695,0.9250019788742065,0.17333288490772247
1773146095436738800,15.22673876953125,0.4211912751197815,0.9051488637924194,0.16478078067302704
1773146095449749800,15.239749755859375,0.4370737373828888,0.8973603844642639,0.11743875592947006
1773146095462761000,15.252760986328125,0.4667007029056549,0.9364557266235352,0.04214967042207718
1773146095475772000,15.26577197265625,0.505032479763031,0.9787580966949463,-0.04169152304530144
1773146095488782800,15.278782958984374,0.5294670462608337,0.9787580966949463,-0.11056652665138245
1773146095501793800,15.291793701171875,0.5482511520385742,0.9523382186889648,-0.1415679156780243
1773146095514805000,15.304804931640625,0.5710058808326721,0.874605655670166,-0.12644900381565094
1773146095527816000,15.31781591796875,0.5800161361694336,0.7373138070106506,-0.08414662629365921
1773146095540827000,15.330826904296876,0.5571087002754211,0.5801688432693481,-0.04046979174017906
1773146095553837800,15.343837890625,0.5030471682548523,0.45188722014427185,-0.04260781779885292
1773146095566848800,15.356848876953125,0.44959646463394165,0.3981311321258545,-0.08124501258134842
1773146095579860000,15.36985986328125,0.3975202441215515,0.4196641147136688,-0.13209950923919678
1773146095592871000,15.382870849609375,0.34055712819099426,0.4819723069667816,-0.2029598206281662
1773146095605881900,15.3958818359375,0.29367324709892273,0.5716167092323303,-0.27427828311920166
1773146095618892800,15.408892822265624,0.2525925934314728,0.6253728270530701,-0.33337944746017456
1773146095631904000,15.421904052734375,0.2110537886619568,0.6082686185836792,-0.3935496211051941
1773146095644915000,15.4349150390625,0.2049451321363449,0.5426006317138672,-0.4350884258747101
1773146095657926000,15.44792578125,0.25870123505592346,0.44700029492378235,-0.4350884258747101
1773146095670936800,15.460936767578126,0.35643959045410156,0.3194822669029236,-0.41355544328689575
1773146095683947800,15.47394775390625,0.45249807834625244,0.1870773434638977,-0.3646862804889679
1773146095696959000,15.486958984375,0.4944950342178345,0.05925388261675835,-0.28237223625183105
1773146095709970000,15.499969970703125,0.46883872151374817,-0.07681624591350555,-0.21029019355773926
1773146095722980900,15.51298095703125,0.41294458508491516,-0.15699224174022675,-0.1931859850883484
1773146095735991800,15.52599169921875,0.4166097939014435,-0.25473061203956604,-0.21517711877822876
1773146095749003000,15.5390029296875,0.3848448097705841,-0.29993459582328796,-0.21975859999656677
1773146095762014000,15.552013916015625,0.4134027361869812,-0.35414886474609375,-0.1305723488330841
1773146095775025000,15.56502490234375,0.47494736313819885,-0.4176788032054901,0.01847865991294384
1773146095788035800,15.578035888671875,0.4647153913974762,-0.4815141558647156,0.1308777779340744
1773146095801047000,15.591047119140624,0.4085158109664917,-0.47296205163002014,0.15821397304534912
1773146095814058000,15.60405810546875,0.3156643807888031,-0.3837758004665375,0.10445787757635117
1773146095827069000,15.61706884765625,0.17318016290664673,-0.2657261788845062,0.0360410213470459
1773146095840080000,15.630079833984375,-0.040317077189683914,-0.2608392536640167,0.030695954337716103
1773146095853090800,15.6430908203125,-0.27397283911705017,-0.4143190383911133,0.1207985132932663
1773146095866102000,15.65610205078125,-0.48212501406669617,-0.6183478832244873,0.23396120965480804
1773146095879113000,15.669113037109375,-0.6096430420875549,-0.7539598345756531,0.29703301191329956
1773146095892124000,15.6821240234375,-0.6360629796981812,-0.7279980778694153,0.3370446562767029
1773146095905134800,15.695134765625,-0.7562506198883057,-0.6501128673553467,0.2591593861579895
1773146095918146000,15.70814599609375,-0.7301361560821533,-0.5389354228973389,0.2860374450683594
1773146095931157000,15.721156982421874,-0.5134318470954895,-0.5096139311790466,0.27748534083366394
1773146095944168000,15.73416796875,-0.4124864339828491,-0.3019199073314667,0.3263545036315918
1773146095957179000,15.747178955078125,-0.3130682110786438,-0.22739441692829132,0.388662725687027
1773146095970190000,15.760190185546875,-0.25442516803741455,-0.2136499583721161,0.4042397737503052
1773146095983201000,15.773200927734376,-0.1957821547985077,-0.1931859850883484,0.3871355652809143
1773146095996212000,15.7862119140625,-0.12660172581672668,-0.09178243577480316,0.3813323378562927
1773146096009223000,15.799222900390625,-0.028405211865901947,-0.12965604662895203,0.3116937577724457
1773146096022234000,15.812234130859375,0.04764745384454727,0.043371398001909256,0.29306238889694214
1773146096035245000,15.8252451171875,0.14294235408306122,-0.011606430634856224,0.18310672044754028
1773146096048256000,15.838256103515626,0.16050471365451813,0.17653992772102356,0.08903354406356812
1773146096061267000,15.851266845703124,0.1282816082239151,0.2811505198478699,-0.09590577334165573
1773146096074278000,15.86427783203125,0.0513126403093338,0.38667741417884827,-0.2945895493030548
1773146096087289000,15.8772890625,-0.018631376326084137,0.4379900395870209,-0.4770853817462921
1773146096100300000,15.890300048828125,-0.05283980444073677,0.5161807537078857,-0.5667297840118408
1773146096113311000,15.90331103515625,-0.012522728182375431,0.5711585879325867,-0.5748237371444702
1773146096126322000,15.916322021484374,0.07330377399921417,0.6253728270530701,-0.5288561582565308
1773146096139333000,15.9293330078125,0.1646280586719513,0.763428270816803,-0.5031998753547668
1773146096152344000,15.942343994140625,0.3347539007663727,1.188590168952942,-0.565049946308136
1773146096165355000,15.95535498046875,0.4883863925933838,1.4537054300308228,-0.5377137064933777
1773146096178366000,15.968365966796876,0.47204574942588806,1.4385865926742554,-0.5283980369567871
1773146096191377000,15.981376953125,0.5111411213874817,1.2756383419036865,-0.41157013177871704
1773146096204388000,15.99438818359375,0.4757109582424164,1.0972658395767212,-0.3321577310562134
1773146096217399000,16.00739892578125,0.42394015192985535,0.9812015295028687,-0.2811505198478699
1773146096230410000,16.020409912109375,0.3845393657684326,0.9665408134460449,-0.26618432998657227
1773146096243421000,16.0334208984375,0.3836230933666229,0.9992220401763916,-0.2620609998703003
1773146096256432000,16.04643212890625,0.41218101978302,1.021518588066101,-0.2657261788845062
1773146096269443000,16.059443115234377,0.443945974111557,1.0383174419403076,-0.27916520833969116
1773146096282454000,16.0724541015625,0.45417797565460205,1.0154099464416504,-0.30802857875823975
1773146096295465000,16.08546484375,0.3975202441215515,0.9943351149559021,-0.33857181668281555
1773146096308476000,16.098475830078126,0.3400989770889282,0.943786084651947,-0.3666715919971466
1773146096321487000,16.111487060546875,0.3442223072052002,0.9665408134460449,-0.29993459582328796
1773146096334498000,16.124498046875,0.31810784339904785,0.9625701904296875,-0.22296564280986786
1773146096347509000,16.137509033203123,0.3205513060092926,0.9860884547233582,-0.15012001991271973
1773146096360520000,16.15052001953125,0.3364337682723999,1.0163263082504272,-0.10858121514320374
1773146096373531100,16.16353125,0.3530798554420471,1.0158681869506836,-0.10934479534626007
1773146096386542000,16.1765419921875,0.36942046880722046,0.9877683520317078,-0.12690715491771698
1773146096399553000,16.189552978515625,0.3779725730419159,0.9039271473884583,-0.13011419773101807
1773146096412564000,16.20256396484375,0.3828594982624054,0.7881683111190796,-0.10369429737329483
1773146096425575000,16.215574951171874,0.39507678151130676,0.6669116020202637,-0.05604684352874756
1773146096438586000,16.228586181640626,0.4068359434604645,0.5516108870506287,0.018173227086663246
1773146096451597000,16.24159716796875,0.42562004923820496,0.45509424805641174,0.07513637095689774
1773146096464608000,16.25460791015625,0.45906487107276917,0.44577857851982117,0.08933897316455841
