time,seconds_elapsed,z,y,x
1773146080291937000,0.08193701171875,-1.7324124574661255,-1.100778341293335,-0.34987279772758484
1773146080304948200,0.0949482421875,-1.7727296352386475,-1.4917317628860474,-0.17424917221069336
1773146080317959200,0.107959228515625,-1.6977459192276,-1.5315907001495361,-0.10506874322891235
1773146080330970000,0.12097021484375,-1.4592032432556152,-1.2832741737365723,-0.13927717506885529
1773146080343981000,0.13398095703125,-1.1740821599960327,-0.9118683934211731,-0.14004075527191162
1773146080356992000,0.146991943359375,-0.7606793642044067,-0.6140718460083008,-0.09651663154363632
1773146080370003200,0.160003173828125,-0.39629852771759033,-0.578336238861084,0.12217295914888382
1773146080383014100,0.17301416015625,-0.22479823231697083,-0.42882707715034485,0.46624255180358887
1773146080396025000,0.186025146484375,-0.21258094906806946,0.03711003437638283,0.8034399151802063
1773146080409036000,0.1990361328125,-0.4312705397605896,0.595745861530304,0.9786053895950317
1773146080422047200,0.212047119140625,-1.6082541942596436,0.1747073233127594,0.7848085165023804
1773146080435058200,0.22505810546875,-2.5277583599090576,-0.3156643807888031,0.588110089302063
1773146080448069000,0.238069091796875,-2.327852964401245,0.09162971377372742,0.46547895669937134
1773146080461080000,0.251080078125,-1.9694280624389648,-0.14049890637397766,0.37552911043167114
1773146080474091000,0.264091064453125,-1.5731295347213745,-0.8006910085678101,0.33108872175216675
1773146080487102000,0.27710205078125,-1.2429571151733398,-1.131779670715332,0.21868959069252014
1773146080500113200,0.290113037109375,-0.9830341339111328,-1.3993384838104248,0.1314886510372162
1773146080513124000,0.3031240234375,-0.8388700485229492,-1.5987858772277832,0.13240493834018707
1773146080526135000,0.316135009765625,-0.8874338269233704,-1.830150842666626,0.11896591633558273
1773146080539146000,0.32914599609375,-1.0645846128463745,-2.0297510623931885,0.11682789027690887
1773146080552157200,0.3421572265625,-1.2730422019958496,-1.831372618675232,-0.16905683279037476
1773146080565168000,0.355168212890625,-1.2779290676116943,-1.1601849794387817,-0.9932661056518555
1773146080578179000,0.368178955078125,-1.1003202199935913,-0.502894401550293,-1.6725478172302246
1773146080591190000,0.38118994140625,-0.9329432249069214,0.26190826296806335,-2.008523464202881
1773146080604201000,0.394200927734375,-0.7557924389839172,0.7867938280105591,-2.0354013442993164
1773146080617212000,0.4072119140625,-0.5835285782814026,0.7704532146453857,-1.8003711700439453
1773146080630223000,0.42022314453125,-0.5319104790687561,0.4341721534729004,-1.2925899028778076
1773146080643234000,0.433234130859375,-0.6536253094673157,-0.3738492429256439,-0.8019127249717712
1773146080656245000,0.446244873046875,-0.8617774844169617,-1.4237730503082275,-0.516791582107544
1773146080669256000,0.459255859375,-1.0709986686706543,-2.2785255908966064,-0.41584619879722595
1773146080682267100,0.47226708984375,-1.1166608333587646,-2.609614372253418,-0.4214966893196106
1773146080695278000,0.485278076171875,-1.004719853401184,-2.7823362350463867,-0.5632173418998718
1773146080708289000,0.4982890625,-0.827874481678009,-2.7733261585235596,-0.7599157691001892
1773146080721300000,0.511300048828125,-0.6443096399307251,-2.531423568725586,-0.986393928527832
1773146080734311000,0.524310791015625,-0.550541877746582,-2.260657787322998,-1.147204041481018
1773146080747321900,0.53732177734375,-0.5661189556121826,-2.131459951400757,-1.2625048160552979
1773146080760333000,0.5503330078125,-0.6601921319961548,-2.2785255908966064,-1.3724604845046997
1773146080773344000,0.563343994140625,-0.8205441236495972,-2.515083074569702,-1.3434443473815918
1773146080786355000,0.57635498046875,-0.8295543789863586,-3.009577989578247,-1.3031272888183594
1773146080799366000,0.589365966796875,-0.7533490061759949,-3.5295767784118652,-1.2750275135040283
1773146080812377000,0.602377197265625,-0.5123628377914429,-3.8802130222320557,-1.2307398319244385
1773146080825388000,0.615387939453125,0.0386371985077858,-3.9527533054351807,-1.2021819353103638
1773146080838399000,0.62839892578125,0.513584554195404,-3.724595308303833,-1.2567015886306763
1773146080851410000,0.641409912109375,0.8271108865737915,-3.4159557819366455,-1.47661292552948
1773146080864420900,0.6544208984375,0.9517273306846619,-3.19970965385437,-1.8362594842910767
1773146080877432000,0.66743212890625,0.9676098227500916,-3.0721917152404785,-2.17147159576416
1773146080890443000,0.680443115234375,1.1039854288101196,-3.079216718673706,-2.464228630065918
1773146080903454000,0.693453857421875,1.3561197519302368,-3.0828819274902344,-2.744004487991333
1773146080916465000,0.70646484375,1.6574288606643677,-2.981478214263916,-3.042564868927002
1773146080929475800,0.719475830078125,1.9364413022994995,-2.7391176223754883,-3.3883142471313477
1773146080942487000,0.732487060546875,2.191019296646118,-2.290742874145508,-3.7343690395355225
1773146080955498000,0.745498046875,2.450789451599121,-1.8199188709259033,-4.148993492126465
1773146080968509000,0.758509033203125,2.5917465686798096,-1.3324488401412964,-4.487412452697754
1773146080981520000,0.771519775390625,2.688568592071533,-0.8532254099845886,-4.771312236785889
1773146080994530800,0.78453076171875,2.7342307567596436,-0.5233584046363831,-5.02695894241333
1773146081007542000,0.7975419921875,2.9106180667877197,-0.31841325759887695,-5.1564621925354
1773146081020553000,0.810552978515625,3.165501356124878,-0.06520981341600418,-5.018406867980957
1773146081033564000,0.82356396484375,3.257589101791382,0.19792018830776215,-4.6983137130737305
1773146081046574800,0.836574951171875,3.2591164112091064,0.09819651395082474,-4.387689113616943
1773146081059586000,0.8495859375,3.194364547729492,-0.17791436612606049,-4.160447120666504
1773146081072597000,0.862596923828125,3.1691665649414062,-0.360868364572525,-4.006509304046631
1773146081085608000,0.87560791015625,3.350440502166748,-0.30375251173973083,-3.8330237865448
1773146081098619000,0.888618896484375,3.548360824584961,0.04841103404760361,-3.6668684482574463
1773146081111629800,0.9016298828125,3.6778640747070312,0.3413206934928894,-3.5144577026367188
1773146081124641000,0.91464111328125,3.6786277294158936,0.36163195967674255,-3.430616617202759
1773146081137652000,0.92765185546875,3.537670612335205,0.014660755172371864,-3.528813123703003
1773146081150663000,0.940662841796875,3.4884960651397705,-0.1153007298707962,-3.5356853008270264
1773146081163673900,0.953673828125,3.6109743118286133,-0.009010255336761475,-3.383732795715332
1773146081176684800,0.966684814453125,3.676642417907715,0.12904518842697144,-3.0164501667022705
1773146081189696000,0.979696044921875,3.7111563682556152,0.29886558651924133,-2.386037826538086
1773146081202707000,0.99270703125,3.6810710430145264,0.5664243698120117,-1.550832986831665
1773146081215718000,1.0057177734375,3.615861415863037,0.6821832656860352,-0.8019127249717712
1773146081228728800,1.018728759765625,3.47291898727417,0.6687442064285278,-0.22846342623233795
1773146081241739800,1.03173974609375,3.338986873626709,0.6450732350349426,0.19669845700263977
1773146081254751000,1.0447509765625,3.229489326477051,0.6235402226448059,0.44791659712791443
1773146081267762000,1.057761962890625,3.0941827297210693,0.6695078015327454,0.5074759125709534
1773146081280772900,1.07077294921875,2.9492552280426025,0.7176133990287781,0.5094612240791321
1773146081293783800,1.08378369140625,2.764010429382324,0.734717607498169,0.5795579552650452
1773146081306795000,1.096794921875,2.4805691242218018,0.7664825916290283,0.7680097222328186
1773146081319806000,1.109805908203125,2.0948081016540527,0.9040798544883728,1.0787872076034546
1773146081332817000,1.12281689453125,1.7573052644729614,0.8373429179191589,1.29503333568573
1773146081345827800,1.135827880859375,1.4008656740188599,0.9488257169723511,1.4595086574554443
1773146081358838800,1.1488388671875,1.134223222732544,1.1965314149856567,1.5178462266921997
1773146081371849700,1.161849609375,0.9512691497802734,1.4876084327697754,1.4929535388946533
1773146081384861000,1.17486083984375,0.7709113359451294,1.6672027111053467,1.3671153783798218
1773146081397871900,1.187871826171875,0.6101012229919434,1.6965242624282837,1.2286018133163452
1773146081410882800,1.2008828125,0.49189886450767517,1.624442219734192,1.1268928050994873
1773146081423893800,1.213893798828125,0.3958403766155243,1.5320488214492798,1.0360267162322998
1773146081436904700,1.22690478515625,0.3917170464992523,1.289688229560852,0.9350812435150146
1773146081449916000,1.239916015625,0.49800750613212585,0.9280562996864319,0.7921388745307922
1773146081462926800,1.2529267578125,0.6401863098144531,0.6333140730857849,0.6181951761245728
1773146081475937800,1.265937744140625,0.7359393239021301,0.4647153913974762,0.44470956921577454
1773146081488948700,1.27894873046875,0.7518218159675598,0.49770209193229675,0.39507678151130676
1773146081501960000,1.2919599609375,0.8051197528839111,0.5815432667732239,0.5371028780937195
1773146081514971000,1.304970947265625,0.8588758707046509,0.7973312735557556,0.7554870247840881
1773146081527981800,1.31798193359375,0.855668842792511,1.0804671049118042,0.9216422438621521
1773146081540992800,1.33099267578125,0.8605557680130005,1.1965314149856567,1.0132719278335571
1773146081554003700,1.344003662109375,0.9182825088500977,1.072678565979004,0.972496747970581
1773146081567015000,1.357014892578125,1.1733185052871704,0.235793799161911,-0.18616104125976562
1773146081580025900,1.37002587890625,1.2625048160552979,1.1919498443603516,0.12385283410549164
1773146081593036800,1.383036865234375,0.8849903345108032,0.006872228812426329,0.5453495383262634
1773146081606047700,1.3960478515625,0.3620901107788086,-0.0513126403093338,0.5835285782814026
1773146081619058700,1.40905859375,0.3975202441215515,0.3046688139438629,0.11484257876873016
1773146081632070000,1.42206982421875,0.4105011224746704,0.9411898851394653,-0.7990111112594604
1773146081645080800,1.435080810546875,0.1363755613565445,1.2539526224136353,-1.6884303092956543
1773146081658091800,1.448091796875,-0.45616328716278076,0.7509055137634277,-1.9840887784957886
1773146081671102700,1.461102783203125,-1.0746638774871826,0.024434590712189674,-2.1116068363189697
1773146081684113700,1.47411376953125,-1.448513150215149,-0.3909534513950348,-2.14001202583313
1773146081697124900,1.487124755859375,-1.6351323127746582,-0.1490510106086731,-2.129474639892578
1773146081710135800,1.5001357421875,-1.8492404222488403,0.5204567909240723,-2.2007930278778076
1773146081723146800,1.513146728515625,-2.085034132003784,1.039233684539795,-2.0948081016540527
1773146081736157700,1.52615771484375,-2.0627377033233643,0.8584177494049072,-1.6473495960235596
1773146081749169000,1.5391689453125,-1.7967060804367065,0.21502439677715302,-1.0841323137283325
1773146081762179800,1.552179931640625,-1.0983349084854126,-0.4153880476951599,-0.47845983505249023
1773146081775190800,1.565190673828125,-0.43004879355430603,-0.32818710803985596,-0.2179260104894638
1773146081788201700,1.57820166015625,-0.26099199056625366,-0.15470150113105774,-0.046883873641490936
1773146081801212700,1.591212646484375,-0.26099199056625366,-0.23533566296100616,0.005650499369949102
1773146081814224000,1.604223876953125,-0.17027856409549713,-0.40026915073394775,0.05329795181751251
1773146081827234800,1.61723486328125,-0.021227551624178886,-0.5558869242668152,0.15638138353824615
1773146081840245800,1.630245849609375,0.2179260104894638,-0.5835285782814026,0.36774060130119324
1773146081853256700,1.643256591796875,0.4964803457260132,-0.24556763470172882,0.5199986696243286
1773146081866268000,1.656267822265625,0.5636754631996155,0.3058905303478241,0.5187768936157227
1773146081879278800,1.66927880859375,0.47525280714035034,0.44959646463394165,0.2790125012397766
1773146081892289800,1.682289794921875,0.2968802750110626,0.28267768025398254,0.10629047453403473
1773146081905300700,1.69530078125,0.09972367435693741,0.43692103028297424,-0.007788525894284248
1773146081918312000,1.70831201171875,-0.3107774555683136,0.6878337264060974,-0.2309068888425827
1773146081931323000,1.721322998046875,-0.9534072279930115,0.7212786078453064,-0.4043924808502197
1773146081944333800,1.734333740234375,-1.0096067190170288,0.6169734001159668,-0.3404043912887573
1773146081957344800,1.7473447265625,-0.5856665968894958,0.7509055137634277,-0.5199986696243286
1773146081970355700,1.760355712890625,-0.8006910085678101,0.9370665550231934,-0.7399099469184875
1773146081983366700,1.77336669921875,-1.3267983198165894,0.9069814682006836,-0.7623592615127563
1773146081996377900,1.7863779296875,-1.6061161756515503,0.7916807532310486,-0.6389645338058472
1773146082009388800,1.799388916015625,-2.0321943759918213,0.5004509687423706,-0.7139481902122498
1773146082022399700,1.812399658203125,-2.715446710586548,-0.43569931387901306,-0.8691078424453735
1773146082035410700,1.82541064453125,-3.2534658908843994,-1.469740629196167,-0.8344413042068481
1773146082048421600,1.838421630859375,-3.503462314605713,-1.7067562341690063,-0.4185950756072998
1773146082061432800,1.851432861328125,-3.4970481395721436,-1.265711784362793,-0.3481929302215576
1773146082074443800,1.86444384765625,-3.4636032581329346,-1.0702351331710815,-0.3657552897930145
1773146082087454700,1.877454833984375,-3.1870343685150146,-0.6646208763122559,-0.10140355676412582
1773146082100465700,1.890465576171875,-3.0950992107391357,-1.0245729684829712,0.01954767294228077
1773146082113476600,1.9034765625,-2.7753114700317383,-1.2661700248718262,0.2741255760192871
1773146082126487800,1.91648779296875,-2.288299560546875,-1.0025818347930908,0.41126471757888794
1773146082139498800,1.929498779296875,-1.7389793395996094,-0.6878337264060974,0.402407169342041
1773146082152509700,1.942509765625,-1.290910005569458,-0.42592546343803406,0.44470956921577454
1773146082165520600,1.955520751953125,-0.9512691497802734,0.059864748269319534,0.20448698103427887
1773146082178531600,1.968531494140625,-0.35674503445625305,0.9647082090377808,-0.06520981341600418
1773146082191542800,1.981542724609375,0.3355174660682678,1.6872085332870483,-0.3584249019622803
1773146082204553700,1.9945537109375,0.6650790572166443,1.5263984203338623,-0.568562388420105
1773146082217564700,2.007564697265625,0.6922625303268433,1.065806269645691,-0.41004297137260437
1773146082230575600,2.02057568359375,0.6675224900245667,1.1110103130340576,-0.23167046904563904
1773146082243586600,2.033586669921875,0.669965922832489,1.4033091068267822,-0.10797034949064255
1773146082256597800,2.04659765625,0.7338013052940369,1.5874848365783691,-0.0513126403093338
1773146082269608700,2.059608642578125,0.8894191384315491,1.5914554595947266,-0.03252854943275452
1773146082282619600,2.07261962890625,1.0832159519195557,1.4782928228378296,-0.056657709181308746
1773146082295630600,2.085630615234375,1.1769837141036987,1.2762492895126343,-0.0591011680662632
1773146082308641500,2.0986416015625,1.1745402812957764,0.9949460029602051,-0.03222311660647392
1773146082321652500,2.111652587890625,1.049007534980774,0.8698714375495911,0.03741546720266342
1773146082334663700,2.12466357421875,0.42592546343803406,0.7338013052940369,0.1669187992811203
1773146082347674600,2.137674560546875,0.18646647036075592,0.0896444097161293,0.18616104125976562
1773146082360685600,2.150685546875,0.6133082509040833,0.9908226728439331,-0.0847574844956398
1773146082373696500,2.163696533203125,0.7029526233673096,0.984255850315094,-0.318871408700943
1773146082386707700,2.176707763671875,0.7276926636695862,0.7704532146453857,-0.46715885400772095
1773146082399718700,2.18971875,0.6235402226448059,0.6340776681900024,-0.4341721534729004
1773146082412729600,2.2027294921875,0.5424479246139526,0.39049530029296875,-0.23167046904563904
1773146082425740500,2.215740478515625,0.4634936451911926,0.37064221501350403,-0.012675444595515728
1773146082438751500,2.22875146484375,0.3575085997581482,0.453719824552536,0.11438442766666412
1773146082451762400,2.241762451171875,0.20647229254245758,0.45616328716278076,0.10629047453403473
1773146082464773600,2.254773681640625,0.056657709181308746,0.41783151030540466,0.009010255336761475
1773146082477784600,2.26778466796875,-0.03588830679655075,0.33918267488479614,-0.06597339361906052
1773146082490795500,2.28079541015625,-0.03787361457943916,0.26389357447624207,-0.039858926087617874
1773146082503806500,2.293806396484375,0.02611446939408779,0.2419024556875229,0.07284562289714813
1773146082516817700,2.306817626953125,0.09117157012224197,0.22846342623233795,0.22525638341903687
1773146082529828600,2.31982861328125,0.13240493834018707,0.23777911067008972,0.30543237924575806
1773146082542839600,2.332839599609375,0.145843967795372,0.3078758418560028,0.2614501118659973
1773146082555850500,2.3458505859375,0.208152174949646,0.3355174660682678,0.23625195026397705
1773146082568861400,2.358861328125,0.29153522849082947,0.4796815812587738,0.2903134822845459
1773146082581872400,2.371872314453125,0.3530798554420471,0.7379246354103088,0.26389357447624207
1773146082594883600,2.384883544921875,0.2707658112049103,0.6829468011856079,-0.1617264449596405
1773146082607894500,2.39789453125,0.2883281707763672,0.010537417605519295,-0.8148936033248901
1773146082620905500,2.410905517578125,0.25243985652923584,0.16081015765666962,-0.8947641849517822
1773146082633916400,2.42391650390625,0.3364337682723999,-0.040317077189683914,-0.24510949850082397
1773146082646927400,2.43692724609375,0.21090106666088104,-0.11362084746360779,0.3623955249786377
1773146082659938600,2.4499384765625,0.18616104125976562,-0.0334448479115963,0.3819431960582733
1773146082672949500,2.462949462890625,0.0847574844956398,0.4647153913974762,-0.060322895646095276
1773146082685960400,2.47596044921875,0.1510363221168518,0.5086976289749146,-0.20280711352825165
1773146082698971400,2.488971435546875,0.15073087811470032,0.4378373324871063,-0.1519526094198227
1773146082711982600,2.501982666015625,0.1380554437637329,0.4243983030319214,-0.07086031138896942
1773146082724993500,2.51499365234375,0.12140937149524689,0.4618137776851654,-0.014202605932950974
1773146082738004500,2.52800439453125,0.11117739230394363,0.5025889873504639,0.001221729558892548
1773146082751015400,2.541015380859375,0.09361502528190613,0.4667007029056549,-0.005650499369949102
1773146082764026400,2.5540263671875,0.07864884287118912,0.4251618981361389,-0.02000582218170166
1773146082777037300,2.567037353515625,0.06520981341600418,0.4381427764892578,-0.03497200831770897
1773146082790048500,2.580048583984375,0.06551524996757507,0.45158177614212036,-0.03741546720266342
1773146082803059500,2.5930595703125,0.060322895646095276,0.48304131627082825,-0.036651886999607086
1773146082816070400,2.6060703125,0.045967575162649155,0.5057960152626038,-0.03787361457943916
1773146082829081300,2.619081298828125,0.021227551624178886,0.5082395076751709,-0.0386371985077858
1773146082842092500,2.632092529296875,-0.002443459117785096,0.4886918365955353,-0.03909534588456154
1773146082855103500,2.645103515625,-0.021227551624178886,0.5016726851463318,-0.04886918142437935
1773146082868114400,2.658114501953125,-0.03176496922969818,0.5285507440567017,-0.06307178735733032
1773146082881125400,2.67112548828125,-0.040775224566459656,0.5070177912712097,-0.07819069176912308
1773146082894136300,2.68413623046875,-0.04520399495959282,0.512668251991272,-0.09285144507884979
1773146082907147300,2.697147216796875,-0.04153880476951599,0.5285507440567017,-0.10583232343196869
1773146082920158500,2.710158447265625,-0.03588830679655075,0.5441278219223022,-0.11652245372533798
1773146082933169400,2.72316943359375,-0.02977965772151947,0.5697841048240662,-0.12751802802085876
1773146082946180400,2.736180419921875,-0.017867794260382652,0.5758927464485168,-0.14462223649024963
1773146082959191300,2.74919140625,-0.012217295356094837,0.5798633694648743,-0.1649334877729416
1773146082972202500,2.762202392578125,-0.006872228812426329,0.6027708053588867,-0.18402300775051117
1773146082985213400,2.77521337890625,-0.002901607658714056,0.6287325620651245,-0.21212279796600342
1773146082998224400,2.788224365234375,0.004886918235570192,0.6360629796981812,-0.25121814012527466
1773146083011235300,2.8012353515625,0.016646064817905426,0.6369792222976685,-0.29565855860710144
1773146083024246300,2.814246337890625,0.02519817277789116,0.6369792222976685,-0.3416261374950409
1773146083037257200,2.82725732421875,0.028863361105322838,0.6426297426223755,-0.39049530029296875
1773146083050268400,2.840268310546875,0.03298669680953026,0.6565269231796265,-0.4422661066055298
1773146083063279400,2.853279296875,0.03909534588456154,0.6959276795387268,-0.5090031027793884
1773146083076290300,2.866290283203125,0.0513126403093338,0.6805033683776855,-0.5920807123184204
1773146083089301200,2.87930126953125,0.05864302068948746,0.685390293598175,-0.6878337264060974
1773146083102312400,2.8923125,0.05940660089254379,0.7005091905593872,-0.790917158126831
1773146083115323400,2.905323486328125,0.0513126403093338,0.7310523986816406,-0.9060651659965515
1773146083128334300,2.918334228515625,0.04764745384454727,0.7635809779167175,-0.9871574640274048
1773146083141345300,2.93134521484375,0.04230238497257233,0.7680097222328186,-1.0270164012908936
1773146083154356200,2.944356201171875,0.04932733252644539,0.768467903137207,-1.0372483730316162
1773146083167367200,2.9573671875,0.07651081681251526,0.790917158126831,-1.0257946252822876
1773146083180378400,2.97037841796875,0.12018764764070511,0.845894992351532,-1.0282381772994995
1773146083193389300,2.983389404296875,0.16905683279037476,0.9815070033073425,-0.9915862679481506
1773146083206400300,2.996400146484375,0.2101374864578247,0.9647082090377808,-0.9187406301498413
1773146083219411200,3.0094111328125,0.3298669755458832,0.6482802629470825,-0.7619010806083679
1773146083232422100,3.022422119140625,0.47723811864852905,0.47723811864852905,-0.40607234835624695
1773146083245433000,3.03543310546875,0.5823068618774414,0.3029889166355133,-0.011759147047996521
1773146083258444300,3.0484443359375,0.6096430420875549,-0.06795870512723923,0.2386954128742218
1773146083271455200,3.061455322265625,0.5619956254959106,-0.4630354940891266,0.3513999581336975
1773146083284466200,3.074466064453125,0.5090031027793884,-0.7049379348754883,0.36651885509490967
1773146083297477000,3.08747705078125,0.4361574649810791,-0.7493783831596375,0.22846342623233795
1773146083310488300,3.10048828125,0.3139844834804535,-0.5847502946853638,-0.0032070400193333626
1773146083323499300,3.113499267578125,0.16936226189136505,-0.3127627670764923,-0.2280052751302719
1773146083336510200,3.12651025390625,0.03909534588456154,-0.012980876490473747,-0.3828594982624054
1773146083349521200,3.139521240234375,-0.05451968312263489,0.2744309902191162,-0.4202749729156494
1773146083362532000,3.152531982421875,-0.05696314200758934,0.5102248191833496,-0.3404043912887573
1773146083375543300,3.165543212890625,0.016646064817905426,0.5962040424346924,-0.20448698103427887
1773146083388554200,3.17855419921875,0.13561198115348816,0.5192350745201111,-0.056199558079242706
1773146083401565200,3.191565185546875,0.2712239623069763,0.342542439699173,0.11606431007385254
1773146083414576000,3.204576171875,0.3685041666030884,0.13271036744117737,0.3119991719722748
1773146083427587000,3.217587158203125,0.407599538564682,-0.04153880476951599,0.522442102432251
1773146083440598300,3.230598388671875,0.3782780170440674,-0.14782927930355072,0.7203623056411743
1773146083453609200,3.243609130859375,0.2964221239089966,-0.15317434072494507,0.8889609575271606
1773146083466620200,3.2566201171875,0.20723587274551392,-0.07040216773748398,1.0233511924743652
1773146083479631000,3.269631103515625,0.12583814561367035,0.08720094710588455,1.1154390573501587
1773146083492642000,3.28264208984375,0.10919208079576492,0.24556763470172882,1.169653296470642
1773146083505653200,3.2956533203125,0.1539379209280014,0.356286883354187,1.1924080848693848
1773146083518664200,3.308664306640625,0.19303326308727264,0.39629852771759033,1.2014182806015015
1773146083531675100,3.321675048828125,0.18570289015769958,0.3298669755458832,1.2258528470993042
1773146083544686000,3.33468603515625,0.16081015765666962,0.2032652497291565,1.2551743984222412
1773146083557697000,3.347697021484375,0.10094540566205978,0.09208786487579346,1.2527309656143188
1773146083570708200,3.360708251953125,0.03298669680953026,-0.0435241162776947,1.15132737159729
1773146083583719200,3.37371923828125,-0.034208428114652634,-0.16936226189136505,0.9781472086906433
1773146083596730000,3.386730224609375,-0.14294235408306122,-0.27488914132118225,0.7550288438796997
1773146083609741000,3.399740966796875,-0.2919933497905731,-0.34406960010528564,0.5290089249610901
1773146083622752000,3.412751953125,-0.4845684766769409,-0.3966039717197418,0.3733910918235779
1773146083635763200,3.42576318359375,-0.6585122346878052,-0.2802342176437378,0.28176137804985046
1773146083648774100,3.438774169921875,-0.6548470258712769,-0.1715002804994583,0.304974228143692
1773146083661785000,3.45178515625,-0.6299542784690857,-0.16050471365451813,0.3990474045276642
1773146083674796000,3.464796142578125,-0.6042979955673218,-0.20769402384757996,0.48502662777900696
1773146083687807200,3.47780712890625,-0.5884155035018921,-0.28176137804985046,0.5306887626647949
1773146083700818200,3.490818115234375,-0.5429060459136963,-0.24755294620990753,0.4549415409564972
1773146083713829000,3.5038291015625,-0.522442102432251,-0.30543237924575806,0.37583455443382263
1773146083726840000,3.516840087890625,-0.5175551772117615,-0.34574946761131287,0.3237583339214325
1773146083739851000,3.52985107421875,-0.48991355299949646,-0.34086254239082336,0.3139844834804535
1773146083752862000,3.542862060546875,-0.45127636194229126,-0.29733842611312866,0.3352120518684387
1773146083765873200,3.555873046875,-0.4027126133441925,-0.24510949850082397,0.36361727118492126
1773146083778884000,3.568884033203125,-0.34376415610313416,-0.20601414144039154,0.38652467727661133
1773146083791895000,3.58189501953125,-0.2695440948009491,-0.19792018830776215,0.39049530029296875
1773146083804906000,3.594906005859375,-0.1876882016658783,-0.21380266547203064,0.35796675086021423
1773146083817917200,3.607917236328125,-0.10949750989675522,-0.24724751710891724,0.2961167097091675
1773146083830928100,3.62092822265625,-0.04321868345141411,-0.29275694489479065,0.22189663350582123
1773146083843939000,3.63393896484375,0.006566796451807022,-0.33918267488479614,0.14172062277793884
1773146083856950000,3.646949951171875,0.0386371985077858,-0.3831649422645569,0.07254019379615784
1773146083869961000,3.6599609375,0.05864302068948746,-0.4166097939014435,0.028099779039621353
1773146083882972200,3.67297216796875,0.06887500733137131,-0.4137081801891327,0.0102319847792387
1773146083895983000,3.685983154296875,0.0798705667257309,-0.3611738085746765,0.001221729558892548
1773146083908994000,3.698994140625,0.09819651395082474,-0.31520622968673706,0.00045814859913662076
1773146083922005000,3.7120048828125,0.11896591633558273,-0.3119991719722748,0.012980876490473747
1773146083935016000,3.725015869140625,0.13194678723812103,-0.3298669755458832,0.04153880476951599
1773146083948027100,3.738027099609375,0.15515965223312378,-0.3572031855583191,0.046425722539424896
1773146083961038000,3.7510380859375,0.18035782873630524,-0.40118545293807983,0.007330377586185932
1773146083974049000,3.764049072265625,0.16249002516269684,-0.4471530318260193,-0.049632761627435684
1773146083987060000,3.77706005859375,0.15027274191379547,-0.4442514181137085,-0.05253437161445618
1773146084000071000,3.79007080078125,0.1302669197320938,-0.3958403766155243,-0.006566796451807022
1773146084013082000,3.80308203125,0.10430516302585602,-0.32788166403770447,0.04230238497257233
1773146084026093000,3.816093017578125,0.07574722915887833,-0.2932150959968567,0.06963858753442764
1773146084039104000,3.82910400390625,0.02611446939408779,-0.342542439699173,0.05818486958742142
1773146084052115000,3.842114990234375,-0.010537417605519295,-0.48991355299949646,0.0102319847792387
1773146084065126100,3.855126220703125,0.008093958720564842,-0.6968439817428589,-0.0850629210472107
1773146084078137000,3.86813720703125,0.07376192510128021,-0.6968439817428589,-0.14950916171073914
1773146084091148000,3.88114794921875,0.08429934084415436,-0.061850059777498245,-0.08628465235233307
1773146084104159000,3.894158935546875,0.016646064817905426,0.7826704978942871,-0.03298669680953026
1773146084117170000,3.907169921875,-0.04841103404760361,0.873994767665863,-0.2101374864578247
1773146084130181000,3.92018115234375,-0.1795942485332489,0.32818710803985596,-0.578336238861084
1773146084143192000,3.933192138671875,-0.29443681240081787,-0.03955349326133728,-0.9216422438621521
1773146084156203000,3.946203125,-0.16294817626476288,-0.1925751268863678,-1.110552191734314
1773146084169214000,3.9592138671875,-0.08261945843696594,-0.2597702443599701,-1.0987930297851562
1773146084182225000,3.972224853515625,-0.012217295356094837,-0.2032652497291565,-0.8312342762947083
1773146084195236000,3.985236083984375,0.11896591633558273,0.004123337101191282,-0.47235119342803955
1773146084208247000,3.9982470703125,0.2228129357099533,0.14340050518512726,-0.1380554437637329
1773146084221258000,4.011258056640625,0.25213444232940674,0.06719512492418289,0.09208786487579346
1773146084234269000,4.02426904296875,0.23503021895885468,-0.15073087811470032,0.1718057245016098
1773146084247279900,4.03727978515625,0.18493930995464325,-0.346513032913208,0.09208786487579346
1773146084260291000,4.050291015625,0.10216713696718216,-0.41004297137260437,-0.09850194305181503
1773146084273302000,4.063302001953125,0.02367101050913334,-0.42562004923820496,-0.29153522849082947
1773146084286313000,4.07631298828125,-0.12583814561367035,-0.505032479763031,-0.4569268524646759
1773146084299324000,4.089323974609375,-0.28664830327033997,-0.6902772188186646,-0.5945241451263428
1773146084312334800,4.1023349609375,-0.38850998878479004,-0.813671886920929,-0.706923246383667
1773146084325346000,4.115345947265625,-0.4124864339828491,-0.8385646343231201,-0.748920202255249
1773146084338357000,4.12835693359375,-0.346513032913208,-0.7990111112594604,-0.7118101716041565
1773146084351368000,4.141367919921875,-0.14248420298099518,-0.7012727856636047,-0.6230821013450623
1773146084364379000,4.15437890625,0.03711003437638283,-0.5209149122238159,-0.4857902228832245
1773146084377389800,4.167389892578125,0.13683371245861053,-0.30344706773757935,-0.3352120518684387
1773146084390401000,4.180401123046875,0.16814053058624268,-0.07040216773748398,-0.24312418699264526
1773146084403412000,4.193411865234375,0.17791436612606049,0.18005239963531494,-0.20204351842403412
1773146084416423000,4.2064228515625,0.18035782873630524,0.40973755717277527,-0.15027274191379547
1773146084429433900,4.219433837890625,0.21578797698020935,0.5725330114364624,-0.06551524996757507
1773146084442445000,4.232445068359375,0.2370155304670334,0.6646208763122559,0.017104214057326317
1773146084455456000,4.2454560546875,0.2890917658805847,0.7623592615127563,0.06520981341600418
1773146084468467000,4.258467041015625,0.32330018281936646,0.8222240209579468,0.09575305134057999
1773146084481478000,4.271477783203125,0.34406960010528564,0.8520036339759827,0.0977383628487587
1773146084494488800,4.28448876953125,0.3633118271827698,0.8617774844169617,0.08231402933597565
1773146084507500000,4.2975,0.3877464234828949,0.8552106618881226,0.06841685622930527
1773146084520511000,4.310510986328125,0.41615164279937744,0.8210022449493408,0.0513126403093338
1773146084533522000,4.32352197265625,0.4361574649810791,0.7721330523490906,0.012675444595515728
1773146084546532900,4.336532958984375,0.43692103028297424,0.7367029190063477,-0.06307178735733032
1773146084559543800,4.349543701171875,0.41783151030540466,0.7203623056411743,-0.15561780333518982
1773146084572555000,4.362554931640625,0.3889681398868561,0.7374665141105652,-0.23167046904563904
1773146084585566000,4.37556591796875,0.356286883354187,0.7648026943206787,-0.2793179154396057
1773146084598577000,4.388576904296875,0.3347539007663727,0.7428115606307983,-0.30863943696022034
1773146084611587800,4.401587890625,0.31841325759887695,0.7293725609779358,-0.33276858925819397
1773146084624598800,4.414598876953125,0.31154105067253113,0.736244797706604,-0.3445277214050293
1773146084637610000,4.42760986328125,0.31031930446624756,0.730594277381897,-0.3494146466255188
1773146084650621000,4.440620849609375,0.31322091817855835,0.7086031436920166,-0.35017824172973633
1773146084663632000,4.4536318359375,0.3168860971927643,0.6866120100021362,-0.35017824172973633
1773146084676642800,4.466642822265625,0.32009315490722656,0.6629409790039062,-0.35384342074394226
1773146084689653800,4.47965380859375,0.3208567202091217,0.6446150541305542,-0.3584249019622803
1773146084702664700,4.492664794921875,0.318871408700943,0.6333140730857849,-0.36361727118492126
1773146084715676000,4.505676025390625,0.31031930446624756,0.6323977708816528,-0.37430739402770996
1773146084728686800,4.518686767578125,0.29077163338661194,0.6548470258712769,-0.39141160249710083
1773146084741697800,4.53169775390625,0.2606865465641022,0.6910407543182373,-0.4166097939014435
1773146084754708700,4.544708740234375,0.22846342623233795,0.7423534393310547,-0.4427242577075958
1773146084767720000,4.557719970703125,0.2052505612373352,0.8190169334411621,-0.45937031507492065
1773146084780731000,4.57073095703125,0.18035782873630524,0.9170607328414917,-0.4618137776851654
1773146084793741800,4.583741943359375,0.14782927930355072,1.019685983657837,-0.44761115312576294
1773146084806752800,4.596752685546875,0.11163553595542908,1.113759160041809,-0.43982264399528503
1773146084819763700,4.609763671875,0.07895427197217941,1.2200497388839722,-0.4271472096443176
1773146084832774700,4.622774658203125,0.0639880821108818,1.3251184225082397,-0.38728827238082886
1773146084845785900,4.635785888671875,0.09239330142736435,1.4001020193099976,-0.3352120518684387
1773146084858796800,4.648796875,0.15225805342197418,1.441640853881836,-0.2692386507987976
1773146084871807700,4.661807861328125,0.18982623517513275,1.483637809753418,-0.16416990756988525
1773146084884818700,4.674818603515625,0.2130390852689743,1.3585633039474487,-0.07941242307424545
1773146084897829600,4.68782958984375,0.38850998878479004,0.9382883310317993,-0.018325943499803543
1773146084910840800,4.7008408203125,0.5595521330833435,0.7713695168495178,0.15149445831775665
1773146084923851800,4.713851806640625,0.647516667842865,0.6308705806732178,0.346513032913208
1773146084936862700,4.72686279296875,0.669965922832489,0.39538222551345825,0.44150251150131226
1773146084949873700,4.739873779296875,0.6462949514389038,0.162031888961792,0.44837474822998047
1773146084962884600,4.752884521484375,0.5424479246139526,0.1055268943309784,0.43860089778900146
1773146084975895600,4.7658955078125,0.3938550651073456,0.21502439677715302,0.40515607595443726
1773146084988906800,4.77890673828125,0.19990549981594086,0.4247037470340729,0.3657552897930145
1773146085001917700,4.791917724609375,-0.0032070400193333626,0.669965922832489,0.37629270553588867
1773146085014928600,4.8049287109375,-0.17913609743118286,0.8906408548355103,0.45127636194229126
1773146085027939600,4.817939697265625,-0.2809978127479553,1.0648900270462036,0.5676460862159729
1773146085040950800,4.83095068359375,-0.27977606654167175,1.1308634281158447,0.7142536640167236
1773146085053961700,4.843961669921875,-0.1747073233127594,1.0323615074157715,0.8669698238372803
1773146085066972700,4.85697265625,0.0007635809597559273,0.8104648590087891,1.0050252676010132
1773146085079983600,4.869983642578125,0.18005239963531494,0.5297724604606628,1.1447606086730957
1773146085092994600,4.88299462890625,0.2707658112049103,0.18692462146282196,1.2844959497451782
1773146085106005800,4.896005859375,0.23014330863952637,-0.1282816082239151,1.4118611812591553
1773146085119016700,4.9090166015625,0.125074565410614,-0.43004879355430603,1.525940179824829
1773146085132027600,4.922027587890625,0.023976443335413933,-0.6101012229919434,1.5674790143966675
1773146085145038600,4.93503857421875,-0.08842267841100693,-0.6047561168670654,1.4595086574554443
1773146085158049500,4.948049560546875,-0.21868959069252014,-0.49602219462394714,1.152854561805725
1773146085171060700,4.961060791015625,-0.31719154119491577,-0.4569268524646759,0.7745765447616577
1773146085184071700,4.97407177734375,-0.40973755717277527,-0.44638943672180176,0.48013970255851746
1773146085197082600,4.98708251953125,-0.4923570156097412,-0.44761115312576294,0.2793179154396057
1773146085210093600,5.000093505859375,-0.536339282989502,-0.522442102432251,0.17883066833019257
1773146085223104500,5.0131044921875,-0.5758927464485168,-0.6873756051063538,0.17715078592300415
1773146085236115700,5.02611572265625,-0.6553052067756653,-1.0132719278335571,0.26710063219070435
1773146085249126700,5.039126708984375,-0.7176133990287781,-1.2078323364257812,0.3225366175174713
1773146085262137600,5.0521376953125,-0.7044798135757446,-1.2779290676116943,0.3445277214050293
1773146085275148500,5.0651484375,-0.6666061878204346,-1.227838158607483,0.360410213470459
1773146085288159500,5.078159423828125,-0.6003273725509644,-1.1085668802261353,0.37430739402770996
1773146085301170700,5.091170654296875,-0.5395463109016418,-1.0352630615234375,0.39339691400527954
1773146085314181600,5.104181640625,-0.4943423271179199,-1.0328196287155151,0.3917170464992523
1773146085327192600,5.117192626953125,-0.4332558512687683,-1.0890191793441772,0.35017824172973633
1773146085340203500,5.13020361328125,-0.35674503445625305,-1.166751742362976,0.28787001967430115
1773146085353214500,5.14321435546875,-0.28267768025398254,-1.2111921310424805,0.22846342623233795
1773146085366225700,5.1562255859375,-0.2211330533027649,-1.1943933963775635,0.19837833940982819
1773146085379236600,5.169236572265625,-0.16447533667087555,-1.1223113536834717,0.19990549981594086
1773146085392247600,5.18224755859375,-0.11117739230394363,-1.0348049402236938,0.21502439677715302
1773146085405258500,5.195258544921875,-0.06551524996757507,-0.9561560750007629,0.2260199636220932
1773146085418269700,5.208269775390625,-0.021991131827235222,-0.8999565243721008,0.22036947309970856
1773146085431280600,5.22128076171875,0.02153298258781433,-0.8625410795211792,0.19135339558124542
1773146085444291600,5.23429150390625,0.06673697382211685,-0.8307760953903198,0.14538581669330597
1773146085457302500,5.247302490234375,0.1104138121008873,-0.7936660647392273,0.08674279600381851
1773146085470313500,5.2603134765625,0.15836669504642487,-0.7506000995635986,0.022449281066656113
1773146085483324700,5.27332470703125,0.2130390852689743,-0.6890554428100586,-0.043982263654470444
1773146085496335600,5.286335693359375,0.2741255760192871,-0.6071996092796326,-0.07819069176912308
1773146085509346600,5.2993466796875,0.328645259141922,-0.5636754631996155,-0.06108647957444191
1773146085522357500,5.312357421875,0.3738492429256439,-0.6137663722038269,-0.028557928279042244
1773146085535368700,5.32536865234375,0.4198168218135834,-0.748920202255249,-0.03375028073787689
1773146085548379600,5.338379638671875,0.4598284661769867,-0.8972076177597046,-0.08353576064109802
1773146085561390600,5.351390625,0.4601338803768158,-0.9615011811256409,-0.12904518842697144
1773146085574401500,5.364401611328125,0.41706791520118713,-0.8747583627700806,-0.12171480804681778
1773146085587412500,5.37741259765625,0.3787361681461334,-0.735023021697998,-0.06154462695121765
1773146085600423400,5.39042333984375,0.356286883354187,-0.6487383842468262,-0.020311253145337105
1773146085613434600,5.4034345703125,0.32818710803985596,-0.6553052067756653,-0.04199695214629173
1773146085626445600,5.416445556640625,0.30222535133361816,-0.6919570565223694,-0.10995566099882126
1773146085639456500,5.42945654296875,0.2842048406600952,-0.7115047574043274,-0.16615521907806396
1773146085652467500,5.442467529296875,0.21212279796600342,-0.6560688018798828,-0.1727220118045807
1773146085665478400,5.455478515625,-0.009010255336761475,-0.20967933535575867,-0.0513126403093338
1773146085678489600,5.468489501953125,-0.2565632164478302,0.3975202441215515,-0.026878049597144127
1773146085691500500,5.48150048828125,-0.4085158109664917,0.314748078584671,-0.2834412455558777
1773146085704511500,5.494511474609375,-0.35995206236839294,-0.2993237376213074,-0.7313578724861145
1773146085717522400,5.5075224609375,-0.39507678151130676,-0.5839866995811462,-1.0306816101074219
1773146085730533600,5.52053369140625,-0.38560840487480164,-0.4234820008277893,-1.047785758972168
1773146085743544600,5.533544677734375,-0.2952004075050354,-0.14981459081172943,-0.8779653906822205
1773146085756555500,5.546555419921875,-0.1974620372056961,0.052076224237680435,-0.6641627550125122
1773146085769566500,5.55956640625,-0.09575305134057999,0.12660172581672668,-0.4915934205055237
1773146085782577400,5.572577392578125,-0.028099779039621353,0.09728021919727325,-0.3364337682723999
1773146085795588600,5.585588623046875,0.02764163166284561,-0.09361502528190613,-0.17394374310970306
1773146085808599600,5.598599609375,0.05787943676114082,-0.3379609286785126,-0.06307178735733032
1773146085821610500,5.611610595703125,0.06154462695121765,-0.5138899683952332,-0.02367101050913334
1773146085834621400,5.624621337890625,0.007330377586185932,-0.586888313293457,-0.04810560122132301
1773146085847632400,5.63763232421875,-0.06551524996757507,-0.6189587116241455,-0.13851359486579895
1773146085860643600,5.6506435546875,-0.12415826320648193,-0.6284271478652954,-0.29565855860710144
1773146085873654500,5.663654541015625,-0.2533561587333679,-0.627968966960907,-0.4332558512687683
1773146085886665500,5.67666552734375,-0.3110828995704651,-0.5094612240791321,-0.5285507440567017
1773146085899676400,5.689676513671875,-0.2707658112049103,-0.2707658112049103,-0.5771145224571228
1773146085912687400,5.702687255859375,-0.19669845700263977,-0.04810560122132301,-0.5986474752426147
1773146085925698600,5.715698486328125,-0.08139773458242416,0.17883066833019257,-0.568562388420105
1773146085938709500,5.72870947265625,0.012217295356094837,0.3926333487033844,-0.4964803457260132
1773146085951720400,5.741720458984375,0.06062832847237587,0.5627591609954834,-0.411722868680954
1773146085964731400,5.7547314453125,0.09086613357067108,0.6870701313018799,-0.32330018281936646
1773146085977742600,5.76774267578125,0.13240493834018707,0.7912226319313049,-0.2162461280822754
1773146085990753500,5.78075341796875,0.1795942485332489,0.8620828986167908,-0.09162971377372742
1773146086003764500,5.793764404296875,0.21456626057624817,0.9155336022377014,0.0007635809597559273
1773146086016775400,5.806775390625,0.2328922003507614,0.9663881063461304,0.04230238497257233
1773146086029786400,5.819786376953125,0.2386954128742218,1.0157153606414795,0.03588830679655075
1773146086042797300,5.83279736328125,0.235793799161911,1.0580178499221802,-0.00045814859913662076
1773146086055808500,5.84580859375,0.2487746775150299,1.0926843881607056,-0.040775224566459656
1773146086068819500,5.8588193359375,0.2802342176437378,1.11345374584198,-0.06551524996757507
1773146086081830400,5.871830322265625,0.3217730224132538,1.0795507431030273,-0.07819069176912308
1773146086094841300,5.88484130859375,0.3523162603378296,1.0306816101074219,-0.10063996911048889
1773146086107852300,5.897852294921875,0.36483898758888245,0.9839504361152649,-0.13515383005142212
1773146086120863500,5.910863525390625,0.35796675086021423,0.9492838382720947,-0.1766926348209381
1773146086133874400,5.92387451171875,0.3237583339214325,0.9741765856742859,-0.22769984602928162
1773146086146885400,5.936885498046875,0.3017672002315521,0.9199623465538025,-0.26190826296806335
1773146086159896300,5.949896240234375,0.26878049969673157,0.9060651659965515,-0.28298309445381165
1773146086172907300,5.9629072265625,0.228921577334404,0.893542468547821,-0.3119991719722748
1773146086185918500,5.97591845703125,0.2003636509180069,0.8715513348579407,-0.3404043912887573
1773146086198929400,5.988929443359375,0.18325942754745483,0.8454368710517883,-0.35964664816856384
1773146086211940400,6.0019404296875,0.1727220118045807,0.8266527652740479,-0.3689623177051544
1773146086224951300,6.014951416015625,0.15836669504642487,0.8190169334411621,-0.360410213470459
1773146086237962200,6.027962158203125,0.1461493968963623,0.8344413042068481,-0.3303251266479492
1773146086250973400,6.040973388671875,0.1262962967157364,0.8706350326538086,-0.28787001967430115
1773146086263984400,6.053984375,0.11927134543657303,0.8397863507270813,-0.2260199636220932
1773146086276995300,6.066995361328125,0.10583232343196869,0.8559742569923401,-0.20357069373130798
1773146086290006300,6.08000634765625,0.10094540566205978,0.8678861260414124,-0.2023489624261856
1773146086303017200,6.093017333984375,0.1156061589717865,0.8596394658088684,-0.18570289015769958
1773146086316028400,6.1060283203125,0.15958842635154724,0.8161153197288513,-0.1461493968963623
1773146086329039400,6.119039306640625,0.22556181252002716,0.7643445730209351,-0.10094540566205978
1773146086342050300,6.13205029296875,0.2919933497905731,0.7325795888900757,-0.0642935186624527
1773146086355061200,6.145061279296875,0.3107774555683136,0.669965922832489,-0.03176496922969818
1773146086368072200,6.158072265625,0.3966039717197418,0.4247037470340729,-0.08307760953903198
1773146086381083400,6.17108349609375,0.5847502946853638,0.11972949653863907,-0.10919208079576492
1773146086394094300,6.18409423828125,0.6455313563346863,0.29733842611312866,0.06551524996757507
1773146086407105300,6.197105224609375,0.6120865345001221,0.35964664816856384,0.2386954128742218
1773146086420116200,6.2101162109375,0.6104066371917725,0.18280129134655,0.3107774555683136
1773146086433127200,6.223127197265625,0.6096430420875549,0.06154462695121765,0.3530798554420471
1773146086446138000,6.23613818359375,0.5542070865631104,0.1156061589717865,0.3877464234828949
1773146086459149300,6.2491494140625,0.43493571877479553,0.19425499439239502,0.40927940607070923
1773146086472160300,6.26216015625,0.2565632164478302,0.3298669755458832,0.39629852771759033
1773146086485171200,6.275171142578125,0.09651663154363632,0.4842630624771118,0.4202749729156494
1773146086498182100,6.28818212890625,-0.026419902220368385,0.657290518283844,0.48212501406669617
1773146086511193000,6.301193115234375,-0.08750637620687485,0.809548556804657,0.5668824911117554
1773146086524204300,6.314204345703125,-0.09208786487579346,0.8727730512619019,0.6690496206283569
1773146086537215200,6.32721533203125,-0.05253437161445618,0.8483384847640991,0.7843503952026367
1773146086550226200,6.34022607421875,0.026878049597144127,0.758694052696228,0.9175189137458801
1773146086563237000,6.353237060546875,0.12095122784376144,0.6589703559875488,1.0609194040298462
1773146086576248000,6.366248046875,0.20937390625476837,0.5661189556121826,1.2111921310424805
1773146086589259300,6.37925927734375,0.27809619903564453,0.48212501406669617,1.3629920482635498
1773146086602270200,6.392270263671875,0.28466299176216125,0.356286883354187,1.5022692680358887
1773146086615281200,6.40528125,0.20357069373130798,0.18081597983837128,1.598480463027954
1773146086628292000,6.4182919921875,0.14370593428611755,0.07009673118591309,1.670867919921875
1773146086641303000,6.431302978515625,0.1153007298707962,0.021227551624178886,1.7023273706436157
1773146086654314200,6.444314208984375,0.09117157012224197,0.09941824525594711,1.6395610570907593
1773146086667325200,6.4573251953125,-0.012980876490473747,0.23625195026397705,1.417969822883606
1773146086680336100,6.470336181640625,-0.12782345712184906,0.2390008419752121,1.0731366872787476
1773146086693347000,6.48334716796875,-0.2594648003578186,0.18127411603927612,0.7032580971717834
1773146086706358000,6.49635791015625,-0.3958403766155243,0.18005239963531494,0.4137081801891327
1773146086719369200,6.509369140625,-0.49312058091163635,0.1727220118045807,0.1954767256975174
1773146086732380200,6.522380126953125,-0.5937605500221252,0.07941242307424545,0.046425722539424896
1773146086745391000,6.53539111328125,-0.6323977708816528,-0.054214250296354294,-0.021991131827235222
1773146086758402000,6.548402099609375,-0.653167188167572,-0.20082180202007294,0.009773836471140385
1773146086771413200,6.561413330078125,-0.6438514590263367,-0.24022257328033447,0.0948367565870285
1773146086784424200,6.574424072265625,-0.5962040424346924,-0.19135339558124542,0.18616104125976562
1773146086797435100,6.58743505859375,-0.5355756878852844,-0.11606431007385254,0.2536616027355194
1773146086810446000,6.600446044921875,-0.45280352234840393,-0.1233946830034256,0.314748078584671
1773146086823457000,6.61345703125,-0.3669770061969757,-0.18524473905563354,0.3220784664154053
1773146086836468200,6.62646826171875,-0.2890917658805847,-0.26190826296806335,0.2968802750110626
1773146086849479200,6.639479248046875,-0.22647811472415924,-0.3355174660682678,0.26190826296806335
1773146086862490000,6.652489990234375,-0.1844811588525772,-0.38240134716033936,0.2338084876537323
1773146086875501000,6.6655009765625,-0.1519526094198227,-0.39996370673179626,0.208152174949646
1773146086888512000,6.678511962890625,-0.1185077652335167,-0.388051837682724,0.1588248461484909
1773146086901523200,6.691523193359375,-0.09285144507884979,-0.3733910918235779,0.10338886082172394
1773146086914534100,6.7045341796875,-0.06719512492418289,-0.3733910918235779,0.059864748269319534
1773146086927545000,6.717545166015625,-0.03543015569448471,-0.39141160249710083,0.016646064817905426
1773146086940556000,6.73055615234375,0.008093958720564842,-0.43050694465637207,-0.030085090547800064
1773146086953567200,6.743567138671875,0.05696314200758934,-0.4747946560382843,-0.08109229803085327
1773146086966578200,6.756578125,0.10705405473709106,-0.5143481492996216,-0.1360701322555542
1773146086979589000,6.769589111328125,0.16050471365451813,-0.5326740741729736,-0.19013166427612305
1773146086992600000,6.78260009765625,0.21426081657409668,-0.512668251991272,-0.24236060678958893
1773146087005611000,6.795611083984375,0.2626718580722809,-0.4796815812587738,-0.2822195291519165
1773146087018622200,6.808622314453125,0.2948949635028839,-0.4459312856197357,-0.3042106628417969
1773146087031633200,6.821633056640625,0.31352636218070984,-0.411722868680954,-0.31154105067253113
1773146087044644000,6.83464404296875,0.32330018281936646,-0.3787361681461334,-0.3139844834804535
1773146087057655000,6.847655029296875,0.32788166403770447,-0.3400989770889282,-0.31932955980300903
1773146087070666000,6.860666015625,0.3208567202091217,-0.27809619903564453,-0.3257436454296112
1773146087083677200,6.87367724609375,0.29367324709892273,-0.19303326308727264,-0.304974228143692
1773146087096688000,6.886688232421875,0.26389357447624207,-0.07528908550739288,-0.2577849328517914
1773146087109699000,6.899698974609375,0.24755294620990753,0.011453714221715927,-0.19349141418933868
1773146087122710000,6.9127099609375,0.23503021895885468,0,-0.145843967795372
1773146087135721000,6.925720947265625,0.1905898153781891,-0.08750637620687485,-0.1669187992811203
1773146087148732200,6.938732177734375,0.0642935186624527,-0.040775224566459656,-0.16325360536575317
1773146087161743000,6.9517431640625,-0.10995566099882126,0.3559814393520355,-0.09208786487579346
1773146087174754000,6.964754150390625,-0.21135921776294708,0.8116865754127502,-0.14782927930355072
1773146087187765000,6.977764892578125,-0.2211330533027649,0.6834049820899963,-0.3220784664154053
1773146087200776200,6.990776123046875,-0.27320927381515503,0.16249002516269684,-0.5314523577690125
1773146087213787100,7.003787109375,-0.25610506534576416,-0.010537417605519295,-0.6543889045715332
1773146087226798000,7.016798095703125,-0.22769984602928162,0.13194678723812103,-0.6482802629470825
1773146087239809000,7.02980908203125,-0.24144430458545685,0.28588470816612244,-0.5615374445915222
1773146087252820000,7.042820068359375,-0.1815795600414276,0.43493571877479553,-0.4361574649810791
1773146087265831200,7.0558310546875,-0.06719512492418289,0.5375609993934631,-0.2863428592681885
1773146087278842000,7.068842041015625,0.0691804364323616,0.4650208055973053,-0.15958842635154724
1773146087291853000,7.08185302734375,0.1971566081047058,0.29397866129875183,-0.04474584385752678
1773146087304864000,7.094864013671875,0.27198755741119385,0.14370593428611755,0.07452550530433655
1773146087317875000,7.107875,0.28954991698265076,0.07376192510128021,0.1153007298707962
1773146087330886100,7.12088623046875,0.24724751710891724,0.10629047453403473,0.07574722915887833
1773146087343897000,7.13389697265625,0.15347976982593536,0.14370593428611755,0.02153298258781433
1773146087356908000,7.146907958984375,0.018325943499803543,0.17592905461788177,-0.07452550530433655
1773146087369919000,7.1599189453125,-0.1360701322555542,0.14172062277793884,-0.18646647036075592
1773146087382930000,7.172929931640625,-0.27290382981300354,0.0948367565870285,-0.342542439699173
1773146087395941000,7.185941162109375,-0.37461283802986145,0.06551524996757507,-0.5053378939628601
1773146087408952000,7.1989521484375,-0.4085158109664917,0.10674861818552017,-0.5981893539428711
1773146087421963000,7.211962890625,-0.3782780170440674,0.20082180202007294,-0.5920807123184204
1773146087434974000,7.224973876953125,-0.3098611533641815,0.29733842611312866,-0.5155698657035828
1773146087447985200,7.237985107421875,-0.20402882993221283,0.40927940607070923,-0.3929387629032135
1773146087460996000,7.25099609375,-0.08674279600381851,0.574212908744812,-0.3017672002315521
1773146087474007000,7.264007080078125,0.03741546720266342,0.7713695168495178,-0.28176137804985046
1773146087487018000,7.27701806640625,0.15439607203006744,0.9961677193641663,-0.3017672002315521
1773146087500029000,7.29002880859375,0.25121814012527466,1.261588454246521,-0.27809619903564453
1773146087513040000,7.303039794921875,0.3139844834804535,1.5459460020065308,-0.20723587274551392
1773146087526051000,7.316051025390625,0.34086254239082336,1.8309144973754883,-0.12782345712184906
1773146087539062000,7.32906201171875,0.346513032913208,2.1131339073181152,-0.061850059777498245
1773146087552073000,7.342072998046875,0.34895649552345276,2.3819143772125244,-0.0154243353754282
1773146087565084000,7.355083984375,0.3428478538990021,2.6051855087280273,0.01588248461484909
1773146087578095000,7.36809521484375,0.342542439699173,2.7733261585235596,0.028099779039621353
1773146087591106000,7.38110595703125,0.35796675086021423,2.891833782196045,0.023212861269712448
1773146087604117000,7.394116943359375,0.38530296087265015,2.9744532108306885,0.00045814859913662076
1773146087617128000,7.4071279296875,0.4043924808502197,3.039663076400757,-0.03543015569448471
1773146087630139000,7.420138916015625,0.4085158109664917,3.1002914905548096,-0.07895427197217941
1773146087643150000,7.433150146484375,0.3995055556297302,3.1610724925994873,-0.13759729266166687
1773146087656161000,7.4461611328125,0.37583455443382263,3.2204790115356445,-0.20479241013526917
1773146087669172000,7.459171875,0.3543015718460083,3.2783584594726562,-0.25900667905807495
1773146087682183000,7.472182861328125,0.35185810923576355,3.3353216648101807,-0.2932150959968567
1773146087695193900,7.48519384765625,0.34697118401527405,3.341888427734375,-0.30711227655410767
1773146087708205000,7.498205078125,0.33918267488479614,3.3177592754364014,-0.2997818887233734
1773146087721216000,7.511216064453125,0.3721693754196167,3.246899127960205,-0.2805396616458893
1773146087734227000,7.52422705078125,0.35185810923576355,3.187950611114502,-0.2528980076313019
1773146087747238000,7.53723779296875,0.342542439699173,3.1818418502807617,-0.25243985652923584
1773146087760248800,7.550248779296875,0.3481929302215576,3.157712697982788,-0.25610506534576416
1773146087773260000,7.563260009765625,0.34895649552345276,3.1085381507873535,-0.25243985652923584
1773146087786271000,7.57627099609375,0.3494146466255188,3.029125690460205,-0.24556763470172882
1773146087799282000,7.589281982421875,0.3530798554420471,2.9512405395507812,-0.22159120440483093
1773146087812292900,7.60229296875,0.35384342074394226,2.88862681388855,-0.19013166427612305
1773146087825304000,7.615303955078125,0.3555232882499695,2.8214316368103027,-0.16936226189136505
1773146087838315000,7.62831494140625,0.3555232882499695,2.734994411468506,-0.16294817626476288
1773146087851326000,7.641325927734375,0.3530798554420471,2.637714147567749,-0.16569706797599792
1773146087864337000,7.6543369140625,0.34208428859710693,2.5273003578186035,-0.17027856409549713
1773146087877347800,7.667347900390625,0.32620179653167725,2.4011566638946533,-0.17226386070251465
1773146087890358800,7.68035888671875,0.304974228143692,2.285092353820801,-0.17302745580673218
1773146087903370000,7.693369873046875,0.29443681240081787,2.173456907272339,-0.16905683279037476
1773146087916381000,7.706380859375,0.3000873327255249,2.0573925971984863,-0.1669187992811203
1773146087929391900,7.719391845703125,0.29367324709892273,1.9579743146896362,-0.17424917221069336
1773146087942402800,7.73240283203125,0.29245150089263916,1.8729114532470703,-0.18371757864952087
1773146087955414000,7.7454140625,0.29275694489479065,1.8028147220611572,-0.18616104125976562
1773146087968425000,7.758425048828125,0.28954991698265076,1.7475314140319824,-0.18035782873630524
1773146087981436000,7.771435791015625,0.287106454372406,1.6977459192276,-0.17058399319648743
1773146087994446800,7.78444677734375,0.28588470816612244,1.6493349075317383,-0.16249002516269684
1773146088007457800,7.797457763671875,0.2919933497905731,1.5975641012191772,-0.16249002516269684
1773146088020469000,7.810468994140625,0.29443681240081787,1.5447243452072144,-0.16447533667087555
1773146088033480000,7.82347998046875,0.2809978127479553,1.5007420778274536,-0.1649334877729416
1773146088046491000,7.836490966796875,0.25243985652923584,1.4819579124450684,-0.16814053058624268
1773146088059501800,7.849501708984375,0.21456626057624817,1.4790563583374023,-0.18524473905563354
1773146088072513000,7.862512939453125,0.18081597983837128,1.46409010887146,-0.22769984602928162
1773146088085524000,7.87552392578125,0.1617264449596405,1.4257583618164062,-0.2863428592681885
1773146088098535000,7.888534912109375,0.1571449637413025,1.3732240200042725,-0.34987279772758484
1773146088111545900,7.9015458984375,0.1637117564678192,1.324354887008667,-0.4007273018360138
1773146088124556800,7.914556884765625,0.17837251722812653,1.3023637533187866,-0.42592546343803406
1773146088137567700,7.927567626953125,0.19624030590057373,1.299462080001831,-0.43004879355430603
1773146088150579000,7.940578857421875,0.2032652497291565,1.3141229152679443,-0.42271843552589417
1773146088163590000,7.95358984375,0.19135339558124542,1.303585410118103,-0.3970620930194855
1773146088176600800,7.966600830078125,0.17226386070251465,1.2913681268692017,-0.342542439699173
1773146088189611800,7.97961181640625,0.15958842635154724,1.2673916816711426,-0.27488914132118225
1773146088202623000,7.992623046875,0.19379685819149017,1.1916444301605225,-0.19624030590057373
1773146088215634000,8.005634033203124,0.2802342176437378,1.0841323137283325,-0.09896009415388107
1773146088228644900,8.018644775390625,0.3966039717197418,0.9285144805908203,-0.007788525894284248
1773146088241655800,8.03165576171875,0.5258018374443054,0.7203623056411743,0.06062832847237587
1773146088254666800,8.044666748046875,0.6108647584915161,0.6039925217628479,0.1282816082239151
1773146088267678000,8.057677978515626,0.6165152788162231,0.6149880886077881,0.16814053058624268
1773146088280689000,8.07068896484375,0.5612320303916931,0.6922625303268433,0.16936226189136505
1773146088293699800,8.083699951171875,0.4796815812587738,0.8202387094497681,0.15638138353824615
1773146088306710800,8.096710693359375,0.39217519760131836,0.9578359723091125,0.13759729266166687
1773146088319722000,8.109721923828126,0.31841325759887695,1.057559609413147,0.11804962158203125
1773146088332733000,8.12273291015625,0.2565632164478302,1.1308634281158447,0.10995566099882126
1773146088345744000,8.135743896484374,0.2084576040506363,1.1928662061691284,0.12263110280036926
1773146088358754800,8.1487548828125,0.17913609743118286,1.2539526224136353,0.14859285950660706
1773146088371765800,8.161765869140625,0.16447533667087555,1.2844959497451782,0.1568395346403122
1773146088384776700,8.174776611328125,0.1776089370250702,1.2661700248718262,0.13393209874629974
1773146088397788000,8.187787841796874,0.2133445292711258,1.2127193212509155,0.10140355676412582
1773146088410798800,8.200798828125,0.23945899307727814,1.143080711364746,0.07819069176912308
1773146088423809800,8.213809814453125,0.23823726177215576,1.0596976280212402,0.06643154472112656
1773146088436820700,8.22682080078125,0.20937390625476837,0.9676098227500916,0.061850059777498245
1773146088449832000,8.23983203125,0.162031888961792,0.8772017955780029,0.06154462695121765
1773146088462843000,8.2528427734375,0.11163553595542908,0.8014546036720276,0.06887500733137131
1773146088475853800,8.265853759765625,0.07009673118591309,0.7643445730209351,0.0899498388171196
1773146088488864800,8.27886474609375,0.0386371985077858,0.7643445730209351,0.12140937149524689
1773146088501875700,8.291875732421875,0.017562363296747208,0.7738129496574402,0.1490510106086731
1773146088514887000,8.304886962890626,0.009315688163042068,0.7794634699821472,0.17883066833019257
1773146088527897900,8.31789794921875,0.021227551624178886,0.7831286191940308,0.21181736886501312
1773146088540908800,8.33090869140625,0.046883873641490936,0.7867938280105591,0.2419024556875229
1773146088553919700,8.343919677734375,0.08063415437936783,0.7338013052940369,0.2753472924232483
1773146088566931000,8.356930908203125,0.11163553595542908,0.6504182815551758,0.30863943696022034
1773146088579942000,8.36994189453125,0.1519526094198227,0.5722275972366333,0.34574946761131287
1773146088592952800,8.382952880859374,0.18982623517513275,0.5375609993934631,0.40485063195228577
1773146088605963800,8.3959638671875,0.19624030590057373,0.5551233887672424,0.47693267464637756
1773146088618974700,8.408974609375,0.17791436612606049,0.5766563415527344,0.5465712547302246
1773146088631986000,8.42198583984375,0.145843967795372,0.5517635941505432,0.606436014175415
1773146088644996900,8.434996826171876,0.09529490768909454,0.512668251991272,0.6421716213226318
1773146088658007800,8.4480078125,0.03741546720266342,0.4699077308177948,0.6702713966369629
1773146088671018800,8.461018798828125,-0.05253437161445618,0.4344775676727295,0.6695078015327454
1773146088684030000,8.474030029296875,-0.10506874322891235,0.401949018239975,0.6519454121589661
1773146088697041000,8.487041015625,-0.18860450387001038,0.42562004923820496,0.6010909676551819
1773146088710051800,8.5000517578125,-0.26022839546203613,0.43860089778900146,0.5270236134529114
1773146088723062800,8.513062744140624,-0.32330018281936646,0.3298669755458832,0.4789179861545563
1773146088736073700,8.52607373046875,-0.37751442193984985,0.1974620372056961,0.4569268524646759
1773146088749084700,8.539084716796875,-0.42882707715034485,0.06154462695121765,0.4686860144138336
1773146088762095900,8.552095947265625,-0.4659371078014374,-0.04230238497257233,0.4955640435218811
1773146088775106800,8.56510693359375,-0.47723811864852905,-0.1026252806186676,0.5221366882324219
1773146088788117800,8.57811767578125,-0.4935787320137024,-0.18860450387001038,0.5514581799507141
1773146088801129000,8.59112890625,-0.5001455545425415,-0.20601414144039154,0.5282453298568726
1773146088814140000,8.604139892578125,-0.4251618981361389,-0.22846342623233795,0.46715885400772095
1773146088827150800,8.61715087890625,-0.35475972294807434,-0.2952004075050354,0.39629852771759033
1773146088840161800,8.630161865234374,-0.31230461597442627,-0.3816377818584442,0.32788166403770447
1773146088853172700,8.6431728515625,-0.26389357447624207,-0.46135562658309937,0.2683223485946655
1773146088866183700,8.65618359375,-0.21258094906806946,-0.5261073112487793,0.21945317089557648
1773146088879195000,8.66919482421875,-0.15958842635154724,-0.5636754631996155,0.18890993297100067
1773146088892205800,8.682205810546876,-0.11407899856567383,-0.5908589363098145,0.1490510106086731
1773146088905216800,8.695216796875,-0.0720820426940918,-0.6719512343406677,0.07742711156606674
1773146088918227700,8.708227783203125,-0.004428769461810589,-0.5693259835243225,0.012675444595515728
1773146088931239000,8.721239013671875,0.045967575162649155,-0.5187768936157227,-0.044440411031246185
1773146088944249900,8.734249755859375,0.08429934084415436,-0.5245801210403442,-0.10873392969369888
1773146088957260800,8.7472607421875,0.12293653935194016,-0.5864301919937134,-0.19624030590057373
1773146088970271700,8.760271728515624,0.16661337018013,-0.6348412036895752,-0.2900080680847168
1773146088983282700,8.77328271484375,0.19837833940982819,-0.5607738494873047,-0.46838057041168213
1773146088996294000,8.7862939453125,0.2419024556875229,-0.5668824911117554,-0.6320923566818237
1773146089009304800,8.799304931640625,0.2724456787109375,-0.3966039717197418,-0.6128500699996948
1773146089022315800,8.812315673828126,0.2646571695804596,-0.2790125012397766,-0.3481929302215576
1773146089035326700,8.82532666015625,0.2419024556875229,-0.15836669504642487,-0.19013166427612305
1773146089048338000,8.838337890625,0.21456626057624817,-0.24724751710891724,-0.2101374864578247
1773146089061348900,8.851348876953125,0.18982623517513275,-0.41492989659309387,-0.25213444232940674
1773146089074359800,8.86435986328125,0.17883066833019257,-0.43692103028297424,-0.2606865465641022
1773146089087370800,8.877370849609376,0.25579962134361267,-0.30222535133361816,-0.2683223485946655
1773146089100381700,8.890381591796874,0.21380266547203064,-0.04764745384454727,-0.24999640882015228
1773146089113393000,8.903392822265625,0.09819651395082474,0.07452550530433655,-0.1055268943309784
1773146089126403800,8.91640380859375,0.2761108875274658,0.049632761627435684,-0.001221729558892548
1773146089139414800,8.929414794921875,0.402407169342041,0.01588248461484909,0.024892739951610565
1773146089152425700,8.94242578125,0.09896009415388107,0.37064221501350403,0.24022257328033447
1773146089165437000,8.95543701171875,0.0720820426940918,0.8947641849517822,0.6565269231796265
1773146089178448000,8.96844775390625,0.04886918142437935,0.6837103962898254,0.2834412455558777
1773146089191458800,8.981458740234375,-0.012217295356094837,0.31031930446624756,-0.28756460547447205
1773146089204469800,8.9944697265625,-0.04718930274248123,0.14492766559123993,-0.5661189556121826
1773146089217480700,9.007480712890626,-0.13973531126976013,0.11362084746360779,-0.6666061878204346
1773146089230491600,9.02049169921875,-0.24022257328033447,-0.052076224237680435,-0.6010909676551819
1773146089243502800,9.0335029296875,-0.3510945439338684,-0.24022257328033447,-0.43661558628082275
1773146089256513800,9.046513671875,-0.45127636194229126,-0.38438665866851807,-0.3139844834804535
1773146089269524700,9.059524658203125,-0.5248855352401733,-0.5441278219223022,-0.2565632164478302
1773146089282535700,9.07253564453125,-0.560315728187561,-0.6357575058937073,-0.27809619903564453
1773146089295547000,9.085546875,-0.5624537467956543,-0.7325795888900757,-0.32299473881721497
1773146089308557800,9.098557861328125,-0.6194168925285339,-0.7582359313964844,-0.342542439699173
1773146089321568800,9.11156884765625,-0.6201804876327515,-0.7777835726737976,-0.3196350038051605
1773146089334579700,9.124579833984376,-0.49968740344047546,-0.8046616315841675,-0.32452189922332764
1773146089347590700,9.137590576171876,-0.3217730224132538,-0.7130318880081177,-0.3225366175174713
1773146089360601900,9.150601806640625,-0.16737695038318634,-0.5395463109016418,-0.304974228143692
1773146089373612800,9.16361279296875,-0.07895427197217941,-0.3156643807888031,-0.2932150959968567
1773146089386623700,9.176623779296875,-0.06963858753442764,-0.12018764764070511,-0.25900667905807495
1773146089399634700,9.189634765625,-0.10216713696718216,0.04230238497257233,-0.18982623517513275
1773146089412646000,9.20264599609375,-0.15592323243618011,-0.023976443335413933,-0.1380554437637329
1773146089425656800,9.21565673828125,-0.20937390625476837,-0.10797034949064255,-0.0899498388171196
1773146089438667800,9.228667724609375,-0.19181154668331146,-0.14462223649024963,-0.054214250296354294
1773146089451678700,9.2416787109375,-0.1824958473443985,-0.11194097250699997,-0.04230238497257233
1773146089464689700,9.254689697265626,-0.14538581669330597,-0.06673697382211685,-0.03543015569448471
1773146089477700900,9.267700927734374,-0.1156061589717865,0.0798705667257309,-0.11285726726055145
1773146089490711800,9.2807119140625,0.00045814859913662076,-0.034208428114652634,-0.1669187992811203
1773146089503722800,9.29372265625,0.09330959618091583,-0.19471314549446106,-0.12095122784376144
1773146089516733700,9.306733642578125,0.1727220118045807,-0.28756460547447205,-0.10018182545900345
1773146089529744600,9.31974462890625,0.22769984602928162,-0.3897317349910736,-0.13439024984836578
1773146089542755800,9.332755859375,0.2101374864578247,-0.31520622968673706,-0.006108647678047419
1773146089555766800,9.345766845703125,0.0896444097161293,0.26389357447624207,0.12583814561367035
1773146089568777700,9.35877783203125,0.04718930274248123,0.5041161775588989,0.19349141418933868
1773146089581788700,9.37178857421875,0.017562363296747208,0.41783151030540466,0.21212279796600342
1773146089594799600,9.384799560546876,0.018325943499803543,0.41416633129119873,0.15225805342197418
1773146089607810800,9.397810791015624,0.028099779039621353,0.43860089778900146,0.12385283410549164
1773146089620821800,9.41082177734375,0.0513126403093338,0.4459312856197357,0.1363755613565445
1773146089633832700,9.423832763671875,0.18982623517513275,0.4503600597381592,0.19471314549446106
1773146089646843600,9.43684375,0.38560840487480164,0.5187768936157227,0.29733842611312866
1773146089659854600,9.4498544921875,0.5978838801383972,0.6980656981468201,0.33765551447868347
1773146089672865500,9.462865478515624,0.699287474155426,0.6027708053588867,0.3946186602115631
1773146089685876700,9.475876708984375,0.6939423680305481,0.5221366882324219,0.42271843552589417
1773146089698887700,9.4888876953125,0.7191405892372131,0.3168860971927643,0.4292852282524109
1773146089711898600,9.501898681640625,0.671187698841095,0.3352120518684387,0.30054548382759094
1773146089724909600,9.51490966796875,0.651639997959137,0.30741769075393677,0.21181736886501312
1773146089737920800,9.527920654296874,0.5835285782814026,0.3078758418560028,0.17791436612606049
1773146089750931700,9.540931640625,0.47235119342803955,0.3897317349910736,0.20967933535575867
1773146089763942700,9.553942626953125,0.4036289155483246,0.3946186602115631,0.2582430839538574
1773146089776953600,9.56695361328125,0.38041603565216064,0.28176137804985046,0.328645259141922
1773146089789964500,9.579964599609376,0.37094762921333313,0.2528980076313019,0.37461283802986145
1773146089802975700,9.592975830078124,0.3620901107788086,0.26878049969673157,0.3779725730419159
1773146089815986700,9.605986572265625,0.3347539007663727,0.3379609286785126,0.4263836145401001
1773146089828997600,9.61899755859375,0.328645259141922,0.3315468728542328,0.625067412853241
1773146089842008600,9.632008544921876,0.3220784664154053,0.22036947309970856,0.873994767665863
1773146089855019500,9.64501953125,0.39018988609313965,0.0977383628487587,1.1056652069091797
1773146089868030700,9.65803076171875,0.4557051360607147,0.034208428114652634,1.2815942764282227
1773146089881041700,9.671041748046875,0.39828383922576904,0.13683371245861053,1.6473495960235596
1773146089894052600,9.684052490234375,0.47357290983200073,0.06520981341600418,2.1021385192871094
1773146089907063600,9.6970634765625,0.7525854110717773,0.10949750989675522,2.4772093296051025
1773146089920074500,9.710074462890624,1.1418589353561401,0.17516547441482544,2.5575380325317383
1773146089933085700,9.723085693359375,1.7328706979751587,0.9187406301498413,2.9468116760253906
1773146089946096600,9.7360966796875,2.2235476970672607,1.7954843044281006,3.5193448066711426
1773146089959107600,9.749107666015625,2.1131339073181152,0.9549343585968018,2.9069528579711914
1773146089972118500,9.762118408203126,2.2447752952575684,0.8718567490577698,2.3657264709472656
1773146089985129700,9.775129638671874,2.511875867843628,1.6432262659072876,2.0969460010528564
1773146089998140700,9.788140625,2.173456907272339,1.7062979936599731,1.6183334589004517
1773146090011151600,9.801151611328125,1.532507061958313,1.335808515548706,2.2337796688079834
1773146090024162600,9.81416259765625,0.7786998748779297,0.6638572812080383,2.6775729656219482
1773146090037173500,9.827173583984376,0.20158538222312927,-0.17516547441482544,2.7676756381988525
1773146090050184700,9.840184814453124,-0.30543237924575806,-1.327256441116333,2.8507533073425293
1773146090063195600,9.853195556640625,-0.7171552777290344,-2.554178476333618,2.84739351272583
1773146090076206600,9.86620654296875,-0.9778417944908142,-3.043328285217285,2.72735857963562
1773146090089217500,9.879217529296875,-1.0177006721496582,-2.866177558898926,2.3208279609680176
1773146090102228700,9.892228759765626,-0.8987348079681396,-2.397796869277954,1.715766429901123
1773146090115239700,9.90523974609375,-0.748920202255249,-2.0725114345550537,1.2478439807891846
1773146090128250600,9.918250732421875,-0.7745765447616577,-1.9967643022537231,1.0238093137741089
1773146090141261600,9.931261474609375,-1.0682498216629028,-2.1620032787323,1.0164790153503418
1773146090154272800,9.944272705078125,-1.5650355815887451,-2.6022839546203613,1.081230640411377
1773146090167283700,9.95728369140625,-2.2142322063446045,-2.9651377201080322,1.1659882068634033
1773146090180294700,9.970294677734374,-2.913825035095215,-3.128849506378174,1.2661700248718262
1773146090193305600,9.9833056640625,-3.445277452468872,-3.1300711631774902,1.3182462453842163
1773146090206316500,9.996316650390625,-3.894873857498169,-2.7530148029327393,1.3043490648269653
1773146090219327700,10.00932763671875,-4.24184513092041,-2.142455577850342,1.1508692502975464
1773146090232338700,10.022338623046876,-4.620122909545898,-1.3238966464996338,1.0800089836120605
1773146090245349600,10.035349609375,-4.978089809417725,-0.7325795888900757,1.081230640411377
1773146090258360600,10.048360595703125,-5.155698776245117,-0.5241219997406006,1.3199260234832764
1773146090271371500,10.06137158203125,-4.981449604034424,-0.31154105067253113,2.042731761932373
1773146090284382500,10.074382568359376,-4.588816165924072,-0.16249002516269684,2.9431464672088623
1773146090297393700,10.0873935546875,-4.235278129577637,-0.5864301919937134,3.5471391677856445
1773146090310404600,10.100404541015624,-4.2230610847473145,-1.3781108856201172,3.7927067279815674
1773146090323415600,10.11341552734375,-4.239859580993652,-2.2614214420318604,3.721846342086792
1773146090336426500,10.126426513671875,-4.2765116691589355,-2.2707371711730957,3.814239740371704
1773146090349437700,10.139437744140626,-3.9974992275238037,-1.869246244430542,3.842339515686035
1773146090362448600,10.15244873046875,-3.8269150257110596,-1.4885247945785522,3.6415176391601562
1773146090375459600,10.16545947265625,-3.936870813369751,-1.0470222234725952,3.4628396034240723
1773146090388470500,10.178470458984375,-4.109898090362549,-0.46746426820755005,3.5324783325195312
1773146090401481700,10.191481689453125,-4.2291693687438965,-0.2211330533027649,3.565006971359253
1773146090414492700,10.20449267578125,-4.384787559509277,-0.34895649552345276,3.434739828109741
1773146090427503600,10.217503662109374,-4.590496063232422,-0.45326167345046997,3.2058184146881104
1773146090440514600,10.2305146484375,-4.674795627593994,-0.09239330142736435,3.212690591812134
1773146090453525500,10.243525390625,-4.504058837890625,0.13881902396678925,3.1251842975616455
1773146090466536700,10.25653662109375,-4.317592144012451,0.17348559200763702,2.883739948272705
1773146090479547600,10.269547607421876,-4.217410564422607,0.235793799161911,2.526078462600708
1773146090492558600,10.28255859375,-4.184423923492432,0.4251618981361389,2.1661264896392822
1773146090505569500,10.295569580078125,-4.160447120666504,0.6495019793510437,1.8330525159835815
1773146090518580700,10.308580810546875,-4.142121315002441,0.7887791395187378,1.4888302087783813
1773146090531591700,10.321591796875,-4.05247688293457,1.0462586879730225,1.254258155822754
1773146090544602600,10.3346025390625,-3.902967691421509,1.428965449333191,1.176525592803955
1773146090557613600,10.347613525390624,-3.6415176391601562,1.883143424987793,1.1733185052871704
1773146090570624500,10.36062451171875,-3.188256025314331,2.400240421295166,1.1875211000442505
1773146090583635700,10.3736357421875,-2.8046329021453857,2.77164626121521,1.0091485977172852
1773146090596646700,10.386646728515625,-2.6088507175445557,2.632063627243042,0.4549415409564972
1773146090609657600,10.39965771484375,-2.142913579940796,2.2560763359069824,-0.19501857459545135
1773146090622668500,10.41266845703125,-1.3658936023712158,2.324493169784546,-0.37262752652168274
1773146090635679500,10.425679443359375,-0.5835285782814026,2.5721988677978516,-0.09972367435693741
1773146090648690700,10.438690673828125,0.08796452730894089,3.194364547729492,0.6104066371917725
1773146090661701600,10.45170166015625,0.4027126133441925,3.8574583530426025,1.2078323364257812
1773146090674712600,10.464712646484376,0.6071996092796326,4.043161392211914,1.11345374584198
1773146090687723500,10.4777236328125,0.7777835726737976,3.5894415378570557,0.1727220118045807
1773146090700734700,10.490734619140625,0.7139481902122498,2.656803607940674,-1.4098758697509766
1773146090713745700,10.50374560546875,0.443945974111557,1.864817500114441,-2.9378013610839844
1773146090726756600,10.516756591796875,0.1360701322555542,1.4941751956939697,-3.8516552448272705
1773146090739767600,10.529767578125,-0.05818486958742142,1.307708740234375,-4.1563239097595215
1773146090752778800,10.54277880859375,-0.19349141418933868,1.2388337850570679,-3.954280376434326
1773146090765789700,10.555789794921875,-0.30054548382759094,1.3390156030654907,-3.3211190700531006
1773146090778800600,10.568800537109375,-0.3897317349910736,1.4123194217681885,-2.5331034660339355
1773146090791811600,10.5818115234375,-0.5074759125709534,1.2652536630630493,-1.9755367040634155
1773146090804822500,10.594822509765624,-0.5172497630119324,1.0401500463485718,-1.6757547855377197
1773146090817833700,10.607833740234375,-0.43661558628082275,0.9089667797088623,-1.5181516408920288
1773146090830844700,10.6208447265625,-0.40805765986442566,0.699287474155426,-1.4489712715148926
1773146090843855600,10.633855712890625,-0.4243983030319214,0.346513032913208,-1.3910918235778809
1773146090856866600,10.646866455078126,-0.4503600597381592,0.06719512492418289,-1.1980586051940918
1773146090869877500,10.65987744140625,-0.5013672709465027,-0.11927134543657303,-0.8813251852989197
1773146090882888700,10.672888671875,-0.5184714794158936,-0.1617264449596405,-0.4845684766769409
1773146090895899600,10.685899658203125,-0.4760163724422455,-0.03298669680953026,-0.06887500733137131
1773146090908910600,10.69891064453125,-0.39339691400527954,0.09651663154363632,0.31154105067253113
1773146090921921500,10.711921630859376,-0.21914774179458618,0.12660172581672668,0.6414080262184143
1773146090934932700,10.7249326171875,0.02153298258781433,0.07406735420227051,0.9199623465538025
1773146090947943700,10.737943603515625,0.27320927381515503,-0.017867794260382652,1.0983349084854126
1773146090960954600,10.75095458984375,0.48792824149131775,-0.11316270381212234,1.1699587106704712
1773146090973965600,10.763965576171875,0.7098248600959778,-0.13881902396678925,1.1850776672363281
1773146090986976500,10.7769765625,0.975703775882721,-0.09575305134057999,1.2173007726669312
1773146090999987700,10.78998779296875,1.2026400566101074,-0.15271618962287903,1.2266165018081665
1773146091012998700,10.80299853515625,1.3019055128097534,-0.45616328716278076,1.254258155822754
1773146091026009600,10.816009521484375,1.244484305381775,-0.8657481074333191,1.3536763191223145
1773146091039020500,10.8290205078125,1.104901671409607,-1.1447606086730957,1.4856231212615967
1773146091052031500,10.842031494140626,1.004719853401184,-1.2554798126220703,1.5687007904052734
1773146091065042700,10.855042724609374,0.9395100474357605,-1.2107340097427368,1.5450297594070435
1773146091078053600,10.8680537109375,0.8865175247192383,-1.1574360132217407,1.433088779449463
1773146091091064600,10.881064697265625,0.8161153197288513,-1.0942115783691406,1.2848013639450073
1773146091104075500,10.894075439453125,0.698371171951294,-1.0633628368377686,1.0690133571624756
1773146091117086700,10.907086669921876,0.5082395076751709,-1.0523673295974731,0.8271108865737915
1773146091130097700,10.92009765625,0.4105011224746704,-0.9033163189888,0.7118101716041565
1773146091143108600,10.933108642578125,0.37140578031539917,-0.6910407543182373,0.7244856357574463
1773146091156119600,10.94611962890625,0.2834412455558777,-0.44180795550346375,0.8495602011680603
1773146091169130500,10.959130615234375,0.10186170041561127,-0.14049890637397766,0.975703775882721
1773146091182141700,10.9721416015625,-0.10186170041561127,0.15515965223312378,1.0218240022659302
1773146091195152600,10.985152587890624,-0.249690979719162,0.360868364572525,0.9871574640274048
1773146091208163600,10.99816357421875,-0.30833399295806885,0.5143481492996216,0.9219476580619812
1773146091221174500,11.011174560546875,-0.3090975880622864,0.4845684766769409,0.8119919896125793
1773146091234185700,11.024185791015626,-0.21945317089557648,0.17791436612606049,0.7212786078453064
1773146091247196700,11.03719677734375,-0.12217295914888382,-0.1905898153781891,0.7024945020675659
1773146091260207600,11.05020751953125,-0.11484257876873016,-0.26221370697021484,0.7237220406532288
1773146091273218600,11.063218505859375,-0.12705987691879272,-0.14340050518512726,0.8825469017028809
1773146091286229500,11.0762294921875,-0.16905683279037476,0.04886918142437935,1.1227694749832153
1773146091299240700,11.08924072265625,-0.18814635276794434,0.3058905303478241,1.431867003440857
1773146091312251600,11.102251708984374,-0.2052505612373352,0.5774199366569519,1.6522364616394043
1773146091325262600,11.1152626953125,-0.3559814393520355,0.6091849207878113,1.65987229347229
1773146091338273500,11.1282734375,-0.5285507440567017,0.5233584046363831,1.6065744161605835
1773146091351284700,11.14128466796875,-0.5375609993934631,0.5302306413650513,1.5728241205215454
1773146091364295700,11.154295654296876,-0.3966039717197418,0.7257073521614075,1.5430444478988647
1773146091377306600,11.167306640625,-0.2712239623069763,1.1985167264938354,1.5337287187576294
1773146091390317600,11.180317626953125,-0.3046688139438629,1.797927737236023,1.545487880706787
1773146091403328500,11.19332861328125,-0.3640754222869873,2.1497857570648193,1.6366595029830933
1773146091416339700,11.206339599609375,-0.3623955249786377,2.0488405227661133,1.7360776662826538
1773146091429350700,11.2193505859375,-0.16814053058624268,1.4306453466415405,1.6256638765335083
1773146091442361600,11.232361572265624,0.0639880821108818,0.5485565662384033,1.2701406478881836
1773146091455372500,11.24537255859375,0.2533561587333679,-0.040775224566459656,0.9097303748130798
1773146091468383700,11.2583837890625,0.46227192878723145,-0.24312418699264526,0.6296488642692566
1773146091481394700,11.271394775390625,0.6898190379142761,-0.3831649422645569,0.2802342176437378
1773146091494405600,11.284405517578126,0.9175189137458801,-0.627968966960907,-0.09651663154363632
1773146091507416600,11.29741650390625,1.0250310897827148,-0.8327614068984985,-0.3811796307563782
1773146091520427500,11.310427490234375,0.9753983616828918,-0.7195987105369568,-0.5062541961669922
1773146091533438700,11.323438720703125,0.9350812435150146,-0.3396408259868622,-0.5554288029670715
1773146091546449700,11.33644970703125,0.8633046746253967,-0.1637117564678192,-0.5636754631996155
1773146091559460600,11.349460693359376,0.7020363211631775,0.03787361457943916,-0.5294670462608337
1773146091572471600,11.362471435546874,0.5949822664260864,0.3462076187133789,-0.38072147965431213
1773146091585482800,11.375482666015625,0.541989803314209,0.6071996092796326,-0.17837251722812653
1773146091598493700,11.38849365234375,0.5102248191833496,0.7090612649917603,0.03375028073787689
1773146091611504600,11.401504638671875,0.4967857897281647,0.7415898442268372,0.20967933535575867
1773146091624515600,11.414515625,0.5021308660507202,0.7310523986816406,0.29245150089263916
1773146091637526500,11.427526611328124,0.5102248191833496,0.754265308380127,0.26878049969673157
1773146091650537700,11.440537841796875,0.5045742988586426,0.9358448386192322,0.19181154668331146
1773146091663548700,11.453548583984375,0.48334676027297974,0.9534072279930115,0.020769402384757996
1773146091676559600,11.4665595703125,0.48823368549346924,1.0279327630996704,-0.20479241013526917
1773146091689570600,11.479570556640626,0.5119046568870544,1.1745402812957764,-0.41615164279937744
1773146091702581500,11.49258154296875,0.5172497630119324,1.2857176065444946,-0.5790998339653015
1773146091715592700,11.5055927734375,0.5187768936157227,1.3548980951309204,-0.661413848400116
1773146091728603600,11.518603759765625,0.4992292523384094,1.4106395244598389,-0.6323977708816528
1773146091741614600,11.531614501953126,0.44791659712791443,1.4530946016311646,-0.516791582107544
1773146091754625500,11.54462548828125,0.3811796307563782,1.489288330078125,-0.39018988609313965
1773146091767636500,11.557636474609374,0.3367392122745514,1.5540399551391602,-0.2919933497905731
1773146091780647700,11.570647705078125,0.3159697949886322,1.5633556842803955,-0.21868959069252014
1773146091793658600,11.58365869140625,0.3303251266479492,1.5975641012191772,-0.1539379209280014
1773146091806669600,11.596669677734376,0.36453354358673096,1.670867919921875,-0.13072505593299866
1773146091819680500,11.609680419921874,0.3733910918235779,1.7844886779785156,-0.16936226189136505
1773146091832691700,11.622691650390625,0.35384342074394226,1.911243200302124,-0.27198755741119385
1773146091845702700,11.63570263671875,0.38850998878479004,2.011425018310547,-0.44669488072395325
1773146091858713600,11.648713623046875,0.4500546157360077,2.0908374786376953,-0.5795579552650452
1773146091871724500,11.661724609375,0.5334376692771912,2.042273759841919,-0.6357575058937073
1773146091884735500,11.674735595703124,0.6394227147102356,1.8663445711135864,-0.653167188167572
1773146091897746700,11.68774658203125,0.6976075768470764,1.727067470550537,-0.6394227147102356
1773146091910757600,11.700757568359375,0.7367029190063477,1.6000075340270996,-0.6719512343406677
1773146091923768600,11.7137685546875,0.8242093324661255,1.4408773183822632,-0.7322741746902466
1773146091936779500,11.726779541015626,0.930499792098999,1.3267983198165894,-0.7554870247840881
1773146091949790700,11.739790771484374,0.9903645515441895,1.2510510683059692,-0.7322741746902466
1773146091962801700,11.7528017578125,1.0453423261642456,1.2282963991165161,-0.6922625303268433
1773146091975812600,11.7658125,1.0739002227783203,1.2417353391647339,-0.6430879235267639
1773146091988823600,11.778823486328125,1.049007534980774,1.265711784362793,-0.5542070865631104
1773146092001834500,11.79183447265625,1.0291544198989868,1.2547162771224976,-0.42562004923820496
1773146092014845700,11.804845703125,0.986393928527832,1.1643083095550537,-0.2854265570640564
1773146092027856600,11.817856689453125,0.9285144805908203,1.019685983657837,-0.13439024984836578
1773146092040867600,11.83086767578125,0.8999565243721008,0.8678861260414124,0.02367101050913334
1773146092053878500,11.84387841796875,0.9472985863685608,0.6714931130409241,0.15347976982593536
1773146092066889500,11.856889404296876,1.0543526411056519,0.5123628377914429,0.2606865465641022
1773146092079900700,11.869900634765624,1.1736239194869995,0.4312705397605896,0.3477347791194916
1773146092092911600,11.88291162109375,1.2046253681182861,0.45280352234840393,0.42394015192985535
1773146092105922600,11.895922607421875,1.1647664308547974,0.546113133430481,0.4943423271179199
1773146092118933500,11.90893359375,1.0787872076034546,0.627968966960907,0.5297724604606628
1773146092131944400,11.9219443359375,1.0282381772994995,0.6181951761245728,0.49189886450767517
1773146092144955600,11.93495556640625,0.9834923148155212,0.5933024287223816,0.43692103028297424
1773146092157966600,11.947966552734375,0.9101884961128235,0.5974257588386536,0.42195484042167664
1773146092170977500,11.9609775390625,0.8185588121414185,0.5612320303916931,0.4231765866279602
1773146092183988500,11.973988525390626,0.6947059631347656,0.5290089249610901,0.3811796307563782
1773146092196999700,11.986999755859374,0.536339282989502,0.5790998339653015,0.3220784664154053
1773146092210010600,12.0000107421875,0.3779725730419159,0.6666061878204346,0.24113887548446655
1773146092223021600,12.013021484375,0.27687445282936096,0.6976075768470764,0.1363755613565445
1773146092236032500,12.026032470703125,0.22769984602928162,0.689513623714447,0.07376192510128021
1773146092249043700,12.039043701171876,0.18814635276794434,0.6568323373794556,0.07864884287118912
1773146092262054700,12.0520546875,0.1698204129934311,0.546113133430481,0.10705405473709106
1773146092275065600,12.065065673828125,0.14172062277793884,0.3828594982624054,0.14782927930355072
1773146092288076500,12.07807666015625,0.09850194305181503,0.20448698103427887,0.19914191961288452
1773146092301087500,12.09108740234375,0.05818486958742142,0.039858926087617874,0.2536616027355194
1773146092314098700,12.1040986328125,0.002901607658714056,-0.056657709181308746,0.33399030566215515
1773146092327109600,12.117109619140624,-0.06230820715427399,-0.08307760953903198,0.4251618981361389
1773146092340120600,12.13012060546875,-0.09972367435693741,-0.08139773458242416,0.47357290983200073
1773146092353131500,12.143131591796875,-0.16249002516269684,0.001679878099821508,0.4757109582424164
1773146092366142500,12.156142578125,-0.24801109731197357,0.16050471365451813,0.43004879355430603
1773146092379153700,12.169153564453126,-0.3168860971927643,0.3119991719722748,0.3384190797805786
1773146092392164600,12.18216455078125,-0.3225366175174713,0.38041603565216064,0.22769984602928162
1773146092405175600,12.195175537109375,-0.28298309445381165,0.38072147965431213,0.13851359486579895
1773146092418186500,12.2081865234375,-0.20280711352825165,0.3013090491294861,0.06307178735733032
1773146092431197700,12.22119775390625,-0.12660172581672668,0.16569706797599792,-0.004428769461810589
1773146092444208600,12.234208740234376,-0.15836669504642487,0.06841685622930527,-0.036193739622831345
1773146092457219600,12.247219482421874,-0.23945899307727814,0.02000582218170166,-0.056199558079242706
1773146092470230500,12.26023046875,-0.3119991719722748,0.052076224237680435,-0.07406735420227051
1773146092483241500,12.273241455078125,-0.3816377818584442,0.1617264449596405,-0.06062832847237587
1773146092496252700,12.286252685546875,-0.4283689260482788,0.29397866129875183,-0.0383317656815052
1773146092509263600,12.299263671875,-0.44180795550346375,0.4271472096443176,-0.01954767294228077
1773146092522274600,12.312274658203124,-0.4390590488910675,0.5820014476776123,-0.006108647678047419
1773146092535285500,12.325285400390625,-0.41462448239326477,0.7191405892372131,-0.002901607658714056
1773146092548296700,12.338296630859375,-0.3733910918235779,0.827874481678009,-0.004886918235570192
1773146092561307600,12.3513076171875,-0.3335321843624115,0.8788816928863525,0.009010255336761475
1773146092574318600,12.364318603515626,-0.28664830327033997,0.7843503952026367,0.03955349326133728
1773146092587329500,12.37732958984375,-0.24724751710891724,0.6125446557998657,0.08017600327730179
1773146092600340700,12.3903408203125,-0.19104796648025513,0.439364492893219,0.1302669197320938
1773146092613351700,12.4033515625,-0.1568395346403122,0.39538222551345825,0.16936226189136505
1773146092626362600,12.416362548828126,-0.1185077652335167,0.4422661066055298,0.19792018830776215
1773146092639373600,12.42937353515625,-0.061850059777498245,0.5273290276527405,0.21945317089557648
1773146092652384500,12.442384521484374,-0.017867794260382652,0.5803215503692627,0.23258677124977112
1773146092665395700,12.455395751953125,0.02000582218170166,0.5900954008102417,0.24801109731197357
1773146092678406700,12.46840673828125,0.0691804364323616,0.6030762791633606,0.2484692484140396
1773146092691417600,12.48141748046875,0.1262962967157364,0.6666061878204346,0.23258677124977112
1773146092704428500,12.494428466796874,0.16814053058624268,0.7037162184715271,0.23258677124977112
1773146092717439700,12.507439697265625,0.18325942754745483,0.6760746240615845,0.2211330533027649
1773146092730450700,12.52045068359375,0.1876882016658783,0.6394227147102356,0.20357069373130798
1773146092743461600,12.533461669921875,0.22235478460788727,0.6482802629470825,0.18493930995464325
1773146092756472600,12.54647265625,0.3127627670764923,0.7057015299797058,0.13759729266166687
1773146092769483500,12.5594833984375,0.43661558628082275,0.8144354820251465,0.04566214233636856
1773146092782494700,12.57249462890625,0.5888736248016357,0.9097303748130798,-0.0896444097161293
1773146092795505700,12.585505615234375,0.7225003242492676,1.0099122524261475,-0.2211330533027649
1773146092808516600,12.5985166015625,0.8132137656211853,1.0465641021728516,-0.34987279772758484
1773146092821527600,12.611527587890626,0.8405499458312988,1.0221295356750488,-0.4134027361869812
1773146092834538500,12.62453857421875,0.7990111112594604,0.9810488224029541,-0.4007273018360138
1773146092847549400,12.637549560546875,0.7151699662208557,0.8747583627700806,-0.38072147965431213
1773146092860560600,12.650560546875,0.6174315810203552,0.8385646343231201,-0.3404043912887573
1773146092873571600,12.663571533203125,0.5221366882324219,0.8967494964599609,-0.30054548382759094
1773146092886582500,12.67658251953125,0.45280352234840393,1.0054833889007568,-0.2932150959968567
1773146092899593500,12.689593505859374,0.4271472096443176,1.1916444301605225,-0.30253079533576965
1773146092912604700,12.702604736328125,0.4373791813850403,1.3781108856201172,-0.30344706773757935
1773146092925615600,12.71561572265625,0.4422661066055298,1.4579814672470093,-0.2753472924232483
1773146092938626600,12.72862646484375,0.49892380833625793,1.433088779449463,-0.20693044364452362
1773146092951637800,12.7416376953125,0.6018545031547546,1.4184280633926392,-0.1363755613565445
1773146092964648700,12.754648681640624,0.6743947267532349,1.3394737243652344,-0.13484840095043182
1773146092977659600,12.76765966796875,0.7053961157798767,1.2713623046875,-0.15271618962287903
1773146092990670600,12.780670654296875,0.6934842467308044,1.2583814859390259,-0.14782927930355072
1773146093003681500,12.793681640625,0.6678279042243958,1.2759437561035156,-0.13683371245861053
1773146093016692500,12.8066923828125,0.6560688018798828,1.3345868587493896,-0.10186170041561127
1773146093029703700,12.81970361328125,0.667064368724823,1.3785691261291504,-0.08628465235233307
1773146093042714600,12.832714599609375,0.7017309069633484,1.4411827325820923,-0.07773254066705704
1773146093055725600,12.8457255859375,0.7452550530433655,1.4734058380126953,-0.07528908550739288
1773146093068736500,12.858736572265625,0.7892373204231262,1.4587451219558716,-0.07941242307424545
1773146093081747700,12.871747802734374,0.8217658400535583,1.4091123342514038,-0.11163553595542908
1773146093094758700,12.884758544921874,0.8356630206108093,1.3829978704452515,-0.16737695038318634
1773146093107769600,12.89776953125,0.8283326625823975,1.3739875555038452,-0.20891575515270233
1773146093120780500,12.910780517578125,0.7990111112594604,1.3781108856201172,-0.21670427918434143
1773146093133791500,12.92379150390625,0.7753401398658752,1.3988803625106812,-0.1971566081047058
1773146093146802700,12.936802734375,0.768467903137207,1.4619520902633667,-0.16416990756988525
1773146093159813600,12.949813720703125,0.758694052696228,1.51448655128479,-0.11316270381212234
1773146093172824600,12.962824462890625,0.740368127822876,1.51616632938385,-0.06765327602624893
1773146093185835500,12.97583544921875,0.7252492308616638,1.4631738662719727,-0.06765327602624893
1773146093198846700,12.9888466796875,0.7220421433448792,1.4062107801437378,-0.10629047453403473
1773146093211857700,13.001857666015624,0.7334958910942078,1.3981167078018188,-0.17791436612606049
1773146093224868600,13.01486865234375,0.7525854110717773,1.4196497201919556,-0.26511532068252563
1773146093237879600,13.027879638671875,0.7692314982414246,1.4384338855743408,-0.3257436454296112
1773146093250890500,13.040890380859375,0.7929024696350098,1.4362958669662476,-0.3669770061969757
1773146093263901700,13.053901611328126,0.8393282294273376,1.4391974210739136,-0.4027126133441925
1773146093276912600,13.06691259765625,0.8975130915641785,1.4420989751815796,-0.4105011224746704
1773146093289923600,13.079923583984375,0.9644027948379517,1.4233149290084839,-0.4043924808502197
1773146093302934500,13.0929345703125,1.0221295356750488,1.4054471254348755,-0.39141160249710083
1773146093315945700,13.10594580078125,1.0502293109893799,1.3858994245529175,-0.36163195967674255
1773146093328956700,13.118956787109376,1.0511455535888672,1.3837614059448242,-0.33399030566215515
1773146093341967600,13.131967529296874,1.0367902517318726,1.4213296175003052,-0.3156643807888031
1773146093354978600,13.144978515625,1.0147991180419922,1.4941751956939697,-0.30253079533576965
1773146093367989500,13.157989501953125,0.9932661056518555,1.5865685939788818,-0.314748078584671
1773146093381000700,13.171000732421875,0.9790635108947754,1.6701042652130127,-0.3416261374950409
1773146093394011600,13.18401171875,0.9773836731910706,1.712864875793457,-0.3572031855583191
1773146093407022600,13.197022705078124,0.9871574640274048,1.6810998916625977,-0.36361727118492126
1773146093420033500,13.210033447265625,0.998153030872345,1.6094759702682495,-0.35964664816856384
1773146093433044700,13.223044677734375,1.0083850622177124,1.556483507156372,-0.34697118401527405
1773146093446055700,13.2360556640625,1.0034980773925781,1.5340341329574585,-0.33887723088264465
1773146093459066600,13.249066650390626,0.9830341339111328,1.5125012397766113,-0.34895649552345276
1773146093472077600,13.26207763671875,0.9598212838172913,1.4970768690109253,-0.36483898758888245
1773146093485088500,13.275088623046875,0.9488257169723511,1.5105159282684326,-0.3738492429256439
1773146093498099700,13.288099609375,0.9558506608009338,1.5511384010314941,-0.3620901107788086
1773146093511110700,13.301110595703125,0.9680679440498352,1.5862630605697632,-0.33765551447868347
1773146093524121600,13.31412158203125,0.9888373613357544,1.5813761949539185,-0.32330018281936646
1773146093537132500,13.327132568359374,1.0120502710342407,1.5731295347213745,-0.33429574966430664
1773146093550143700,13.340143798828125,1.0600031614303589,1.5609122514724731,-0.3257436454296112
1773146093563154700,13.35315478515625,1.0751219987869263,1.5332705974578857,-0.28298309445381165
1773146093576165600,13.36616552734375,1.062904715538025,1.4689770936965942,-0.2516762912273407
1773146093589176600,13.379176513671876,1.0323615074157715,1.4139991998672485,-0.23777911067008972
1773146093602187500,13.3921875,0.9827287197113037,1.3993384838104248,-0.21991132199764252
1773146093615198700,13.40519873046875,0.924849271774292,1.4167481660842896,-0.18616104125976562
1773146093628209700,13.418209716796875,0.8849903345108032,1.4538581371307373,-0.1519526094198227
1773146093641220600,13.431220703125,0.8681915402412415,1.473863959312439,-0.14294235408306122
1773146093654231600,13.4442314453125,0.8649845123291016,1.4799726009368896,-0.1571449637413025
1773146093667242800,13.45724267578125,0.8620828986167908,1.4909682273864746,-0.17394374310970306
1773146093680253700,13.470253662109375,0.8449786901473999,1.4856231212615967,-0.18890993297100067
1773146093693264600,13.4832646484375,0.8112284541130066,1.459966778755188,-0.1971566081047058
1773146093706275600,13.496275634765626,0.7664825916290283,1.4225513935089111,-0.19868376851081848
1773146093719286500,13.50928662109375,0.7225003242492676,1.4020873308181763,-0.20158538222312927
1773146093732297700,13.522297607421875,0.6976075768470764,1.4037672281265259,-0.21181736886501312
1773146093745308700,13.53530859375,0.6980656981468201,1.4123194217681885,-0.22434009611606598
1773146093758319600,13.548319580078125,0.726470947265625,1.4127775430679321,-0.24236060678958893
1773146093771330600,13.56133056640625,0.7774781584739685,1.4135410785675049,-0.2707658112049103
1773146093784341800,13.574341796875,0.8239038586616516,1.3939933776855469,-0.29764387011528015
1773146093797352700,13.587352783203125,0.8507819175720215,1.3548980951309204,-0.3119991719722748
1773146093810363600,13.60036376953125,0.8498656153678894,1.313359260559082,-0.3139844834804535
1773146093823374600,13.61337451171875,0.8344413042068481,1.289382815361023,-0.3205513060092926
1773146093836385500,13.626385498046876,0.8177952170372009,1.2786927223205566,-0.3477347791194916
1773146093849396700,13.639396728515624,0.8112284541130066,1.2750275135040283,-0.39217519760131836
1773146093862407700,13.65240771484375,0.8229875564575195,1.2860230207443237,-0.42684176564216614
1773146093875418600,13.665418701171875,0.873078465461731,1.3031272888183594,-0.4341721534729004
1773146093888429600,13.6784296875,0.9773836731910706,1.3060288429260254,-0.42073312401771545
1773146093901440800,13.691440673828126,1.1296416521072388,1.313359260559082,-0.4166097939014435
1773146093914451700,13.70445166015625,1.3096940517425537,1.3321434259414673,-0.41783151030540466
1773146093927462700,13.717462646484375,1.4636319875717163,1.3251184225082397,-0.3139844834804535
1773146093940473600,13.7304736328125,1.517388105392456,1.2298234701156616,-0.21135921776294708
1773146093953484800,13.74348486328125,1.523038625717163,1.095127820968628,-0.13851359486579895
1773146093966495700,13.756495849609376,1.4680607318878174,1.047785758972168,-0.10338886082172394
1773146093979506700,13.769506591796874,1.3842196464538574,1.1012364625930786,-0.1409570425748825
1773146093992517600,13.782517578125,1.3028218746185303,1.2388337850570679,-0.21945317089557648
1773146094005528600,13.795528564453125,1.2344050407409668,1.3585633039474487,-0.3046688139438629
1773146094018539800,13.808539794921876,1.1916444301605225,1.4103341102600098,-0.37461283802986145
1773146094031550700,13.82155078125,1.1614066362380981,1.4408773183822632,-0.40118545293807983
1773146094044561700,13.834561767578125,1.114675521850586,1.4445425271987915,-0.39018988609313965
1773146094057572600,13.847572509765625,1.0563379526138306,1.3797907829284668,-0.35796675086021423
1773146094070583800,13.860583740234375,0.9986112117767334,1.2547162771224976,-0.32940882444381714
1773146094083594800,13.8735947265625,0.9463822841644287,1.075885534286499,-0.3367392122745514
1773146094096605700,13.886605712890624,0.8881973624229431,0.928972601890564,-0.3669770061969757
1773146094109616600,13.89961669921875,0.7689260244369507,0.9411898851394653,-0.37094762921333313
1773146094122627600,13.912627685546875,0.7342594861984253,0.9708168506622314,-0.3970620930194855
1773146094135638800,13.925638671875,0.8046616315841675,0.9891427755355835,-0.42592546343803406
1773146094148649700,13.938649658203126,0.8955277800559998,0.9952514171600342,-0.42073312401771545
1773146094161660700,13.95166064453125,0.9749401807785034,0.9928079843521118,-0.3966039717197418
1773146094174671600,13.964671630859375,0.9925025701522827,1.0123556852340698,-0.3481929302215576
1773146094187682800,13.977682861328125,0.9338595271110535,1.0983349084854126,-0.22846342623233795
1773146094200693800,13.99069384765625,0.8393282294273376,1.2315033674240112,-0.027336198836565018
1773146094213704700,14.00370458984375,0.7721330523490906,1.3756674528121948,0.208152174949646
1773146094226715600,14.016715576171874,0.7936660647392273,1.5198315382003784,0.3510945439338684
1773146094239726600,14.0297265625,0.8315396904945374,1.7238603830337524,0.35964664816856384
1773146094252737800,14.04273779296875,0.8437569737434387,2.0219624042510986,0.32421648502349854
1773146094265748700,14.055748779296875,0.915075421333313,2.2369868755340576,0.2548833191394806
1773146094278759700,14.068759765625,0.9460768103599548,2.3709189891815186,0.22525638341903687
1773146094291770600,14.0817705078125,0.9676098227500916,2.417344570159912,0.27855435013771057
1773146094304781800,14.09478173828125,0.957072377204895,2.391688346862793,0.33276858925819397
1773146094317792800,14.107792724609375,0.8987348079681396,2.355494499206543,0.3555232882499695
1773146094330803700,14.1208037109375,0.8107702732086182,2.372140645980835,0.33597561717033386
1773146094343814700,14.133814697265626,0.7191405892372131,2.433685302734375,0.29367324709892273
1773146094356825600,14.14682568359375,0.6169734001159668,2.472780704498291,0.21135921776294708
1773146094369836800,14.1598369140625,0.5297724604606628,2.537074089050293,0.07498364895582199
1773146094382847700,14.17284765625,0.490677148103714,2.623511552810669,-0.11438442766666412
1773146094395858700,14.185858642578125,0.4886918365955353,2.7110178470611572,-0.3523162603378296
1773146094408869600,14.19886962890625,0.5285507440567017,2.819293737411499,-0.5810851454734802
1773146094421880800,14.211880859375,0.7973312735557556,2.858847141265869,-0.6910407543182373
1773146094434891800,14.224891845703125,1.0404554605484009,2.6943719387054443,-0.6524035930633545
1773146094447902700,14.23790283203125,1.114980936050415,2.335946798324585,-0.3738492429256439
1773146094460913700,14.25091357421875,1.0893245935440063,1.8211406469345093,0.0102319847792387
1773146094473924600,14.263924560546876,1.0108284950256348,1.3956732749938965,0.30741769075393677
1773146094486935800,14.276935791015624,0.9375247359275818,1.1887428760528564,0.4647153913974762
1773146094499946800,14.28994677734375,0.9231693744659424,1.2400555610656738,0.5297724604606628
1773146094512957700,14.302957763671875,0.9497420191764832,1.507614254951477,0.5285507440567017
1773146094525968600,14.31596875,0.9973894953727722,1.8599305152893066,0.4992292523384094
1773146094538979800,14.328979736328124,1.0450369119644165,2.1216859817504883,0.46227192878723145
1773146094551990800,14.34199072265625,1.1015418767929077,2.2166755199432373,0.42195484042167664
1773146094565001700,14.355001708984375,1.172096848487854,2.149022340774536,0.37751442193984985
1773146094578012700,14.3680126953125,1.2258528470993042,1.9857686758041382,0.33765551447868347
1773146094591023600,14.381023681640626,1.2310452461242676,1.8040363788604736,0.30543237924575806
1773146094604034800,14.394034912109374,1.1948515176773071,1.6151264905929565,0.2338084876537323
1773146094617045800,14.407045654296875,1.1122320890426636,1.4995203018188477,0.1510363221168518
1773146094630056700,14.420056640625,0.9957095980644226,1.4746276140213013,0.09040798991918564
1773146094643067600,14.433067626953125,0.8849903345108032,1.5169299840927124,0.043982263654470444
1773146094656078800,14.446078857421876,0.7904590368270874,1.5948152542114258,0.012217295356094837
1773146094669089800,14.45908984375,0.7044798135757446,1.6754493713378906,-0.05253437161445618
1773146094682100700,14.472100830078125,0.6389645338058472,1.701869249343872,-0.15225805342197418
1773146094695111700,14.485111572265625,0.6023126840591431,1.6452115774154663,-0.2585485279560089
1773146094708122600,14.49812255859375,0.6035344004631042,1.5520546436309814,-0.35063639283180237
1773146094721133800,14.5111337890625,0.6360629796981812,1.46409010887146,-0.4202749729156494
1773146094734144800,14.524144775390624,0.6626355648040771,1.3862049579620361,-0.45280352234840393
1773146094747155700,14.53715576171875,0.6678279042243958,1.2967132329940796,-0.4764745235443115
1773146094760166700,14.550166748046875,0.6585122346878052,1.2099703550338745,-0.5392408967018127
1773146094773177900,14.563177734375,0.6409498453140259,1.1552979946136475,-0.6275108456611633
1773146094786188800,14.576188720703126,0.6389645338058472,1.1501057147979736,-0.7093667387962341
1773146094799199700,14.58919970703125,0.6910407543182373,1.200196623802185,-0.7611374855041504
1773146094812210700,14.602210693359375,0.7464767694473267,1.2380702495574951,-0.7428115606307983
1773146094825221600,14.6152216796875,0.7733548283576965,1.2567015886306763,-0.7020363211631775
1773146094838232800,14.62823291015625,0.7594576478004456,1.328478217124939,-0.6406444311141968
1773146094851243800,14.641243896484376,0.7225003242492676,1.4020873308181763,-0.5949822664260864
1773146094864254700,14.654254638671874,0.7677043080329895,1.1936297416687012,-0.574212908744812
1773146094877265700,14.667265625,0.7696896195411682,1.1391100883483887,-0.48991355299949646
1773146094890276900,14.68027685546875,0.7310523986816406,1.1044435501098633,-0.3819431960582733
1773146094903287800,14.693287841796876,0.6988292932510376,1.0709986686706543,-0.29856017231941223
1773146094916298800,14.706298828125,0.6947059631347656,1.1227694749832153,-0.26022839546203613
1773146094929310000,14.71931005859375,0.7005091905593872,1.1830923557281494,-0.2582430839538574
1773146094942321000,14.73232080078125,0.7066178321838379,1.1940879821777344,-0.26099199056625366
1773146094955331800,14.745331787109375,0.7440332770347595,1.1711804866790771,-0.2516762912273407
1773146094968342800,14.7583427734375,0.7838922142982483,1.1545344591140747,-0.2260199636220932
1773146094981353700,14.771353759765624,0.8312342762947083,1.110552191734314,-0.19471314549446106
1773146094994364700,14.78436474609375,0.8715513348579407,1.0584759712219238,-0.16737695038318634
1773146095007376000,14.7973759765625,0.8373429179191589,1.0157153606414795,-0.11407899856567383
1773146095020386800,14.81038671875,0.7640390992164612,0.9512691497802734,-0.06475166976451874
1773146095033397800,14.823397705078126,0.6621774435043335,0.9546289443969727,-0.001221729558892548
1773146095046409000,14.836408935546874,0.5554288029670715,0.9741765856742859,0.05696314200758934
1773146095059420000,14.849419921875,0.48013970255851746,1.0120502710342407,0.06887500733137131
1773146095072430800,14.862430908203125,0.4410443603992462,1.1032217741012573,0.009010255336761475
1773146095085441800,14.87544189453125,0.4381427764892578,1.2168426513671875,-0.11438442766666412
1773146095098452700,14.88845263671875,0.4500546157360077,1.300683856010437,-0.2851211428642273
1773146095111463700,14.901463623046874,0.490677148103714,1.3593268394470215,-0.46425724029541016
1773146095124475000,14.914474853515625,0.5697841048240662,1.3932298421859741,-0.6108647584915161
1773146095137485800,14.92748583984375,0.6214022040367126,1.3206896781921387,-0.7257073521614075
1773146095150496800,14.940496826171875,0.596662163734436,1.2127193212509155,-0.7863357067108154
1773146095163508000,14.953508056640626,0.5270236134529114,1.1455241441726685,-0.7958040833473206
1773146095176519000,14.966518798828124,0.4422661066055298,1.1635446548461914,-0.754265308380127
1773146095189529900,14.97952978515625,0.3681987524032593,1.2212713956832886,-0.6939423680305481
1773146095202540800,14.992540771484375,0.3523162603378296,1.2551743984222412,-0.657290518283844
1773146095215551700,15.0055517578125,0.38530296087265015,1.266933560371399,-0.6059778332710266
1773146095228563000,15.01856298828125,0.43203410506248474,1.2290599346160889,-0.5187768936157227
1773146095241574000,15.031573974609374,0.4842630624771118,1.1452187299728394,-0.4222602844238281
1773146095254584800,15.044584716796875,0.5456549525260925,1.0645846128463745,-0.3481929302215576
1773146095267595800,15.057595703125,0.5981893539428711,1.0128138065338135,-0.32452189922332764
1773146095280607000,15.07060693359375,0.6382009983062744,0.9928079843521118,-0.32421648502349854
1773146095293618000,15.083617919921876,0.6646208763122559,0.9915862679481506,-0.31810784339904785
1773146095306628900,15.09662890625,0.6641627550125122,0.9732602834701538,-0.2997818887233734
1773146095319639800,15.109639892578125,0.6340776681900024,0.952949047088623,-0.2545779049396515
1773146095332650800,15.122650634765625,0.5827649831771851,0.9240856766700745,-0.1844811588525772
1773146095345662000,15.135661865234376,0.5245801210403442,0.8938478827476501,-0.10461059212684631
1773146095358673000,15.1486728515625,0.47723811864852905,0.8852958083152771,-0.022449281066656113
1773146095371683800,15.161683837890624,0.4427242577075958,0.8987348079681396,0.06062832847237587
1773146095384694800,15.17469482421875,0.4234820008277893,0.9082031846046448,0.1302669197320938
1773146095397706000,15.1877060546875,0.4173733592033386,0.9155336022377014,0.17027856409549713
1773146095410717000,15.200717041015626,0.41126471757888794,0.9253074526786804,0.18127411603927612
1773146095423727900,15.213727783203124,0.407599538564682,0.916297197341919,0.18814635276794434
1773146095436738800,15.22673876953125,0.42271843552589417,0.8962913751602173,0.1795942485332489
1773146095449749800,15.239749755859375,0.43860089778900146,0.8886555433273315,0.13240493834018707
1773146095462761000,15.252760986328125,0.46838057041168213,0.9277508854866028,0.05696314200758934
1773146095475772000,15.26577197265625,0.5065596103668213,0.9700532555580139,-0.026878049597144127
1773146095488782800,15.278782958984374,0.5309942364692688,0.9700532555580139,-0.09575305134057999
1773146095501793800,15.291793701171875,0.5497782826423645,0.9436333775520325,-0.12660172581672668
1773146095514805000,15.304804931640625,0.5725330114364624,0.8657481074333191,-0.11163553595542908
1773146095527816000,15.31781591796875,0.5815432667732239,0.7286089658737183,-0.0691804364323616
1773146095540827000,15.330826904296876,0.558788537979126,0.5713112950325012,-0.0256563201546669
1773146095553837800,15.343837890625,0.5045742988586426,0.4430296719074249,-0.02764163166284561
1773146095566848800,15.356848876953125,0.45127636194229126,0.38927358388900757,-0.06643154472112656
1773146095579860000,15.36985986328125,0.3990474045276642,0.41095927357673645,-0.11728604137897491
1773146095592871000,15.382870849609375,0.34208428859710693,0.47326749563217163,-0.18814635276794434
1773146095605881900,15.3958818359375,0.2952004075050354,0.5627591609954834,-0.2594648003578186
1773146095618892800,15.408892822265624,0.25411975383758545,0.6165152788162231,-0.31841325759887695
1773146095631904000,15.421904052734375,0.21258094906806946,0.5994110703468323,-0.3787361681461334
1773146095644915000,15.4349150390625,0.20647229254245758,0.5338957905769348,-0.4202749729156494
1773146095657926000,15.44792578125,0.26022839546203613,0.4381427764892578,-0.4202749729156494
1773146095670936800,15.460936767578126,0.35796675086021423,0.3107774555683136,-0.3987419903278351
1773146095683947800,15.47394775390625,0.4540252387523651,0.17837251722812653,-0.34987279772758484
1773146095696959000,15.486958984375,0.49602219462394714,0.050549060106277466,-0.2675587832927704
1773146095709970000,15.499969970703125,0.47036588191986084,-0.08552107214927673,-0.1954767256975174
1773146095722980900,15.51298095703125,0.41462448239326477,-0.16569706797599792,-0.17837251722812653
1773146095735991800,15.52599169921875,0.4182896614074707,-0.263435423374176,-0.2003636509180069
1773146095749003000,15.5390029296875,0.38652467727661133,-0.30863943696022034,-0.20479241013526917
1773146095762014000,15.552013916015625,0.41492989659309387,-0.36285367608070374,-0.1156061589717865
1773146095775025000,15.56502490234375,0.4764745235443115,-0.4263836145401001,0.0334448479115963
1773146095788035800,15.578035888671875,0.46624255180358887,-0.4903717041015625,0.145843967795372
1773146095801047000,15.591047119140624,0.41004297137260437,-0.48181959986686707,0.17302745580673218
1773146095814058000,15.60405810546875,0.31719154119491577,-0.3926333487033844,0.11927134543657303
1773146095827069000,15.61706884765625,0.1747073233127594,-0.2744309902191162,0.05085449293255806
1773146095840080000,15.630079833984375,-0.0386371985077858,-0.2695440948009491,0.04566214233636856
1773146095853090800,15.6430908203125,-0.2724456787109375,-0.4231765866279602,0.13561198115348816
1773146095866102000,15.65610205078125,-0.4805978536605835,-0.6272054314613342,0.2487746775150299
1773146095879113000,15.669113037109375,-0.6079631447792053,-0.7628173828125,0.3119991719722748
1773146095892124000,15.6821240234375,-0.6345357894897461,-0.7367029190063477,0.35185810923576355
1773146095905134800,15.695134765625,-0.754570722579956,-0.6589703559875488,0.2741255760192871
1773146095918146000,15.70814599609375,-0.7286089658737183,-0.5477929711341858,0.301003634929657
1773146095931157000,15.721156982421874,-0.5119046568870544,-0.5184714794158936,0.29245150089263916
1773146095944168000,15.73416796875,-0.41095927357673645,-0.3107774555683136,0.3413206934928894
1773146095957179000,15.747178955078125,-0.31154105067253113,-0.23625195026397705,0.4036289155483246
1773146095970190000,15.760190185546875,-0.2528980076313019,-0.22235478460788727,0.41905322670936584
1773146095983201000,15.773200927734376,-0.19425499439239502,-0.20204351842403412,0.401949018239975
1773146095996212000,15.7862119140625,-0.125074565410614,-0.10063996911048889,0.39629852771759033
1773146096009223000,15.799222900390625,-0.026878049597144127,-0.13851359486579895,0.3266599476337433
1773146096022234000,15.812234130859375,0.04932733252644539,0.034666575491428375,0.3078758418560028
1773146096035245000,15.8252451171875,0.14462223649024963,-0.020311253145337105,0.19792018830776215
1773146096048256000,15.838256103515626,0.162031888961792,0.16783510148525238,0.10384701192378998
1773146096061267000,15.851266845703124,0.12996147572994232,0.2724456787109375,-0.08109229803085327
1773146096074278000,15.86427783203125,0.05299251899123192,0.3779725730419159,-0.27977606654167175
1773146096087289000,15.8772890625,-0.017104214057326317,0.4292852282524109,-0.46227192878723145
1773146096100300000,15.890300048828125,-0.0513126403093338,0.5074759125709534,-0.5517635941505432
1773146096113311000,15.90331103515625,-0.010995565913617611,0.5624537467956543,-0.5600103139877319
1773146096126322000,15.916322021484374,0.07498364895582199,0.6165152788162231,-0.5138899683952332
1773146096139333000,15.9293330078125,0.16615521907806396,0.754570722579956,-0.48823368549346924
1773146096152344000,15.942343994140625,0.3364337682723999,1.1797325611114502,-0.5502364635467529
1773146096165355000,15.95535498046875,0.48991355299949646,1.4448479413986206,-0.5229002237319946
1773146096178366000,15.968365966796876,0.47357290983200073,1.4298816919326782,-0.513584554195404
1773146096191377000,15.981376953125,0.512668251991272,1.266933560371399,-0.3966039717197418
1773146096204388000,15.99438818359375,0.47723811864852905,1.0885610580444336,-0.31719154119491577
1773146096217399000,16.00739892578125,0.42562004923820496,0.972496747970581,-0.2663370370864868
1773146096230410000,16.020409912109375,0.3860665261745453,0.9578359723091125,-0.25121814012527466
1773146096243421000,16.0334208984375,0.38530296087265015,0.9903645515441895,-0.24724751710891724
1773146096256432000,16.04643212890625,0.4137081801891327,1.0128138065338135,-0.25091269612312317
1773146096269443000,16.059443115234377,0.4454731345176697,1.029459834098816,-0.2643517255783081
1773146096282454000,16.0724541015625,0.4557051360607147,1.0067051649093628,-0.2932150959968567
1773146096295465000,16.08546484375,0.3990474045276642,0.9854776263237,-0.3237583339214325
1773146096308476000,16.098475830078126,0.3416261374950409,0.9350812435150146,-0.35185810923576355
1773146096321487000,16.111487060546875,0.34574946761131287,0.9578359723091125,-0.2851211428642273
1773146096334498000,16.124498046875,0.3196350038051605,0.9537126421928406,-0.208152174949646
1773146096347509000,16.137509033203123,0.3220784664154053,0.9773836731910706,-0.13515383005142212
1773146096360520000,16.15052001953125,0.3379609286785126,1.0074687004089355,-0.09361502528190613
1773146096373531100,16.16353125,0.35475972294807434,1.0071632862091064,-0.09453132748603821
1773146096386542000,16.1765419921875,0.37094762921333313,0.9790635108947754,-0.11194097250699997
1773146096399553000,16.189552978515625,0.37949973344802856,0.8950695991516113,-0.1153007298707962
1773146096412564000,16.20256396484375,0.38438665866851807,0.7794634699821472,-0.08872810751199722
1773146096425575000,16.215574951171874,0.3966039717197418,0.6580541133880615,-0.04108065739274025
1773146096438586000,16.228586181640626,0.4085158109664917,0.5429060459136963,0.03298669680953026
1773146096451597000,16.24159716796875,0.4271472096443176,0.44638943672180176,0.0899498388171196
1773146096464608000,16.25460791015625,0.46059203147888184,0.43692103028297424,0.10430516302585602
