time,seconds_elapsed,z,y,x
1773232830407987000,0.268987060546875,-1.0983339548110962,-0.7623069882392883,-0.17808599770069122
1773232830417896700,0.278896728515625,-0.5507979989051819,-1.1400059461593628,-0.6373950242996216
1773232830427805700,0.2888056640625,-0.5507979989051819,-1.1400059461593628,-0.6373950242996216
1773232830437715700,0.2987158203125,-0.5507979989051819,-1.1400059461593628,-0.6373950242996216
1773232830447625500,0.30862548828125,-0.5507979989051819,-1.1400059461593628,-0.6373950242996216
1773232830457535700,0.31853564453125,-0.5507979989051819,-1.1400059461593628,-0.6373950242996216
1773232830467445500,0.328445556640625,-0.5507979989051819,-1.1400059461593628,-0.6373950242996216
1773232830477355300,0.338355224609375,-0.5507979989051819,-1.1400059461593628,-0.6373950242996216
1773232830487265500,0.348265625,-0.5507979989051819,-1.1400059461593628,-0.6373950242996216
1773232830497175300,0.35817529296875,-3.083216905593872,0.19331200420856476,1.2280240058898926
1773232830507085000,0.3680849609375,-2.012489080429077,0.09860499948263168,-1.4006099700927734
1773232830516995300,0.377995361328125,0.13613900542259216,0.28733399510383606,-2.7578039169311523
1773232830526905000,0.387905029296875,1.14382004737854,0.5534570217132568,-2.8397929668426514
1773232830536814800,0.39781494140625,0.7747489809989929,0.8482840061187744,-0.591392993927002
1773232830546724900,0.407724853515625,0.04054800048470497,1.2429670095443726,2.708549976348877
1773232830556635000,0.417634765625,0.010389000177383423,1.2475130558013916,6.490011215209961
1773232830566544600,0.427544677734375,0.8499839901924133,1.2422200441360474,7.8088507652282715
1773232830576454700,0.43745458984375,3.2601120471954346,1.0450299978256226,6.091255187988281
1773232830586364700,0.44736474609375,5.488773822784424,0.9047629833221436,3.5549519062042236
1773232830596274700,0.457274658203125,5.740762233734131,1.4541150331497192,0.4123629927635193
1773232830606184700,0.467184814453125,4.984766006469727,1.9763970375061035,-1.9062069654464722
1773232830616094500,0.477094482421875,4.4625630378723145,2.0624630451202393,-3.4992079734802246
1773232830626004200,0.487004150390625,4.262962818145752,2.3668670654296875,-3.8638880252838135
1773232830635914500,0.49691455078125,3.959933042526245,2.6521921157836914,-1.8756109476089478
1773232830645824300,0.50682421875,3.71053409576416,3.1113998889923096,1.5672459602355957
1773232830655734300,0.516734375,4.118393898010254,3.4776480197906494,3.7603960037231445
1773232830665644300,0.526644287109375,4.330358028411865,3.1200480461120605,4.659430027008057
1773232830675554300,0.53655419921875,3.8843319416046143,3.0753889083862305,3.9387218952178955
1773232830685464300,0.54646435546875,4.14870023727417,3.347498893737793,1.8880939483642578
1773232830695374000,0.5563740234375,5.826172828674316,3.1015219688415527,-0.10543499886989594
1773232830705284400,0.566284423828125,7.849645137786865,3.496838092803955,-1.4755059480667114
1773232830715194000,0.576194091796875,8.216202735900879,3.3159499168395996,-1.5578219890594482
1773232830725104000,0.586104248046875,7.053390979766846,3.1750919818878174,-0.7047020196914673
1773232830735014100,0.59601416015625,5.706682205200195,3.349721908569336,-0.24921099841594696
1773232830744924000,0.605923828125,4.26906681060791,3.254638910293579,-0.414328008890152
1773232830754834000,0.615833984375,3.124316930770874,3.068237066268921,-0.17672300338745117
1773232830764744000,0.625743896484375,2.9471399784088135,2.8525569438934326,0.18628700077533722
1773232830774654000,0.635654052734375,3.2552061080932617,2.9487829208374023,0.2632389962673187
1773232830784563700,0.645563720703125,4.194364070892334,2.762665033340454,1.3795299530029297
1773232830794473700,0.6554736328125,4.967747211456299,2.9581329822540283,2.7634830474853516
1773232830804383700,0.6653837890625,5.368563175201416,3.0400729179382324,3.4965779781341553
1773232830814293500,0.67529345703125,5.354557991027832,3.0478739738464355,2.920243978500366
1773232830824203500,0.68520361328125,4.615013122558594,2.748807907104492,2.0751678943634033
1773232830834113500,0.695113525390625,3.5419669151306152,2.573172092437744,1.7953389883041382
1773232830844023300,0.705023193359375,3.1089909076690674,2.5015740394592285,0.9205520153045654
1773232830853933600,0.71493359375,2.6194911003112793,2.4814109802246094,0.3846589922904968
1773232830863843300,0.72484326171875,2.569830894470215,2.4463980197906494,0.11364900320768356
1773232830873753300,0.73475341796875,2.8912339210510254,2.360943078994751,-0.15477800369262695
1773232830883663400,0.744663330078125,2.7351810932159424,2.540570020675659,0.3542819917201996
1773232830893573400,0.754573486328125,1.8147170543670654,2.629359006881714,1.3622679710388184
1773232830903483100,0.764483154296875,1.0296339988708496,2.522538900375366,1.5539859533309937
1773232830913393200,0.77439306640625,0.23660500347614288,2.2916018962860107,0.5325210094451904
1773232830923303200,0.78430322265625,1.2618199586868286,1.63468599319458,-0.19916899502277374
1773232830938168000,0.79916796875,2.227940082550049,1.892382025718689,-0.17205800116062164
1773232830948078000,0.809078125,0.6048179864883423,2.658740997314453,0.16881899535655975
1773232830957988000,0.818988037109375,0.2980169951915741,1.7933549880981445,0.42076000571250916
1773232830967897900,0.82889794921875,0.3960669934749603,0.6764569878578186,1.0859249830245972
1773232830977808100,0.83880810546875,0.18515700101852417,0.7436559796333313,2.114825963973999
1773232830987718000,0.8487177734375,0.06466499716043472,1.252992033958435,3.099487066268921
1773232830997628000,0.8586279296875,0.022619999945163727,0.770576000213623,3.5187981128692627
1773232831007538000,0.868537841796875,-0.19213800132274628,-0.49259400367736816,3.7467339038848877
1773232831017447700,0.87844775390625,-0.1717350035905838,-1.2507590055465698,4.087588787078857
1773232831027357700,0.888357666015625,0.29315900802612305,-2.0726089477539062,4.843376159667969
1773232831037267700,0.898267822265625,1.4257320165634155,-2.289639949798584,4.912044048309326
1773232831047177500,0.908177490234375,3.352292060852051,-2.8188140392303467,3.773287057876587
1773232831057087500,0.91808740234375,5.101058006286621,-3.7294259071350098,2.4369590282440186
1773232831066997500,0.92799755859375,6.736839771270752,-3.8458709716796875,1.5301120281219482
1773232831076907500,0.937907470703125,7.88868522644043,-3.9702749252319336,1.5982669591903687
1773232831086817300,0.9478173828125,7.629258155822754,-4.443161964416504,2.5562729835510254
1773232831096727600,0.9577275390625,6.478297233581543,-3.191818952560425,3.307097911834717
1773232831106637300,0.96763720703125,5.768301963806152,-2.5241310596466064,4.548986911773682
1773232831116547000,0.977547119140625,6.519270896911621,-2.383992910385132,5.654207229614258
1773232831126457000,0.98745703125,6.635855197906494,-1.1950759887695312,6.189541816711426
1773232831136367000,0.9973671875,6.780447006225586,-1.9171359539031982,6.1924967765808105
1773232831146276900,1.00727685546875,5.686328887939453,-1.2617599964141846,6.160927772521973
1773232831156187100,1.017187255859375,3.437588930130005,-1.9941010475158691,4.988829135894775
1773232831166097000,1.027096923828125,1.171576976776123,-1.7056989669799805,5.861208915710449
1773232831176006700,1.037006591796875,-4.450211048126221,-2.317138910293579,6.346023082733154
1773232831185917000,1.0469169921875,-9.776260375976562,-0.9841709733009338,3.5753018856048584
1773232831195826700,1.05682666015625,-12.88192367553711,-1.7577279806137085,2.8729379177093506
1773232831205736700,1.06673681640625,-14.045781135559082,-2.39211106300354,1.4902080297470093
1773232831215646700,1.076646728515625,-17.735666275024414,-2.2982709407806396,-0.05820000171661377
1773232831225556700,1.086556640625,-15.620798110961914,-1.357862949371338,-2.1317861080169678
1773232831235466500,1.096466552734375,-11.087459564208984,-2.5613911151885986,-2.028269052505493
1773232831245376500,1.10637646484375,-5.915352821350098,-1.2825779914855957,-3.009613037109375
1773232831255286500,1.11628662109375,-0.8113440275192261,-0.4214380085468292,-4.710631847381592
1773232831265196500,1.126196533203125,12.775248527526855,0.4083009958267212,-7.854674816131592
1773232831275106600,1.1361064453125,24.757097244262695,3.0648250579833984,-7.705508232116699
1773232831289971500,1.150971435546875,0.5520619750022888,3.7601799964904785,-6.479780197143555
1773232831299881200,1.160881103515625,-3.355600118637085,2.5265650749206543,-10.078590393066406
1773232831314746000,1.17574609375,8.614209175109863,1.941902995109558,-17.41904067993164
1773232831324656400,1.185656494140625,7.745016098022461,2.5974080562591553,-19.156343460083008
1773232831334566100,1.195566162109375,3.11409592628479,1.5905569791793823,-17.9245662689209
1773232831344476200,1.20547607421875,6.5977959632873535,1.9515830278396606,-10.389646530151367
1773232831354386200,1.21538623046875,7.509897232055664,4.503037929534912,-3.8433101177215576
1773232831364296000,1.2252958984375,10.190366744995117,6.289238929748535,-1.1135469675064087
1773232831374206000,1.2352060546875,12.240217208862305,6.664544105529785,-3.3177499771118164
1773232831384116000,1.245115966796875,11.181099891662598,5.572068214416504,-8.486346244812012
1773232831394025700,1.255025634765625,6.502431869506836,4.047685146331787,-9.955794334411621
1773232831403935700,1.264935791015625,3.9941539764404297,3.0984890460968018,-9.299753189086914
1773232831413845500,1.274845458984375,4.557082176208496,2.925657033920288,-8.938728332519531
1773232831428710700,1.289710693359375,7.153948783874512,2.687406063079834,-5.563212871551514
1773232831438620400,1.299620361328125,8.772774696350098,1.9145339727401733,-2.4156908988952637
1773232831448530700,1.30953076171875,9.126166343688965,3.2439420223236084,-3.038266897201538
1773232831458440400,1.3194404296875,7.913891792297363,3.0431060791015625,-4.700623035430908
1773232831478260500,1.339260498046875,-0.14737600088119507,-1.0184329748153687,-6.165572166442871
1773232831493125400,1.35412548828125,-9.703134536743164,-0.9831200242042542,1.9505410194396973
1773232831503035400,1.364035400390625,-7.2383527755737305,-0.2562499940395355,4.658023834228516
1773232831512945200,1.373945068359375,-3.7826120853424072,1.219920039176941,4.947014808654785
1773232831522855200,1.383855224609375,-1.127027988433838,2.1322720050811768,4.39275598526001
1773232831532765000,1.393764892578125,0.24480600655078888,1.6594630479812622,4.722330093383789
1773232831542675000,1.403675048828125,0.2754350006580353,2.0700631141662598,4.783383846282959
1773232831552585000,1.4135849609375,-1.4851100444793701,2.0160200595855713,6.012578010559082
1773232831562495000,1.423494873046875,-0.6554949879646301,0.6058419942855835,6.244762897491455
1773232831572405000,1.433405029296875,-0.27279001474380493,0.2501809895038605,7.628201961517334
1773232831582315000,1.44331494140625,0.572987973690033,0.4260460138320923,7.038808822631836
1773232831592225000,1.45322509765625,-0.9541879892349243,-0.9528160095214844,5.505105018615723
1773232831602134800,1.463134765625,-2.505552053451538,-4.076700210571289,4.568546772003174
1773232831612044800,1.473044921875,-2.7139430046081543,-6.133554935455322,3.184436082839966
1773232831621954800,1.482954833984375,-1.9809139966964722,-6.750609874725342,1.7817800045013428
1773232831631864800,1.49286474609375,-1.214890956878662,-6.928300857543945,2.020982027053833
1773232831641774600,1.502774658203125,0.26843899488449097,-6.4032368659973145,2.6064250469207764
1773232831651684600,1.5126845703125,2.5777220726013184,-4.172325134277344,2.067023992538452
1773232831661594600,1.5225947265625,4.211156845092773,-2.241774082183838,4.001863956451416
1773232831671504400,1.53250439453125,5.321243762969971,-0.6353989839553833,5.724690914154053
1773232831681414400,1.542414306640625,6.170388221740723,-0.2782849967479706,5.930365085601807
1773232831691324400,1.552324462890625,6.240023136138916,-1.564231038093567,6.924499034881592
1773232831701234200,1.562234130859375,1.2641639709472656,-1.474444031715393,9.798118591308594
1773232831711144400,1.57214453125,-2.448093891143799,-1.671947956085205,6.747376918792725
1773232831721054200,1.58205419921875,-3.6072049140930176,-4.158154010772705,4.900049209594727
1773232831730964200,1.591964111328125,-2.452570915222168,-2.7324368953704834,2.5335400104522705
1773232831740874200,1.601874267578125,2.686429977416992,-1.0804970264434814,-1.115414023399353
1773232831750784300,1.6117841796875,3.202436923980713,-0.11308100074529648,-1.6470129489898682
1773232831760694000,1.621694091796875,-0.808784008026123,0.29651200771331787,-2.2015230655670166
1773232831770604000,1.63160400390625,-4.172584056854248,1.0309879779815674,-4.314194202423096
1773232831780514000,1.64151416015625,-4.885798931121826,0.8968210220336914,-5.280111789703369
1773232831790424000,1.651424072265625,-3.281125068664551,0.9461609721183777,-6.638930797576904
1773232831800333800,1.661333740234375,0.010607999749481678,0.30655500292778015,-6.720905780792236
1773232831810243800,1.671243896484375,3.27958607673645,0.11842899769544601,-6.883196830749512
1773232831820153600,1.681153564453125,3.585982084274292,0.29508501291275024,-6.02384090423584
1773232831830063600,1.691063720703125,1.6053839921951294,0.12834200263023376,-5.613978862762451
1773232831839973600,1.7009736328125,2.4717519283294678,-0.72297602891922,-3.1685879230499268
1773232831849883600,1.710883544921875,3.007657051086426,-0.8124579787254333,-1.3045400381088257
1773232831859793700,1.720793701171875,2.960092067718506,-1.0217519998550415,0.42177000641822815
1773232831869703400,1.730703369140625,1.3604350090026855,-0.7749699950218201,-0.4158810079097748
1773232831879613700,1.74061376953125,-0.043811000883579254,-0.4120430052280426,-0.8921210169792175
1773232831889523500,1.7505234375,-0.07167799770832062,-0.6389380097389221,0.991562008857727
1773232831899433200,1.76043310546875,0.7754179835319519,-1.1757969856262207,3.767833948135376
1773232831909343500,1.770343505859375,0.49931100010871887,-1.369636058807373,3.593564987182617
1773232831919253200,1.780253173828125,0.010858000256121159,-1.0351300239562988,2.5152220726013184
1773232831929163300,1.790163330078125,1.157876968383789,-1.1049799919128418,1.4894850254058838
1773232831939073300,1.8000732421875,2.5351459980010986,-1.6352449655532837,0.22472499310970306
1773232831948983000,1.809983154296875,3.3895089626312256,-1.7247719764709473,-0.9807360172271729
1773232831958893000,1.81989306640625,3.110182046890259,-1.5284819602966309,-0.5586190223693848
1773232831968803000,1.829802978515625,1.6702150106430054,-1.7820910215377808,0.49928298592567444
1773232831978713000,1.839713134765625,-0.28659000992774963,-1.9463340044021606,0.3450529873371124
1773232831988622800,1.849622802734375,-0.47922301292419434,-2.170464038848877,0.6088849902153015
1773232831998533000,1.859533203125,-0.03406300023198128,-2.5237619876861572,0.853738009929657
1773232832008443000,1.86944287109375,-0.08777400106191635,-2.742492914199829,0.9000880122184753
1773232832018352600,1.8793525390625,0.28821900486946106,-2.693984031677246,0.398730993270874
1773232832028263000,1.889262939453125,0.9536539912223816,-2.8114891052246094,-2.118324041366577
1773232832038172700,1.899172607421875,1.6023310422897339,-2.5747649669647217,-5.685492038726807
1773232832048082700,1.909082763671875,2.2164978981018066,-1.2758389711380005,-7.607688903808594
1773232832057992700,1.91899267578125,2.314008951187134,0.4941380023956299,-5.621338844299316
1773232832067902700,1.92890283203125,1.6223959922790527,2.1765189170837402,0.21361899375915527
1773232832077812500,1.9388125,1.4380520582199097,2.2940990924835205,3.467864990234375
1773232832087722500,1.948722412109375,1.5552200078964233,1.9773939847946167,4.838012218475342
1773232832097632500,1.958632568359375,1.8867360353469849,1.4051189422607422,3.8961169719696045
1773232832117452300,1.978452392578125,1.8897819519042969,0.5244870185852051,0.8303070068359375
1773232832127362300,1.9883623046875,1.6181809902191162,0.24746400117874146,-0.1807270050048828
1773232832137272300,1.998272216796875,1.300907015800476,-0.01896199956536293,-0.929049015045166
1773232832147182000,2.00818212890625,1.2510160207748413,0.011361000128090382,-1.0845420360565186
1773232832157092000,2.018092041015625,1.52925705909729,0.2391750067472458,-1.5554970502853394
1773232832167002000,2.028002197265625,1.4137769937515259,0.5343369841575623,-2.1501059532165527
1773232832176912100,2.037912109375,0.9900879859924316,0.622098982334137,-2.0020530223846436
1773232832186822000,2.04782177734375,0.09466700255870819,0.3963490128517151,-1.3232200145721436
1773232832196732000,2.05773193359375,-0.7953739762306213,0.3228380084037781,-0.5226190090179443
1773232832206642000,2.067641845703125,-0.9201520085334778,0.1966490000486374,-0.18021699786186218
1773232832216551700,2.0775517578125,-0.46247100830078125,-0.02114799991250038,-0.26725199818611145
1773232832226462000,2.0874619140625,-0.040150001645088196,-0.14164799451828003,-0.5733150243759155
1773232832236371700,2.097371826171875,0.3498609960079193,-0.3055349886417389,-0.9259830117225647
1773232832246282000,2.107281982421875,0.5809540152549744,-0.6901249885559082,-1.2394280433654785
1773232832256191700,2.117191650390625,0.33574798703193665,-0.9333360195159912,-0.8384770154953003
1773232832266101500,2.1271015625,-0.1025639995932579,-0.9071429967880249,-0.34339800477027893
1773232832276011500,2.137011474609375,-0.4354729950428009,-0.8246750235557556,-0.048076000064611435
1773232832285921500,2.146921630859375,-0.46354201436042786,-0.6132220029830933,-0.0020600000862032175
1773232832295831600,2.15683154296875,-0.367264986038208,-0.2928229868412018,-0.1332090049982071
1773232832305741600,2.166741455078125,-0.20975099503993988,-0.034182000905275345,-0.20633499324321747
1773232832315651600,2.176651611328125,-0.017474999651312828,0.17460599541664124,-0.4697059988975525
1773232832325561300,2.186561279296875,0.24213699996471405,0.2879529893398285,-0.6876779794692993
1773232832335471600,2.1964716796875,0.5306329727172852,0.3563059866428375,-1.013424038887024
1773232832345381400,2.20638134765625,0.9055950045585632,0.36755499243736267,-1.2003329992294312
1773232832355291400,2.21629150390625,1.3559260368347168,0.2688319981098175,-1.2588520050048828
1773232832365201200,2.226201171875,1.8664220571517944,0.15792299807071686,-1.1549550294876099
1773232832375111200,2.236111083984375,2.224252939224243,0.06362300366163254,-0.8065090179443359
1773232832385021200,2.246021240234375,2.3796870708465576,-0.013516999781131744,-0.2379319965839386
1773232832394931200,2.25593115234375,2.3249049186706543,-0.09425199776887894,0.17558899521827698
1773232832404841200,2.26584130859375,2.351284980773926,-0.19248999655246735,0.6471260190010071
1773232832414751000,2.2757509765625,2.686487913131714,-0.44244199991226196,1.0909819602966309
1773232832424661000,2.285660888671875,3.057267904281616,-0.5097839832305908,1.4115910530090332
1773232832434571000,2.295571044921875,3.008044958114624,-0.28481799364089966,2.0285840034484863
1773232832444480800,2.305480712890625,2.355379104614258,0.2502779960632324,1.9662400484085083
1773232832454390800,2.315390869140625,1.6852209568023682,0.4072900116443634,1.719141960144043
1773232832464300800,2.32530078125,1.2214770317077637,0.41491299867630005,1.506566047668457
1773232832474210600,2.33521044921875,0.8703600168228149,0.5000680088996887,1.0758320093154907
1773232832484120800,2.345120849609375,0.5093460083007812,0.4637239873409271,0.4746110141277313
1773232832494030600,2.355030517578125,0.17040500044822693,0.4661720097064972,-0.12579500675201416
1773232832503940600,2.364940673828125,0.0065100002102553844,0.4781540036201477,-0.682699978351593
1773232832513850600,2.3748505859375,-0.15578000247478485,0.5909450054168701,-0.9178500175476074
1773232832523760400,2.384760498046875,-0.1588039994239807,0.6729869842529297,-1.365291953086853
1773232832533670400,2.39467041015625,-0.10481800138950348,0.8307690024375916,-1.7921019792556763
1773232832543580400,2.404580322265625,-0.0338359996676445,0.9569540023803711,-1.951172947883606
1773232832553490200,2.414490234375,0.17945200204849243,0.9846590161323547,-1.9263750314712524
1773232832563400400,2.424400390625,0.5113379955291748,1.0520050525665283,-1.8483150005340576
1773232832573310200,2.434310302734375,0.7859489917755127,1.185675024986267,-1.5556670427322388
1773232832583220000,2.444219970703125,1.0613269805908203,1.31175696849823,-1.2963550090789795
1773232832593130200,2.454130126953125,1.063683032989502,1.4209649562835693,-1.186715006828308
1773232832603040000,2.4640400390625,0.7082729935646057,1.4597100019454956,-1.0646660327911377
1773232832612950000,2.473949951171875,0.22985300421714783,1.5032789707183838,-0.9850599765777588
1773232832622860000,2.483860107421875,-0.14494800567626953,1.5471010208129883,-0.7817220091819763
1773232832632770000,2.49377001953125,-0.4025860130786896,1.428805947303772,-0.42860400676727295
1773232832642680000,2.50368017578125,-0.3430190086364746,0.7473040223121643,0.3931939899921417
1773232832652590000,2.513590087890625,-0.459196001291275,-0.42092299461364746,1.5430200099945068
1773232832662499800,2.523499755859375,-0.6564630270004272,-1.7908740043640137,2.716654062271118
1773232832672409900,2.533409912109375,-0.35482800006866455,-3.455885887145996,3.927931070327759
1773232832682319600,2.543319580078125,0.34961000084877014,-4.918820858001709,5.039975166320801
1773232832692229600,2.553229736328125,1.0903470516204834,-5.7069830894470215,5.868790149688721
1773232832702139600,2.5631396484375,1.671792984008789,-5.955743789672852,6.626654148101807
1773232832712049700,2.573049560546875,1.1808010339736938,-4.398871898651123,6.841386795043945
1773232832721959400,2.58295947265625,-0.24983200430870056,-1.0107959508895874,5.284097194671631
1773232832731869700,2.59286962890625,-1.7560290098190308,1.4376399517059326,3.794325113296509
1773232832741779700,2.60277978515625,-2.738586902618408,2.681256055831909,2.809098958969116
1773232832751689700,2.612689697265625,-2.924941062927246,3.0993690490722656,1.9205249547958374
1773232832761599500,2.622599609375,-2.8243649005889893,3.049838066101074,0.8985300064086914
1773232832771509500,2.632509521484375,-2.4474480152130127,2.556813955307007,-0.20352600514888763
1773232832781419500,2.64241943359375,-2.3746650218963623,1.7950810194015503,-1.3373630046844482
1773232832791329500,2.65232958984375,-2.46063494682312,1.0605449676513672,-2.1407220363616943
1773232832801239300,2.6622392578125,-2.0629711151123047,0.41605499386787415,-2.672790050506592
1773232832811149300,2.6721494140625,-1.1677409410476685,0.07696100324392319,-2.9867939949035645
1773232832821059300,2.682059326171875,-0.04838300123810768,-0.05704199895262718,-3.006704092025757
1773232832830969000,2.691968994140625,0.797203004360199,-0.1476449966430664,-2.6258130073547363
1773232832840879000,2.701879150390625,1.2554279565811157,-0.2220509946346283,-1.966488003730774
1773232832850789000,2.7117890625,1.3360320329666138,-0.16165199875831604,-1.2576570510864258
1773232832860699100,2.72169921875,1.112022042274475,-0.01827700063586235,-0.6431940197944641
1773232832870609200,2.731609130859375,0.8038520216941833,0.15556900203227997,-0.05368399992585182
1773232832880519000,2.741518798828125,0.477851003408432,0.21047000586986542,-0.035190001130104065
1773232832890429000,2.751428955078125,0.6187800168991089,0.1170009970664978,0.2792780101299286
1773232832900339000,2.7613388671875,0.6424340009689331,-0.021779000759124756,0.6816520094871521
1773232832910248700,2.771248779296875,0.3386090099811554,-0.15821599960327148,0.7695500254631042
1773232832920159000,2.781158935546875,-0.1769459992647171,-0.31435099244117737,0.5537260174751282
1773232832930068700,2.79106884765625,-0.6642929911613464,-0.4019179940223694,0.21347300708293915
1773232832939978800,2.800978759765625,-1.025122046470642,-0.5147410035133362,-0.062240999191999435
1773232832949888800,2.810888671875,-1.1840859651565552,-0.6743549704551697,-0.19676299393177032
1773232832959798500,2.820798583984375,-1.2417420148849487,-0.8323220014572144,-0.16715000569820404
1773232832969708500,2.83070849609375,-1.1514849662780762,-0.9093719720840454,-0.178506001830101
1773232832979618600,2.84061865234375,-0.9716079831123352,-0.828715980052948,-0.2702209949493408
1773232832989528600,2.850528564453125,-0.870078980922699,-0.6321719884872437,-0.40827998518943787
1773232832999438300,2.860438232421875,-0.876675009727478,-0.42866000533103943,-0.489331990480423
1773232833009348400,2.870348388671875,-0.9067839980125427,-0.2972959876060486,-0.5721279978752136
1773232833019258400,2.88025830078125,-0.8855469822883606,-0.2591879963874817,-0.5964480042457581
1773232833029168000,2.890168212890625,-0.7581549882888794,-0.31224098801612854,-0.5619919896125793
1773232833039078100,2.900078125,-0.5747280120849609,-0.34845298528671265,-0.5260080099105835
1773232833048988200,2.90998828125,-0.23258399963378906,-0.3406969904899597,-0.35840800404548645
1773232833058898200,2.919898193359375,0.1794240027666092,-0.3551119863986969,-0.0976250022649765
1773232833068808200,2.92980810546875,0.4662399888038635,-0.34360000491142273,0.25183001160621643
1773232833078718000,2.939718017578125,0.5387589931488037,-0.29475700855255127,0.6061909794807434
1773232833088628000,2.9496279296875,0.536732017993927,-0.350600004196167,0.8996999859809875
1773232833098538200,2.959538330078125,0.3932799994945526,-0.4425089955329895,1.0192559957504272
1773232833108447700,2.96944775390625,-0.009398999623954296,-0.5049870014190674,0.9415159821510315
1773232833118357800,2.979357666015625,-0.2642210125923157,-0.4904249906539917,0.662551999092102
1773232833128267800,2.989267822265625,-0.3499790132045746,-0.5058370232582092,0.3180130124092102
1773232833138177800,2.999177734375,-0.302266001701355,-0.5575709939002991,-0.0003000000142492354
1773232833148087800,3.009087890625,-0.067610003054142,-0.6300910115242004,-0.2613860070705414
1773232833157997600,3.01899755859375,0.2065570056438446,-0.4596349895000458,-0.5093299746513367
1773232833167907600,3.028907470703125,0.5863900184631348,-0.2588750123977661,-0.7851930260658264
1773232833177817600,3.038817626953125,0.7003830075263977,-0.20758800208568573,-1.064527988433838
1773232833187727600,3.0487275390625,0.5835610032081604,-0.3472509980201721,-1.3236650228500366
1773232833197637600,3.0586376953125,0.4222649931907654,-0.49912598729133606,-1.490807056427002
1773232833207547400,3.06854736328125,0.35877299308776855,-0.543874979019165,-1.4204339981079102
1773232833217457400,3.07845751953125,0.2907879948616028,-0.5009629726409912,-1.29817795753479
1773232833227367200,3.0883671875,0.3013710081577301,-0.3609969913959503,-1.175063967704773
1773232833237277400,3.09827734375,0.40284600853919983,-0.14527200162410736,-1.0268280506134033
1773232833247187200,3.108187255859375,0.6277639865875244,-0.0037750001065433025,-0.820330023765564
1773232833257097200,3.11809716796875,0.7553790211677551,0.04732900112867355,-0.806073009967804
1773232833267007200,3.12800732421875,0.731112003326416,0.162663996219635,-0.6906629800796509
1773232833276917000,3.1379169921875,0.7839019894599915,0.30688801407814026,-0.4531550109386444
1773232833286827300,3.1478271484375,1.0081490278244019,0.30418598651885986,-0.3318299949169159
1773232833296737000,3.157737060546875,1.1012979745864868,0.3072269856929779,-0.20251700282096863
1773232833306647300,3.167647216796875,1.1625059843063354,0.3278290033340454,-0.20276899635791779
1773232833316557000,3.17755712890625,1.380700945854187,0.24178799986839294,-0.20430800318717957
1773232833326467000,3.187467041015625,1.6830209493637085,0.107014000415802,-0.34735798835754395
1773232833336376800,3.197376953125,1.583266019821167,-0.02501099929213524,-1.125972032546997
1773232833346286800,3.207286865234375,1.3463170528411865,-0.025857999920845032,-1.7613309621810913
1773232833356196900,3.21719677734375,0.9111419916152954,-0.2535000145435333,-2.1329801082611084
1773232833366107000,3.22710693359375,1.9038970470428467,-0.24323000013828278,-2.4745140075683594
1773232833376016600,3.2370166015625,2.3522770404815674,-0.2815900146961212,-2.676326036453247
1773232833385926700,3.2469267578125,2.450911045074463,-0.31003299355506897,-2.8509879112243652
1773232833395836700,3.256836669921875,2.636167049407959,-0.4364759922027588,-3.1658968925476074
1773232833405746700,3.26674658203125,2.7276298999786377,-0.5582749843597412,-3.428679943084717
1773232833415656400,3.276656494140625,2.742064952850342,-0.8407019972801208,-3.585200071334839
1773232833425566700,3.286566650390625,2.772002935409546,-1.443984031677246,-3.449002981185913
1773232833435476500,3.2964765625,2.6640000343322754,-2.265028953552246,-3.145787000656128
1773232833445386500,3.306386474609375,2.444840908050537,-3.260807991027832,-2.7854549884796143
1773232833455296500,3.316296630859375,1.9934279918670654,-3.900170087814331,-2.387392044067383
1773232833465206300,3.326206298828125,1.185210943222046,-4.483102798461914,-2.2171099185943604
1773232833475116300,3.3361162109375,0.16181699931621552,-4.279858112335205,-1.5669740438461304
1773232833485026300,3.3460263671875,-0.014891999773681164,-3.6553330421447754,-0.8510259985923767
1773232833494936300,3.355936279296875,0.5613980293273926,-3.704587936401367,-0.5519710183143616
1773232833504846000,3.36584619140625,1.417965054512024,-4.401209831237793,-0.10284499824047089
1773232833514756000,3.375756103515625,2.5165278911590576,-5.209794998168945,0.6391270160675049
1773232833524666000,3.385666015625,3.619597911834717,-5.949786186218262,1.367658019065857
1773232833534575900,3.395575927734375,4.491629123687744,-5.7354278564453125,2.208184003829956
1773232833544486000,3.40548583984375,5.031342029571533,-4.890398025512695,2.2214128971099854
1773232833554396000,3.41539599609375,4.810173034667969,-4.49210786819458,1.5831660032272339
1773232833564306000,3.425305908203125,3.8642818927764893,-4.560165882110596,0.8340380191802979
1773232833574216000,3.4352158203125,2.320889949798584,-4.529327869415283,0.5103780031204224
1773232833584125700,3.445125732421875,0.3966600000858307,-4.090884208679199,0.9409499764442444
1773232833594035500,3.455035400390625,-1.4095300436019897,-3.4498069286346436,1.959162950515747
1773232833603945700,3.46494580078125,-2.522865056991577,-2.7700119018554688,2.310986042022705
1773232833613855500,3.47485546875,-3.489980936050415,-2.1958069801330566,2.034466028213501
1773232833623765500,3.484765625,-3.849731922149658,-1.7301419973373413,1.1157339811325073
1773232833633675500,3.494675537109375,-3.5721559524536133,-1.4224560260772705,0.5813760161399841
1773232833643585300,3.504585205078125,-3.7070369720458984,-1.4691489934921265,0.5593810081481934
1773232833653495600,3.51449560546875,-3.48649001121521,-1.8387370109558105,0.8444499969482422
1773232833663405300,3.5244052734375,-2.70747709274292,-2.395051956176758,0.7024139761924744
1773232833673315300,3.5343154296875,-0.4567610025405884,-3.0062029361724854,-0.02737399935722351
1773232833683225300,3.544225341796875,2.30849289894104,-3.580167055130005,-1.0314639806747437
1773232833693135000,3.554135009765625,3.2293689250946045,-4.002947807312012,-2.3845479488372803
1773232833703045000,3.564045166015625,2.4562339782714844,-4.188467979431152,-3.412393093109131
1773232833712955100,3.573955078125,0.8046299815177917,-4.385299205780029,-3.1554789543151855
1773232833722865200,3.583865234375,-1.2120360136032104,-4.219167232513428,-1.8038450479507446
1773232833732775000,3.59377490234375,-2.5932860374450684,-3.844897985458374,-0.6659939885139465
1773232833742685000,3.603684814453125,-2.1936450004577637,-2.867460012435913,1.6475889682769775
1773232833752595000,3.613594970703125,-1.799193024635315,-1.5796329975128174,4.525323867797852
1773232833762504700,3.623504638671875,-2.5384039878845215,-0.31225600838661194,5.985633850097656
1773232833772415000,3.6334150390625,-3.6627941131591797,0.11496300250291824,6.574067115783691
1773232833782324700,3.64332470703125,-4.087193012237549,-0.41913700103759766,6.306960105895996
1773232833792234800,3.65323486328125,-3.7484750747680664,-0.998399019241333,4.8408308029174805
1773232833802144800,3.663144775390625,-3.0817649364471436,-0.6757990121841431,3.1201279163360596
1773232833812054800,3.6730546875,-2.8644330501556396,-0.502348005771637,2.3124589920043945
1773232833821964500,3.682964599609375,-3.1146039962768555,-0.3179070055484772,2.533550977706909
1773232833831874600,3.69287451171875,-3.4146149158477783,0.038088999688625336,2.95468807220459
1773232833841784600,3.70278466796875,-3.5576729774475098,0.4074679911136627,3.329745054244995
1773232833851694300,3.7126943359375,-4.1774468421936035,0.7379350066184998,3.9400808811187744
1773232833861604400,3.722604248046875,-4.4696831703186035,1.3244919776916504,4.699419975280762
1773232833871514400,3.732514404296875,-4.583172798156738,1.7796640396118164,4.692584991455078
1773232833881424400,3.74242431640625,-4.974425792694092,2.2754499912261963,4.488850116729736
1773232833891334100,3.752334228515625,-5.379576206207275,2.776318073272705,4.666482925415039
1773232833901244200,3.762244140625,-5.508631229400635,3.32580304145813,5.172036170959473
1773232833911154200,3.772154296875,-5.578845024108887,3.7092208862304688,5.645709991455078
1773232833921064000,3.78206396484375,-5.739950180053711,3.9921998977661133,5.8579559326171875
1773232833930974000,3.791973876953125,-5.706249237060547,4.187004089355469,5.805247783660889
1773232833940884000,3.801884033203125,-5.722463130950928,4.1899590492248535,5.529726028442383
1773232833950794000,3.8117939453125,-5.54837703704834,4.217263221740723,5.507695198059082
1773232833960703700,3.821703857421875,-5.385538101196289,4.089274883270264,5.487040042877197
1773232833970613800,3.83161376953125,-5.237657070159912,3.863753080368042,5.263037204742432
1773232833980523800,3.841523681640625,-5.0711669921875,3.5035109519958496,4.340289115905762
1773232833990433500,3.85143359375,-4.742940902709961,3.4737350940704346,3.9551150798797607
1773232834000343800,3.86134375,-4.531223773956299,3.6998629570007324,3.315514087677002
1773232834010253600,3.871253662109375,-4.545248985290527,3.9308009147644043,2.8128368854522705
1773232834020163600,3.88116357421875,-4.521984100341797,3.848750114440918,2.392848014831543
1773232834030073600,3.891073486328125,-4.539074897766113,3.522012948989868,2.1227850914001465
1773232834039983400,3.9009833984375,-4.843968868255615,3.0469119548797607,1.7606500387191772
1773232834049893400,3.910893310546875,-5.385001182556152,2.4634110927581787,1.6642429828643799
1773232834059803400,3.920803466796875,-4.605414867401123,1.9350459575653076,2.0793728828430176
1773232834069713400,3.93071337890625,1.8257310390472412,1.3968149423599243,2.08605694770813
1773232834079623200,3.940623046875,5.150284767150879,-1.5945329666137695,-0.4933770000934601
1773232834089533400,3.950533447265625,5.412234783172607,-7.604061126708984,-2.1841518878936768
1773232834099443200,3.960443115234375,2.619828939437866,-15.235191345214844,-5.977036952972412
1773232834109353000,3.97035302734375,4.152921199798584,-22.370838165283203,-12.947555541992188
1773232834119263000,3.980262939453125,4.9072980880737305,-26.19255256652832,-17.755542755126953
1773232834129173000,3.990173095703125,5.155519962310791,-23.629980087280273,-14.61148452758789
1773232834139083000,4.0000830078125,3.845628023147583,-14.89880084991455,-5.0502119064331055
1773232834148993000,4.009992919921875,3.687851905822754,-6.804568767547607,2.1265029907226562
1773232834158903000,4.019903076171875,0.8305559754371643,-0.9949190020561218,5.7959418296813965
1773232834168812800,4.029812744140625,-1.6714260578155518,2.3418900966644287,7.670115947723389
1773232834178722600,4.03972265625,-1.7174930572509766,4.3182291984558105,8.761540412902832
1773232834188632800,4.0496328125,-2.291027069091797,4.983870029449463,8.645012855529785
1773232834198542600,4.05954248046875,-2.392704963684082,4.750924110412598,6.946474075317383
1773232834208452600,4.06945263671875,-1.360759973526001,3.8677799701690674,4.511159896850586
1773232834218362600,4.079362548828125,-1.0282939672470093,2.5833239555358887,2.6673190593719482
1773232834228272400,4.0892724609375,-1.57389497756958,0.715034008026123,1.7578070163726807
1773232834238182700,4.0991826171875,-1.8906869888305664,-2.096782922744751,1.8608789443969727
1773232834248092400,4.109092529296875,-1.9278030395507812,-4.551416873931885,1.753082036972046
1773232834258002200,4.119002197265625,-2.109041929244995,-6.069090843200684,1.0756529569625854
1773232834267912400,4.128912353515625,-2.5367910861968994,-6.601396083831787,0.026851000264286995
1773232834277822200,4.138822265625,-2.8712940216064453,-5.7303948402404785,-0.2180439978837967
1773232834287732200,4.148732177734375,-2.9350900650024414,-3.8412179946899414,0.2705549895763397
1773232834297642200,4.158642333984375,-2.904413938522339,-1.8759829998016357,0.31973499059677124
1773232834307552000,4.168552001953125,-2.3608949184417725,-0.12790100276470184,-0.29864099621772766
1773232834317462000,4.1784619140625,-2.0984559059143066,1.214874029159546,-0.8899189829826355
1773232834327371800,4.188371826171875,-1.7235660552978516,2.1935958862304688,-1.258442997932434
1773232834337281800,4.19828173828125,-1.6744049787521362,2.677475929260254,-1.6688950061798096
1773232834347192000,4.208192138671875,-1.803989052772522,2.796360969543457,-1.9106450080871582
1773232834357101600,4.2181015625,-1.6929099559783936,2.7911460399627686,-1.9133540391921997
1773232834367011800,4.22801171875,-1.144974946975708,2.8065340518951416,-1.788051962852478
1773232834376921600,4.237921630859375,-0.4775170087814331,2.818737030029297,-1.5904779434204102
1773232834386831600,4.24783154296875,0.46377599239349365,2.8357350826263428,-1.339480996131897
1773232834396741600,4.25774169921875,1.1580179929733276,2.6983630657196045,-0.948307991027832
1773232834406651600,4.267651611328125,1.1849210262298584,2.2722229957580566,-0.5342190265655518
1773232834416561400,4.2775615234375,1.0593730211257935,1.7786550521850586,-0.46150800585746765
1773232834426471400,4.287471435546875,0.9042320251464844,1.380823016166687,-0.4386819899082184
1773232834436381200,4.297381103515625,0.6108570098876953,1.3784949779510498,-0.2343599945306778
1773232834446291200,4.307291259765625,0.46925899386405945,1.5335869789123535,0.2964020073413849
1773232834456201200,4.317201171875,0.2167380005121231,1.755316972732544,0.6188759803771973
1773232834466111200,4.327111328125,-0.01593800075352192,1.8686809539794922,0.581807017326355
1773232834476021000,4.33702099609375,-0.2695370018482208,1.8988070487976074,0.20964600145816803
1773232834485931000,4.346930908203125,-0.30513298511505127,1.8988670110702515,-0.07999499887228012
1773232834495841000,4.356841064453125,-0.4968569874763489,1.8333660364151,-0.2829189896583557
1773232834505750800,4.366750732421875,-0.580394983291626,1.6658949851989746,-0.0981139987707138
1773232834515660800,4.376660888671875,-0.5163549780845642,1.2682369947433472,-0.19889399409294128
1773232834525570800,4.38657080078125,-0.3678160011768341,0.6448889970779419,-0.25102299451828003
1773232834535480600,4.39648046875,-0.27739500999450684,0.07041700184345245,-0.14664499461650848
1773232834545390600,4.406390625,-0.2107129991054535,-0.3316740095615387,0.18178899586200714
1773232834555300600,4.416300537109375,0.32431599497795105,-0.7040309906005859,1.1663349866867065
1773232834565210400,4.42621044921875,1.6212830543518066,-1.2191979885101318,1.5998890399932861
1773232834575120400,4.436120361328125,2.8753130435943604,-1.6910630464553833,1.3011929988861084
1773232834585030400,4.446030517578125,3.489419937133789,-1.6926690340042114,0.2684360146522522
1773232834594940400,4.4559404296875,3.034296989440918,-1.0745710134506226,-1.5431129932403564
1773232834604850200,4.46585009765625,1.993582010269165,-0.3180049955844879,-3.500459909439087
1773232834614760200,4.47576025390625,1.2692559957504272,0.11245399713516235,-5.014294147491455
1773232834624670200,4.485670166015625,0.8455049991607666,0.1612270027399063,-6.028662204742432
1773232834634580000,4.495580078125,0.7020270228385925,0.0005559999844990671,-6.114147186279297
1773232834644490200,4.505490234375,0.6945899724960327,-0.2784389853477478,-5.7368550300598145
1773232834654400000,4.51539990234375,0.6414269804954529,-0.664683997631073,-5.2691569328308105
1773232834664310000,4.52531005859375,0.43153101205825806,-1.2104929685592651,-4.789918899536133
1773232834674219800,4.5352197265625,0.22697600722312927,-2.0716168880462646,-4.706406116485596
1773232834684129800,4.5451298828125,0.01460499968379736,-2.8653430938720703,-4.6120429039001465
1773232834694039800,4.555039794921875,-0.15505599975585938,-3.5917398929595947,-4.377352237701416
1773232834703949600,4.564949462890625,-0.2378470003604889,-4.280126094818115,-3.792638063430786
1773232834713859600,4.574859619140625,-0.40686801075935364,-5.025510787963867,-2.8815360069274902
1773232834723769600,4.58476953125,-0.463595986366272,-5.847309112548828,-1.6724929809570312
1773232834733679400,4.594679443359375,-0.4730919897556305,-6.49930477142334,-0.2263610064983368
1773232834743589600,4.604589599609375,-0.18268799781799316,-7.042938232421875,0.8894950151443481
1773232834753499400,4.61449951171875,0.6765289902687073,-7.653374195098877,1.5097399950027466
1773232834763409400,4.624409423828125,2.210721969604492,-8.363908767700195,2.243211030960083
1773232834773319400,4.6343193359375,3.92021107673645,-8.692737579345703,3.12384295463562
1773232834783229200,4.644229248046875,5.480144023895264,-8.096439361572266,3.768091917037964
1773232834793139200,4.65413916015625,6.679195880889893,-6.58048677444458,4.081863880157471
1773232834803049200,4.66404931640625,6.882485866546631,-5.025403022766113,3.1725549697875977
1773232834812959200,4.673959228515625,6.1368088722229,-3.7698330879211426,1.839879035949707
1773232834822869000,4.683868896484375,4.809385776519775,-3.1625709533691406,0.4156070053577423
1773232834832779000,4.693779052734375,3.3354079723358154,-2.9370129108428955,-0.8778480291366577
1773232834842689000,4.70368896484375,1.8559199571609497,-2.685098886489868,-1.8823050260543823
1773232834852598800,4.713598876953125,0.9626139998435974,-2.0697340965270996,-2.7647299766540527
1773232834862508800,4.7235087890625,-0.9009940028190613,-1.1378509998321533,-2.9136838912963867
1773232834872418800,4.733418701171875,-5.47976016998291,-0.44015198945999146,-2.3941919803619385
1773232834882328600,4.74332861328125,-10.28900146484375,0.1719689965248108,-3.5261919498443604
1773232834892238600,4.753238525390625,-13.101249694824219,-0.027946000918745995,-4.358154773712158
1773232834902148400,4.7631484375,-12.955741882324219,-0.784837007522583,-3.871316909790039
1773232834912058400,4.773058349609375,-7.9587202072143555,-1.7297090291976929,-2.198767900466919
1773232834921968400,4.782968505859375,0.25556299090385437,-2.588468074798584,-1.2687989473342896
1773232834931878400,4.79287841796875,4.301685810089111,-3.1176939010620117,-0.39546999335289
1773232834941788200,4.8027880859375,1.9618090391159058,-2.767469882965088,0.23826199769973755
1773232834951698200,4.8126982421875,0.047575000673532486,-2.8113880157470703,0.2510389983654022
1773232834961608200,4.822608154296875,1.1033129692077637,-3.5076329708099365,0.7832120060920715
1773232834971518200,4.832518310546875,3.9337830543518066,-4.150455951690674,2.2844738960266113
1773232834981428000,4.842427978515625,4.3520379066467285,-4.258351802825928,3.534590005874634
1773232834991338000,4.852337890625,2.3166680335998535,-3.5802431106567383,4.775320053100586
1773232835001248000,4.862248046875,-2.8674631118774414,-2.2656140327453613,6.185184955596924
1773232835011157800,4.87215771484375,-6.627793788909912,-0.7468649744987488,4.8835577964782715
1773232835021067800,4.88206787109375,-5.824923992156982,0.024674000218510628,3.310019016265869
1773232835030977500,4.8919775390625,-4.254016876220703,0.10749900341033936,4.484042167663574
1773232835040887600,4.901887451171875,-2.6324219703674316,-0.18073999881744385,5.550763130187988
1773232835050797600,4.911797607421875,-2.2310709953308105,-0.48436999320983887,6.087160110473633
1773232835060707300,4.921707275390625,-3.406980037689209,-0.7467740178108215,6.0417962074279785
1773232835070617600,4.93161767578125,-5.029051780700684,-0.8690590262413025,5.277345180511475
1773232835080527400,4.94152734375,-5.198379039764404,-1.0487589836120605,4.273560047149658
1773232835090437400,4.951437255859375,-4.508449077606201,-1.0483109951019287,4.3568620681762695
1773232835100347400,4.961347412109375,-4.1966118812561035,-0.9102180004119873,5.385951995849609
1773232835110257400,4.97125732421875,-4.272829055786133,-0.5119569897651672,5.816394805908203
1773232835120167200,4.981167236328125,-4.509133815765381,0.12805800139904022,6.269514083862305
1773232835130077200,4.9910771484375,-4.8470139503479,0.6796200275421143,6.578265190124512
1773232835139987200,5.0009873046875,-5.301346778869629,1.1623480319976807,6.975647926330566
1773232835149897000,5.01089697265625,-5.867484092712402,1.694219946861267,7.2234978675842285
1773232835159807000,5.020806884765625,-6.3241801261901855,2.2099618911743164,7.535120010375977
1773232835169717000,5.030717041015625,-6.285400867462158,2.5420351028442383,7.522705078125
1773232835179626800,5.040626708984375,-5.930668830871582,2.898905038833618,7.174037933349609
1773232835189537000,5.050537109375,-5.816157817840576,3.4524760246276855,6.414111137390137
1773232835199446800,5.06044677734375,-5.666380882263184,3.8652560710906982,5.506708145141602
1773232835209356800,5.070356689453125,-5.446959972381592,4.087161064147949,4.27842378616333
1773232835219266600,5.0802666015625,-4.415703773498535,4.279043197631836,3.742295026779175
1773232835229176600,5.090176513671875,-4.062510013580322,4.475851058959961,3.2725980281829834
1773232835239086600,5.100086669921875,-4.610675811767578,4.137343883514404,0.7750099897384644
1773232835248996400,5.109996337890625,-6.801864147186279,3.421884059906006,1.3158860206604004
1773232835258906600,5.11990673828125,-9.283893585205078,2.589569091796875,4.30637788772583
1773232835268816400,5.12981640625,-7.4081292152404785,1.9136279821395874,5.7289347648620605
1773232835278726400,5.139726318359375,3.2407379150390625,2.001275062561035,5.108317852020264
1773232835288636400,5.149636474609375,12.85350513458252,0.7900890111923218,1.924414038658142
1773232835298546200,5.159546142578125,4.950516223907471,-4.488018035888672,-3.9088199138641357
1773232835308456200,5.169456298828125,-5.579784870147705,-11.878670692443848,-9.074350357055664
1773232835318366000,5.179365966796875,-0.6039419770240784,-20.111589431762695,-15.935319900512695
1773232835328276000,5.18927587890625,8.106404304504395,-25.895767211914062,-24.49201774597168
1773232835338186000,5.19918603515625,9.087332725524902,-24.992570877075195,-22.454313278198242
1773232835348096000,5.209095947265625,4.118146896362305,-15.242988586425781,-6.914231777191162
1773232835358005800,5.219005859375,1.7391669750213623,-4.388422966003418,0.8080189824104309
1773232835367915800,5.228915771484375,-2.4974920749664307,1.345350980758667,4.252219200134277
1773232835377825800,5.23882568359375,-3.415968894958496,4.171791076660156,6.741888999938965
1773232835387735800,5.24873583984375,-2.2421600818634033,6.007963180541992,8.579179763793945
1773232835397645600,5.2586455078125,-1.8209550380706787,6.766077995300293,8.252825736999512
1773232835407555600,5.2685556640625,-1.0198580026626587,6.760007858276367,6.032887935638428
1773232835417465600,5.278465576171875,-1.0789309740066528,6.5918169021606445,3.6964778900146484
1773232835427375400,5.288375244140625,-2.3923439979553223,5.417757987976074,1.8337719440460205
1773232835437285400,5.298285400390625,-2.7267799377441406,2.3973569869995117,2.3690550327301025
1773232835447195100,5.308195068359375,-2.3617899417877197,-1.5785930156707764,3.7813398838043213
1773232835457105400,5.31810546875,-1.9081939458847046,-5.196091175079346,2.758965015411377
1773232835467015200,5.32801513671875,-2.0960240364074707,-7.79543399810791,1.1099979877471924
1773232835476925200,5.33792529296875,-1.2357800006866455,-9.084588050842285,0.43647301197052
1773232835486835200,5.347835205078125,0.0890669971704483,-9.22146224975586,0.7537980079650879
1773232835496745000,5.357744873046875,-0.0840969979763031,-6.278083801269531,1.4558709859848022
1773232835506655200,5.3676552734375,-1.1615749597549438,-2.7186279296875,2.040958881378174
1773232835516565000,5.37756494140625,-1.2879290580749512,-0.34291398525238037,1.923043966293335
1773232835526474800,5.387474853515625,-0.702705979347229,1.3127349615097046,1.3118230104446411
1773232835536384800,5.397384765625,-0.7187209725379944,2.3272390365600586,0.5692639946937561
1773232835546294800,5.407294677734375,-1.0404740571975708,2.897942066192627,0.03522900119423866
1773232835556204500,5.41720458984375,-1.3664599657058716,3.24200701713562,-0.4903709888458252
1773232835566114600,5.427114501953125,-1.467147946357727,3.4232521057128906,-0.9341260194778442
1773232835576024600,5.437024658203125,-1.1721550226211548,3.4245049953460693,-1.26145601272583
1773232835585934600,5.4469345703125,-0.8652380108833313,3.3533079624176025,-1.4775880575180054
1773232835595844400,5.45684423828125,-0.556132972240448,3.300950050354004,-1.6903419494628906
1773232835605754400,5.46675439453125,0.09294000267982483,3.1626169681549072,-1.739527940750122
1773232835615664400,5.476664306640625,0.9691500067710876,2.8840770721435547,-1.7329250574111938
1773232835625574100,5.48657421875,1.4770270586013794,2.6413910388946533,-1.3977530002593994
1773232835635484200,5.496484130859375,1.3290619850158691,2.5699820518493652,-1.0452769994735718
1773232835645394200,5.506394287109375,0.777292013168335,2.598133087158203,-0.8551959991455078
1773232835655304200,5.51630419921875,0.26250800490379333,2.5490849018096924,-0.8243070244789124
1773232835665214000,5.5262138671875,0.03648199886083603,2.425995111465454,-0.7429959774017334
1773232835675123700,5.536123779296875,-0.05052600055932999,2.216291904449463,-0.6957749724388123
1773232835685034000,5.546033935546875,-0.18970899283885956,2.0976979732513428,-0.7650330066680908
1773232835694943700,5.55594384765625,-0.25291600823402405,1.9713590145111084,-0.7491499781608582
1773232835704853500,5.565853515625,0.15837599337100983,1.583659052848816,-0.7763940095901489
1773232835714763800,5.575763671875,0.37303900718688965,1.1699140071868896,-0.6734470129013062
1773232835724673500,5.585673583984375,0.3166620135307312,0.7218030095100403,-0.4889320135116577
1773232835734583600,5.59558349609375,0.0663750022649765,0.3151020109653473,-0.2610760033130646
1773232835744493600,5.60549365234375,-0.015534999780356884,-0.0191430002450943,0.26510798931121826
1773232835754403600,5.615403564453125,0.22067900002002716,-0.1435769945383072,0.4725619852542877
1773232835764313300,5.625313232421875,0.8904420137405396,-0.23416000604629517,0.6019110083580017
1773232835774223400,5.635223388671875,1.4062520265579224,-0.3126539885997772,0.24308599531650543
1773232835784133400,5.64513330078125,1.3901159763336182,-0.309688001871109,-0.554768979549408
1773232835794043100,5.655043212890625,0.9490360021591187,-0.23304399847984314,-1.6997740268707275
1773232835803953200,5.664953125,0.026384999975562096,-0.0611799992620945,-2.8789680004119873
1773232835813863200,5.67486328125,-0.785785973072052,-0.0870710015296936,-3.9236249923706055
1773232835823773000,5.68477294921875,-1.039057970046997,-0.3268449902534485,-4.766054153442383
1773232835833683200,5.69468310546875,-0.6403110027313232,-0.8268420100212097,-5.3633317947387695
1773232835843593000,5.704593017578125,0.45896899700164795,-1.4626330137252808,-5.70840311050415
1773232835853503000,5.7145029296875,1.9300960302352905,-1.8846240043640137,-5.819029808044434
1773232835863412700,5.724412841796875,3.1373870372772217,-2.220897912979126,-5.913966178894043
1773232835873322800,5.73432275390625,3.267832040786743,-2.6643691062927246,-6.045368194580078
1773232835883232800,5.744232666015625,2.3507449626922607,-3.366518974304199,-6.052401065826416
1773232835893142500,5.754142578125,1.0678459405899048,-4.308909893035889,-5.923365116119385
1773232835903052500,5.764052490234375,-0.07457800209522247,-5.277967929840088,-5.54748010635376
1773232835912962600,5.773962646484375,-0.5570120215415955,-6.4089531898498535,-5.065300941467285
1773232835922872600,5.78387255859375,-0.13389800488948822,-7.5695719718933105,-4.185435771942139
1773232835932782300,5.7937822265625,1.2563140392303467,-8.566364288330078,-2.3733139038085938
1773232835942692400,5.8036923828125,3.580950975418091,-9.013547897338867,0.6098229885101318
1773232835952602000,5.81360205078125,6.064146041870117,-9.056389808654785,3.5193569660186768
1773232835962512100,5.82351220703125,7.840304851531982,-8.907955169677734,5.369294166564941
1773232835972422100,5.833422119140625,8.256009101867676,-8.237393379211426,5.511582851409912
1773232835982332200,5.843332275390625,7.512800216674805,-7.13486909866333,4.37184476852417
1773232835992242000,5.853241943359375,5.937835216522217,-6.074739933013916,3.3022260665893555
1773232836002152200,5.863152099609375,4.038651943206787,-5.262331008911133,2.8862030506134033
1773232836012062000,5.87306201171875,2.092505931854248,-4.509772777557373,2.616931915283203
1773232836021972000,5.882971923828125,0.43124499917030334,-3.6520490646362305,2.1795079708099365
1773232836031882000,5.892882080078125,-0.9251469969749451,-2.7877979278564453,1.5966119766235352
1773232836041791700,5.902791748046875,-2.37034010887146,-1.9684139490127563,0.972000002861023
1773232836051701500,5.912701416015625,-4.0206451416015625,-1.2272499799728394,-0.40396299958229065
1773232836061611500,5.922611572265625,-6.16758394241333,-0.5592989921569824,-2.0957090854644775
1773232836071521500,5.932521484375,-8.827669143676758,-0.14471299946308136,-3.4815049171447754
1773232836081431600,5.942431640625,-8.853351593017578,-0.04672199860215187,-4.238561153411865
1773232836091341300,5.95234130859375,-5.898016929626465,-0.5056489706039429,-4.022340774536133
1773232836101251000,5.9622509765625,-1.90248703956604,-1.1596120595932007,-3.2726690769195557
1773232836111161300,5.972161376953125,1.7367600202560425,-1.9738550186157227,-2.022367000579834
1773232836121071000,5.982071044921875,3.9382779598236084,-2.7755799293518066,-0.728950023651123
1773232836130981000,5.991981201171875,4.528580188751221,-3.382917881011963,-0.14751200377941132
1773232836140891100,6.00189111328125,3.7486538887023926,-4.231651782989502,0.12916199862957
1773232836150801000,6.01180078125,2.1885740756988525,-5.314877986907959,1.1415799856185913
1773232836160710700,6.021710693359375,0.7224410176277161,-5.860072135925293,2.814826011657715
1773232836170620700,6.03162060546875,-0.604000985622406,-5.47186279296875,4.912474155426025
1773232836180530700,6.04153076171875,-2.7313520908355713,-3.9577810764312744,5.746150970458984
1773232836190440700,6.051440673828125,-4.704466819763184,-2.4710628986358643,4.933112144470215
1773232836200350500,6.0613505859375,-4.275414943695068,-1.4845010042190552,4.222187042236328
1773232836210260500,6.071260498046875,-2.853419065475464,-0.9394469857215881,5.282680988311768
1773232836220170500,6.08117041015625,-3.482383966445923,-0.4835439920425415,6.535824775695801
1773232836230080300,6.091080322265625,-4.50531005859375,-0.22500799596309662,6.673274993896484
1773232836239990500,6.100990478515625,-4.876395225524902,-0.08899299800395966,5.983790874481201
1773232836249900300,6.110900390625,-4.012740135192871,-0.04280500113964081,4.785178184509277
1773232836259810000,6.12081005859375,-2.9850409030914307,-0.23369400203227997,3.704116106033325
1773232836269720000,6.130719970703125,-3.1041150093078613,-0.6153460144996643,3.5251429080963135
1773232836279630000,6.140630126953125,-3.719719886779785,-0.9359830021858215,3.723052978515625
1773232836289540000,6.1505400390625,-4.385825157165527,-0.9965280294418335,4.540079116821289
1773232836299449900,6.160449951171875,-5.337992191314697,-0.5670539736747742,4.954906940460205
1773232836309359900,6.17035986328125,-5.945556163787842,0.1515900045633316,5.471703052520752
1773232836319269600,6.18026953125,-5.656376838684082,0.8866609930992126,6.546614170074463
1773232836329179600,6.1901796875,-5.185210227966309,1.5267970561981201,7.343515872955322
1773232836339089700,6.200089599609375,-5.250126838684082,2.098375082015991,7.8138909339904785
1773232836348999400,6.20999951171875,-5.874680042266846,2.701620101928711,7.938237190246582
1773232836358909700,6.21990966796875,-6.398159027099609,3.261599063873291,7.484127044677734
1773232836368819500,6.2298193359375,-6.208527088165283,3.48675799369812,6.887041091918945
1773232836378729200,6.239729248046875,-5.915470123291016,3.3230628967285156,6.378260135650635
1773232836388639200,6.24963916015625,-5.760912895202637,3.029629945755005,6.495176792144775
1773232836398549200,6.25954931640625,-5.6911139488220215,2.8968710899353027,6.310088157653809
1773232836408459000,6.269458984375,-5.11273717880249,3.0184969902038574,5.721083164215088
1773232836418369000,6.279369140625,-3.9365921020507812,2.879556894302368,4.736163139343262
1773232836428279000,6.289279052734375,-2.2338879108428955,2.4894630908966064,4.134195804595947
1773232836438189000,6.29918896484375,-0.8330699801445007,2.194084882736206,2.912492036819458
1773232836448098800,6.309098876953125,-0.940625011920929,2.097554922103882,-0.795054018497467
1773232836458008800,6.3190087890625,-1.9860810041427612,2.072376012802124,-6.161250114440918
1773232836467918600,6.328918701171875,-3.673671007156372,1.8717000484466553,-7.1693267822265625
1773232836477828600,6.33882861328125,-5.098611831665039,1.6714320182800293,-6.3802361488342285
1773232836487738600,6.348738525390625,-5.7566962242126465,1.4976600408554077,-5.7128801345825195
1773232836497648400,6.3586484375,-5.666409015655518,1.1310169696807861,-4.713315010070801
1773232836507558400,6.368558349609375,-1.4699410200119019,0.5562719702720642,-1.5880060195922852
1773232836517468400,6.378468505859375,10.44045352935791,-1.0128200054168701,1.6589239835739136
1773232836527378200,6.388378173828125,14.056116104125977,-5.483351230621338,-0.04574299976229668
1773232836537288200,6.3982880859375,10.650053024291992,-13.065295219421387,-5.3834919929504395
1773232836547198000,6.408197998046875,0.30652299523353577,-19.592586517333984,-12.203020095825195
1773232836557108000,6.41810791015625,-5.562070846557617,-20.672012329101562,-12.960323333740234
1773232836567018000,6.42801806640625,-0.7977340221405029,-17.56041717529297,-6.585320949554443
1773232836576927700,6.437927734375,4.901297092437744,-11.438365936279297,1.7475700378417969
1773232836586838000,6.447838134765625,-0.018921000882983208,-5.508062839508057,4.013707160949707
1773232836596747800,6.457747802734375,-4.475956916809082,-0.6494470238685608,5.897934913635254
1773232836606657800,6.46765771484375,-2.485079050064087,3.1879959106445312,7.672039031982422
1773232836616567600,6.477567626953125,-0.6861990094184875,5.646020889282227,6.743884086608887
1773232836626477600,6.4874775390625,-2.825911045074463,5.674079895019531,5.1558661460876465
1773232836636387300,6.49738720703125,-4.568803787231445,2.39984393119812,5.857700824737549
1773232836646297300,6.50729736328125,-3.597115993499756,-1.6405969858169556,7.236306190490723
1773232836656207000,6.51720703125,-1.9549870491027832,-4.697844982147217,6.888298988342285
1773232836666117000,6.5271171875,-1.9171030521392822,-6.6378397941589355,5.449767112731934
1773232836676027100,6.537027099609375,-2.1096739768981934,-7.3649468421936035,3.786648988723755
1773232836685937000,6.54693701171875,-2.4810030460357666,-7.283257961273193,2.383862018585205
1773232836695847000,6.556846923828125,-2.875572919845581,-6.586944103240967,1.5435949563980103
1773232836705757000,6.5667568359375,-3.0907490253448486,-5.373305797576904,1.0874489545822144
1773232836715667000,6.5766669921875,-3.5579209327697754,-4.245059013366699,0.4916110038757324
1773232836725576700,6.58657666015625,-3.588418960571289,-3.4035770893096924,0.1539050042629242
1773232836735486700,6.59648681640625,-3.3270950317382812,-2.901686906814575,-0.16034400463104248
1773232836745396700,6.606396728515625,-2.898437023162842,-2.5674118995666504,-0.30703499913215637
1773232836755306500,6.616306396484375,-2.6537981033325195,-2.3009068965911865,-0.48201900720596313
1773232836765216500,6.626216552734375,-1.854287028312683,-1.7721669673919678,-0.39896300435066223
1773232836775126300,6.636126220703125,-1.7034670114517212,-1.164957046508789,-0.08903200179338455
1773232836785036000,6.6460361328125,-1.8731939792633057,-0.5944399833679199,0.4288269877433777
1773232836794946300,6.6559462890625,-2.0812649726867676,0.040762998163700104,0.8199589848518372
1773232836804856000,6.66585595703125,-2.2115159034729004,0.5641480088233948,0.951994001865387
1773232836814766000,6.67576611328125,-1.8965810537338257,0.9687709808349609,1.0337860584259033
1773232836824675800,6.68567578125,-1.0614570379257202,1.1752790212631226,1.0658010244369507
1773232836834585900,6.6955859375,-0.8091930150985718,1.011499047279358,0.9914839863777161
1773232836844496000,6.705495849609375,-0.6382009983062744,1.022001028060913,1.392009973526001
1773232836854405600,6.715405517578125,-0.7307379841804504,1.1656179428100586,1.7449510097503662
1773232836864315600,6.725315673828125,-1.1410460472106934,1.1829429864883423,1.8072459697723389
1773232836874225400,6.735225341796875,-1.0090680122375488,1.1965880393981934,1.648705005645752
1773232836884135400,6.745135498046875,-0.48987600207328796,1.0685640573501587,1.6686869859695435
1773232836894045400,6.75504541015625,-0.8721070289611816,0.872331976890564,1.2459830045700073
1773232836903955200,6.764955078125,-1.3133000135421753,0.7955449819564819,0.7687749862670898
1773232836913865000,6.774864990234375,-1.3951599597930908,0.8780699968338013,0.6243460178375244
1773232836928730000,6.789730224609375,-1.3947720527648926,1.0924140214920044,0.35732200741767883
1773232836938640000,6.799639892578125,-0.8448420166969299,1.386922001838684,0.13543100655078888
1773232836948550000,6.8095498046875,-0.017009999603033066,1.6524430513381958,-0.05757800117135048
1773232836958460000,6.8194599609375,0.09892900288105011,1.464614987373352,-0.38259899616241455
1773232836968369700,6.82936962890625,-0.3515689969062805,1.1312769651412964,-0.39841699600219727
1773232836978279700,6.83927978515625,-0.44494301080703735,0.8170890212059021,-0.0022899999748915434
1773232836988189400,6.849189453125,-0.40420299768447876,0.47016599774360657,0.36679598689079285
1773232836998099500,6.859099365234375,-0.3491170108318329,0.15501199662685394,0.654420018196106
1773232837008009500,6.869009521484375,-0.31098899245262146,-0.1438709944486618,0.8247029781341553
1773232837017919200,6.878919189453125,-0.3574100136756897,-0.4071759879589081,0.9060159921646118
1773232837027829000,6.8888291015625,-0.29566699266433716,-0.529932975769043,0.9851430058479309
1773232837037739000,6.898739013671875,-0.1935420036315918,-0.47617700695991516,1.0188490152359009
1773232837047649000,6.90864892578125,-0.0016949999844655395,-0.3343369960784912,0.9325209856033325
1773232837057559000,6.91855908203125,0.44206398725509644,-0.2144709974527359,0.8576279878616333
1773232837067468800,6.92846875,0.8614270091056824,-0.250542014837265,0.5735740065574646
1773232837077378600,6.938378662109375,1.0160319805145264,-0.4627799987792969,-0.3471119999885559
1773232837087288800,6.948288818359375,1.0295690298080444,-0.6228119730949402,-1.549306035041809
1773232837097198600,6.958198486328125,0.5644109845161438,-0.5936130285263062,-2.576620101928711
1773232837107108400,6.9681083984375,-0.21280799806118011,-0.3806540071964264,-3.2246859073638916
1773232837117018400,6.978018310546875,-0.5971980094909668,-0.09356100112199783,-3.1200459003448486
1773232837126928100,6.98792822265625,-0.28184598684310913,0.08698099851608276,-2.8199310302734375
1773232837136838100,6.997838134765625,0.6927970051765442,0.38616499304771423,-2.5832560062408447
1773232837146748200,7.007748046875,1.6709920167922974,0.7871500253677368,-2.108069896697998
1773232837156658200,7.017658203125,2.2128710746765137,1.1385610103607178,-1.2701259851455688
1773232837166568000,7.02756787109375,2.0138790607452393,0.9962559938430786,-0.8879050016403198
1773232837176477700,7.037477783203125,1.4866750240325928,0.6960639953613281,-0.4003030061721802
1773232837186387700,7.0473876953125,0.9516609907150269,0.4534359872341156,0.27413100004196167
1773232837196297700,7.057297607421875,0.18022499978542328,0.2621909976005554,0.6084110140800476
1773232837206207500,7.06720751953125,-0.7506780028343201,0.17086000740528107,0.820572018623352
1773232837216117500,7.077117431640625,-1.6105220317840576,-0.004685999825596809,0.6557729840278625
1773232837226027300,7.08702734375,-2.0143699645996094,-0.2979840040206909,0.13142399489879608
1773232837235937000,7.09693701171875,-1.7793289422988892,-0.547510027885437,-0.22904300689697266
1773232837245847000,7.106846923828125,-0.9589800238609314,-0.7508779764175415,-0.5095160007476807
1773232837255757000,7.116757080078125,0.6206330060958862,-0.9845089912414551,-0.74549400806427
1773232837265666800,7.126666748046875,2.70379900932312,-1.1497139930725098,-0.860243022441864
1773232837275576800,7.136576904296875,4.287143230438232,-1.4120969772338867,-1.5102620124816895
1773232837285486800,7.14648681640625,5.0331220626831055,-1.9402990341186523,-2.3980939388275146
1773232837295396600,7.156396728515625,5.1728949546813965,-2.6815319061279297,-2.83331298828125
1773232837305306600,7.166306640625,4.852687835693359,-3.3558099269866943,-2.8223869800567627
1773232837315216400,7.17621630859375,4.591818809509277,-4.1369829177856445,-2.634471893310547
1773232837325126700,7.186126708984375,4.3260722160339355,-5.308856010437012,-2.032996892929077
1773232837335036400,7.196036376953125,4.261092185974121,-6.152784824371338,-1.163661003112793
1773232837344946200,7.2059462890625,5.191830158233643,-6.701626777648926,-0.4753209948539734
1773232837354856200,7.215856201171875,5.4701972007751465,-6.539874076843262,0.5212219953536987
1773232837364766000,7.225765869140625,3.7675490379333496,-5.798532962799072,1.927163004875183
1773232837374676000,7.235676025390625,1.4629759788513184,-5.455615997314453,3.093801975250244
1773232837384585700,7.245585693359375,-1.040505051612854,-5.4075541496276855,4.186862945556641
1773232837394495700,7.255495849609375,-3.269913911819458,-5.695077896118164,4.798585891723633
1773232837404405800,7.26540576171875,-4.714239120483398,-5.953970909118652,5.239922046661377
1773232837414315500,7.2753154296875,-4.5158491134643555,-6.266005992889404,4.911575794219971
1773232837424225300,7.285225341796875,-2.741610050201416,-6.7308149337768555,4.026847839355469
1773232837434135300,7.29513525390625,0.2649979889392853,-7.082845211029053,3.591326951980591
1773232837444045000,7.305045166015625,2.970844030380249,-6.749435901641846,3.6186680793762207
1773232837453955000,7.314955078125,2.9530770778656006,-5.698257923126221,2.7343270778656006
1773232837463865000,7.324864990234375,1.7560980319976807,-4.489192962646484,1.2480549812316895
1773232837473774800,7.33477490234375,0.9405609965324402,-3.2355239391326904,1.3452260494232178
1773232837483684900,7.344684814453125,0.7571489810943604,-2.367495059967041,2.032672882080078
1773232837493594600,7.3545947265625,0.6065729856491089,-1.8512929677963257,2.8794219493865967
1773232837503504600,7.364504638671875,-0.19930699467658997,-1.7554579973220825,3.6151909828186035
1773232837513414700,7.37441455078125,-0.36234599351882935,-1.9591660499572754,3.7909460067749023
1773232837523324400,7.384324462890625,0.09426499903202057,-2.250915050506592,4.11381196975708
1773232837533234200,7.394234130859375,0.45486998558044434,-2.5408151149749756,4.659710884094238
1773232837543144200,7.404144287109375,0.5310729742050171,-2.7675089836120605,5.047895908355713
1773232837553054000,7.414053955078125,0.3548159897327423,-2.9685258865356445,5.263894081115723
1773232837562964000,7.4239638671875,0.18556299805641174,-3.3126049041748047,5.435011863708496
1773232837572874000,7.4338740234375,-0.1087689995765686,-3.4879438877105713,5.869949817657471
1773232837582783700,7.44378369140625,-0.6408889889717102,-3.314635992050171,6.027125835418701
1773232837592693800,7.45369384765625,-1.277737021446228,-2.8403990268707275,6.334106922149658
1773232837602603500,7.463603515625,-1.333765983581543,-2.1951239109039307,6.603362083435059
1773232837612513500,7.473513427734375,-1.4507039785385132,-1.632593035697937,6.962152004241943
1773232837622423300,7.48342333984375,-2.0605928897857666,-0.849901020526886,6.5167670249938965
1773232837632333300,7.493333251953125,-2.212714910507202,-0.6256790161132812,5.52224588394165
1773232837642243000,7.5032431640625,-1.8632639646530151,-0.5794770121574402,4.995384216308594
1773232837652153000,7.513153076171875,-1.7656739950180054,-0.6438530087471008,4.873936176300049
1773232837662062800,7.523062744140625,-1.5796029567718506,-0.6507930159568787,4.933438777923584
1773232837671972900,7.532972900390625,-1.7931269407272339,-0.6446719765663147,4.277342796325684
1773232837681883000,7.5428828125,-2.132627010345459,-0.431643009185791,3.5486459732055664
1773232837691792600,7.552792724609375,-1.942700982093811,-0.09082800149917603,3.3466711044311523
1773232837701702400,7.562702392578125,-1.6683419942855835,0.36791300773620605,3.098893880844116
1773232837711612400,7.5726123046875,-1.7189689874649048,0.9554150104522705,3.0563158988952637
1773232837721522200,7.582522216796875,-1.6701760292053223,1.5084619522094727,3.0843570232391357
1773232837731432200,7.59243212890625,-1.3954980373382568,1.9413249492645264,3.2482659816741943
1773232837741342000,7.602342041015625,-1.0937509536743164,2.2174360752105713,3.1806418895721436
1773232837751252000,7.612251953125,-0.9884240031242371,2.3683230876922607,2.89943790435791
1773232837761162000,7.622161865234375,-1.0028949975967407,2.248155117034912,2.4075961112976074
1773232837771071700,7.63207177734375,-1.0427709817886353,2.0086278915405273,1.8840550184249878
1773232837780981800,7.641981689453125,-0.8167840242385864,1.6941330432891846,1.8565609455108643
1773232837790891500,7.6518916015625,-0.3586120009422302,1.251328945159912,2.114553928375244
1773232837800801300,7.66180126953125,-0.09149900078773499,0.787339985370636,2.3067328929901123
1773232837810711300,7.671711181640625,0.03986100107431412,0.3866569995880127,2.4718990325927734
1773232837820621300,7.681621337890625,0.0888110026717186,0.02826699987053871,2.4911770820617676
1773232837830531000,7.691531005859375,0.05811399966478348,-0.21531100571155548,2.362684965133667
1773232837840441000,7.701441162109375,0.024243999272584915,-0.3536509871482849,2.281075954437256
1773232837850350800,7.711350830078125,0.09547200053930283,-0.30614298582077026,2.237056016921997
1773232837860260900,7.7212607421875,0.19566500186920166,-0.08077199757099152,2.142551898956299
1773232837870170600,7.731170654296875,0.18182800710201263,0.17721399664878845,2.0669400691986084
1773232837880080400,7.741080322265625,-0.08959300071001053,0.39707401394844055,2.0418848991394043
1773232837889990700,7.75099072265625,-0.31751298904418945,0.6033279895782471,2.071995973587036
1773232837899900400,7.760900390625,-0.39605000615119934,0.7633829712867737,2.1277170181274414
1773232837909810200,7.77081005859375,-0.19441699981689453,0.8220090270042419,2.5211410522460938
1773232837919720200,7.78072021484375,0.4493409991264343,0.7206910252571106,3.4357988834381104
1773232837929630000,7.7906298828125,2.527177095413208,0.30011698603630066,4.303363800048828
1773232837939539700,7.800539794921875,8.022112846374512,-1.1355019807815552,4.04551887512207
1773232837949449700,7.81044970703125,9.099970817565918,-3.7240889072418213,-0.4502499997615814
1773232837959359700,7.82035986328125,4.5472612380981445,-7.283872127532959,-6.259696006774902
1773232837969269500,7.83026953125,1.8252639770507812,-11.318187713623047,-9.441177368164062
1773232837979179300,7.84017919921875,2.569489002227783,-13.82654094696045,-11.211204528808594
1773232837989089300,7.85008935546875,4.524253845214844,-13.089147567749023,-10.076659202575684
1773232837998999000,7.8599990234375,6.063817977905273,-9.458026885986328,-4.636006832122803
1773232838008909000,7.869908935546875,0.42841801047325134,-5.106774806976318,-0.5983790159225464
1773232838018818800,7.87981884765625,-4.5921220779418945,-1.7072499990463257,3.076658010482788
1773232838028728600,7.889728515625,-3.340878963470459,0.5691390037536621,6.992240905761719
1773232838038638600,7.899638671875,-3.0853729248046875,1.8093379735946655,8.609660148620605
1773232838048548600,7.909548583984375,-3.078402042388916,2.5527539253234863,8.577272415161133
1773232838058458400,7.919458251953125,-2.112673044204712,2.631727933883667,7.098939895629883
1773232838068368400,7.929368408203125,-1.3421039581298828,1.2693090438842773,5.537813186645508
1773232838078278100,7.939278076171875,-1.1070669889450073,-1.7392239570617676,3.785141944885254
1773232838088188000,7.94918798828125,-0.6145489811897278,-5.701012134552002,1.6666419506072998
1773232838098098200,7.95909814453125,1.1586999893188477,-8.678434371948242,-0.10752099752426147
1773232838108008000,7.969008056640625,2.387497901916504,-10.254451751708984,-0.6164590120315552
1773232838117917700,7.978917724609375,2.269679069519043,-10.192632675170898,0.20854699611663818
1773232838127827700,7.98882763671875,1.5816739797592163,-7.613615989685059,1.5135669708251953
1773232838137737500,7.998737548828125,0.6371690034866333,-4.029545783996582,2.861480951309204
1773232838147647200,8.008647216796875,0.2126840054988861,-1.5957759618759155,3.6016159057617188
1773232838157557200,8.01855712890625,0.07516500353813171,-0.08257900178432465,3.488297939300537
1773232838167467000,8.028467041015626,0.12102600187063217,0.6135929822921753,3.078052043914795
1773232838177377300,8.038377197265625,-0.17579300701618195,0.6253809928894043,2.5918428897857666
1773232838187286800,8.048286865234376,-0.5900329947471619,0.06160899996757507,2.2188730239868164
1773232838197196800,8.05819677734375,-1.130174994468689,-0.5626400113105774,1.9689220190048218
1773232838207106800,8.06810693359375,-1.503255009651184,-1.0069730281829834,1.718906044960022
1773232838217016600,8.0780166015625,-1.5271650552749634,-1.2882800102233887,1.5618079900741577
1773232838226926300,8.08792626953125,-1.4317940473556519,-1.448227047920227,1.3707610368728638
1773232838236836400,8.09783642578125,-0.9985259771347046,-1.5661909580230713,1.1262480020523071
1773232838246746000,8.10774609375,-0.8317980170249939,-1.5826890468597412,0.6201270222663879
1773232838256656400,8.117656494140626,-0.7164769768714905,-1.3724919557571411,0.0035329998936504126
1773232838266566000,8.12756591796875,-0.5914030075073242,-0.8870649933815002,-0.38326600193977356
1773232838276476000,8.137475830078126,-0.6755669713020325,-0.09719700366258621,-0.5674480199813843
1773232838286386000,8.147385986328125,-0.8467609882354736,0.8153719902038574,-0.5867289900779724
1773232838296295700,8.157295654296876,-0.55799400806427,1.6278120279312134,-0.7371259927749634
1773232838306205400,8.167205322265625,-0.013989999890327454,2.1781930923461914,-1.0128270387649536
1773232838316115500,8.177115478515624,0.5882179737091064,2.3577520847320557,-1.299981951713562
1773232838326025200,8.187025146484375,0.7823479771614075,2.38873291015625,-1.4005520343780518
1773232838335935200,8.196935302734374,0.9861069917678833,2.2136731147766113,-1.2428170442581177
1773232838345845000,8.206844970703125,1.7444829940795898,1.7847870588302612,-0.9040690064430237
1773232838355754800,8.216754638671874,2.263324022293091,1.6658819913864136,-0.5636199712753296
1773232838365664800,8.226664794921875,2.646730899810791,1.568343997001648,-0.40773698687553406
1773232838375574800,8.23657470703125,2.709644079208374,1.5788509845733643,-0.23253899812698364
1773232838385484500,8.246484619140626,2.4824750423431396,1.6996489763259888,-0.2315720021724701
1773232838395394300,8.256394287109375,2.632611036300659,1.6024099588394165,-0.17924199998378754
1773232838405304300,8.26630419921875,2.945204973220825,1.3354159593582153,-0.47052299976348877
1773232838415214000,8.276214111328125,2.5939009189605713,0.9920709729194641,-1.0082199573516846
1773232838425124000,8.2861240234375,2.3301711082458496,0.7396240234375,-1.1784839630126953
1773232838435033900,8.296033935546875,2.1652770042419434,0.8856520056724548,-1.6126680374145508
1773232838444943600,8.305943603515624,2.0087409019470215,1.1094709634780884,-2.073375940322876
1773232838454853600,8.315853515625,1.9985519647598267,1.429960012435913,-2.55206298828125
1773232838464763400,8.325763427734374,2.1124870777130127,1.721837043762207,-2.8009510040283203
1773232838474673400,8.33567333984375,2.2083840370178223,1.7321710586547852,-2.7662739753723145
1773232838484583200,8.345583251953125,2.5799179077148438,1.3304870128631592,-2.6772708892822266
1773232838494493200,8.3554931640625,2.947968006134033,0.5918059945106506,-2.944880962371826
1773232838504403200,8.3654033203125,3.0360400676727295,-0.17092600464820862,-3.6029930114746094
1773232838514313000,8.37531298828125,2.6880569458007812,-0.7680749893188477,-4.407895088195801
1773232838524222700,8.38522265625,1.9839190244674683,-1.009516954421997,-4.9805731773376465
1773232838534132700,8.3951328125,1.1446830034255981,-1.0658010244369507,-5.159736156463623
1773232838544042500,8.40504248046875,0.7608360052108765,-1.1803380250930786,-5.104817867279053
1773232838553952500,8.414952392578124,1.0907939672470093,-1.7027959823608398,-5.135423183441162
1773232838563862300,8.4248623046875,1.9947619438171387,-2.4635939598083496,-4.907036781311035
1773232838573772000,8.43477197265625,2.79960298538208,-3.2558860778808594,-4.569180011749268
1773232838583682000,8.44468212890625,3.2561280727386475,-3.9766430854797363,-4.107466220855713
1773232838593591800,8.454591796875,3.6349549293518066,-4.76223611831665,-3.5492138862609863
1773232838603501800,8.464501708984375,4.0977678298950195,-5.495278835296631,-2.592413902282715
1773232838613411600,8.47441162109375,4.345264911651611,-6.219593048095703,-1.5740200281143188
1773232838623321600,8.484321533203126,4.567227840423584,-6.732572078704834,-0.24250899255275726
1773232838633231400,8.4942314453125,4.935540199279785,-7.009300231933594,0.9948909878730774
1773232838643141000,8.50414111328125,5.761918067932129,-7.204318046569824,1.911553978919983
1773232838653051000,8.51405078125,7.071321964263916,-7.371617794036865,2.6362531185150146
1773232838662961000,8.5239609375,8.451787948608398,-7.134222030639648,3.051254987716675
1773232838672870700,8.53387060546875,9.159790992736816,-6.782012939453125,3.3203349113464355
1773232838682780700,8.54378076171875,8.447945594787598,-6.42368221282959,2.912321090698242
1773232838692690400,8.5536904296875,6.64724588394165,-5.791508197784424,2.0822739601135254
1773232838702600200,8.56360009765625,4.572340965270996,-4.796079158782959,0.7865509986877441
1773232838712510500,8.573510498046875,2.582003116607666,-3.3801519870758057,-0.5051460266113281
1773232838722420200,8.583420166015625,0.6959609985351562,-1.8565239906311035,-1.6563539505004883
1773232838732330000,8.593330078125,-0.7606729865074158,-0.9379950165748596,-2.2578558921813965
1773232838742240000,8.603239990234375,-1.358144998550415,-0.5213810205459595,-2.485901117324829
1773232838752149800,8.613149658203126,-3.74576997756958,0.3404330015182495,-1.5427089929580688
1773232838762059800,8.623059814453125,-4.005979061126709,1.6606930494308472,-0.33158400654792786
1773232838771969500,8.632969482421874,-3.7214620113372803,-0.7660099864006042,-1.6515049934387207
1773232838781879600,8.642879638671875,-4.6514058113098145,-2.1906321048736572,-1.6589679718017578
1773232838791789300,8.652789306640624,-3.907850980758667,-2.735116958618164,-0.2505039870738983
1773232838801699000,8.662698974609375,-1.1005460023880005,-2.29231595993042,0.7324060201644897
1773232838811609000,8.672609130859374,3.1968600749969482,-1.4551260471343994,0.3887990117073059
1773232838821518800,8.682518798828125,6.438991069793701,-1.0052709579467773,-0.17354699969291687
1773232838831428600,8.6924287109375,7.061112880706787,-1.092879056930542,-0.2538459897041321
1773232838841338600,8.702338623046876,4.246363162994385,-0.9823939800262451,0.5803449749946594
1773232838851248400,8.712248291015625,0.31099000573158264,-0.7446510195732117,1.9950979948043823
1773232838861158400,8.722158447265626,-1.6175440549850464,-0.9340900182723999,3.3864309787750244
1773232838871068400,8.732068359375,-0.8288099765777588,-1.5975450277328491,4.678760051727295
1773232838880978200,8.741978271484374,0.21006299555301666,-2.3378710746765137,5.4516167640686035
1773232838890888000,8.751887939453125,-0.7311779856681824,-3.315937042236328,6.913952827453613
1773232838900798000,8.7617978515625,-2.4058949947357178,-3.7217860221862793,8.037232398986816
1773232838910707700,8.771707763671875,-2.2824110984802246,-2.4952359199523926,7.174732208251953
1773232838920617500,8.781617431640624,-0.670045018196106,-0.5852130055427551,5.961063861846924
1773232838930527200,8.79152734375,0.8040429949760437,1.3400559425354004,5.188424110412598
1773232838940437200,8.801437255859375,0.42051199078559875,2.4667320251464844,5.174944877624512
1773232838950347000,8.811346923828125,-0.3983359932899475,2.3796329498291016,5.150473117828369
1773232838960257000,8.821257080078125,-1.915624976158142,1.1229890584945679,4.545443058013916
1773232838970166800,8.831166748046876,-3.086625099182129,0.2502399981021881,4.482986927032471
1773232838980076500,8.84107666015625,-3.19999098777771,0.08793699741363525,4.962384223937988
1773232838989986800,8.85098681640625,-3.528033971786499,0.47200900316238403,5.413488864898682
1773232838999896300,8.860896240234375,-3.8023641109466553,0.8582860231399536,5.78095817565918
1773232839009806000,8.87080615234375,-3.6855950355529785,1.37260901927948,6.009022235870361
1773232839019716400,8.88071630859375,-3.68811297416687,1.680232048034668,5.913916110992432
1773232839029626000,8.890626220703124,-2.8139219284057617,2.1638669967651367,6.060879230499268
1773232839039535900,8.900535888671875,-1.9800959825515747,2.7547221183776855,6.0871758460998535
1773232839049446000,8.91044580078125,-2.424978017807007,3.7282609939575195,6.153689861297607
1773232839059355600,8.920355712890625,-3.018454074859619,4.786742210388184,6.16251277923584
1773232839069265400,8.930265380859375,-3.1771080493927,5.446752071380615,5.822634220123291
1773232839079175400,8.940175537109376,-2.8450560569763184,6.048065185546875,5.9768781661987305
1773232839089085200,8.950085205078125,-2.574449062347412,6.060564994812012,4.264814853668213
1773232839098995000,8.959994873046876,-2.1379270553588867,4.80683708190918,-0.3129180073738098
1773232839108905000,8.969905029296875,-2.6664879322052,3.0787830352783203,-1.377087950706482
1773232839118814700,8.979814697265626,-4.24147891998291,1.817808985710144,-0.5190410017967224
1773232839128724700,8.989724853515625,-3.946026086807251,1.0808039903640747,-0.07755099982023239
1773232839138634500,8.999634521484374,-2.9859158992767334,0.70735102891922,0.5342720150947571
1773232839148544300,9.009544189453125,-2.0457539558410645,0.3093569874763489,1.6727759838104248
1773232839158454300,9.019454345703124,0.2608020007610321,0.3113420009613037,3.8084230422973633
1773232839168364000,9.029364013671875,3.9938039779663086,0.23319099843502045,4.843760013580322
1773232839178274000,9.039274169921875,7.631315231323242,-0.6889150142669678,4.285682201385498
1773232839188184000,9.04918408203125,2.2458019256591797,-3.2764248847961426,-0.9988669753074646
1773232839198093600,9.059093505859375,-5.419179916381836,-6.661718845367432,-5.916542053222656
1773232839208003600,9.069003662109376,-0.29034098982810974,-11.01517105102539,-7.645285129547119
1773232839217913300,9.078913330078125,10.604891777038574,-14.943379402160645,-10.634519577026367
1773232839227823400,9.0888232421875,7.205541133880615,-16.962207794189453,-11.751577377319336
1773232839237733400,9.0987333984375,3.3760058879852295,-12.695556640625,-8.099868774414062
1773232839247643100,9.10864306640625,4.090576171875,-5.205459117889404,-3.966157913208008
1773232839257552600,9.118552734375,2.5377309322357178,0.06362999975681305,0.39703699946403503
1773232839267463000,9.128462890625,0.4797849953174591,3.2451438903808594,3.9589340686798096
1773232839277372700,9.13837255859375,0.20464199781417847,4.723861217498779,6.225729942321777
1773232839287282400,9.148282470703125,0.4415459930896759,4.555235862731934,6.809093952178955
1773232839297192400,9.1581923828125,0.6987109780311584,3.1251749992370605,5.744140148162842
1773232839307102200,9.168102294921875,1.2063169479370117,0.8328359723091125,4.418795108795166
1773232839317012000,9.178011962890626,1.439005970954895,-1.8301589488983154,3.795896053314209
1773232839326922000,9.187921875,1.199110984802246,-4.721934795379639,4.063111782073975
1773232839336831700,9.197831787109376,1.1574610471725464,-7.150122165679932,3.2438740730285645
1773232839346741800,9.20774169921875,1.5656659603118896,-7.7322797775268555,1.975456953048706
1773232839356651500,9.217651611328124,1.3816109895706177,-6.195182800292969,0.7835130095481873
1773232839366561300,9.227561279296875,0.4866800010204315,-3.0449490547180176,0.5646209716796875
1773232839376471000,9.237470947265624,-0.15857000648975372,-0.40229201316833496,0.6307399868965149
1773232839386381000,9.247381103515625,-0.17420600354671478,0.45535099506378174,0.5480430126190186
1773232839396290800,9.257290771484374,-0.43773698806762695,-0.009336999617516994,0.4247269928455353
1773232839406200800,9.267200927734375,-0.6896560192108154,-0.42532598972320557,-0.0010389999952167273
1773232839416110600,9.277110595703125,-0.9662349820137024,-1.567113995552063,0.6976730227470398
1773232839426020400,9.287020263671875,-1.0056259632110596,-1.2671940326690674,0.5632920265197754
1773232839435930400,9.296930419921875,-1.0729089975357056,0.8813269734382629,-0.0044450000859797
1773232839445840100,9.306840087890626,0.4509109854698181,2.4018380641937256,-0.25668400526046753
1773232839455750000,9.31675,1.1789920330047607,3.1566660404205322,-0.5608869791030884
1773232839465660000,9.326659912109376,0.9154360294342041,3.140360116958618,-0.9699079990386963
1773232839475569700,9.336569580078125,0.3628480136394501,2.600964069366455,-1.3786879777908325
1773232839485479400,9.3464794921875,0.2800210118293762,2.0582900047302246,-1.2148820161819458
1773232839495389200,9.35638916015625,0.711234986782074,1.7291040420532227,-0.6981359720230103
1773232839505299200,9.36629931640625,0.9921380281448364,1.4998559951782227,0.011319000273942947
1773232839515209000,9.376208984375,1.1771459579467773,1.5514049530029297,0.8343350291252136
1773232839525118700,9.38611865234375,1.6199599504470825,1.8543100357055664,1.4054880142211914
1773232839535028700,9.39602880859375,1.9792720079421997,2.065614938735962,1.6190199851989746
1773232839544938500,9.4059384765625,2.010854959487915,2.071026086807251,1.5507999658584595
1773232839554848300,9.41584814453125,1.8425010442733765,2.114672899246216,1.1123700141906738
1773232839564758300,9.42575830078125,2.0195839405059814,2.7314789295196533,0.17264199256896973
1773232839574668000,9.43566796875,1.5186330080032349,3.7886080741882324,-1.021332025527954
1773232839584577800,9.445577880859375,0.25434499979019165,3.644835948944092,-1.76084303855896
1773232839594487800,9.45548779296875,0.1585250049829483,2.712707042694092,-2.4155900478363037
1773232839604397600,9.4653974609375,0.6978579759597778,1.5168219804763794,-2.8168389797210693
1773232839614307300,9.475307373046874,1.810968041419983,-0.04505100101232529,-2.4059720039367676
1773232839624217300,9.48521728515625,2.3934359550476074,-0.8288270235061646,-2.1808290481567383
1773232839634127400,9.49512744140625,2.448988914489746,-1.5937199592590332,-1.4539259672164917
1773232839644036900,9.505036865234375,2.437225103378296,-1.7725169658660889,-0.020221000537276268
1773232839653947000,9.51494677734375,2.138477087020874,-1.0052549839019775,1.3652679920196533
1773232839663856600,9.524856689453125,1.2759829759597778,0.6373130083084106,1.1914900541305542
1773232839673766700,9.5347666015625,0.9371970295906067,1.4794529676437378,-0.07547900080680847
1773232839683676400,9.544676513671876,1.5176539421081543,0.3590019941329956,-1.5961569547653198
1773232839693586200,9.554586181640625,2.098659038543701,-0.8526780009269714,-1.9239619970321655
1773232839703496400,9.564496337890626,3.438744068145752,-1.794461965560913,-3.192234992980957
1773232839713406000,9.574406005859375,4.061670780181885,-2.0676050186157227,-3.8277781009674072
1773232839723315700,9.584315673828126,3.5270049571990967,-2.006350040435791,-3.820594072341919
1773232839733225700,9.594225830078125,2.9550468921661377,-1.9880330562591553,-3.6237471103668213
1773232839743135500,9.604135498046874,2.5109269618988037,-2.0403358936309814,-3.392677068710327
1773232839753045500,9.61404541015625,1.9616899490356445,-2.191793918609619,-3.187191963195801
1773232839762955500,9.62395556640625,1.4315869808197021,-2.536868095397949,-3.205281972885132
1773232839772865300,9.633865234375,0.949874997138977,-2.9255130290985107,-3.2260029315948486
1773232839782775000,9.643775146484375,0.6667029857635498,-3.475632905960083,-3.60115909576416
1773232839792685000,9.65368505859375,0.625478982925415,-4.030275821685791,-4.120323181152344
1773232839802594600,9.663594482421875,0.6866869926452637,-4.641363143920898,-4.341746807098389
1773232839812504300,9.67350439453125,0.8118259906768799,-5.038043975830078,-4.187005996704102
1773232839822414300,9.683414306640625,1.1510330438613892,-5.374453067779541,-3.523245096206665
1773232839832324000,9.693323974609376,2.0925610065460205,-5.7988739013671875,-2.7095448970794678
1773232839842233900,9.70323388671875,3.1347179412841797,-6.224181175231934,-1.3845479488372803
1773232839852143900,9.713143798828124,3.9969160556793213,-6.522797107696533,-0.030544999986886978
1773232839862053600,9.7230537109375,5.220911026000977,-6.528983116149902,0.9258109927177429
1773232839871963600,9.732963623046874,6.894425868988037,-5.948399066925049,1.7090100049972534
1773232839881873700,9.742873779296875,8.661138534545898,-5.001486778259277,1.5017420053482056
1773232839891783200,9.752783203125,7.037837982177734,-4.189754962921143,0.7430109977722168
1773232839901693200,9.762693115234375,5.2128472328186035,-4.074732780456543,0.15426500141620636
1773232839911603000,9.77260302734375,5.18240213394165,-3.906630039215088,-0.5578489899635315
1773232839921512700,9.7825126953125,5.496190071105957,-3.7736220359802246,-0.8875359892845154
1773232839931422500,9.79242236328125,6.47916316986084,-3.9197890758514404,-0.5082449913024902
1773232839941332500,9.80233251953125,5.041011810302734,-3.911191940307617,-0.2688409984111786
1773232839951242200,9.8122421875,-0.5355889797210693,-2.5895729064941406,0.513670027256012
1773232839961152300,9.82215234375,-7.036220073699951,-1.1945810317993164,1.1682219505310059
1773232839971062000,9.83206201171875,-11.880341529846191,-0.4105829894542694,1.6051340103149414
1773232839980971800,9.8419716796875,-13.314891815185547,-0.25661501288414,1.8973690271377563
1773232839990881800,9.8518818359375,-11.03641128540039,-0.8507969975471497,1.4595999717712402
1773232840000791600,9.86179150390625,-5.240004062652588,-1.375309944152832,-0.0768750011920929
1773232840010701300,9.871701416015625,1.3043010234832764,-1.3625420331954956,-1.9890300035476685
1773232840020611300,9.881611328125,2.8759589195251465,-1.0700809955596924,-1.9618040323257446
1773232840030521000,9.89152099609375,4.362926006317139,-0.7336459755897522,0.47279900312423706
1773232840040430800,9.901430908203125,4.670185089111328,-0.194023996591568,1.8188649415969849
1773232840050340900,9.9113408203125,3.9350619316101074,0.20719000697135925,-0.6879900097846985
1773232840060250600,9.921250732421875,2.2527549266815186,-0.3992980122566223,-2.5239880084991455
1773232840070160400,9.931160400390626,-0.18093200027942657,-1.179656982421875,-2.776063919067383
1773232840080070100,9.941070068359375,-1.6470179557800293,-1.4763710498809814,-1.6683640480041504
1773232840089980200,9.950980224609374,-2.073930025100708,-1.4785510301589966,1.4502949714660645
1773232840099890000,9.960889892578125,-2.129215955734253,-1.5824689865112305,4.0767011642456055
1773232840109799700,9.970799560546874,-1.3116960525512695,-1.6037249565124512,5.3307671546936035
1773232840119709400,9.98070947265625,0.10585299879312515,-1.4640010595321655,5.79608678817749
1773232840129619500,9.990619384765624,0.1710139960050583,-1.4224129915237427,6.123281002044678
1773232840139529200,10.000529296875,-1.553879976272583,-1.1915149688720703,5.798961162567139
1773232840149439000,10.01043896484375,-2.4552149772644043,-0.6459730267524719,4.409681797027588
1773232840159349000,10.020348876953125,-1.3401509523391724,-0.1578959971666336,3.0177791118621826
1773232840169258800,10.0302587890625,-0.49658599495887756,-0.1527940034866333,3.303105115890503
1773232840179168500,10.04016845703125,-1.3245749473571777,-0.6325550079345703,5.079216003417969
1773232840189078500,10.05007861328125,-2.5456631183624268,-0.8552809953689575,5.984785079956055
1773232840198988300,10.05998828125,-3.536813974380493,-0.2332790046930313,5.704040050506592
1773232840208898000,10.06989794921875,-3.613231897354126,0.18777300417423248,5.7588911056518555
1773232840218808000,10.07980810546875,-3.03574800491333,0.29527899622917175,6.30068302154541
1773232840228717800,10.0897177734375,-3.253117084503174,0.4364660084247589,6.685200214385986
1773232840238627600,10.099627685546874,-3.7851529121398926,0.8529239892959595,7.0551438331604
1773232840248537600,10.10953759765625,-3.853998899459839,1.6453230381011963,6.9261579513549805
1773232840258447000,10.119447021484374,-3.9854331016540527,2.3736789226531982,6.064489841461182
1773232840268356900,10.12935693359375,-3.958836078643799,2.874185085296631,5.438265800476074
1773232840278267000,10.139266845703125,-3.7546279430389404,3.220712900161743,5.1740241050720215
1773232840288176600,10.1491767578125,-3.526081085205078,2.970331907272339,5.404936790466309
1773232840298086700,10.159086669921875,-2.8681159019470215,2.443869113922119,5.33416223526001
1773232840307996400,10.168996337890626,-2.414175033569336,2.6071600914001465,3.6102359294891357
1773232840317906200,10.17890625,-2.1745400428771973,3.1800220012664795,1.1745259761810303
1773232840327816200,10.188816162109376,-2.148705005645752,3.475579023361206,-0.1264210045337677
1773232840337726000,10.198725830078125,-2.469161033630371,3.373487949371338,-0.6124799847602844
1773232840347635700,10.2086357421875,-3.2612640857696533,2.8747808933258057,-0.2809450030326843
1773232840357545700,10.218545654296875,-4.032437801361084,2.318821907043457,0.5778660178184509
1773232840367455500,10.22845556640625,-4.386387825012207,2.006412982940674,1.304440975189209
1773232840377365200,10.238365234375,-1.3499360084533691,2.147036075592041,2.9078168869018555
1773232840387275000,10.24827490234375,6.347670078277588,1.6793349981307983,4.7339911460876465
1773232840397185000,10.25818505859375,9.637163162231445,-1.2286009788513184,3.5455029010772705
1773232840407094800,10.2680947265625,2.06823992729187,-5.95786190032959,-1.945165991783142
1773232840417004500,10.278004638671876,-6.39422607421875,-9.64405345916748,-8.35418701171875
1773232840426914600,10.28791455078125,0.7648559808731079,-11.425363540649414,-11.72220516204834
1773232840436824300,10.29782421875,10.768226623535156,-9.727710723876953,-10.584493637084961
1773232840446734000,10.307734130859375,4.054887771606445,-4.855367183685303,-5.462954044342041
1773232840456644000,10.31764404296875,0.936365008354187,-4.301336765289307,1.2445930242538452
1773232840466553900,10.327553955078125,1.7729500532150269,-4.605940818786621,6.024566173553467
1773232840476463400,10.33746337890625,0.797104001045227,-2.8421120643615723,6.716921806335449
1773232840486373600,10.34737353515625,-0.2524450123310089,-1.9157390594482422,5.613876819610596
1773232840496283100,10.357283203125,0.7684490084648132,-1.7059880495071411,3.681317090988159
1773232840506193200,10.367193115234375,1.4842720031738281,-1.1062300205230713,1.8419140577316284
1773232840516103000,10.37710302734375,1.271813988685608,-0.6819729804992676,0.3594909906387329
1773232840526012700,10.3870126953125,0.95278000831604,-0.9582470059394836,-0.6220899820327759
1773232840535922400,10.39692236328125,0.9706180095672607,-0.993291974067688,-0.5378599762916565
1773232840545832400,10.40683251953125,0.5478649735450745,-0.7530630230903625,0.2870649993419647
1773232840555742200,10.4167421875,0.09313999861478806,-0.5702490210533142,1.2889620065689087
1773232840565652000,10.42665185546875,-0.4774720072746277,-0.40558600425720215,2.159593105316162
1773232840575561700,10.436561767578125,-0.8727819919586182,-0.6063129901885986,2.6564550399780273
1773232840585471700,10.4464716796875,-0.9992449879646301,-0.8080719709396362,2.141510009765625
1773232840595381500,10.456381591796875,-1.2267789840698242,-0.826416015625,1.5956779718399048
1773232840605291300,10.466291259765624,-1.2018159627914429,-0.6166369915008545,1.3712669610977173
1773232840615201300,10.476201171875,-0.997642993927002,-0.5227029919624329,0.8285499811172485
1773232840625111000,10.486111083984374,-1.303346037864685,-0.8033549785614014,0.4609200060367584
1773232840635020800,10.496020751953125,-1.4652279615402222,-1.302258014678955,-0.2098110020160675
1773232840644930600,10.5059306640625,-1.0602569580078125,-2.0490829944610596,-1.4301990270614624
1773232840654840300,10.51584033203125,-0.21609100699424744,-1.8139209747314453,-2.5696990489959717
1773232840664750300,10.525750244140625,0.5305989980697632,-1.2785160541534424,-3.582263946533203
1773232840674660000,10.53566015625,0.9569879770278931,-1.050233006477356,-4.131692886352539
1773232840684569900,10.54556982421875,1.1057590246200562,-0.5948020219802856,-3.4578680992126465
1773232840694480000,10.55547998046875,0.9161099791526794,-0.22258800268173218,-2.6790900230407715
1773232840704389600,10.5653896484375,0.4336110055446625,-0.2031009942293167,-2.421849012374878
1773232840714299400,10.57529931640625,0.27189499139785767,-0.11309300363063812,-1.862874984741211
1773232840724209200,10.585209228515625,0.4006899893283844,0.3944759964942932,-1.6272330284118652
1773232840734119200,10.595119140625,0.34898900985717773,0.7809690237045288,-1.3120160102844238
1773232840744029000,10.60502880859375,0.14486399292945862,1.2803800106048584,-0.6266649961471558
1773232840753938700,10.614938720703124,-0.023617999628186226,1.9706679582595825,-0.17433500289916992
1773232840763848400,10.624848388671875,0.4046730101108551,2.2466259002685547,-0.507519006729126
1773232840773758500,10.634758544921874,1.1611930131912231,2.2460880279541016,-1.499405026435852
1773232840783668000,10.64466796875,1.6064000129699707,2.6990909576416016,-2.115813970565796
1773232840793578000,10.654577880859375,2.2649269104003906,3.106127977371216,-2.048069953918457
1773232840803487700,10.66448779296875,2.8566839694976807,3.1376359462738037,-0.9396209716796875
1773232840813397500,10.6743974609375,2.6320550441741943,2.9592859745025635,-0.42732998728752136
1773232840823307800,10.684307861328126,2.231874942779541,2.8996191024780273,-0.2845590114593506
1773232840833217300,10.69421728515625,1.6609710454940796,2.8066890239715576,-0.21126699447631836
1773232840843127000,10.704126953125,1.1711759567260742,2.4193780422210693,-0.016958000138401985
1773232840853036800,10.714036865234375,0.6397219896316528,2.085284948348999,0.1409599930047989
1773232840862946800,10.72394677734375,0.8543220162391663,1.7200239896774292,0.07730499655008316
1773232840872856600,10.733856689453125,2.160914897918701,1.3937610387802124,0.26054999232292175
1773232840882766300,10.743766357421874,3.771522045135498,1.0520190000534058,1.0100229978561401
1773232840892676400,10.75367626953125,4.269606113433838,0.7101659774780273,1.0563620328903198
1773232840902586000,10.763586181640624,3.5468950271606445,0.18199199438095093,0.1888830065727234
1773232840912495900,10.773495849609375,2.3166069984436035,-0.08989600092172623,-0.7327839732170105
1773232840922405600,10.783405517578124,1.487007975578308,-0.2887299954891205,-1.4747810363769531
1773232840932315400,10.7933154296875,1.661007046699524,-0.6054689884185791,-1.935067057609558
1773232840942225700,10.8032255859375,2.5421030521392822,-1.478760004043579,-1.9954630136489868
1773232840952135200,10.81313525390625,2.885221004486084,-1.613700032234192,-3.4986190795898438
1773232840962045000,10.823044921875,2.4065940380096436,-1.8697099685668945,-4.491517066955566
1773232840971954700,10.83295458984375,1.7324349880218506,-2.271812915802002,-4.713057041168213
1773232840981864700,10.84286474609375,0.9278050065040588,-2.621664047241211,-4.306748867034912
1773232840991774500,10.8527744140625,0.5448060035705566,-3.061167001724243,-3.592252016067505
1773232841001684200,10.862684326171875,0.7308539748191833,-3.6429638862609863,-3.0397160053253174
1773232841011594200,10.87259423828125,1.3670860528945923,-4.338133811950684,-3.9994330406188965
1773232841021503700,10.882503662109375,1.8838499784469604,-4.8079400062561035,-4.743607044219971
1773232841031413800,10.892413818359374,2.0961170196533203,-4.995869159698486,-4.809762001037598
1773232841041323500,10.902323486328125,2.2446279525756836,-5.1324567794799805,-4.698723793029785
1773232841051233300,10.9122333984375,1.8108899593353271,-5.110322952270508,-4.300317764282227
1773232841061143000,10.92214306640625,1.4128689765930176,-5.340973854064941,-3.45174503326416
1773232841071053000,10.932052978515625,0.4069870114326477,-5.5713582038879395,-2.399315118789673
1773232841080962800,10.941962890625,-0.6556839942932129,-5.679722785949707,-2.4677679538726807
1773232841090872600,10.95187255859375,-0.593675971031189,-5.7053680419921875,-2.6723968982696533
1773232841100782300,10.9617822265625,-0.5026530027389526,-4.9082350730896,-1.4596730470657349
1773232841110692000,10.971692138671875,-1.0284080505371094,-4.0087738037109375,-1.1098190546035767
1773232841120601900,10.981601806640626,-1.2538950443267822,-3.2985589504241943,-1.650589942932129
1773232841130512000,10.991511962890625,-0.801738977432251,-2.0197598934173584,-2.804147958755493
1773232841140421600,11.001421630859374,9.546178817749023,-1.674070954322815,-1.3652880191802979
1773232841150331400,11.011331298828125,9.67699909210205,-1.508430004119873,-0.9973570108413696
1773232841160241200,11.0212412109375,6.918867111206055,-2.7499608993530273,-0.5921069979667664
1773232841170151200,11.031151123046875,4.673137187957764,-4.13824987411499,1.395853042602539
1773232841180061000,11.04106103515625,2.0682079792022705,-4.169419765472412,3.7334320545196533
1773232841189970700,11.050970703125,-0.5777559876441956,-3.541821002960205,4.044909954071045
1773232841199880400,11.06088037109375,-2.0100080966949463,-3.106187105178833,1.9157450199127197
1773232841209790200,11.070790283203126,-3.79801607131958,-2.81095290184021,-0.14088700711727142
1773232841219700000,11.080699951171875,-7.239768028259277,-2.453792095184326,-0.5266519784927368
1773232841229610000,11.09060986328125,-9.98170280456543,-2.290682077407837,0.8053849935531616
1773232841239519700,11.100519775390625,-10.09698486328125,-1.9052799940109253,1.9181640148162842
1773232841249429500,11.110429443359376,-8.56549072265625,-0.7472109794616699,2.400712013244629
1773232841259339500,11.120339599609375,-4.80056619644165,-0.3423599898815155,1.309851050376892
1773232841269249300,11.130249267578124,-0.90174800157547,0.14983899891376495,0.547327995300293
1773232841279159000,11.140158935546875,0.8569470047950745,0.40532198548316956,-0.9930499792098999
1773232841289068800,11.15006884765625,0.9256590008735657,-0.4869909882545471,-1.4445350170135498
1773232841298978600,11.159978515625,1.820997953414917,-0.2160719931125641,-2.4491920471191406
1773232841308888300,11.169888427734374,2.2795209884643555,0.7636719942092896,-4.211061954498291
1773232841318798300,11.17979833984375,1.7464239597320557,0.7003070116043091,-3.9836039543151855
1773232841328708000,11.1897080078125,0.5408419966697693,-0.3948490023612976,0.556751012802124
1773232841338617900,11.199617919921875,-1.4428470134735107,-0.07389900088310242,6.30577278137207
1773232841348527600,11.209527587890625,-2.5989460945129395,1.0269889831542969,7.997705936431885
1773232841358437600,11.219437744140626,-3.163464069366455,1.0371719598770142,7.773921966552734
1773232841368347400,11.229347412109375,-3.3663949966430664,0.626990020275116,6.853714942932129
1773232841378257200,11.239257080078126,-2.8893558979034424,0.8749369978904724,6.310244083404541
1773232841388167000,11.2491669921875,-2.3147220611572266,1.3811800479888916,4.857757091522217
1773232841398077000,11.259076904296874,-2.247878074645996,1.2605539560317993,3.8444020748138428
1773232841407986700,11.268986572265625,-2.3276560306549072,0.6423100233078003,4.33727502822876
1773232841417896400,11.278896484375,-2.224155902862549,-1.8165069818496704,2.8790769577026367
1773232841427806200,11.28880615234375,-2.369123935699463,-4.620575904846191,0.1721619963645935
1773232841437716000,11.298716064453124,-2.154529094696045,-6.053133010864258,-0.6869360208511353
1773232841447626000,11.3086259765625,-1.2470669746398926,-5.250964164733887,1.1005439758300781
1773232841457535500,11.318535400390624,-2.2641398906707764,-0.7189270257949829,3.796865940093994
1773232841467445200,11.3284453125,-4.847700119018555,1.3640470504760742,6.660275936126709
1773232841477355300,11.338355224609375,-5.664231777191162,1.7755889892578125,8.047454833984375
1773232841487265000,11.34826513671875,-5.234676837921143,1.8782850503921509,8.40567684173584
1773232841497174800,11.3581748046875,-5.477756023406982,1.205265998840332,6.357583999633789
1773232841507084500,11.36808447265625,-4.456449031829834,0.11611200124025345,4.994694232940674
1773232841516994600,11.37799462890625,-3.2306880950927734,-0.03603599965572357,4.311530113220215
1773232841526904300,11.387904296875,-2.657870054244995,0.027732999995350838,3.3109450340270996
1773232841536814000,11.39781396484375,-2.315546989440918,0.019540999084711075,2.5434470176696777
1773232841546723800,11.407723876953124,-1.884255051612854,-0.6101959943771362,1.9902379512786865
1773232841556633600,11.417633544921875,-1.5216000080108643,-1.2761549949645996,0.983959972858429
1773232841566543600,11.427543701171874,-0.8532500267028809,-1.9280630350112915,-1.1199309825897217
1773232841576453400,11.437453369140625,-0.4830079972743988,-3.2574069499969482,-2.41046404838562
1773232841586363100,11.447363037109374,-0.18945400416851044,-4.280436038970947,-2.7771360874176025
1773232841596273000,11.45727294921875,-0.19893400371074677,-4.7700581550598145,-4.1021552085876465
1773232841606182700,11.4671826171875,0.15489700436592102,-5.368518829345703,-3.4543569087982178
1773232841616092400,11.477092529296876,-0.06026199832558632,-5.944396018981934,-2.6185920238494873
1773232841626002200,11.487002197265625,-0.5632510185241699,-7.591166973114014,0.018786000087857246
1773232841635912200,11.496912109375,0.24230599403381348,-6.346911907196045,0.4936789870262146
1773232841645822000,11.506822021484375,4.539111137390137,-7.559215068817139,1.0989270210266113
1773232841655731700,11.516731689453126,6.310671806335449,-7.1041178703308105,1.549826979637146
1773232841665641500,11.526641357421875,1.0391290187835693,-8.014223098754883,1.076449990272522
1773232841675551500,11.536551513671874,-0.4480220079421997,-8.461814880371094,1.1004400253295898
1773232841685461000,11.5464609375,0.21333199739456177,-8.153578758239746,-0.9041290283203125
1773232841695371000,11.55637109375,2.1797239780426025,-9.308923721313477,1.3447519540786743
1773232841705280800,11.56628076171875,3.4674160480499268,-7.4809088706970215,3.5783588886260986
1773232841715190500,11.5761904296875,3.509951114654541,-7.437592029571533,2.339427947998047
1773232841725100500,11.5861005859375,5.523431777954102,-7.439816951751709,3.0006070137023926
1773232841735010300,11.59601025390625,5.233173847198486,-6.0580620765686035,2.4397099018096924
1773232841744920000,11.605920166015625,2.286811113357544,-4.776012897491455,2.1413838863372803
1773232841754829800,11.615829833984375,4.000885009765625,-3.3973300457000732,6.822487831115723
1773232841764739800,11.62573974609375,7.026352882385254,-2.0479071140289307,4.3786301612854
1773232841774649300,11.6356494140625,9.17927360534668,-0.4881730079650879,1.8187400102615356
1773232841784559000,11.64555908203125,11.89638614654541,1.2029980421066284,0.2609120011329651
1773232841794469000,11.65546923828125,13.656916618347168,2.960092067718506,-1.806839942932129
1773232841804379000,11.66537890625,13.167545318603516,4.768248081207275,-3.4338600635528564
1773232841814288600,11.67528857421875,12.925697326660156,6.63533878326416,-3.519556999206543
1773232841824198400,11.685198486328124,13.281936645507812,8.412585258483887,-3.0271899700164795
1773232841834108200,11.695108154296875,13.753389358520508,10.106613159179688,-2.7061409950256348
1773232841848972800,11.709972900390625,14.080406188964844,10.684505462646484,-4.376659870147705
1773232841858882600,11.719882568359376,12.970377922058105,10.574867248535156,-7.455840110778809
1773232841873747500,11.73474755859375,9.070795059204102,10.973472595214844,-14.283584594726562
1773232841883657000,11.744656982421875,7.597725868225098,10.672736167907715,-18.913175582885742
1773232841893567000,11.75456689453125,6.590826034545898,10.079168319702148,-23.069435119628906
1773232841903476700,11.764476806640625,5.587710857391357,9.5451078414917,-25.080272674560547
1773232841913386500,11.774386474609376,4.871829032897949,8.476584434509277,-24.103355407714844
1773232841923296300,11.784296142578125,4.376389980316162,7.100017070770264,-20.882490158081055
1773232841933206300,11.794206298828126,3.800628900527954,5.8186869621276855,-16.433135986328125
1773232841943116000,11.804115966796875,3.090817928314209,4.293801784515381,-12.667806625366211
1773232841953025800,11.81402587890625,1.7619400024414062,1.9958430528640747,-10.390827178955078
1773232841962935600,11.823935546875,-0.4016779959201813,-0.8600249886512756,-9.561553001403809
1773232841972845300,11.83384521484375,-3.356482982635498,-2.4891600608825684,-9.613231658935547
1773232841982755000,11.843755126953125,-5.88361120223999,-4.266910076141357,-9.422236442565918
1773232841992665000,11.8536650390625,-7.570870876312256,-6.072025775909424,-8.40719985961914
1773232842002574800,11.863574951171875,-8.476877212524414,-7.089903831481934,-6.759825229644775
1773232842012484400,11.873484375,-9.197367668151855,-7.335814952850342,-5.056184768676758
1773232842022394400,11.883394287109375,-9.276069641113281,-7.913755893707275,-3.105937957763672
1773232842032304000,11.89330419921875,-8.868367195129395,-8.15572738647461,-1.0245929956436157
1773232842042214000,11.9032138671875,-7.949923992156982,-8.553624153137207,0.5961999893188477
1773232842052123600,11.91312353515625,-7.118070125579834,-8.774149894714355,2.039443016052246
1773232842062033700,11.92303369140625,-6.661499977111816,-8.699642181396484,2.6389920711517334
1773232842071943200,11.932943115234375,-6.74544620513916,-9.663960456848145,1.323127031326294
1773232842081853200,11.942853271484376,-6.430424213409424,-11.1725492477417,-0.9600939750671387
1773232842091763000,11.952762939453125,-5.793438911437988,-10.617401123046875,-0.3729270100593567
1773232842106627600,11.967627685546875,-5.970789909362793,-10.463650703430176,1.826673984527588
1773232842126447000,11.987447021484375,-6.032698154449463,-9.193219184875488,5.567883014678955
1773232842136356900,11.99735693359375,-6.787108898162842,-7.6918158531188965,5.9130859375
1773232842146267000,12.007266845703125,-6.588366985321045,-6.57371711730957,5.6978840827941895
1773232842156176400,12.01717626953125,-5.633920192718506,-6.412291049957275,5.479615211486816
1773232842166086100,12.027086181640625,-4.6808929443359375,-6.529540061950684,5.456663131713867
1773232842175996000,12.036995849609376,-3.8993749618530273,-6.392770767211914,6.028459072113037
1773232842185906000,12.046906005859375,-3.343585968017578,-5.956305027008057,5.949272155761719
1773232842195815700,12.056815673828124,-1.9341800212860107,-5.649956226348877,4.597431182861328
1773232842205725200,12.06672509765625,1.2599010467529297,-5.489101886749268,1.782304048538208
1773232842215635200,12.07663525390625,0.22408099472522736,-4.9866228103637695,3.3393280506134033
1773232842225545000,12.086544921875,-0.1768539994955063,-4.2040557861328125,5.278409004211426
1773232842235454700,12.096454833984374,1.7129969596862793,-3.6802239418029785,5.047346115112305
1773232842245364500,12.106364501953125,4.075211048126221,-2.6054489612579346,2.976017951965332
1773232842255274500,12.1162744140625,4.064519882202148,-2.7854039669036865,1.548488974571228
1773232842265184000,12.12618408203125,0.07443699985742569,-3.192892074584961,-1.651352047920227
1773232842275094000,12.136093994140625,-1.351317048072815,-2.61613392829895,-0.9938139915466309
1773232842285003800,12.146003662109376,0.11372499912977219,-2.0948359966278076,1.0611549615859985
1773232842294913500,12.15591357421875,1.734408974647522,-1.4567070007324219,1.8964359760284424
1773232842304823300,12.1658232421875,1.3410420417785645,-1.0046240091323853,2.1181769371032715
1773232842314733300,12.1757333984375,0.2267249971628189,-1.200063943862915,1.0163120031356812
1773232842324643000,12.18564306640625,-0.38547199964523315,-1.2848360538482666,-0.29241499304771423
1773232842334552800,12.195552734375,-0.22523100674152374,-0.9387940168380737,-0.10417000204324722
1773232842344462600,12.205462646484374,0.13950799405574799,-0.376677006483078,0.5285519957542419
1773232842354372400,12.215372314453125,-0.023881999775767326,-0.11193399876356125,0.19326800107955933
1773232842364282000,12.2252822265625,-0.5093640089035034,-0.21865299344062805,-0.18183599412441254
1773232842374191900,12.23519189453125,-0.9019389748573303,-0.328902006149292,0.49102601408958435
1773232842389056800,12.250056884765625,-1.0390909910202026,-0.09642700105905533,0.6379629969596863
1773232842398966300,12.25996630859375,-0.9111869931221008,-0.4378809928894043,1.5102859735488892
1773232842408876000,12.2698759765625,-0.25400999188423157,-0.5684660077095032,1.2737590074539185
1773232842418785800,12.279785888671874,0.39342600107192993,0.2894040048122406,1.1476999521255493
1773232842428695800,12.28969580078125,0.7184749841690063,0.035061001777648926,0.3244970142841339
1773232842438605600,12.29960546875,0.99344402551651,-0.15434299409389496,-0.23269100487232208
1773232842448515000,12.30951513671875,1.226027011871338,-0.09049399942159653,-0.3907870054244995
1773232842458425000,12.319425048828125,0.7589930295944214,-0.05209499970078468,0.12877200543880463
1773232842468334800,12.3293349609375,-0.1655299961566925,0.022724999114871025,0.5246409773826599
1773232842478244600,12.33924462890625,-1.2087960243225098,-0.14627200365066528,0.21416400372982025
1773232842488154400,12.349154296875,-2.532844066619873,-0.3262839913368225,-0.22856900095939636
1773232842498064400,12.359064453125,-2.860135078430176,-0.156016007065773,-0.23749800026416779
1773232842507974000,12.368973876953126,-2.5848639011383057,-0.13651299476623535,0.3637680113315582
1773232842517884000,12.3788837890625,-1.6936700344085693,-0.1478859931230545,0.16419300436973572
1773232842527793700,12.388793701171876,-1.0436559915542603,-0.015897000208497047,-0.47425198554992676
1773232842537703400,12.398703369140625,-0.2822900116443634,-0.07886800169944763,-1.239912986755371
1773232842547613000,12.408613037109374,1.083230972290039,0.28889200091362,-1.7375750541687012
1773232842557523000,12.41852294921875,2.015252113342285,-0.01947600021958351,-0.8164499998092651
1773232842567432700,12.4284326171875,2.5207760334014893,-0.2939409911632538,-0.24263200163841248
1773232842577342500,12.438342529296875,2.7323429584503174,-0.49768999218940735,-0.8224490284919739
1773232842587252200,12.448252197265624,1.764096975326538,-0.5044749975204468,-0.927977979183197
1773232842597162000,12.458161865234375,0.7896159887313843,-0.1853950023651123,-0.6519320011138916
1773232842607071700,12.46807177734375,-0.35916998982429504,0.36567801237106323,-0.5447840094566345
1773232842616981500,12.4779814453125,-0.8029630184173584,0.6044759750366211,-0.41287800669670105
1773232842626891500,12.4878916015625,-0.6581310033798218,0.5065069794654846,0.20818699896335602
1773232842636801300,12.49780126953125,-0.8853430151939392,0.20398999750614166,0.4471830129623413
1773232842646710800,12.507710693359375,-1.7507649660110474,0.10839000344276428,-0.24442799389362335
1773232842656620800,12.517620849609376,-0.9583860039710999,0.05230399966239929,-0.14336000382900238
1773232842666530600,12.527530517578125,0.1431249976158142,-0.21280699968338013,-0.2349189966917038
1773232842676440300,12.5374404296875,0.8222749829292297,-0.23098799586296082,-0.23875099420547485
1773232842686350000,12.54735009765625,1.1751500368118286,-0.3580999970436096,0.8142269849777222
1773232842696259800,12.557259765625,1.2255079746246338,-0.6973530054092407,1.465080976486206
1773232842706169600,12.567169677734375,0.9488139748573303,-0.8489810228347778,1.4824539422988892
1773232842716079400,12.577079345703124,-0.4673900008201599,-0.7766420245170593,1.6806490421295166
1773232842725989400,12.5869892578125,-0.9500349760055542,-0.7917649745941162,1.1568620204925537
1773232842735899100,12.596899169921874,-0.62391597032547,-0.4941909909248352,0.20088699460029602
1773232842745808600,12.60680859375,-0.4453130066394806,0.19488400220870972,-1.037485957145691
1773232842755718700,12.61671875,-0.3337410092353821,0.7217270135879517,-1.9331779479980469
1773232842765628400,12.62662841796875,-0.04562300071120262,0.7262129783630371,-1.949321985244751
1773232842775538200,12.6365380859375,-0.3420810103416443,0.5862640142440796,-1.4228240251541138
1773232842785448000,12.646447998046876,-0.6196269989013672,0.6036890149116516,-0.7024059891700745
1773232842795357700,12.656357666015625,-1.4083130359649658,0.5546519756317139,-0.38356998562812805
1773232842805267500,12.666267333984376,-2.200464963912964,0.13030800223350525,-0.5967839956283569
1773232842815177200,12.67617724609375,0.8048499822616577,-0.17165200412273407,-0.7942389845848083
1773232842825087200,12.686087158203126,4.0508928298950195,0.7879260182380676,1.0582610368728638
1773232842834996700,12.695996826171875,1.6243549585342407,-0.4064350128173828,-0.24574699997901917
1773232842844906800,12.70590673828125,-0.6189020276069641,-0.5164059996604919,-1.6889079809188843
1773232842854816500,12.71581640625,-1.8138660192489624,0.7874069809913635,-1.5871590375900269
1773232842864726300,12.725726318359374,-2.1199300289154053,0.5246310234069824,-0.6342129707336426
1773232842874636000,12.735635986328125,-1.39375901222229,-0.22981399297714233,0.1521490067243576
1773232842884545800,12.7455458984375,-0.22574900090694427,-0.21892300248146057,0.5111500024795532
1773232842899410400,12.760410400390626,0.5309730172157288,-0.11312700062990189,0.37089499831199646
1773232842909320200,12.7703203125,0.20182299613952637,-0.20246699452400208,0.423566997051239
1773232842919230000,12.78022998046875,-0.24636900424957275,-0.05293300002813339,0.6010140180587769
1773232842929139700,12.7901396484375,-0.6390320062637329,-0.03319400176405907,0.408037006855011
1773232842939049700,12.8000498046875,-0.5906180143356323,0.0501599982380867,0.14639900624752045
1773232842948959500,12.80995947265625,-0.20547500252723694,0.11670400202274323,-0.21638800203800201
1773232842958869000,12.819868896484374,0.1946689933538437,0.17759700119495392,-0.0548739992082119
1773232842968778800,12.82977880859375,0.12958000600337982,0.10941199958324432,0.14380699396133423
1773232842978688800,12.839688720703125,0.10492400079965591,0.03446200117468834,0.12751099467277527
1773232842988598500,12.8495986328125,-0.0009079999872483313,0.04408600181341171,-0.06220899894833565
1773232842998508300,12.85950830078125,-0.17408600449562073,0.14497099816799164,-0.07309400290250778
