time,seconds_elapsed,z,y,x
1773232830412940800,0.27394091796875,-0.6807624697685242,0.2657875120639801,-0.45058751106262207
1773232830427805700,0.2888056640625,-0.7636749744415283,0.414837509393692,-0.7101874947547913
1773232830437715700,0.2987158203125,-0.9138249754905701,0.7862250208854675,-0.8623999953269958
1773232830447625500,0.30862548828125,-1.100000023841858,1.1097625494003296,-0.9018625020980835
1773232830457535700,0.31853564453125,-1.376787543296814,1.2992374897003174,-0.9305999875068665
1773232830467445500,0.328445556640625,-1.6864374876022339,1.4460874795913696,-1.0498124361038208
1773232830477355300,0.338355224609375,-1.9982874393463135,1.713112473487854,-1.2593624591827393
1773232830487265500,0.348265625,-2.1898250579833984,1.5588375329971313,-1.4775749444961548
1773232830497175300,0.35817529296875,-2.0333499908447266,0.7873250246047974,-1.742537498474121
1773232830507085000,0.3680849609375,-1.564062476158142,0.006187499966472387,-2.0150625705718994
1773232830516995000,0.3779951171875,-0.9989374876022339,-0.4823499917984009,-2.1118624210357666
1773232830526905000,0.387905029296875,-0.408237487077713,-0.6036249995231628,-2.0373375415802
1773232830536814800,0.39781494140625,0.004674999974668026,-0.4877125024795532,-1.9448000192642212
1773232830546724900,0.407724853515625,0.08758749812841415,-0.15248750150203705,-2.002274990081787
1773232830556635000,0.417634765625,-0.19538749754428864,0.2424124926328659,-2.162874937057495
1773232830566544600,0.427544677734375,-0.7679374814033508,0.6202625036239624,-2.3491873741149902
1773232830576454700,0.43745458984375,-1.2798500061035156,0.8309124708175659,-2.4246749877929688
1773232830586364700,0.44736474609375,-1.611912488937378,0.7574874758720398,-2.235337495803833
1773232830596274700,0.457274658203125,-1.6640249490737915,0.6021124720573425,-1.9245874881744385
1773232830606184700,0.467184814453125,-1.5023249387741089,0.48399999737739563,-1.6850625276565552
1773232830616094500,0.477094482421875,-1.1639374494552612,0.5105375051498413,-1.5413750410079956
1773232830626004200,0.487004150390625,-0.7434625029563904,0.6649500131607056,-1.4243625402450562
1773232830635914500,0.49691455078125,-0.4104374945163727,0.7862250208854675,-1.3444750308990479
1773232830645824300,0.50682421875,-0.3657499849796295,0.8351749777793884,-1.3392499685287476
1773232830655734300,0.516734375,-0.551925003528595,0.8320124745368958,-1.3318250179290771
1773232830665644300,0.526644287109375,-0.8350374698638916,0.681862473487854,-1.2593624591827393
1773232830675554300,0.53655419921875,-1.0894124507904053,0.5138375163078308,-1.2317249774932861
1773232830685464300,0.54646435546875,-1.2340625524520874,0.4137375056743622,-1.306249976158142
1773232830695374000,0.5563740234375,-1.191575050354004,0.3488374948501587,-1.3360874652862549
1773232830705284400,0.566284423828125,-1.018049955368042,0.3562625050544739,-1.1571999788284302
1773232830715194000,0.576194091796875,-0.765874981880188,0.369049996137619,-0.8305000066757202
1773232830725104000,0.586104248046875,-0.597712516784668,0.13282500207424164,-0.571862518787384
1773232830735014100,0.59601416015625,-0.45196250081062317,-0.09281250089406967,-0.4526500105857849
1773232830744924000,0.605923828125,-0.27527499198913574,-0.4269374907016754,-0.4133250117301941
1773232830754834000,0.615833984375,-0.11247500032186508,-0.8292624950408936,-0.4846875071525574
1773232830764744000,0.625743896484375,0.0056374999694526196,-0.983537495136261,-0.6165499687194824
1773232830774654000,0.635654052734375,0.10147500038146973,-1.054900050163269,-0.6899750232696533
1773232830784563700,0.645563720703125,0.1036750003695488,-0.9985250234603882,-0.6708624958992004
1773232830794473700,0.6554736328125,-0.05706249922513962,-0.7675250172615051,-0.5729625225067139
1773232830804383700,0.6653837890625,-0.3465000092983246,-0.42803749442100525,-0.41552498936653137
1773232830814293500,0.67529345703125,-0.645562469959259,-0.05664999783039093,-0.22068749368190765
1773232830824203500,0.68520361328125,-0.8318749666213989,0.21367499232292175,-0.02488750033080578
1773232830834113500,0.695113525390625,-0.9318374991416931,0.30621248483657837,0.09006249904632568
1773232830844023300,0.705023193359375,-0.9605749845504761,0.2657875120639801,0.16238750517368317
1773232830853933600,0.71493359375,-0.8850874900817871,0.23704999685287476,0.18369999527931213
1773232830863843300,0.72484326171875,-0.783887505531311,0.23388749361038208,0.15386250615119934
1773232830873753300,0.73475341796875,-0.6892874836921692,0.3531000018119812,0.15812499821186066
1773232830883663400,0.744663330078125,-0.6307125091552734,0.6010124683380127,0.21353749930858612
1773232830893573400,0.754573486328125,-0.634975016117096,0.8787624835968018,0.2102375030517578
1773232830903483100,0.764483154296875,-0.7041375041007996,1.0289125442504883,0.12306249886751175
1773232830913393200,0.77439306640625,-0.7232499718666077,1.0969749689102173,-0.02708750031888485
1773232830923303200,0.78430322265625,-0.6466624736785889,1.0405999422073364,-0.20157499611377716
1773232830938168000,0.79916796875,-0.42748749256134033,0.9128624796867371,-0.10683749616146088
1773232830948078000,0.809078125,-0.31349998712539673,1.0405999422073364,-0.1504250019788742
1773232830957988000,0.818988037109375,-0.22206249833106995,0.9426999688148499,-0.3749625086784363
1773232830967897900,0.82889794921875,-0.1751749962568283,0.8926500082015991,-0.5846499800682068
1773232830977808100,0.83880810546875,-0.20184999704360962,0.8787624835968018,-0.8273375034332275
1773232830987718000,0.8487177734375,-0.34127500653266907,1.0363374948501587,-1.119937539100647
1773232830997628000,0.8586279296875,-0.5541250109672546,1.27572500705719,-1.4009875059127808
1773232831007538000,0.868537841796875,-0.7966749668121338,1.553475022315979,-1.7117375135421753
1773232831017447700,0.87844775390625,-1.0202499628067017,1.8334250450134277,-2.0607125759124756
1773232831027357700,0.888357666015625,-1.2618374824523926,2.030324935913086,-2.422612428665161
1773232831037267700,0.898267822265625,-1.5182750225067139,2.0175375938415527,-2.760999917984009
1773232831047177500,0.908177490234375,-1.6864374876022339,1.796162486076355,-2.9397499561309814
1773232831057087500,0.91808740234375,-1.6576999425888062,1.509887456893921,-2.9313623905181885
1773232831066997500,0.92799755859375,-1.470425009727478,1.1331374645233154,-2.785475015640259
1773232831076907500,0.937907470703125,-1.2351624965667725,0.7170624732971191,-2.4832499027252197
1773232831086817300,0.9478173828125,-1.0542124509811401,0.5031124949455261,-2.138400077819824
1773232831096727600,0.9577275390625,-0.9872499704360962,0.45100000500679016,-1.8521250486373901
1773232831106637300,0.96763720703125,-1.024512529373169,0.5159000158309937,-1.716962456703186
1773232831116547000,0.977547119140625,-1.1893750429153442,0.8457624912261963,-1.5116750001907349
1773232831126457000,0.98745703125,-1.4502124786376953,1.227874994277954,-1.1891000270843506
1773232831136367000,0.9973671875,-1.724524974822998,1.685612440109253,-0.8200500011444092
1773232831146276900,1.00727685546875,-1.9650124311447144,1.9761500358581543,-0.3007124960422516
1773232831156187100,1.017187255859375,-2.051224946975708,1.9696874618530273,0.09308750182390213
1773232831166097000,1.027096923828125,-1.993749976158142,1.8589999675750732,0.6793875098228455
1773232831176006700,1.037006591796875,-2.460974931716919,1.7280999422073364,0.7943375110626221
1773232831185917000,1.0469169921875,-2.6855125427246094,2.2772750854492188,0.6241124868392944
1773232831195826700,1.05682666015625,-2.8685250282287598,2.540174961090088,0.021724998950958252
1773232831205736700,1.06673681640625,-2.997225046157837,2.6210250854492188,-0.5295125246047974
1773232831215646700,1.076646728515625,-2.992962598800659,2.2422125339508057,-1.4064874649047852
1773232831225556700,1.086556640625,-2.871687412261963,1.8547375202178955,-2.4877874851226807
1773232831235466500,1.096466552734375,-2.7504124641418457,1.3833874464035034,-3.228362560272217
1773232831245376500,1.10637646484375,-2.68331241607666,0.9714375138282776,-3.5785748958587646
1773232831255286500,1.11628662109375,-2.6024625301361084,0.726687490940094,-3.562624931335449
1773232831265196500,1.126196533203125,-2.412987470626831,0.9150624871253967,-2.872925043106079
1773232831280061400,1.1410615234375,-2.333237409591675,2.432650089263916,-0.24227499961853027
1773232831289971500,1.150971435546875,-2.5918750762939453,2.766774892807007,-0.23471249639987946
1773232831299881200,1.160881103515625,-2.4502499103546143,2.7774999141693115,-1.110587477684021
1773232831309791200,1.170791259765625,-1.9394375085830688,2.2644875049591064,-1.6054500341415405
1773232831319701200,1.180701171875,-1.1093499660491943,1.7707250118255615,-1.3096874952316284
1773232831329611000,1.190611083984375,-0.15798750519752502,0.9417374730110168,-1.0892750024795532
1773232831339521000,1.20052099609375,0.7583125233650208,0.055137500166893005,-1.176587462425232
1773232831349431000,1.21043115234375,1.0148874521255493,-0.6887375116348267,-1.0212124586105347
1773232831359341000,1.220341064453125,0.7232499718666077,-0.8654249906539917,-0.9754250049591064
1773232831369251000,1.2302509765625,0.24323749542236328,-0.46626248955726624,-0.8232125043869019
1773232831379160800,1.240160888671875,-0.0695749968290329,0.11591249704360962,-0.47850000858306885
1773232831389070800,1.25007080078125,0.04963750019669533,0.4170374870300293,-0.10064999759197235
1773232831403935700,1.264935791015625,0.5018749833106995,0.2147749960422516,0.07699999958276749
1773232831413845500,1.274845458984375,0.8435624837875366,0.18713749945163727,0.10147500038146973
1773232831428710700,1.289710693359375,1.3256374597549438,0.5383124947547913,0.3760625123977661
1773232831438620400,1.299620361328125,1.479912519454956,0.8501625061035156,0.6645374894142151
1773232831448530700,1.30953076171875,1.6438125371932983,1.208762526512146,0.9369249939918518
1773232831458440400,1.3194404296875,1.9619874954223633,1.2141250371932983,1.0795124769210815
1773232831478260500,1.339260498046875,3.1762499809265137,0.11371249705553055,1.280674934387207
1773232831493125400,1.35412548828125,3.232762575149536,-0.656837522983551,0.5687000155448914
1773232831503035400,1.364035400390625,2.837862491607666,-0.7929624915122986,-0.07837499678134918
1773232831512945200,1.373945068359375,2.3982748985290527,-0.8398500084877014,-0.39765000343322754
1773232831522855200,1.383855224609375,2.0684125423431396,-0.9238625168800354,-0.492249995470047
1773232831532765000,1.393764892578125,1.872612476348877,-1.1367125511169434,-0.5103999972343445
1773232831542675000,1.403675048828125,1.6831375360488892,-1.4272500276565552,-0.4965125024318695
1773232831552585000,1.4135849609375,1.4873374700546265,-1.4155625104904175,-0.6626124978065491
1773232831562495000,1.423494873046875,1.1787874698638916,-1.290024995803833,-0.9094250202178955
1773232831572405000,1.433405029296875,0.8817874789237976,-1.206974983215332,-1.0414249897003174
1773232831582315000,1.44331494140625,0.6051374673843384,-1.2186625003814697,-1.0766249895095825
1773232831592225000,1.45322509765625,0.4433000087738037,-1.2399749755859375,-1.0371625423431396
1773232831602134800,1.463134765625,0.3731749951839447,-1.2707749605178833,-1.0063624382019043
1773232831612044800,1.473044921875,0.3539249897003174,-1.2527624368667603,-0.9711624979972839
1773232831621954800,1.482954833984375,0.40507498383522034,-0.9653875231742859,-0.9255124926567078
1773232831631864800,1.49286474609375,0.43133750557899475,-0.49197500944137573,-0.9550749659538269
1773232831641774600,1.502774658203125,0.3451249897480011,-0.09817499667406082,-0.9986624717712402
1773232831651684600,1.5126845703125,0.25478750467300415,-0.0193875003606081,-0.9986624717712402
1773232831661594600,1.5225947265625,0.20363749563694,-0.10353749990463257,-0.8646000027656555
1773232831671504400,1.53250439453125,-0.11769999563694,-0.11838749796152115,-0.5857499837875366
1773232831681414400,1.542414306640625,-0.6030749678611755,0.05197500064969063,-0.16747500002384186
1773232831691324400,1.552324462890625,-1.1563750505447388,0.443574994802475,0.3539249897003174
1773232831701234200,1.562234130859375,-1.9545625448226929,0.6851624846458435,0.783887505531311
1773232831711144400,1.57214453125,-2.719749927520752,0.5105375051498413,0.7221499681472778
1773232831721054200,1.58205419921875,-3.0124874114990234,0.856487512588501,0.5784624814987183
1773232831730964200,1.591964111328125,-3.2412874698638916,0.9256500005722046,0.445499986410141
1773232831740874200,1.601874267578125,-3.3178749084472656,-0.3833499848842621,0.7019374966621399
1773232831750784300,1.6117841796875,-3.4795749187469482,-1.374174952507019,1.304324984550476
1773232831760694000,1.621694091796875,-3.741374969482422,-0.5823125243186951,1.3851749897003174
1773232831770604000,1.63160400390625,-3.7691500186920166,0.49568748474121094,0.8680375218391418
1773232831780514000,1.64151416015625,-3.597825050354004,0.8032749891281128,0.18576249480247498
1773232831790424000,1.651424072265625,-3.157137393951416,0.996874988079071,-0.49211248755455017
1773232831800333800,1.661333740234375,-2.7729625701904297,1.193774938583374,-1.0498124361038208
1773232831810243800,1.671243896484375,-2.379162549972534,0.6595875024795532,-1.2955249547958374
1773232831820153600,1.681153564453125,-1.956762433052063,-0.42061248421669006,-1.364687442779541
1773232831830063600,1.691063720703125,-1.3894374370574951,-1.576300024986267,-1.7786999940872192
1773232831839973600,1.7009736328125,-0.9435250163078308,-2.0127248764038086,-2.179924964904785
1773232831849883600,1.710883544921875,-0.9095624685287476,-1.9062999486923218,-2.176762580871582
1773232831859793700,1.720793701171875,-1.2171499729156494,-1.7402000427246094,-1.965975046157837
1773232831869703400,1.730703369140625,-1.4778499603271484,-1.398650050163269,-1.623324990272522
1773232831879613700,1.74061376953125,-1.3362250328063965,-1.5019124746322632,-1.5041124820709229
1773232831889523500,1.7505234375,-1.2798500061035156,-1.458187460899353,-1.4955874681472778
1773232831899433200,1.76043310546875,-1.823662519454956,-0.8441125154495239,-1.389162540435791
1773232831909343500,1.770343505859375,-2.635737419128418,0.09446249902248383,-1.204087495803833
1773232831919253200,1.780253173828125,-3.3636624813079834,0.7244874835014343,-1.2636250257492065
1773232831929163300,1.790163330078125,-3.8180999755859375,0.9512249827384949,-1.2487750053405762
1773232831939073300,1.8000732421875,-4.038374900817871,1.1235125064849854,-0.915612518787384
1773232831948983000,1.809983154296875,-3.854262590408325,1.1384999752044678,-0.25478750467300415
1773232831958893000,1.81989306640625,-3.507349967956543,0.75638747215271,0.5242875218391418
1773232831968803000,1.829802978515625,-3.3987250328063965,-0.02681249938905239,1.1543124914169312
1773232831978713000,1.839713134765625,-3.3562374114990234,-0.9356874823570251,1.3862749338150024
1773232831988622800,1.849622802734375,-3.333824872970581,-1.4273874759674072,1.3000625371932983
1773232831998533000,1.859533203125,-3.338087558746338,-1.148537516593933,1.008424997329712
1773232832008443000,1.86944287109375,-3.384974956512451,-0.5227749943733215,0.3390749990940094
1773232832018352600,1.8793525390625,-3.546674966812134,-0.011962499469518661,-0.30373749136924744
1773232832028263000,1.889262939453125,-3.647737503051758,-0.07576250284910202,-0.6272749900817871
1773232832038172700,1.899172607421875,-2.996537446975708,-0.11096250265836716,-0.6039000153541565
1773232832048082700,1.909082763671875,-1.5874375104904175,0.025299999862909317,-0.2516250014305115
1773232832057992700,1.91899267578125,0.10999999940395355,0.3955875039100647,0.29122498631477356
1773232832067902700,1.92890283203125,1.1668249368667603,1.0704375505447388,0.7477250099182129
1773232832077812500,1.9388125,1.314637541770935,1.9025875329971313,1.042525053024292
1773232832087722500,1.948722412109375,1.0635625123977661,2.7955124378204346,1.2319999933242798
1773232832097632500,1.958632568359375,0.7517125010490417,3.4978625774383545,1.2819124460220337
1773232832117452300,1.978452392578125,0.4899125099182129,2.8720998764038086,0.8200500011444092
1773232832127362300,1.9883623046875,0.5186499953269958,1.7164125442504883,0.5263500213623047
1773232832137272300,1.998272216796875,0.5622375011444092,0.6126999855041504,0.3007124960422516
1773232832147182000,2.00818212890625,0.5229125022888184,-0.16307500004768372,0.1634874939918518
1773232832157092000,2.018092041015625,0.4207499921321869,-0.45471251010894775,0.15812499821186066
1773232832167002000,2.028002197265625,0.46117499470710754,-0.6291999816894531,0.24227499961853027
1773232832176912100,2.037912109375,0.7411249876022339,-0.9484750032424927,0.3667125105857849
1773232832186822000,2.04782177734375,1.0007250308990479,-1.112375020980835,0.49334999918937683
1773232832196732000,2.05773193359375,1.1507375240325928,-1.0942250490188599,0.5454624891281128
1773232832206642000,2.067641845703125,1.1998250484466553,-0.8494749665260315,0.5242875218391418
1773232832216551700,2.0775517578125,1.1987249851226807,-0.4035624861717224,0.4636499881744385
1773232832226462000,2.0874619140625,1.194462537765503,0.12540000677108765,0.3741374909877777
1773232832236371700,2.097371826171875,1.2093124389648438,0.606374979019165,0.26028749346733093
1773232832246282000,2.107281982421875,1.2571624517440796,0.9213874936103821,0.13255000114440918
1773232832256191700,2.117191650390625,1.3029500246047974,0.9660750031471252,-0.004674999974668026
1773232832266101500,2.1271015625,1.2753125429153442,0.7458000183105469,-0.16431249678134918
1773232832276011500,2.137011474609375,1.187037467956543,0.3679499924182892,-0.3260124921798706
1773232832285921500,2.146921630859375,1.0646624565124512,-0.014024999924004078,-0.44632500410079956
1773232832295831600,2.15683154296875,0.9464125037193298,-0.28654998540878296,-0.5048999786376953
1773232832305741600,2.166741455078125,0.8368250131607056,-0.3876124918460846,-0.5143874883651733
1773232832315651600,2.176651611328125,0.7570750117301941,-0.32807499170303345,-0.49211248755455017
1773232832325561300,2.186561279296875,0.720912516117096,-0.1428624987602234,-0.455949991941452
1773232832335471600,2.1964716796875,0.7357624769210815,0.08910000324249268,-0.42721250653266907
1773232832345381400,2.20638134765625,0.7964000105857849,0.30621248483657837,-0.4101625084877014
1773232832355291400,2.21629150390625,0.878350019454956,0.43188750743865967,-0.40369999408721924
1773232832365201200,2.226201171875,0.9592000246047974,0.4254249930381775,-0.3899500072002411
1773232832375111200,2.236111083984375,1.010349988937378,0.2679874897003174,-0.3601124882698059
1773232832385021200,2.246021240234375,1.0092500448226929,-0.029975000768899918,-0.30799999833106995
1773232832394931200,2.25593115234375,0.9688249826431274,-0.39297500252723694,-0.24736249446868896
1773232832404841200,2.26584130859375,0.8996624946594238,-0.694100022315979,-0.18136249482631683
1773232832414751000,2.2757509765625,0.7889750003814697,-0.8186749815940857,-0.09831249713897705
1773232832424661000,2.285660888671875,0.7006999850273132,-0.7122499942779541,0.04221250116825104
1773232832434571000,2.295571044921875,0.6527125239372253,-0.4844124913215637,0.2241249978542328
1773232832444480800,2.305480712890625,0.5792874693870544,-0.34072500467300415,0.3422375023365021
1773232832459345700,2.320345703125,0.554812490940094,-0.27912500500679016,0.3433375060558319
1773232832469256000,2.330255859375,0.5186499953269958,-0.2652375102043152,0.30717501044273376
1773232832479165700,2.340165771484375,0.4899125099182129,-0.22687499225139618,0.28696250915527344
1773232832489075500,2.350075439453125,0.48028749227523804,-0.18645000457763672,0.2634499967098236
1773232832498985700,2.35998583984375,0.48358750343322754,-0.17159999907016754,0.23045000433921814
1773232832508895500,2.3698955078125,0.47932499647140503,-0.2046000063419342,0.1942874938249588
1773232832518805500,2.379805419921875,0.44728749990463257,-0.21408750116825104,0.14217500388622284
1773232832528715500,2.389715576171875,0.4398624897003174,-0.24502499401569366,0.07727500051259995
1773232832538625500,2.39962548828125,0.4643374979496002,-0.2630375027656555,0.008112499490380287
1773232832548535600,2.40953564453125,0.48785001039505005,-0.28008750081062317,-0.07067500054836273
1773232832563400400,2.424400390625,0.5325375199317932,-0.36629998683929443,-0.17393749952316284
1773232832573310200,2.434310302734375,0.554812490940094,-0.4536125063896179,-0.23237499594688416
1773232832583220000,2.444219970703125,0.5442249774932861,-0.5291000008583069,-0.26963749527931213
1773232832593130200,2.454130126953125,0.5154874920845032,-0.6015625,-0.28132501244544983
1773232832603040000,2.4640400390625,0.47932499647140503,-0.7100499868392944,-0.28984999656677246
1773232832612950000,2.473949951171875,0.44206249713897705,-0.8238999843597412,-0.30799999833106995
1773232832622860000,2.483860107421875,0.4016374945640564,-0.908050000667572,-0.3217499852180481
1773232832632770000,2.49377001953125,0.3643749952316284,-0.9123125076293945,-0.3335750102996826
1773232832642680000,2.50368017578125,0.31968748569488525,-0.8271999955177307,-0.3409999907016754
1773232832652590000,2.513590087890625,0.2579500079154968,-0.7015249729156494,-0.35048750042915344
1773232832662499800,2.523499755859375,0.19827499985694885,-0.5493124723434448,-0.3942124843597412
1773232832672409900,2.533409912109375,0.14836250245571136,-0.35571250319480896,-0.44948750734329224
1773232832682319600,2.543319580078125,0.1036750003695488,-0.10670000314712524,-0.4729999899864197
1773232832692229600,2.553229736328125,0.03973750025033951,0.19772499799728394,-0.43037500977516174
1773232832702139600,2.5631396484375,-0.0943249985575676,0.5201625227928162,-0.31542500853538513
1773232832712049700,2.573049560546875,-0.2975499927997589,0.726687490940094,-0.19511249661445618
1773232832721959400,2.58295947265625,-0.4796000123023987,0.6946499943733215,-0.19415000081062317
1773232832731869700,2.59286962890625,-0.5752999782562256,0.5872625112533569,-0.3335750102996826
1773232832741779700,2.60277978515625,-0.645562469959259,0.5244249701499939,-0.5410624742507935
1773232832751689700,2.612689697265625,-0.7147250175476074,0.49568748474121094,-0.7251750230789185
1773232832761599500,2.622599609375,-0.7616124749183655,0.5138375163078308,-0.8379250168800354
1773232832771509500,2.632509521484375,-0.7552874684333801,0.6095374822616577,-0.8666625022888184
1773232832781419500,2.64241943359375,-0.6657750010490417,0.7532249689102173,-0.8336625099182129
1773232832791329500,2.65232958984375,-0.513700008392334,0.8490625023841858,-0.8336625099182129
1773232832801239300,2.6622392578125,-0.3507624864578247,0.9085999727249146,-0.8953999876976013
1773232832811149300,2.6721494140625,-0.18906250596046448,0.9788625240325928,-0.944350004196167
1773232832821059300,2.682059326171875,-0.052799999713897705,1.0405999422073364,-0.9209749698638916
1773232832830969000,2.691968994140625,0.03437500074505806,1.0543500185012817,-0.8219749927520752
1773232832840879000,2.701879150390625,0.048262499272823334,0.9894499778747559,-0.6793875098228455
1773232832850789000,2.7117890625,-0.015537500381469727,0.8490625023841858,-0.5357000231742859
1773232832860699100,2.72169921875,-0.1326874941587448,0.6542249917984009,-0.43463748693466187
1773232832870609200,2.731609130859375,-0.2400749921798706,0.44247499108314514,-0.38458749651908875
1773232832880519000,2.741518798828125,-0.2975499927997589,0.1966249942779541,-0.4133250117301941
1773232832890429000,2.751428955078125,-0.27101248502731323,-0.05348749831318855,-0.46970000863075256
1773232832900339000,2.7613388671875,-0.24763749539852142,-0.20666250586509705,-0.4856500029563904
1773232832910248700,2.771248779296875,-0.24860000610351562,-0.25671249628067017,-0.46543750166893005
1773232832920159000,2.781158935546875,-0.2508000135421753,-0.23966249823570251,-0.4292750060558319
1773232832939978800,2.800978759765625,-0.21133749186992645,-0.1396999955177307,-0.37400001287460327
1773232832949888800,2.810888671875,-0.17943750321865082,-0.07369999587535858,-0.35804998874664307
1773232832959798500,2.820798583984375,-0.16142499446868896,0.011412499472498894,-0.3452624976634979
1773232832969708500,2.83070849609375,-0.16032500565052032,0.13378749787807465,-0.33563750982284546
1773232832979618600,2.84061865234375,-0.170912504196167,0.2881999909877777,-0.32711249589920044
1773232832989528600,2.850528564453125,-0.19016249477863312,0.42006251215934753,-0.3143250048160553
1773232832999438300,2.860438232421875,-0.2092749923467636,0.4573250114917755,-0.30799999833106995
1773232833009348400,2.870348388671875,-0.21889999508857727,0.38499999046325684,-0.3091000020503998
1773232833019258400,2.88025830078125,-0.21037499606609344,0.26688748598098755,-0.31968748569488525
1773232833029168000,2.890168212890625,-0.19112500548362732,0.1658249944448471,-0.3282124996185303
1773232833039078100,2.900078125,-0.16775000095367432,0.1093124970793724,-0.3345375061035156
1773232833048988200,2.90998828125,-0.14121249318122864,0.11151249706745148,-0.33783748745918274
1773232833058898200,2.919898193359375,-0.12196250259876251,0.15303750336170197,-0.3250499963760376
1773232833068808200,2.92980810546875,-0.11247500032186508,0.18273749947547913,-0.29631251096725464
1773232833078718000,2.939718017578125,-0.11769999563694,0.16046249866485596,-0.2601499855518341
1773232833088628000,2.9496279296875,-0.133650004863739,0.13378749787807465,-0.23980000615119934
1773232833098538200,2.959538330078125,-0.15399999916553497,0.1615625023841858,-0.23141250014305115
1773232833108447700,2.96944775390625,-0.17943750321865082,0.17531250417232513,-0.24199999868869781
1773232833118357800,2.979357666015625,-0.19965000450611115,0.16472500562667847,-0.26647499203681946
1773232833128267800,2.989267822265625,-0.21353749930858612,0.16788749396800995,-0.2824249863624573
1773232833138177800,2.999177734375,-0.21889999508857727,0.2073500007390976,-0.28036248683929443
1773232833148087800,3.009087890625,-0.20721249282360077,0.37111249566078186,-0.2525874972343445
1773232833157997600,3.01899755859375,-0.17943750321865082,0.6191624999046326,-0.19731250405311584
1773232833167907600,3.028907470703125,-0.14863750338554382,0.8628125190734863,-0.11219999939203262
1773232833177817600,3.038817626953125,-0.11247500032186508,1.0724999904632568,-0.021724998950958252
1773232833187727600,3.0487275390625,-0.06132499873638153,1.1906124353408813,0.04001250118017197
1773232833197637600,3.0586376953125,-0.0017874999903142452,1.227874994277954,0.04853750020265579
1773232833207547400,3.06854736328125,0.048262499272823334,1.2044999599456787,0.009212499484419823
1773232833217457400,3.07845751953125,0.07163749635219574,1.091612458229065,-0.06104999780654907
1773232833227367200,3.0883671875,0.0695749968290329,0.8511250019073486,-0.15468749403953552
1773232833237277400,3.09827734375,0.040837500244379044,0.5627874732017517,-0.24736249446868896
1773232833247187200,3.108187255859375,-0.006049999967217445,0.36588749289512634,-0.33137500286102295
1773232833257097200,3.11809716796875,-0.04853750020265579,0.24021250009536743,-0.38458749651908875
1773232833267007200,3.12800732421875,-0.06875000149011612,0.18177500367164612,-0.41442498564720154
1773232833276917000,3.1379169921875,-0.08153750002384186,0.24021250009536743,-0.4250124990940094
1773232833286827300,3.1478271484375,-0.10175000131130219,0.3946250081062317,-0.4090625047683716
1773232833296737000,3.157737060546875,-0.11769999563694,0.5754374861717224,-0.3623124957084656
1773232833306647300,3.167647216796875,-0.14011250436306,0.7372750043869019,-0.3100624978542328
1773232833316557000,3.17755712890625,-0.1742125004529953,0.8351749777793884,-0.26221248507499695
1773232833326467000,3.187467041015625,-0.23801249265670776,0.8234875202178955,-0.2069374918937683
1773232833336376800,3.197376953125,-0.2773374915122986,0.8001124858856201,-0.16431249678134918
1773232833346286800,3.207286865234375,-0.2593249976634979,0.8331124782562256,-0.1461624950170517
1773232833356196900,3.21719677734375,-0.21889999508857727,0.9629124999046326,-0.19304999709129333
1773232833366107000,3.22710693359375,-0.17627499997615814,1.0448625087738037,-0.21216249465942383
1773232833376016600,3.2370166015625,-0.14547500014305115,0.9714375138282776,-0.17173749208450317
1773232833385926700,3.2469267578125,-0.1326874941587448,0.8852249979972839,-0.14300000667572021
1773232833395836700,3.256836669921875,-0.12622499465942383,0.7979124784469604,-0.12278749793767929
1773232833405746700,3.26674658203125,-0.1060125008225441,0.718162477016449,-0.10477499663829803
1773232833415656400,3.276656494140625,-0.06984999775886536,0.6499624848365784,-0.07177499681711197
1773232833425566700,3.286566650390625,-0.028324998915195465,0.6041749715805054,-0.020624998956918716
1773232833435476500,3.2964765625,0.016362499445676804,0.5713124871253967,0.05169999971985817
1773232833445386500,3.306386474609375,0.08552499860525131,0.5691124796867371,0.1368124932050705
1773232833455296500,3.316296630859375,0.1919499933719635,0.5563250184059143,0.2326499968767166
1773232833465206300,3.326206298828125,0.33880001306533813,0.4487999975681305,0.33371248841285706
1773232833475116300,3.3361162109375,0.45691248774528503,0.1083500012755394,0.4071374833583832
1773232833485026300,3.3460263671875,0.45058751106262207,-0.3152875006198883,0.4796000123023987
1773232833494936300,3.355936279296875,0.38032498955726624,-0.610087513923645,0.5912500023841858
1773232833504846000,3.36584619140625,0.37716248631477356,-0.7771499752998352,0.737137496471405
1773232833514756400,3.37575634765625,0.4600749909877777,-0.8090500235557556,0.9031000137329102
1773232833524666000,3.385666015625,0.5878124833106995,-0.7207750082015991,1.1213124990463257
1773232833534575900,3.395575927734375,0.7283374667167664,-0.5366625189781189,1.3979624509811401
1773232833544486000,3.40548583984375,0.880549967288971,-0.28654998540878296,1.7513375282287598
1773232833554396000,3.41539599609375,1.0582000017166138,-0.013062499463558197,2.1546249389648438
1773232833564306000,3.425305908203125,1.2380499839782715,0.28283751010894775,2.525049924850464
1773232833574216000,3.4352158203125,1.3934249877929688,0.5392749905586243,2.776124954223633
1773232833584125700,3.445125732421875,1.473312497138977,0.681862473487854,2.851749897003174
1773232833594035500,3.455035400390625,1.4093749523162842,0.6510624885559082,2.7208499908447266
1773232833603945700,3.46494580078125,1.2243000268936157,0.550962507724762,2.4579498767852783
1773232833613855500,3.47485546875,1.0262999534606934,0.41263750195503235,2.1141998767852783
1773232833623765500,3.484765625,0.9102500081062317,0.2722499966621399,1.7587624788284302
1773232833633675500,3.494675537109375,0.9113500118255615,0.2073500007390976,1.4916000366210938
1773232833643585300,3.504585205078125,0.9762499928474426,0.2264624983072281,1.3234374523162842
1773232833653495600,3.51449560546875,1.0720875263214111,0.3786749839782715,1.2394249439239502
1773232833663405300,3.5244052734375,1.1901999711990356,0.6723750233650208,1.2500125169754028
1773232833673315300,3.5343154296875,1.3594624996185303,1.0736000537872314,1.4011249542236328
1773232833683225300,3.544225341796875,1.6094374656677246,1.518412470817566,1.7821375131607056
1773232833693135000,3.554135009765625,1.9404000043869019,1.7907999753952026,2.282362461090088
1773232833703045000,3.564045166015625,2.35441255569458,1.8259999752044678,2.6569125652313232
1773232833712955100,3.573955078125,2.7823123931884766,1.5907374620437622,2.7974374294281006
1773232833722865200,3.583865234375,3.05153751373291,0.9979749917984009,2.685649871826172
1773232833732775000,3.59377490234375,3.1312875747680664,0.03698749840259552,2.389887571334839
1773232833742685000,3.603684814453125,3.0227999687194824,-0.9612625241279602,2.1238250732421875
1773232833752595000,3.613594970703125,2.6673624515533447,-1.4848624467849731,2.0630500316619873
1773232833762505000,3.6235048828125,2.2895123958587646,-1.3102375268936157,2.0897250175476074
1773232833772415000,3.6334150390625,2.067037582397461,-0.7749499678611755,2.0609874725341797
1773232833782324700,3.64332470703125,1.884024977684021,-0.19181250035762787,1.9406750202178955
1773232833792234800,3.65323486328125,1.631850004196167,0.1966249942779541,1.7917624711990356
1773232833802144800,3.663144775390625,1.5094749927520752,0.2125750035047531,1.6831375360488892
1773232833812054800,3.6730546875,1.5871624946594238,-0.0705375000834465,1.6332249641418457
1773232833821964500,3.682964599609375,1.734012484550476,-0.36739999055862427,1.5809749364852905
1773232833831874600,3.69287451171875,1.891450047492981,-0.6323624849319458,1.5086499452590942
1773232833841784600,3.70278466796875,2.0362374782562256,-1.0324875116348267,1.4480124711990356
1773232833851694300,3.7126943359375,2.1309750080108643,-1.392187476158142,1.3756874799728394
1773232833861604400,3.722604248046875,2.132075071334839,-1.4911874532699585,1.3096874952316284
1773232833871514400,3.732514404296875,2.0820250511169434,-1.4348125457763672,1.3063875436782837
1773232833881424400,3.74242431640625,2.013824939727783,-1.25496244430542,1.3191750049591064
1773232833891334100,3.752334228515625,1.9320124387741089,-0.982574999332428,1.2915375232696533
1773232833901244200,3.762244140625,1.8063374757766724,-0.7293000221252441,1.219212532043457
1773232833911154200,3.772154296875,1.6253875494003296,-0.6228749752044678,1.117050051689148
1773232833921064000,3.78206396484375,1.4136375188827515,-0.555774986743927,0.9531499743461609
1773232833930974000,3.791973876953125,1.1720499992370605,-0.5440874695777893,0.7445625066757202
1773232833940884000,3.801884033203125,0.907087504863739,-0.5654000043869019,0.4848249852657318
1773232833950794000,3.8117939453125,0.6102250218391418,-0.5748875141143799,0.1825999915599823
1773232833960703700,3.821703857421875,0.28984999656677246,-0.6260374784469604,-0.1270499974489212
1773232833970613800,3.83161376953125,-0.00494999997317791,-0.638824999332428,-0.4218499958515167
1773232833980523800,3.841523681640625,-0.19016249477863312,-0.5631999969482422,-0.6921749711036682
1773232833990433500,3.85143359375,-0.3018124997615814,-0.43656250834465027,-0.935824990272522
1773232834000343800,3.86134375,-0.3763374984264374,-0.22907499969005585,-1.1583000421524048
1773232834010253600,3.871253662109375,-0.4241875112056732,0.09019999951124191,-1.4104750156402588
1773232834020163600,3.88116357421875,-0.4423374831676483,0.5010499954223633,-1.714900016784668
1773232834030073600,3.891073486328125,-0.467912495136261,0.9096999764442444,-2.0842249393463135
1773232834039983400,3.9009833984375,-0.5103999972343445,1.2065625190734863,-2.5119874477386475
1773232834049893400,3.910893310546875,-0.6104999780654907,1.3534125089645386,-2.9844374656677246
1773232834059803400,3.920803466796875,-0.803137481212616,1.4216125011444092,-3.3452374935150146
1773232834069713400,3.93071337890625,-1.0456874370574951,1.62909996509552,-3.201550006866455
1773232834079623200,3.940623046875,-1.119249939918518,2.4048750400543213,-2.4778873920440674
1773232834089533400,3.950533447265625,-0.9084625244140625,3.0157876014709473,-1.9692749977111816
1773232834099443200,3.960443115234375,-0.5189250111579895,3.361599922180176,-1.7521624565124512
1773232834109353000,3.97035302734375,0.3302749991416931,3.13816237449646,-1.7489999532699585
1773232834119263000,3.980262939453125,1.557325005531311,2.8667373657226562,-1.5094749927520752
1773232834129173000,3.990173095703125,2.496037483215332,2.1324875354766846,-1.121037483215332
1773232834139083000,4.0000830078125,2.3281500339508057,0.9150624871253967,-0.6711375117301941
1773232834148993000,4.009992919921875,1.2075250148773193,-0.18424999713897705,-0.2815999984741211
1773232834158903000,4.019903076171875,-0.1504250019788742,-0.7908999919891357,-0.12622499465942383
1773232834168812800,4.029812744140625,-1.297724962234497,-1.0367499589920044,-0.34759998321533203
1773232834178722600,4.03972265625,-2.1884500980377197,-0.9312874674797058,-0.6987749934196472
1773232834188632800,4.0496328125,-2.8386874198913574,-0.7706875205039978,-1.0403250455856323
1773232834198542600,4.05954248046875,-3.217637538909912,-0.677049994468689,-1.3766499757766724
1773232834208452600,4.06945263671875,-3.256962537765503,-0.5322625041007996,-1.5884000062942505
1773232834218362600,4.079362548828125,-3.0196375846862793,-0.2747249901294708,-1.6458749771118164
1773232834228272400,4.0892724609375,-2.6332623958587646,0.032862499356269836,-1.6523374319076538
1773232834238182700,4.0991826171875,-2.257612466812134,0.3148750066757202,-1.6491750478744507
1773232834248092400,4.109092529296875,-1.9596500396728516,0.5575624704360962,-1.6150749921798706
1773232834258002200,4.119002197265625,-1.7117375135421753,0.7884249687194824,-1.545912504196167
1773232834267912400,4.128912353515625,-1.447737455368042,0.9619500041007996,-1.463962435722351
1773232834277822200,4.138822265625,-1.2072499990463257,1.023687481880188,-1.3820124864578247
1773232834287732200,4.148732177734375,-1.094499945640564,1.0172250270843506,-1.287274956703186
1773232834297642200,4.158642333984375,-1.0965625047683716,0.9534249901771545,-1.2159124612808228
1773232834307552000,4.168552001953125,-1.094499945640564,0.772475004196167,-1.1521124839782715
1773232834317462000,4.1784619140625,-1.045549988746643,0.5149375200271606,-1.0903749465942383
1773232834327371800,4.188371826171875,-0.9678624868392944,0.34677499532699585,-1.0499500036239624
1773232834337281800,4.19828173828125,-0.8837124705314636,0.38403749465942383,-1.026574969291687
1773232834347192000,4.208192138671875,-0.7837499976158142,0.5830000042915344,-1.0467875003814697
1773232834357101600,4.2181015625,-0.7017999887466431,0.8416374921798706,-1.0903749465942383
1773232834367011800,4.22801171875,-0.6506500244140625,1.124750018119812,-1.101099967956543
1773232834376921600,4.237921630859375,-0.6283749938011169,1.3237124681472778,-1.0542124509811401
1773232834386831600,4.24783154296875,-0.6400625109672546,1.4004374742507935,-0.9361000061035156
1773232834396741600,4.25774169921875,-0.6890124678611755,1.3695000410079956,-0.7455250024795532
1773232834406651400,4.2676513671875,-0.7837499976158142,1.199275016784668,-0.5508249998092651
1773232834416561400,4.2775615234375,-0.8731250166893005,0.9554874897003174,-0.41676250100135803
1773232834426471400,4.287471435546875,-0.889074981212616,0.7830625176429749,-0.3507624864578247
1773232834436381200,4.297381103515625,-0.8614374995231628,0.6437749862670898,-0.3656125068664551
1773232834446291200,4.307291259765625,-0.8379250168800354,0.5692499876022339,-0.44013750553131104
1773232834456201200,4.317201171875,-0.8358625173568726,0.522362470626831,-0.5337749719619751
1773232834466111200,4.327111328125,-0.8251374959945679,0.4244624972343445,-0.6338750123977661
1773232834476021000,4.33702099609375,-0.768762469291687,0.2531374990940094,-0.7210500240325928
1773232834485931000,4.346930908203125,-0.6676999926567078,0.028599999845027924,-0.7807250022888184
1773232834495841000,4.356841064453125,-0.5431249737739563,-0.16609999537467957,-0.7966749668121338
1773232834505750800,4.366750732421875,-0.4197874963283539,-0.23966249823570251,-0.783887505531311
1773232834515660800,4.376660888671875,-0.3133625090122223,-0.07672499865293503,-0.7264124751091003
1773232834525570800,4.38657080078125,-0.20157499611377716,0.15633749961853027,-0.6391000151634216
1773232834535480800,4.396480712890625,-0.1036750003695488,0.38513749837875366,-0.54339998960495
1773232834545390600,4.406390625,-0.048262499272823334,0.5234624743461609,-0.4731374979019165
1773232834555300600,4.416300537109375,-0.0919874981045723,0.5735124945640564,-0.45182499289512634
1773232834565210400,4.42621044921875,-0.23237499594688416,0.6682500243186951,-0.4305124878883362
1773232834575120400,4.436120361328125,-0.3984749913215637,0.8214250206947327,-0.35708749294281006
1773232834585030400,4.446030517578125,-0.5421624779701233,0.8874250054359436,-0.24433749914169312
1773232834594940400,4.4559404296875,-0.6230124831199646,0.8481000065803528,-0.14011250436306
1773232834604850200,4.46585009765625,-0.6059625148773193,0.7841625213623047,-0.09322500228881836
1773232834614760200,4.47576025390625,-0.5006374716758728,0.6745749711990356,-0.10064999759197235
1773232834624670200,4.485670166015625,-0.34952500462532043,0.4745124876499176,-0.12732499837875366
1773232834634580000,4.495580078125,-0.22068749368190765,0.2712875008583069,-0.14327499270439148
1773232834644490200,4.505490234375,-0.15895000100135803,0.07961250096559525,-0.13158750534057617
1773232834654400000,4.51539990234375,-0.15372499823570251,-0.08635000139474869,-0.09955000132322311
1773232834664310000,4.52531005859375,-0.18136249482631683,-0.18108749389648438,-0.07507500052452087
1773232834674219800,4.5352197265625,-0.19415000081062317,-0.23746250569820404,-0.0719124972820282
1773232834684129800,4.5451298828125,-0.13241249322891235,-0.32477501034736633,-0.09322500228881836
1773232834694039800,4.555039794921875,0.016637500375509262,-0.4119499921798706,-0.133650004863739
1773232834703949600,4.564949462890625,0.2241249978542328,-0.4961000084877014,-0.18053749203681946
1773232834713859600,4.574859619140625,0.42844998836517334,-0.6045874953269958,-0.22728750109672546
1773232834723769600,4.58476953125,0.5689749717712402,-0.73232501745224,-0.26455000042915344
1773232834733679400,4.594679443359375,0.6029375195503235,-0.853600025177002,-0.27623748779296875
1773232834743589600,4.604589599609375,0.5359749794006348,-0.8930624723434448,-0.24543750286102295
1773232834753499400,4.61449951171875,0.445499986410141,-0.8526374697685242,-0.1358499974012375
1773232834763409400,4.624409423828125,0.35186249017715454,-0.7972249984741211,0.10147500038146973
1773232834773319400,4.6343193359375,0.24323749542236328,-0.7972249984741211,0.48042500019073486
1773232834783229200,4.644229248046875,0.1368124932050705,-0.8930624723434448,0.97308748960495
1773232834793139200,4.65413916015625,0.07301250100135803,-1.048437476158142,1.5435750484466553
1773232834803049200,4.66404931640625,0.09858749806880951,-1.1250250339508057,2.1267125606536865
1773232834812959200,4.673959228515625,0.26138749718666077,-1.038812518119812,2.635462522506714
1773232834822869000,4.683868896484375,0.49761250615119934,-0.7226999998092651,3.016474962234497
1773232834832779000,4.693779052734375,0.7264124751091003,-0.24172499775886536,3.2612249851226807
1773232834842689000,4.70368896484375,0.9212499856948853,0.27445000410079956,3.3591248989105225
1773232834852598800,4.713598876953125,1.1127874851226807,0.7149999737739563,3.3207623958587646
1773232834862508800,4.7235087890625,1.2969000339508057,0.940637469291687,3.089900016784668
1773232834872418800,4.733418701171875,1.352174997329712,0.911899983882904,2.503462553024292
1773232834882328600,4.74332861328125,1.4107500314712524,0.6575250029563904,1.5052125453948975
1773232834892238600,4.753238525390625,1.6097124814987183,0.42762500047683716,0.3091000020503998
1773232834902148400,4.7631484375,1.847037434577942,-0.05967500060796738,-0.766837477684021
1773232834912058400,4.773058349609375,2.0024125576019287,-0.41731250286102295,-1.2841124534606934
1773232834921968400,4.782968505859375,2.081199884414673,0.14135000109672546,-0.895675003528595
1773232834931878400,4.79287841796875,2.165212392807007,1.0863875150680542,0.2994749844074249
1773232834941788200,4.8027880859375,2.3079373836517334,1.5142874717712402,1.456262469291687
1773232834951698200,4.8126982421875,2.5100624561309814,1.4301375150680542,2.1576499938964844
1773232834961608200,4.822608154296875,2.709162473678589,1.0034749507904053,2.616349935531616
1773232834971518200,4.832518310546875,2.775024890899658,0.47987499833106995,3.166487455368042
1773232834981428000,4.842427978515625,2.640962600708008,-0.24062499403953552,3.7731375694274902
1773232834991338000,4.852337890625,2.351525068283081,-1.0419750213623047,4.093375205993652
1773232835001248000,4.862248046875,1.9364124536514282,-1.300612449645996,3.801874876022339
1773232835011157800,4.87215771484375,1.6076500415802002,-1.300612449645996,2.7429873943328857
1773232835021067800,4.88206787109375,1.6321250200271606,-1.7231500148773193,1.529687523841858
1773232835030977500,4.8919775390625,1.7821375131607056,-1.8657374382019043,0.5772249698638916
1773232835040887600,4.901887451171875,1.880037546157837,-1.7050000429153442,0.07067500054836273
1773232835050797600,4.911797607421875,1.9130375385284424,-1.9126249551773071,-0.01759999990463257
1773232835060707300,4.921707275390625,1.8885624408721924,-2.4360873699188232,0.15895000100135803
1773232835070617600,4.93161767578125,1.88319993019104,-2.704349994659424,0.43779999017715454
1773232835080527400,4.94152734375,1.9577250480651855,-2.3403875827789307,0.7804499864578247
1773232835090437400,4.951437255859375,2.046137571334839,-1.6059999465942383,1.2253999710083008
1773232835100347400,4.961347412109375,2.0162999629974365,-0.9781749844551086,1.6648499965667725
1773232835110257400,4.97125732421875,1.8694499731063843,-0.7547374963760376,1.9798624515533447
1773232835120167200,4.981167236328125,1.6682875156402588,-0.9047499895095825,2.107599973678589
1773232835130077200,4.9910771484375,1.445812463760376,-1.179337501525879,2.051224946975708
1773232835139987200,5.0009873046875,1.220312476158142,-1.224025011062622,1.842637538909912
1773232835149897000,5.01089697265625,1.0158499479293823,-0.9514999985694885,1.5074124336242676
1773232835159807000,5.020806884765625,0.8339374661445618,-0.593999981880188,1.0859750509262085
1773232835169717000,5.030717041015625,0.6509249806404114,-0.33329999446868896,0.6443250179290771
1773232835179626800,5.040626708984375,0.48276248574256897,-0.2320999950170517,0.27390000224113464
1773232835189537000,5.050537109375,0.31459999084472656,-0.17572499811649323,-0.04633750021457672
1773232835199446800,5.06044677734375,0.16664999723434448,-0.020349999889731407,-0.3581874966621399
1773232835209356800,5.070356689453125,0.03684999793767929,0.36162498593330383,-0.6976749897003174
1773232835219266600,5.0802666015625,-0.08442500233650208,0.8980125188827515,-1.025475025177002
1773232835229176600,5.090176513671875,-0.3091000020503998,1.4876124858856201,-1.3202749490737915
1773232835239086600,5.100086669921875,-0.5963374972343445,1.9261000156402588,-1.6651250123977661
1773232835248996400,5.109996337890625,-1.010349988937378,1.8771499395370483,-2.105674982070923
1773232835258906600,5.11990673828125,-1.7393749952316284,1.2311749458312988,-2.6239125728607178
1773232835268816400,5.12981640625,-2.625837564468384,0.697950005531311,-2.9442875385284424
1773232835278726400,5.139726318359375,-3.267549991607666,1.1151249408721924,-2.5962750911712646
1773232835288636400,5.149636474609375,-3.4698123931884766,2.398550033569336,-1.294700026512146
1773232835298546200,5.159546142578125,-2.88557505607605,3.450012445449829,-0.5827249884605408
1773232835308456200,5.169456298828125,-1.8127999305725098,3.724600076675415,-1.3851749897003174
1773232835318366000,5.179365966796875,-0.5431249737739563,3.7959625720977783,-2.3526248931884766
1773232835328276000,5.18927587890625,0.952049970626831,4.054599761962891,-2.2109999656677246
1773232835338186000,5.19918603515625,2.107874870300293,2.9860875606536865,-1.0542124509811401
1773232835348096000,5.209095947265625,1.6044875383377075,0.2903999984264374,-0.07837499678134918
1773232835358005800,5.219005859375,0.007012499962002039,-1.2698124647140503,0.27816250920295715
1773232835367915800,5.228915771484375,-1.3008874654769897,-1.6380374431610107,-0.011274999938905239
1773232835377825800,5.23882568359375,-2.2512874603271484,-1.726312518119812,-0.6732000112533569
1773232835387735800,5.24873583984375,-2.950474977493286,-1.7454249858856201,-1.1862125396728516
1773232835397645600,5.2586455078125,-3.389925003051758,-1.8518500328063965,-1.445812463760376
1773232835407555600,5.2685556640625,-3.5230250358581543,-1.6975749731063843,-1.56392502784729
1773232835417465600,5.278465576171875,-3.3240625858306885,-1.2186625003814697,-1.6002249717712402
1773232835427375400,5.288375244140625,-2.881312370300293,-0.5928999781608582,-1.6682875156402588
1773232835437285400,5.298285400390625,-2.350287437438965,0.09239999949932098,-1.7661875486373901
1773232835447195100,5.308195068359375,-2.0501248836517334,0.6916249990463257,-1.8012499809265137
1773232835457105400,5.31810546875,-1.8979125022888184,1.1811250448226929,-1.7693499326705933
1773232835467015200,5.32801513671875,-1.6882250308990479,1.5109875202178955,-1.722599983215332
1773232835476925200,5.33792529296875,-1.4286249876022339,1.6611374616622925,-1.6236000061035156
1773232835486835200,5.347835205078125,-1.2083499431610107,1.6919374465942383,-1.4011249542236328
1773232835496745000,5.357744873046875,-1.1327250003814697,1.5035624504089355,-1.1053625345230103
1773232835506655200,5.3676552734375,-1.2093124389648438,1.098075032234192,-0.9084625244140625
1773232835516565000,5.37756494140625,-1.3444750308990479,0.6788374781608582,-0.8083624839782715
1773232835526474800,5.387474853515625,-1.4425125122070312,0.345674991607666,-0.7115625143051147
1773232835536384800,5.397384765625,-1.4764750003814697,0.1722874939441681,-0.6231499910354614
1773232835546294800,5.407294677734375,-1.4605250358581543,0.2190375030040741,-0.5944125056266785
1773232835556204500,5.41720458984375,-1.4019500017166138,0.47561249136924744,-0.6296125054359436
1773232835566114600,5.427114501953125,-1.3073500394821167,0.7852625250816345,-0.7062000036239624
1773232835576024600,5.437024658203125,-1.1987249851226807,1.1215875148773193,-0.7775624990463257
1773232835585934600,5.4469345703125,-1.0902374982833862,1.4280749559402466,-0.8200500011444092
1773232835595844400,5.45684423828125,-0.9933000206947327,1.5845500230789185,-0.8307750225067139
1773232835605754400,5.46675439453125,-0.915612518787384,1.601462483406067,-0.7903500199317932
1773232835615664400,5.476664306640625,-0.860337495803833,1.5195125341415405,-0.6796625256538391
1773232835625574100,5.48657421875,-0.8358625173568726,1.4152874946594238,-0.5178250074386597
1773232835635484200,5.496484130859375,-0.8424624800682068,1.2864500284194946,-0.3686375021934509
1773232835645394200,5.506394287109375,-0.8615750074386597,1.1438624858856201,-0.28132501244544983
1773232835655304200,5.51630419921875,-0.8658375144004822,1.006500005722046,-0.2653749883174896
1773232835665214000,5.5262138671875,-0.8478249907493591,0.9341750144958496,-0.2909500002861023
1773232835675123700,5.536123779296875,-0.8020374774932861,0.9245499968528748,-0.3176249861717224
1773232835685034000,5.546033935546875,-0.720087468624115,0.8425999879837036,-0.33563750982284546
1773232835694943700,5.55594384765625,-0.6104999780654907,0.6553249955177307,-0.35048750042915344
1773232835704853500,5.565853515625,-0.4796000123023987,0.45842498540878296,-0.3558500111103058
1773232835714763800,5.575763671875,-0.3455374836921692,0.3445749878883362,-0.33137500286102295
1773232835724673500,5.585673583984375,-0.22206249833106995,0.29452499747276306,-0.3057999908924103
1773232835734583600,5.59558349609375,-0.11990000307559967,0.2913624942302704,-0.3100624978542328
1773232835744493600,5.60549365234375,-0.06984999775886536,0.33605000376701355,-0.36973750591278076
1773232835754403600,5.615403564453125,-0.09116250276565552,0.4339500069618225,-0.4633750021457672
1773232835764313300,5.625313232421875,-0.18053749203681946,0.6126999855041504,-0.5314375162124634
1773232835774223400,5.635223388671875,-0.31459999084472656,0.8043749928474426,-0.5271750092506409
1773232835784133400,5.64513330078125,-0.439175009727478,0.9107999801635742,-0.4750624895095825
1773232835794043100,5.655043212890625,-0.5200250148773193,0.9011750221252441,-0.4197874963283539
1773232835803953200,5.664953125,-0.54339998960495,0.8351749777793884,-0.41442498564720154
1773232835813863200,5.67486328125,-0.5115000009536743,0.7383750081062317,-0.47712498903274536
1773232835823773000,5.68477294921875,-0.4402749836444855,0.6117374897003174,-0.5676000118255615
1773232835833683200,5.69468310546875,-0.3455374836921692,0.5095750093460083,-0.6250749826431274
1773232835843593000,5.704593017578125,-0.2400749921798706,0.3786749839782715,-0.6039000153541565
1773232835853503000,5.7145029296875,-0.14327499270439148,0.19126249849796295,-0.4591124951839447
1773232835863412700,5.724412841796875,-0.060224998742341995,-0.004537499975413084,-0.19085000455379486
1773232835873322800,5.73432275390625,0.035475000739097595,-0.18438750505447388,0.11659999936819077
1773232835883232800,5.744232666015625,0.16637499630451202,-0.3503499925136566,0.34017500281333923
1773232835893142500,5.754142578125,0.3217499852180481,-0.42377498745918274,0.40507498383522034
1773232835903052500,5.764052490234375,0.5208500027656555,-0.4536125063896179,0.31459999084472656
1773232835912962600,5.773962646484375,0.7634000182151794,-0.509987473487854,0.1293874979019165
1773232835922872600,5.78387255859375,1.0146124362945557,-0.5908374786376953,-0.05472499877214432
1773232835932782300,5.7937822265625,1.205049991607666,-0.7558375000953674,-0.1344749927520752
1773232835942692400,5.8036923828125,1.2093124389648438,-0.9878000020980835,-0.01209999993443489
1773232835952602000,5.81360205078125,0.9879375100135803,-1.2080750465393066,0.34966251254081726
1773232835962512100,5.82351220703125,0.6111875176429749,-1.3517625331878662,0.8977375030517578
1773232835972422100,5.833422119140625,0.24296249449253082,-1.3847625255584717,1.5214375257492065
1773232835982332200,5.843332275390625,0.07699999958276749,-1.3124375343322754,2.1141998767852783
1773232835992242000,5.853241943359375,0.13983750343322754,-1.130387544631958,2.5899500846862793
1773232836002152200,5.863152099609375,0.3334375023841858,-0.8474124670028687,2.9092249870300293
1773232836012062000,5.87306201171875,0.5772249698638916,-0.43230000138282776,3.074087381362915
1773232836021972000,5.882971923828125,0.8336625099182129,0.0668250024318695,3.1070873737335205
1773232836031882000,5.892882080078125,1.0592999458312988,0.5819000005722046,3.024174928665161
1773232836041791700,5.902791748046875,1.178512454032898,1.0448625087738037,2.813387393951416
1773232836051701500,5.912701416015625,1.2337875366210938,1.3736250400543213,2.462212562561035
1773232836061611500,5.922611572265625,1.3774750232696533,1.4577749967575073,1.9684499502182007
1773232836071521500,5.932521484375,1.6307499408721924,1.1587125062942505,1.2926374673843384
1773232836081431600,5.942431640625,1.941499948501587,0.7128000259399414,0.5806624889373779
1773232836091341300,5.95234130859375,2.239462375640869,0.5307499766349792,0.1868624985218048
1773232836101251000,5.9622509765625,2.4565749168395996,0.6041749715805054,0.26028749346733093
1773232836111161300,5.972161376953125,2.5843124389648438,0.8787624835968018,0.804099977016449
1773232836121071000,5.982071044921875,2.6024625301361084,0.9927499890327454,1.6554999351501465
1773232836130981000,5.991981201171875,2.589674949645996,0.9191874861717224,2.6079623699188232
1773232836140891100,6.00189111328125,2.6389000415802,0.7011125087738037,3.4314498901367188
1773232836150801000,6.01180078125,2.685649871826172,0.345674991607666,3.9657750129699707
1773232836160710700,6.021710693359375,2.61222505569458,-0.047987498342990875,4.121150016784668
1773232836170620700,6.03162060546875,2.3600499629974365,-0.43546250462532043,3.86787486076355
1773232836180530700,6.04153076171875,2.0237250328063965,-0.7141749858856201,3.169650077819824
1773232836190440700,6.051440673828125,1.855562448501587,-1.3347125053405762,2.103337526321411
1773232836200350500,6.0613505859375,1.947137475013733,-1.9667999744415283,1.0795124769210815
1773232836210260500,6.071260498046875,2.0993499755859375,-2.0040624141693115,0.4974749982357025
1773232836220170500,6.08117041015625,2.087524890899658,-1.8221499919891357,0.28132501244544983
1773232836230080300,6.091080322265625,1.964187502861023,-1.8508875370025635,0.2866874933242798
1773232836239990500,6.100990478515625,1.8481374979019165,-2.012587547302246,0.45801249146461487
1773232836249900300,6.110900390625,1.8140374422073364,-1.8700000047683716,0.8538749814033508
1773232836259810000,6.12081005859375,1.8865000009536743,-1.2942874431610107,1.4180375337600708
1773232836269720000,6.130719970703125,1.966249942779541,-0.7727500200271606,1.9373749494552612
1773232836279630000,6.140630126953125,1.9810999631881714,-0.5715875029563904,2.2395999431610107
1773232836289540000,6.1505400390625,1.9024499654769897,-0.7089499831199646,2.2959749698638916
1773232836299449900,6.160449951171875,1.7641249895095825,-1.0250624418258667,2.1300125122070312
1773232836309359900,6.17035986328125,1.613012433052063,-1.2963500022888184,1.8042750358581543
1773232836319269600,6.18026953125,1.4289000034332275,-1.3538249731063843,1.438249945640564
1773232836329179600,6.1901796875,1.1882749795913696,-1.2293875217437744,1.1605000495910645
1773232836339089700,6.200089599609375,0.9094250202178955,-1.0823999643325806,0.9624999761581421
1773232836348999400,6.20999951171875,0.6136624813079834,-0.9068124890327454,0.7847124934196472
1773232836358909700,6.21990966796875,0.36134999990463257,-0.7163749933242798,0.5953750014305115
1773232836368819500,6.2298193359375,0.16981250047683716,-0.5535749793052673,0.4250124990940094
1773232836378729200,6.239729248046875,0.03258749842643738,-0.40878748893737793,0.30373749136924744
1773232836388639200,6.24963916015625,-0.10051249712705612,-0.24598750472068787,0.20047499239444733
1773232836398549200,6.25954931640625,-0.25905001163482666,0.0424874983727932,0.060087498277425766
1773232836408459000,6.269458984375,-0.40700000524520874,0.36272498965263367,-0.11976250261068344
1773232836418369000,6.279369140625,-0.5134249925613403,0.6606875061988831,-0.27197501063346863
1773232836428279000,6.289279052734375,-0.5644375085830688,0.9523249864578247,-0.37207499146461487
1773232836438189000,6.29918896484375,-0.5761250257492065,1.1705374717712402,-0.4071374833583832
1773232836448098800,6.309098876953125,-0.4591124951839447,1.366337537765503,-0.5135625004768372
1773232836458008800,6.3190087890625,-0.09624999761581421,1.5845500230789185,-0.8029999732971191
1773232836467918600,6.328918701171875,0.24860000610351562,1.5100250244140625,-1.2809499502182007
1773232836477828600,6.33882861328125,0.30717501044273376,1.1981749534606934,-1.8737125396728516
1773232836487738600,6.348738525390625,0.10491249710321426,1.0630124807357788,-2.431274890899658
1773232836497648400,6.3586484375,-0.2525874972343445,1.1545875072479248,-2.798537492752075
1773232836507558400,6.368558349609375,-0.8006625175476074,1.367437481880188,-2.762237548828125
1773232836517468400,6.378468505859375,-1.4977874755859375,1.5578750371932983,-1.8501999378204346
1773232836527378200,6.388378173828125,-1.8213249444961548,1.1757625341415405,-0.5997750163078308
1773232836537288200,6.3982880859375,-1.3828375339508057,1.3705999851226807,-0.39434999227523804
1773232836547198000,6.408197998046875,-0.4729999899864197,2.405012369155884,-1.3947999477386475
1773232836557108000,6.41810791015625,0.28366249799728394,1.3344374895095825,-2.5069000720977783
1773232836567018000,6.42801806640625,0.141075000166893,-0.5461499691009521,-2.233412504196167
1773232836576927700,6.437927734375,-0.8273375034332275,-0.7206375002861023,-0.8797249794006348
1773232836586838000,6.447838134765625,-1.6457375288009644,-0.4184125065803528,0.01952499896287918
1773232836596747800,6.457747802734375,-1.9915499687194824,-0.43972501158714294,-0.043175000697374344
1773232836606657800,6.46765771484375,-2.112962484359741,-0.15125000476837158,-0.3667125105857849
1773232836616567600,6.477567626953125,-2.0597500801086426,0.2829749882221222,-0.5582500100135803
1773232836626477600,6.4874775390625,-1.7744375467300415,0.4489375054836273,-0.8573125004768372
1773232836636387300,6.49738720703125,-1.5023249387741089,0.5627874732017517,-1.3381500244140625
1773232836646297300,6.50729736328125,-1.5331250429153442,0.7851250171661377,-1.698949933052063
1773232836656207000,6.51720703125,-1.7439124584197998,1.0628750324249268,-1.7616499662399292
1773232836666117000,6.5271171875,-1.8928250074386597,1.226775050163269,-1.6255249977111816
1773232836676027100,6.537027099609375,-1.8833374977111816,1.266237497329712,-1.4306875467300415
1773232836685937000,6.54693701171875,-1.714074969291687,1.3417249917984009,-1.2573000192642212
1773232836695847000,6.556846923828125,-1.4693249464035034,1.4981999397277832,-1.1423499584197998
1773232836705757000,6.5667568359375,-1.2479499578475952,1.7418500185012817,-1.0891374349594116
1773232836715667000,6.5766669921875,-1.0712624788284302,1.9941624402999878,-1.1061874628067017
1773232836725576700,6.58657666015625,-0.9351375102996826,2.1260249614715576,-1.178512454032898
1773232836735486700,6.59648681640625,-0.840399980545044,2.054800033569336,-1.2328250408172607
1773232836745396700,6.606396728515625,-0.765874981880188,1.8365875482559204,-1.2200374603271484
1773232836760261400,6.621261474609375,-0.6785625219345093,1.3928749561309814,-1.094499945640564
1773232836770171100,6.631171142578125,-0.6488624811172485,1.0852874517440796,-0.9135500192642212
1773232836780081400,6.641081298828125,-0.6637125015258789,0.8414999842643738,-0.7240750193595886
1773232836789991200,6.6509912109375,-0.7169250249862671,0.75638747215271,-0.5889124870300293
1773232836799901200,6.660901123046875,-0.794612467288971,0.8405374884605408,-0.5240125060081482
1773232836809811000,6.67081103515625,-0.8797249794006348,1.0181875228881836,-0.5229125022888184
1773232836819721000,6.680720947265625,-0.9776250123977661,1.2395625114440918,-0.5357000231742859
1773232836829631000,6.690630859375,-1.0755250453948975,1.47798752784729,-0.5069624781608582
1773232836839540700,6.700540771484375,-1.144687533378601,1.6088874340057373,-0.4739624857902527
1773232836854405600,6.715405517578125,-1.227737545967102,1.6812125444412231,-0.43779999017715454
1773232836864315600,6.725315673828125,-1.2553750276565552,1.6834124326705933,-0.455949991941452
1773232836874225400,6.735225341796875,-1.2394249439239502,1.62909996509552,-0.5154874920845032
1773232836884135400,6.745135498046875,-1.211787462234497,1.620574951171875,-0.5282750129699707
1773232836894045400,6.75504541015625,-1.1713625192642212,1.609987497329712,-0.525112509727478
1773232836903955200,6.764955078125,-1.0936750173568726,1.5599374771118164,-0.5410624742507935
1773232836913865000,6.774864990234375,-1.0052624940872192,1.5204750299453735,-0.545324981212616
1773232836923775000,6.78477490234375,-0.9286749958992004,1.5258375406265259,-0.5219500064849854
1773232836933685000,6.79468505859375,-0.8552500009536743,1.5300999879837036,-0.4739624857902527
1773232836943594800,6.8045947265625,-0.7797625064849854,1.5747874975204468,-0.3686375021934509
1773232836953504800,6.8145048828125,-0.6956124901771545,1.6801124811172485,-0.1845249980688095
1773232836963414500,6.82441455078125,-0.5658124685287476,1.755737543106079,-0.008937500417232513
1773232836973324800,6.83432470703125,-0.4423374831676483,1.7685250043869019,0.0826374962925911
1773232836983234600,6.844234619140625,-0.3880249857902527,1.7525750398635864,0.1251250058412552
1773232836993144300,6.854144287109375,-0.3880249857902527,1.704587459564209,0.14643749594688416
1773232837003054300,6.864054443359375,-0.42528748512268066,1.6226375102996826,0.15606249868869781
1773232837012964000,6.873964111328125,-0.4731374979019165,1.562000036239624,0.16032500565052032
1773232837022874400,6.883874267578125,-0.5157625079154968,1.5215749740600586,0.15386250615119934
1773232837032784100,6.8937841796875,-0.5593500137329102,1.4726250171661377,0.147537499666214
1773232837042694100,6.903694091796875,-0.6115999817848206,1.403462529182434,0.14327499270439148
1773232837052604000,6.91360400390625,-0.6648125052452087,1.342824935913086,0.14643749594688416
1773232837062514000,6.923513916015625,-0.7243499755859375,1.320412516593933,0.17737500369548798
1773232837072423700,6.933423583984375,-0.7732999920845032,1.2970374822616577,0.22206249833106995
1773232837082333700,6.943333740234375,-0.7541875243186951,1.1970750093460083,0.2508000135421753
1773232837092243500,6.953243408203125,-0.6477624773979187,1.024649977684021,0.24117499589920044
1773232837102153500,6.963153564453125,-0.4838624894618988,0.7862250208854675,0.16458749771118164
1773232837112063500,6.9730634765625,-0.3082749843597412,0.48399999737739563,0.009212499484419823
1773232837121973200,6.98297314453125,-0.1933249980211258,0.2232999950647354,-0.16967499256134033
1773232837131883300,6.99288330078125,-0.14121249318122864,0.13805000483989716,-0.29301249980926514
1773232837141793000,7.00279296875,-0.11990000307559967,0.30621248483657837,-0.29727500677108765
1773232837151703000,7.012703125,-0.13791249692440033,0.6276875138282776,-0.17599999904632568
1773232837161613000,7.022613037109375,-0.19112500548362732,0.8980125188827515,0.03684999793767929
1773232837171522800,7.032522705078125,-0.15716250240802765,1.0118625164031982,0.25286251306533813
1773232837181432800,7.042432861328125,-0.062424998730421066,0.9862874746322632,0.4221250116825104
1773232837191342600,7.052342529296875,0.018424998968839645,0.8713374733924866,0.5348749756813049
1773232837201252600,7.062252685546875,0.07163749635219574,0.7011125087738037,0.5721374750137329
1773232837211162600,7.07216259765625,0.06847500056028366,0.5340499877929688,0.5295125246047974
1773232837221072400,7.082072265625,0.040837500244379044,0.38609999418258667,0.4241875112056732
1773232837230982400,7.091982421875,0.03437500074505806,0.2807750105857849,0.29864999651908875
1773232837240892200,7.10189208984375,0.04399999976158142,0.28283751010894775,0.21133749186992645
1773232837250802000,7.111802001953125,0.06847500056028366,0.48606249690055847,0.20707499980926514
1773232837260712200,7.121712158203125,0.11316250264644623,0.9607124924659729,0.35612499713897705
1773232837270622000,7.1316220703125,0.17173749208450317,1.5886750221252441,0.6806250214576721
1773232837280532000,7.141531982421875,0.31638750433921814,2.054800033569336,1.120212435722351
1773232837295396600,7.156396728515625,0.7176125049591064,2.1749749183654785,1.771549940109253
1773232837305306600,7.166306640625,1.0038875341415405,1.9227999448776245,2.1099374294281006
1773232837315216400,7.17621630859375,1.2656874656677246,1.4822499752044678,2.355787515640259
1773232837325126700,7.186126708984375,1.4924249649047852,0.9714375138282776,2.532474994659424
1773232837335036400,7.196036376953125,1.6552250385284424,0.5915250182151794,2.640962600708008
1773232837344946200,7.2059462890625,1.7755374908447266,0.4456374943256378,2.776124954223633
1773232837354856200,7.215856201171875,1.8862249851226807,0.48399999737739563,2.990074872970581
1773232837364766000,7.225765869140625,1.9340749979019165,0.4945875108242035,3.1603000164031982
1773232837374676000,7.235676025390625,1.9127625226974487,0.406312495470047,3.1773500442504883
1773232837384585700,7.245585693359375,1.8191249370574951,0.26688748598098755,3.021975040435791
1773232837394495700,7.255495849609375,1.6669124364852905,0.15729999542236328,2.6973373889923096
1773232837404405800,7.26540576171875,1.4860999584197998,0.15303750336170197,2.2387750148773193
1773232837414315500,7.2753154296875,1.3509374856948853,0.36272498965263367,1.7683874368667603
1773232837424225300,7.285225341796875,1.3476375341415405,0.8980125188827515,1.443750023841858
1773232837434135300,7.29513525390625,1.4892624616622925,1.7153124809265137,1.4096499681472778
1773232837444045000,7.305045166015625,1.6946874856948853,2.4198625087738037,1.73208749294281
1773232837453955000,7.314955078125,1.9170249700546265,2.443237543106079,2.2142999172210693
1773232837463865000,7.324864990234375,2.162874937057495,1.6737874746322632,2.5792250633239746
1773232837473774800,7.33477490234375,2.3480875492095947,0.865975022315979,2.8080248832702637
1773232837483684900,7.344684814453125,2.3671998977661133,0.5457375049591064,2.9059250354766846
1773232837493594600,7.3545947265625,2.238499879837036,0.4404124915599823,2.899600028991699
1773232837503504600,7.364504638671875,1.9958125352859497,0.2008875012397766,2.7356998920440674
1773232837513414700,7.37441455078125,1.7286499738693237,-0.17476250231266022,2.456850051879883
1773232837523324400,7.384324462890625,1.4977874755859375,-0.5409250259399414,2.195050001144409
1773232837533234200,7.394234130859375,1.2997875213623047,-0.8079500198364258,2.018362522125244
1773232837543144200,7.404144287109375,1.129562497138977,-0.9590625166893005,1.9130375385284424
1773232837553054000,7.414053955078125,1.0029250383377075,-0.946274995803833,1.8598250150680542
1773232837562964000,7.4239638671875,0.9464125037193298,-0.8494749665260315,1.8566625118255615
1773232837572874000,7.4338740234375,0.9176750183105469,-0.6951999664306641,1.8939249515533447
1773232837582783700,7.44378369140625,0.9230374693870544,-0.5706250071525574,1.915237545967102
1773232837592693800,7.45369384765625,0.9794124960899353,-0.38225001096725464,1.9045125246047974
1773232837602603500,7.463603515625,1.0730500221252441,-0.09817499667406082,1.9045125246047974
1773232837612513500,7.473513427734375,1.1731499433517456,0.13805000483989716,1.9321500062942505
1773232837622423300,7.48342333984375,1.2380499839782715,0.24447499215602875,1.90767502784729
1773232837632333300,7.493333251953125,1.3274250030517578,0.3531000018119812,1.796025037765503
1773232837642243000,7.5032431640625,1.354099988937378,0.5383124947547913,1.6629250049591064
1773232837652153000,7.513153076171875,1.2508374452590942,0.5670499801635742,1.5310624837875366
1773232837662062800,7.523062744140625,0.9879375100135803,0.39352500438690186,1.4192750453948975
1773232837671972900,7.532972900390625,0.6484500169754028,0.13598750531673431,1.3213750123977661
1773232837681883000,7.5428828125,0.3718000054359436,-0.015124999918043613,1.1712249517440796
1773232837691792600,7.552792724609375,0.18658749759197235,-0.08002500236034393,1.0191500186920166
1773232837701702400,7.562702392578125,0.07163749635219574,-0.07369999587535858,0.9062625169754028
1773232837711612400,7.5726123046875,0.01209999993443489,0.03492499887943268,0.8062999844551086
1773232837721522200,7.582522216796875,-0.03148749843239784,0.21051250398159027,0.7050999999046326
1773232837731432200,7.59243212890625,-0.0943249985575676,0.36588749289512634,0.6157249808311462
1773232837741342000,7.602342041015625,-0.19222499430179596,0.4828999936580658,0.5732374787330627
1773232837751252000,7.612251953125,-0.2901250123977661,0.5733749866485596,0.5413374900817871
1773232837761162000,7.622161865234375,-0.39118748903274536,0.6425374746322632,0.5018749833106995
1773232837771071700,7.63207177734375,-0.4647499918937683,0.7117000222206116,0.4380750060081482
1773232837780981800,7.641981689453125,-0.5381749868392944,0.7042750120162964,0.34869998693466187
1773232837790891500,7.6518916015625,-0.6179249882698059,0.6692125201225281,0.2677125036716461
1773232837800801300,7.66180126953125,-0.6679750084877014,0.6723750233650208,0.1985500007867813
1773232837810711300,7.671711181640625,-0.691349983215332,0.6478999853134155,0.12622499465942383
1773232837820621300,7.681621337890625,-0.7084000110626221,0.596750020980835,0.03891250118613243
1773232837830531000,7.691531005859375,-0.7147250175476074,0.5383124947547913,-0.05582499876618385
1773232837840441000,7.701441162109375,-0.7222874760627747,0.48399999737739563,-0.1461624950170517
1773232837850350800,7.711350830078125,-0.7434625029563904,0.4595249891281128,-0.21752500534057617
1773232837860260900,7.7212607421875,-0.7849875092506409,0.49568748474121094,-0.2761000096797943
1773232837870170600,7.731170654296875,-0.848924994468689,0.5904250144958496,-0.3484250009059906
1773232837880080400,7.741080322265625,-0.9403625130653381,0.7574874758720398,-0.4750624895095825
1773232837889990700,7.75099072265625,-1.0777250528335571,0.9766625165939331,-0.6645374894142151
1773232837899900400,7.760900390625,-1.2564749717712402,1.1672375202178955,-0.8826124668121338
1773232837909810200,7.77081005859375,-1.4810124635696411,1.30239999294281,-1.0806125402450562
1773232837919720200,7.78072021484375,-1.7630250453948975,1.3226125240325928,-1.1933624744415283
1773232837929630000,7.7906298828125,-2.0535624027252197,1.210824966430664,-1.1423499584197998
1773232837939539700,7.800539794921875,-2.198349952697754,1.3470875024795532,-0.7761874794960022
1773232837949449700,7.81044970703125,-1.9949874877929688,2.1196999549865723,-0.3207874894142151
1773232837959359700,7.82035986328125,-1.3139499425888062,2.929574966430664,-0.4324375092983246
1773232837969269500,7.83026953125,-0.5487625002861023,2.9358999729156494,-0.8964999914169312
1773232837979179300,7.84017919921875,-0.014574999921023846,2.116537570953369,-1.0667250156402588
1773232837989089300,7.85008935546875,0.14932499825954437,1.0565500259399414,-0.6571124792098999
1773232837998999000,7.8599990234375,-0.3040125072002411,0.406312495470047,0.16885000467300415
1773232838008909000,7.869908935546875,-0.8978750109672546,0.2626250088214874,0.5795624852180481
1773232838018818800,7.87981884765625,-1.2991000413894653,-0.03217500075697899,0.1975875049829483
1773232838028728600,7.889728515625,-1.6821750402450562,0.009349999949336052,-0.33563750982284546
1773232838038638600,7.899638671875,-2.1195623874664307,0.2870999872684479,-0.7240750193595886
1773232838048548600,7.909548583984375,-2.4920499324798584,0.4786374866962433,-1.0657625198364258
1773232838058458400,7.919458251953125,-2.709162473678589,0.6861249804496765,-1.297724962234497
1773232838068368400,7.929368408203125,-2.677262544631958,0.9532874822616577,-1.4062124490737915
1773232838078278100,7.939278076171875,-2.4527249336242676,1.2321374416351318,-1.4254624843597412
1773232838088188000,7.94918798828125,-2.049299955368042,1.6024249792099,-1.3998874425888062
1773232838098098200,7.95909814453125,-1.535325050354004,2.0813374519348145,-1.2370874881744385
1773232838108008000,7.969008056640625,-1.0404624938964844,2.435812473297119,-0.9124500155448914
1773232838117917700,7.978917724609375,-0.72861248254776,2.561349868774414,-0.5473874807357788
1773232838127827700,7.98882763671875,-0.6637125015258789,2.4569873809814453,-0.2579500079154968
1773232838137737500,7.998737548828125,-0.7999749779701233,2.14101243019104,-0.09941250085830688
1773232838147647200,8.008647216796875,-1.044724941253662,1.6726875305175781,-0.06421250104904175
1773232838157557200,8.01855712890625,-1.2618374824523926,1.2321374416351318,-0.07699999958276749
1773232838167467000,8.028467041015626,-1.370324969291687,0.9373375177383423,-0.09624999761581421
1773232838177377300,8.038377197265625,-1.387374997138977,0.7777000069618225,-0.1313125044107437
1773232838187286800,8.048286865234376,-1.3469499349594116,0.8010749816894531,-0.18988749384880066
1773232838197196800,8.05819677734375,-1.2746249437332153,1.0044374465942383,-0.27816250920295715
1773232838207106800,8.06810693359375,-1.1819499731063843,1.2831499576568604,-0.39201250672340393
1773232838217016600,8.0780166015625,-1.0947749614715576,1.518412470817566,-0.4867500066757202
1773232838226926600,8.087926513671874,-1.0372999906539917,1.6812125444412231,-0.5421624779701233
1773232838236836400,8.09783642578125,-1.015987515449524,1.7802125215530396,-0.5314375162124634
1773232838246746000,8.10774609375,-1.0202499628067017,1.8163750171661377,-0.46543750166893005
1773232838256656400,8.117656494140626,-1.0297374725341797,1.7461124658584595,-0.38032498955726624
1773232838266566000,8.12756591796875,-1.0478874444961548,1.655637502670288,-0.2835249900817871
1773232838276476000,8.137475830078126,-1.0734624862670898,1.61947500705719,-0.2143625020980835
1773232838286386000,8.147385986328125,-1.119249939918518,1.6439499855041504,-0.20047499239444733
1773232838296295700,8.157295654296876,-1.167099952697754,1.7269999980926514,-0.22068749368190765
1773232838306205400,8.167205322265625,-1.1776875257492065,1.898324966430664,-0.2377374917268753
1773232838316115500,8.177115478515624,-1.1596750020980835,2.12396240234375,-0.20899999141693115
1773232838326025200,8.187025146484375,-1.1138875484466553,2.3134374618530273,-0.14409999549388885
1773232838335935200,8.196935302734374,-1.0575125217437744,2.3835625648498535,-0.07493750005960464
1773232838345845000,8.206844970703125,-0.9946749806404114,2.423024892807007,-0.0015124999918043613
1773232838355754800,8.216754638671874,-0.9468249678611755,2.392087459564209,0.09638749808073044
1773232838365664800,8.226664794921875,-0.9127249717712402,2.305875062942505,0.20707499980926514
1773232838375574800,8.23657470703125,-0.8808249831199646,2.2261250019073486,0.3242250084877014
1773232838385484500,8.246484619140626,-0.8606125116348267,2.0983874797821045,0.40617498755455017
1773232838395394300,8.256394287109375,-0.8552500009536743,1.9142749309539795,0.4433000087738037
1773232838405304300,8.26630419921875,-0.849887490272522,1.879212498664856,0.5018749833106995
1773232838415214000,8.276214111328125,-0.7764624953269958,1.8589999675750732,0.5220875144004822
1773232838425124000,8.2861240234375,-0.7594124674797058,1.8345249891281128,0.491287499666214
1773232838435033900,8.296033935546875,-0.7818250060081482,1.7620625495910645,0.4433000087738037
1773232838444943600,8.305943603515624,-0.7966749668121338,1.5556750297546387,0.4104374945163727
1773232838454853600,8.315853515625,-0.7860875129699707,1.3044625520706177,0.39338749647140503
1773232838464763400,8.325763427734374,-0.7445625066757202,1.1151249408721924,0.4008125066757202
1773232838474673400,8.33567333984375,-0.7095000147819519,1.0213500261306763,0.4071374833583832
1773232838484583200,8.345583251953125,-0.7115625143051147,1.0352375507354736,0.40617498755455017
1773232838494493200,8.3554931640625,-0.7265499830245972,1.1481250524520874,0.41786250472068787
1773232838504403200,8.3654033203125,-0.7073000073432922,1.2949750423431396,0.4338124990463257
1773232838514313000,8.37531298828125,-0.644599974155426,1.4216125011444092,0.4338124990463257
1773232838524222700,8.38522265625,-0.5455999970436096,1.4651999473571777,0.40287500619888306
1773232838534132700,8.3951328125,-0.4338124990463257,1.4045624732971191,0.31459999084472656
1773232838544042500,8.40504248046875,-0.3156999945640564,1.257712483406067,0.16664999723434448
1773232838553952500,8.414952392578124,-0.14973749220371246,1.043762445449829,0.0038499999791383743
1773232838563862300,8.4248623046875,0.07067500054836273,0.8127624988555908,-0.10903749614953995
1773232838573772000,8.43477197265625,0.317487508058548,0.5659499764442444,-0.13983750343322754
1773232838583682000,8.44468212890625,0.5676000118255615,0.30098751187324524,-0.1036750003695488
1773232838593591800,8.454591796875,0.8102874755859375,0.02419999986886978,-0.020624998956918716
1773232838603501800,8.464501708984375,1.0092500448226929,-0.27059999108314514,0.10807500034570694
1773232838613411600,8.47441162109375,1.139050006866455,-0.5865749716758728,0.27101248502731323
1773232838623321600,8.484321533203126,1.1848374605178833,-0.8548374772071838,0.43697500228881836
1773232838633231400,8.4942314453125,1.1592625379562378,-0.9559000134468079,0.6040375232696533
1773232838643141000,8.50414111328125,1.103987455368042,-0.8494749665260315,0.7977749705314636
1773232838653051000,8.51405078125,1.037987470626831,-0.6217749714851379,1.0818500518798828
1773232838662961000,8.5239609375,0.9751499891281128,-0.3343999981880188,1.5182750225067139
1773232838672870700,8.53387060546875,0.9102500081062317,-0.03753750026226044,2.0822999477386475
1773232838682780700,8.54378076171875,0.8028625249862671,0.25519999861717224,2.6494874954223633
1773232838692690400,8.5536904296875,0.721875011920929,0.6755374670028687,3.0890750885009766
1773232838702600200,8.56360009765625,0.7049624919891357,1.1767250299453735,3.3594000339508057
1773232838712510500,8.573510498046875,0.7719249725341797,1.570525050163269,3.4530375003814697
1773232838722420200,8.583420166015625,0.8570374846458435,1.8482749462127686,3.3603625297546387
1773232838732330000,8.593330078125,0.9656624794006348,2.09728741645813,3.115612506866455
1773232838742240000,8.603239990234375,1.1262625455856323,2.2165000438690186,2.8261749744415283
1773232838752149800,8.613149658203126,1.337049961090088,2.0121750831604004,2.4930124282836914
1773232838762059800,8.623059814453125,1.2934625148773193,1.1299749612808228,2.157787561416626
1773232838771969500,8.632969482421874,1.3828375339508057,0.12209999561309814,2.1375749111175537
1773232838781879600,8.642879638671875,1.7499624490737915,0.008249999955296516,1.9184000492095947
1773232838791789300,8.652789306640624,2.0117623805999756,0.4020499885082245,1.555537462234497
1773232838801699000,8.662698974609375,2.0191874504089355,1.015025019645691,1.3054250478744507
1773232838811609000,8.672609130859374,2.0054373741149902,1.6354249715805054,1.3629000186920166
1773232838821518800,8.682518798828125,2.1714000701904297,1.8515750169754028,1.5937625169754028
1773232838831428600,8.6924287109375,2.3981375694274902,1.351349949836731,1.7938250303268433
1773232838841338600,8.702338623046876,2.517212390899658,0.3030500113964081,1.7118749618530273
1773232838851248400,8.712248291015625,2.4736249446868896,-1.0857000350952148,1.2702250480651855
1773232838861158400,8.722158447265626,2.3842499256134033,-2.1946375370025635,0.7084000110626221
1773232838871068400,8.732068359375,2.334199905395508,-2.3372249603271484,0.39434999227523804
1773232838880978200,8.741978271484374,2.3331000804901123,-1.8583124876022339,0.49334999918937683
1773232838890888000,8.751887939453125,2.292675018310547,-1.6050374507904053,0.8487874865531921
1773232838900798000,8.7617978515625,2.097975015640259,-1.3028124570846558,1.1159499883651733
1773232838910707700,8.771707763671875,1.902174949645996,-0.7462124824523926,1.3393875360488892
1773232838920617500,8.781617431640624,1.826550006866455,-0.1812250018119812,1.6821750402450562
1773232838930527200,8.79152734375,1.8436000347137451,0.2125750035047531,2.1216249465942383
1773232838940437200,8.801437255859375,1.8063374757766724,0.45842498540878296,2.3355751037597656
1773232838950347000,8.811346923828125,1.6913875341415405,0.23704999685287476,2.2599499225616455
1773232838960257000,8.821257080078125,1.5626875162124634,-0.25244998931884766,2.0014500617980957
1773232838970166800,8.831166748046876,1.4722124338150024,-0.5568749904632568,1.5681874752044678
1773232838980076500,8.84107666015625,1.3444750308990479,-0.6238374710083008,1.1691625118255615
1773232838989986800,8.85098681640625,1.1913000345230103,-0.5620999932289124,0.8359999656677246
1773232838999896300,8.860896240234375,1.0528374910354614,-0.4632374942302704,0.46997499465942383
1773232839009806000,8.87080615234375,0.8687250018119812,-0.5387250185012817,0.07411249727010727
1773232839019716400,8.88071630859375,0.6984999775886536,-0.7473124861717224,-0.3515875041484833
1773232839029626000,8.890626220703124,0.5665000081062317,-1.0144749879837036,-0.7017999887466431
1773232839039535900,8.900535888671875,0.44948750734329224,-1.131487488746643,-0.777287483215332
1773232839049446000,8.91044580078125,0.30469998717308044,-0.9197375178337097,-0.6549124717712402
1773232839059355600,8.920355712890625,0.0695749968290329,-0.4675000011920929,-0.5388625264167786
1773232839069265400,8.930265380859375,-0.1634874939918518,0.06792499870061874,-0.47712498903274536
1773232839079175400,8.940175537109376,-0.45086249709129333,0.6829624772071838,-0.46543750166893005
1773232839089085200,8.950085205078125,-0.7807250022888184,1.2959375381469727,-0.591112494468689
1773232839098995000,8.959994873046876,-0.8637750148773193,1.4375624656677246,-0.7666999697685242
1773232839108905000,8.969905029296875,-0.7721999883651733,1.0799249410629272,-0.9039250016212463
1773232839118814700,8.979814697265626,-0.9275749921798706,0.8575875163078308,-1.206149935722351
1773232839128724700,8.989724853515625,-1.2416249513626099,0.810699999332428,-1.6095750331878662
1773232839138634500,8.999634521484374,-1.5225374698638916,0.7138999700546265,-1.782962441444397
1773232839148544300,9.009544189453125,-1.7109124660491943,0.5446375012397766,-1.6967500448226929
1773232839158454300,9.019454345703124,-1.8481374979019165,0.45100000500679016,-1.4041500091552734
1773232839168364000,9.029364013671875,-1.9514000415802002,0.8234875202178955,-0.9997624754905701
1773232839178274000,9.039274169921875,-1.915237545967102,1.8419499397277832,-0.6645374894142151
1773232839188184000,9.04918408203125,-1.6087499856948853,2.9796249866485596,-0.8848124742507935
1773232839198093600,9.059093505859375,-1.1127874851226807,2.9594125747680664,-1.8372750282287598
1773232839208003600,9.069003662109376,-0.7712374925613403,2.4688124656677246,-2.4279749393463135
1773232839217913300,9.078913330078125,-0.5348749756813049,2.9167873859405518,-1.6670500040054321
1773232839227823400,9.0888232421875,-0.2763749957084656,2.7901499271392822,-0.4090625047683716
1773232839237733400,9.0987333984375,-0.27953749895095825,1.62909996509552,0.16128750145435333
1773232839247643100,9.10864306640625,-0.5018749833106995,0.8414999842643738,0.3422375023365021
1773232839257552600,9.118552734375,-0.8276125192642212,0.37014999985694885,0.3242250084877014
1773232839267463000,9.128462890625,-1.2713249921798706,-0.1363999992609024,0.020899999886751175
1773232839277372700,9.13837255859375,-1.739650011062622,-0.5313000082969666,-0.37070000171661377
1773232839287282400,9.148282470703125,-2.122725009918213,-0.6494125127792358,-0.7060624957084656
1773232839297192400,9.1581923828125,-2.2908875942230225,-0.4482499957084656,-0.935824990272522
1773232839307102200,9.168102294921875,-2.2142999172210693,-0.007699999958276749,-1.0220375061035156
1773232839317012000,9.178011962890626,-1.991824984550476,0.6052749752998352,-0.9656624794006348
1773232839326922000,9.187921875,-1.8215999603271484,1.125712513923645,-0.8305000066757202
1773232839336831700,9.197831787109376,-1.7257624864578247,1.4546124935150146,-0.6921749711036682
1773232839346741800,9.20774169921875,-1.628962516784668,1.628000020980835,-0.5208500027656555
1773232839356651500,9.217651611328124,-1.461899995803833,1.6003625392913818,-0.34209999442100525
1773232839366561300,9.227561279296875,-1.2788875102996826,1.360837459564209,-0.23457500338554382
1773232839376471000,9.237470947265624,-1.167099952697754,0.8969125151634216,-0.24832500517368317
1773232839386381000,9.247381103515625,-1.1426249742507935,0.46158748865127563,-0.3133625090122223
1773232839396290800,9.257290771484374,-1.1713625192642212,0.21793749928474426,-0.40273749828338623
1773232839406200800,9.267200927734375,-1.1808500289916992,0.2498375028371811,-0.46873748302459717
1773232839416110600,9.277110595703125,-1.1798875331878662,0.652162492275238,-0.47932499647140503
1773232839426020400,9.287020263671875,-1.1969374418258667,1.537524938583374,-0.3452624976634979
1773232839435930400,9.296930419921875,-1.1904749870300293,2.3240249156951904,-0.18768750131130219
1773232839445840100,9.306840087890626,-1.2181124687194824,2.691149950027466,-0.03657500073313713
1773232839455750000,9.31675,-1.2670625448226929,2.5528249740600586,0.026124998927116394
1773232839465660000,9.326659912109376,-1.3182125091552734,1.880312442779541,-0.15468749403953552
1773232839475569700,9.336569580078125,-1.3096874952316284,0.8863250017166138,-0.5612750053405762
1773232839485479400,9.3464794921875,-1.2138500213623047,-0.0789249986410141,-1.027400016784668
1773232839495389200,9.35638916015625,-1.1022000312805176,-0.7984625101089478,-1.3956249952316284
1773232839505299200,9.36629931640625,-1.0148874521255493,-1.3028124570846558,-1.6435375213623047
1773232839515209000,9.376208984375,-0.9468249678611755,-1.634874939918518,-1.8116999864578247
1773232839525118700,9.38611865234375,-0.9158874750137329,-1.7732000350952148,-1.901075005531311
1773232839535028700,9.39602880859375,-0.9138249754905701,-1.6550874710083008,-1.909600019454956
1773232839544938500,9.4059384765625,-0.9127249717712402,-1.3411749601364136,-1.8723374605178833
1773232839554848300,9.41584814453125,-0.8967750072479248,-0.8153749704360962,-1.7957500219345093
1773232839564758300,9.42575830078125,-0.8828874826431274,0.030662499368190765,-1.5956875085830688
1773232839574668000,9.43566796875,-0.9021375179290771,1.0895500183105469,-1.2561999559402466
1773232839584577800,9.445577880859375,-0.9340375065803528,1.5226750373840332,-1.1391874551773071
1773232839594487800,9.45548779296875,-0.9468249678611755,1.3704625368118286,-1.2317249774932861
1773232839604397600,9.4653974609375,-0.829675018787384,1.0448625087738037,-1.3572624921798706
1773232839614307300,9.475307373046874,-0.6158624887466431,0.7990124821662903,-1.4019500017166138
1773232839624217300,9.48521728515625,-0.3338499963283539,0.6883249878883362,-1.306249976158142
1773232839634127400,9.49512744140625,-0.026262499392032623,0.4595249891281128,-1.1923999786376953
1773232839644036900,9.505036865234375,0.10999999940395355,0.055137500166893005,-1.0422500371932983
1773232839653947000,9.51494677734375,-0.10711249709129333,-0.4419249892234802,-0.8102874755859375
1773232839663856600,9.524856689453125,-0.4816625118255615,-0.7293000221252441,-0.6017000079154968
1773232839673766700,9.5347666015625,-0.6859874725341797,-0.647350013256073,-0.5229125022888184
1773232839683676400,9.544676513671876,-0.5689749717712402,-0.33233749866485596,-0.39531248807907104
1773232839693586200,9.554586181640625,-0.3870624899864197,0.10408750176429749,-0.2685374915599823
1773232839703496400,9.564496337890626,-0.25712499022483826,0.5148000121116638,-0.1036750003695488
1773232839713406000,9.574406005859375,-0.08689999580383301,0.7341125011444092,0.170912504196167
1773232839723315700,9.584315673828126,0.002474999986588955,0.8245875239372253,0.4071374833583832
1773232839733225700,9.594225830078125,0.037675000727176666,0.8904500007629395,0.5380374789237976
1773232839743135500,9.604135498046874,0.09831249713897705,1.0448625087738037,0.5955125093460083
1773232839753045200,9.614045166015625,0.15895000100135803,1.1906124353408813,0.5741999745368958
1773232839762955500,9.62395556640625,0.19304999709129333,1.2342000007629395,0.48276248574256897
1773232839772865300,9.633865234375,0.22495000064373016,1.136299967765808,0.34113749861717224
1773232839782775000,9.643775146484375,0.2611125111579895,0.9149249792098999,0.16554999351501465
1773232839792685000,9.65368505859375,0.3185875117778778,0.5978500247001648,-0.022824998944997787
1773232839802594600,9.663594482421875,0.3973749876022339,0.21683749556541443,-0.19841249287128448
1773232839812504300,9.67350439453125,0.5249750018119812,-0.17270000278949738,-0.3515875041484833
1773232839822414300,9.683414306640625,0.6569749712944031,-0.5887749791145325,-0.47932499647140503
1773232839832324000,9.693323974609376,0.7251750230789185,-0.9686874747276306,-0.5325375199317932
1773232839842233900,9.70323388671875,0.6931374669075012,-1.2826000452041626,-0.45691248774528503
1773232839852143900,9.713143798828124,0.5516499876976013,-1.576300024986267,-0.26963749527931213
1773232839862053600,9.7230537109375,0.3590124845504761,-1.810462474822998,0.05389999970793724
1773232839871963400,9.73296337890625,0.1504250019788742,-1.8710999488830566,0.5945500135421753
1773232839881873700,9.742873779296875,0.018424998968839645,-1.1644874811172485,1.5916999578475952
1773232839891783200,9.752783203125,0.008937500417232513,-0.24186250567436218,2.729374885559082
1773232839901693200,9.762693115234375,0.059950001537799835,-0.2843500077724457,3.402987480163574
1773232839911603000,9.77260302734375,0.18975000083446503,-0.6802124977111816,3.835012435913086
1773232839921512700,9.7825126953125,0.41964998841285706,-0.8824750185012817,4.258649826049805
1773232839931422500,9.79242236328125,0.6793875098228455,-0.6983624696731567,4.7322001457214355
1773232839941332500,9.80233251953125,0.9741874933242798,0.3328875005245209,5.175912380218506
1773232839951242200,9.8122421875,1.2827374935150146,1.8589999675750732,5.1206374168396
1773232839961152300,9.82215234375,1.5285874605178833,3.1019999980926514,4.384187698364258
1773232839971062000,9.83206201171875,1.7052749395370483,3.194537401199341,3.0922374725341797
1773232839980971800,9.8419716796875,1.7968499660491943,2.10691237449646,1.5692875385284424
1773232839990881800,9.8518818359375,1.8521250486373901,0.7031750082969666,0.20281249284744263
1773232840000791600,9.86179150390625,1.9733999967575073,0.05609999969601631,-0.6953374743461609
1773232840010701300,9.871701416015625,2.2831873893737793,0.6297500133514404,-0.83160001039505
1773232840020611300,9.881611328125,2.6588375568389893,1.3257750272750854,-0.48785001039505005
1773232840030521000,9.89152099609375,2.7174124717712402,1.5588375329971313,0.11233749985694885
1773232840040430800,9.901430908203125,2.0054373741149902,0.9927499890327454,0.9222124814987183
1773232840050340900,9.9113408203125,1.5126374959945679,-0.23649999499320984,1.6768125295639038
1773232840060250600,9.921250732421875,1.6381750106811523,-1.1251624822616577,2.3259499073028564
1773232840070160400,9.931160400390626,1.9893499612808228,-1.448699951171875,2.7707624435424805
1773232840080070100,9.941070068359375,2.282087564468384,-1.3508000373840332,2.9644999504089355
1773232840089980200,9.950980224609374,2.3597750663757324,-0.8846749663352966,3.0038249492645264
1773232840099890000,9.960889892578125,2.2064623832702637,-0.4195125102996826,2.9261374473571777
1773232840109799700,9.970799560546874,1.9596500396728516,-0.20886249840259552,2.7697999477386475
1773232840119709400,9.98070947265625,1.706375002861023,-0.19181250035762787,2.639862537384033
1773232840129619500,9.990619384765624,1.521162509918213,-0.2843500077724457,2.5069000720977783
1773232840139529200,10.000529296875,1.4221625328063965,-0.572825014591217,2.1939499378204346
1773232840149439000,10.01043896484375,1.4338500499725342,-1.09642493724823,1.6139750480651855
1773232840159349000,10.020348876953125,1.6520625352859497,-1.3752750158309937,1.120212435722351
1773232840169258800,10.0302587890625,2.0681374073028564,-1.4783999919891357,1.0553125143051147
1773232840179168500,10.04016845703125,2.282087564468384,-1.3677124977111816,1.2542749643325806
1773232840189078500,10.05007861328125,2.078862428665161,-0.8292624950408936,1.5043874979019165
1773232840198988300,10.05998828125,1.7681125402450562,-0.057750001549720764,1.7300249338150024
1773232840208898000,10.06989794921875,1.5732749700546265,0.382937490940094,1.7491375207901
1773232840218808000,10.07980810546875,1.4041500091552734,0.42858749628067017,1.6087499856948853
1773232840228717800,10.0897177734375,1.1805750131607056,0.39668750762939453,1.4001624584197998
1773232840238627600,10.099627685546874,0.8837124705314636,0.38499999046325684,1.109624981880188
1773232840248537600,10.10953759765625,0.5229125022888184,0.345674991607666,0.792412519454956
1773232840258447000,10.119447021484374,0.20047499239444733,0.3232625126838684,0.5072374939918518
1773232840268356900,10.12935693359375,0.01209999993443489,0.345674991607666,0.2582249939441681
1773232840278267000,10.139266845703125,-0.08470000326633453,0.4361499845981598,0.03258749842643738
1773232840288176600,10.1491767578125,-0.23691250383853912,0.5084750056266785,-0.18136249482631683
1773232840298086700,10.159086669921875,-0.5658124685287476,0.47437500953674316,-0.3760625123977661
1773232840307996400,10.168996337890626,-0.9127249717712402,0.6021124720573425,-0.5644375085830688
1773232840317906200,10.17890625,-1.0979374647140503,0.7469000220298767,-0.7581750154495239
1773232840327816200,10.188816162109376,-1.1660000085830688,0.7660124897956848,-0.97308748960495
1773232840337726000,10.198725830078125,-1.2447874546051025,0.6627500057220459,-1.2243000268936157
1773232840347635700,10.2086357421875,-1.360700011253357,0.6052749752998352,-1.498887538909912
1773232840357545700,10.218545654296875,-1.5586999654769897,0.46584999561309814,-1.7777374982833862
1773232840367455500,10.22845556640625,-1.8290250301361084,0.04124999791383743,-2.0160250663757324
1773232840377365200,10.238365234375,-2.164249897003174,-0.4057624936103821,-2.124650001525879
1773232840387275000,10.24827490234375,-2.611262559890747,-0.07576250284910202,-1.866012454032898
1773232840397185000,10.25818505859375,-3.0614373683929443,0.8277499675750732,-1.3083125352859497
1773232840407094800,10.2680947265625,-3.1486124992370605,1.486512541770935,-1.0327625274658203
1773232840417004500,10.278004638671876,-2.690049886703491,1.5226750373840332,-1.4009875059127808
1773232840426914600,10.28791455078125,-1.7407499551773071,1.6589374542236328,-1.650962471961975
1773232840436824300,10.29782421875,-0.6902499794960022,2.2197999954223633,-0.9678624868392944
1773232840446734000,10.307734130859375,-0.07301250100135803,1.6046249866485596,-0.35475000739097595
1773232840456644000,10.31764404296875,0.18342499434947968,1.1533499956130981,-0.24736249446868896
1773232840466553900,10.327553955078125,-0.10821250081062317,1.2704999446868896,-0.22384999692440033
1773232840476463400,10.33746337890625,-0.6221874952316284,1.152250051498413,-0.36547499895095825
1773232840486373600,10.34737353515625,-0.9807875156402588,0.8320124745368958,-0.7389249801635742
1773232840496283100,10.357283203125,-1.2214125394821167,0.4404124915599823,-1.1358875036239624
1773232840506193200,10.367193115234375,-1.3054250478744507,0.03698749840259552,-1.3774750232696533
1773232840516103000,10.37710302734375,-1.2639000415802002,-0.2237125039100647,-1.4669874906539917
1773232840526012700,10.3870126953125,-1.1415250301361084,-0.19071249663829803,-1.4669874906539917
1773232840535922400,10.39692236328125,-0.9627749919891357,0.03382499888539314,-1.337049961090088
1773232840545832400,10.40683251953125,-0.8531875014305115,0.15936249494552612,-1.1434500217437744
1773232840555742200,10.4167421875,-0.840399980545044,0.2817375063896179,-0.9539750218391418
1773232840565652000,10.42665185546875,-0.9021375179290771,0.5563250184059143,-0.7847124934196472
1773232840575561700,10.436561767578125,-1.0532499551773071,0.8372374773025513,-0.6560124754905701
1773232840585471700,10.4464716796875,-1.2362624406814575,1.068237543106079,-0.5846499800682068
1773232840595381500,10.456381591796875,-1.3458499908447266,1.1481250524520874,-0.5527499914169312
1773232840605291300,10.466291259765624,-1.4693249464035034,1.1587125062942505,-0.6230124831199646
1773232840615201300,10.476201171875,-1.6098500490188599,1.200237512588501,-0.7336999773979187
1773232840625111000,10.486111083984374,-1.7098125219345093,1.3417249917984009,-0.8922374844551086
1773232840635020800,10.496020751953125,-1.796025037765503,1.4130874872207642,-1.0529749393463135
1773232840644930600,10.5059306640625,-1.8130749464035034,1.3895750045776367,-1.1891000270843506
1773232840654840300,10.51584033203125,-1.7598625421524048,1.1129250526428223,-1.2093124389648438
1773232840664750300,10.525750244140625,-1.638587474822998,0.7734375,-1.1796125173568726
1773232840674660000,10.53566015625,-1.444849967956543,0.36588749289512634,-1.1477124691009521
1773232840684569900,10.54556982421875,-1.2458875179290771,-0.05664999783039093,-1.102887511253357
1773232840694480000,10.55547998046875,-1.135200023651123,-0.25244998931884766,-1.0902374982833862
1773232840704389600,10.5653896484375,-1.0223125219345093,-0.2694999873638153,-1.103987455368042
1773232840714299400,10.57529931640625,-0.9084625244140625,-0.13323749601840973,-1.1486749649047852
1773232840724209200,10.585209228515625,-0.8244500160217285,-0.15771250426769257,-1.1412500143051147
1773232840734119200,10.595119140625,-0.7180249691009521,-0.28654998540878296,-1.101925015449524
1773232840744029000,10.60502880859375,-0.6424000263214111,-0.3961375057697296,-1.0763499736785889
1773232840753938700,10.614938720703124,-0.6870874762535095,-0.43546250462532043,-1.1316249370574951
1773232840763848400,10.624848388671875,-0.7541875243186951,-0.32903748750686646,-1.2465749979019165
1773232840773758500,10.634758544921874,-0.7605124711990356,-0.17476250231266022,-1.297724962234497
1773232840783668000,10.64466796875,-0.6785625219345093,-0.13750000298023224,-1.3030874729156494
1773232840793578000,10.654577880859375,-0.5339124798774719,-0.09281250089406967,-1.288100004196167
1773232840803487700,10.66448779296875,-0.4030124843120575,0.12540000677108765,-1.1636625528335571
1773232840813397500,10.6743974609375,-0.3657499849796295,0.2689499855041504,-0.9719874858856201
1773232840823307800,10.684307861328126,-0.3199625015258789,0.2732124924659729,-0.7954375147819519
1773232840833217300,10.69421728515625,-0.2923249900341034,0.2657875120639801,-0.6730625033378601
1773232840843127000,10.704126953125,-0.2624875009059906,0.346637487411499,-0.599637508392334
1773232840853036800,10.714036865234375,-0.26358750462532043,0.4914250075817108,-0.5814874768257141
1773232840862946800,10.72394677734375,-0.2656500041484833,0.6404749751091003,-0.6102250218391418
1773232840872856600,10.733856689453125,-0.26138749718666077,0.6701750159263611,-0.554812490940094
1773232840882766300,10.743766357421874,-0.2858625054359436,0.5648499727249146,-0.3643749952316284
1773232840892676400,10.75367626953125,-0.3667125105857849,0.489362508058548,-0.10051249712705612
1773232840902586000,10.763586181640624,-0.4232249855995178,0.46158748865127563,0.11879999935626984
1773232840912495900,10.773495849609375,-0.430649995803833,0.4328500032424927,0.2209624946117401
1773232840922405600,10.783405517578124,-0.41676250100135803,0.4254249930381775,0.20074999332427979
1773232840932315400,10.7933154296875,-0.3592875003814697,0.43188750743865967,0.11879999935626984
1773232840942225700,10.8032255859375,-0.3359124958515167,0.43078750371932983,0.050599999725818634
1773232840952135200,10.81313525390625,-0.2923249900341034,0.559487521648407,0.05596249923110008
1773232840962045000,10.823044921875,-0.1816374957561493,0.6786999702453613,0.030387500301003456
1773232840971954700,10.83295458984375,-0.04963750019669533,0.690387487411499,-0.028049999848008156
1773232840981864700,10.84286474609375,0.05458749830722809,0.5839625000953674,-0.11426249891519547
1773232840991774500,10.8527744140625,0.1036750003695488,0.3796375095844269,-0.22811250388622284
1773232841001684200,10.862684326171875,0.07699999958276749,0.06888750195503235,-0.3068999946117401
1773232841011594200,10.87259423828125,0.03973750025033951,-0.2311374992132187,-0.33137500286102295
1773232841021503700,10.882503662109375,0.07906249910593033,-0.4311999976634979,-0.28888750076293945
1773232841031413800,10.892413818359374,0.16101250052452087,-0.6323624849319458,-0.18672500550746918
1773232841041323500,10.902323486328125,0.25905001163482666,-0.6430875062942505,0.01347499992698431
1773232841051233300,10.9122333984375,0.3760625123977661,-0.6280999779701233,0.2582249939441681
1773232841061143000,10.92214306640625,0.5069624781608582,-0.7728874683380127,0.5252500176429749
1773232841071053000,10.932052978515625,0.5368000268936157,-0.8175749778747559,0.8009374737739563
1773232841080962800,10.941962890625,0.5325375199317932,-0.7877374887466431,0.9179499745368958
1773232841090872600,10.95187255859375,0.5867124795913696,-0.8761500120162964,0.9542499780654907
1773232841100782300,10.9617822265625,0.6313999891281128,-0.982574999332428,1.0658999681472778
1773232841110692000,10.971692138671875,0.6250749826431274,-1.0230000019073486,1.144687533378601
1773232841120601900,10.981601806640626,0.6495500206947327,-0.9963250160217285,1.1478500366210938
1773232841130512000,10.991511962890625,0.7698624730110168,-0.953837513923645,1.1318999528884888
1773232841140421600,11.001421630859374,0.9347249865531921,-1.140012502670288,1.5768499374389648
1773232841150331400,11.011331298828125,1.0922999382019043,-1.398650050163269,2.5196874141693115
1773232841160241200,11.0212412109375,1.2667875289916992,-1.290162444114685,3.0933375358581543
1773232841170151200,11.031151123046875,1.4605250358581543,-0.9953625202178955,3.559462547302246
1773232841180061000,11.04106103515625,1.5052125453948975,-0.5483499765396118,3.8915250301361084
1773232841189970700,11.050970703125,1.4455374479293823,0.01677500084042549,3.901012420654297
1773232841199880400,11.06088037109375,1.47427499294281,0.453062504529953,3.692425012588501
1773232841209790200,11.070790283203126,1.6042125225067139,0.505174994468689,3.4061498641967773
1773232841219700000,11.080699951171875,1.8297125101089478,0.3104749917984009,2.9932374954223633
1773232841229610000,11.09060986328125,1.968174934387207,-0.04702499881386757,2.4015750885009766
1773232841239519700,11.100519775390625,2.0095624923706055,-0.4025999903678894,1.778975009918213
1773232841249429500,11.110429443359376,1.9511250257492065,-0.6590374708175659,1.2351624965667725
1773232841259339500,11.120339599609375,1.9053374528884888,-0.5834124684333801,0.8808249831199646
1773232841269249300,11.130249267578124,1.8701374530792236,-0.34402498602867126,0.9169874787330627
1773232841279159000,11.140158935546875,1.9074000120162964,-0.2237125039100647,1.2309000492095947
1773232841289068800,11.15006884765625,1.9958125352859497,-0.3451249897480011,1.5310624837875366
1773232841298978600,11.159978515625,1.9958125352859497,-0.6143500208854675,1.7555999755859375
1773232841308888300,11.169888427734374,2.176762580871582,-0.5451874732971191,2.0556249618530273
1773232841318798300,11.17979833984375,2.4958999156951904,-0.47066250443458557,2.2291500568389893
1773232841328708000,11.1897080078125,2.7662250995635986,-0.5281375050544739,2.3324124813079834
1773232841338617900,11.199617919921875,2.5789499282836914,-0.6727874875068665,2.182262420654297
1773232841348527600,11.209527587890625,2.2351999282836914,-0.6111875176429749,1.8099124431610107
1773232841358437600,11.219437744140626,1.9744999408721924,-0.7590000033378601,1.488437533378601
1773232841368347400,11.229347412109375,1.7467999458312988,-0.9612625241279602,1.2553750276565552
1773232841378257200,11.239257080078126,1.513737440109253,-0.8696874976158142,1.192537546157837
1773232841388167000,11.2491669921875,1.271049976348877,-0.648312509059906,1.2447874546051025
1773232841398077000,11.259076904296874,1.1837375164031982,-0.37056249380111694,1.3160125017166138
1773232841407986400,11.268986328125,1.1050875186920166,-0.24186250567436218,1.3799500465393066
1773232841417896400,11.278896484375,0.9549375176429749,-0.18328750133514404,1.4022250175476074
1773232841427806200,11.28880615234375,1.028362512588501,-0.2620750069618225,1.2798500061035156
1773232841437716000,11.298716064453124,1.3498375415802002,-0.5025625228881836,1.1022000312805176
1773232841447626000,11.3086259765625,1.6594874858856201,-1.203950047492981,0.9957749843597412
1773232841457535500,11.318535400390624,1.8361749649047852,-1.3294874429702759,1.2905750274658203
1773232841467445200,11.3284453125,1.6999125480651855,-1.1272250413894653,1.3447500467300415
1773232841477355300,11.338355224609375,1.3199999332427979,-0.6866750121116638,1.025475025177002
1773232841487265000,11.34826513671875,0.8815125226974487,-0.4450874924659729,0.6125624775886536
1773232841497174800,11.3581748046875,0.5229125022888184,-0.3312374949455261,0.17311249673366547
1773232841507084500,11.36808447265625,0.3260124921798706,-0.18438750505447388,-0.3111625015735626
1773232841516994600,11.37799462890625,0.09184999763965607,-0.15674999356269836,-0.6591749787330627
1773232841526904300,11.387904296875,-0.09968750178813934,-0.042899999767541885,-0.8751875162124634
1773232841536814000,11.39781396484375,-0.23594999313354492,0.026399999856948853,-1.1050875186920166
1773232841546723800,11.407723876953124,-0.3657499849796295,0.017875000834465027,-1.363724946975708
1773232841556633600,11.417633544921875,-0.514662504196167,0.03382499888539314,-1.6127375364303589
1773232841566543600,11.427543701171874,-0.5264874696731567,0.0008249999955296516,-1.7957500219345093
1773232841576453400,11.437453369140625,-0.37111249566078186,-0.015124999918043613,-1.9042375087738037
1773232841586363100,11.447363037109374,-0.24021250009536743,0.13062499463558197,-1.9904500246047974
1773232841596273000,11.45727294921875,0.018424998968839645,0.20941250026226044,-2.096874952316284
1773232841606182700,11.4671826171875,0.3568125069141388,0.02213750034570694,-2.219249963760376
1773232841616092400,11.477092529296876,0.6857125163078308,-0.281187504529953,-2.403362512588501
1773232841626002200,11.487002197265625,0.8166124820709229,-0.5355625152587891,-2.6588375568389893
1773232841635912200,11.496912109375,0.953837513923645,-0.7367249727249146,-2.908950090408325
1773232841645822000,11.506822021484375,1.0443124771118164,-0.9878000020980835,-2.9961249828338623
1773232841655731700,11.516731689453126,1.1093499660491943,-1.2113749980926514,-2.781212568283081
1773232841665641500,11.526641357421875,1.1583000421524048,-1.2783374786376953,-2.7630624771118164
1773232841675551500,11.536551513671874,1.0986249446868896,-1.297587513923645,-3.107912540435791
1773232841685461000,11.5464609375,1.102887511253357,-1.280537486076355,-3.329287528991699
1773232841695371000,11.55637109375,1.1316249370574951,-1.3326499462127686,-3.4974498748779297
1773232841705280800,11.56628076171875,0.8964999914169312,-1.2091749906539917,-3.6198248863220215
1773232841715190500,11.5761904296875,0.6601374745368958,-1.492287516593933,-3.6294500827789307
1773232841725100500,11.5861005859375,0.47286251187324524,-1.716825008392334,-3.549562454223633
1773232841735010300,11.59601025390625,0.2153249979019165,-1.8636749982833862,-3.2612249851226807
1773232841744920000,11.605920166015625,-0.00494999997317791,-2.0446250438690186,-3.2313873767852783
1773232841754829800,11.615829833984375,-0.3913249969482422,-2.161637544631958,-3.4251248836517334
1773232841764739800,11.62573974609375,-0.8381999731063843,-1.9978749752044678,-3.350600004196167
1773232841774649300,11.6356494140625,-1.0702999830245972,-1.7327749729156494,-3.139812469482422
1773232841784559000,11.64555908203125,-1.1702624559402466,-1.4273874759674072,-2.7343249320983887
1773232841794469000,11.65546923828125,-1.2309000492095947,-1.1581624746322632,-2.0809249877929688
1773232841804379000,11.66537890625,-1.136162519454956,-1.0528374910354614,-1.3934249877929688
1773232841819243500,11.680243408203125,-0.9935749769210815,-1.0240999460220337,-0.533637523651123
1773232841834108200,11.695108154296875,-1.033037543296814,-1.197487473487854,0.3188624978065491
1773232841844018000,11.705017822265624,-1.1138875484466553,-1.4709750413894653,0.9286749958992004
1773232841853927700,11.714927734375,-1.2043625116348267,-1.6094374656677246,1.5916999578475952
1773232841863837400,11.72483740234375,-1.2405250072479248,-1.5849624872207642,2.2026124000549316
1773232841873747500,11.73474755859375,-1.1053625345230103,-1.6678749322891235,2.5441625118255615
1773232841883657000,11.744656982421875,-0.7243499755859375,-1.7381374835968018,2.704900026321411
1773232841893567000,11.75456689453125,-0.11453749984502792,-1.7689374685287476,2.8463873863220215
1773232841903476700,11.764476806640625,0.6920375227928162,-1.902037501335144,2.997499942779541
1773232841913386500,11.774386474609376,1.513737440109253,-2.0787250995635986,3.1699249744415283
1773232841923296300,11.784296142578125,2.1958749294281006,-2.1499500274658203,3.4009249210357666
1773232841933206300,11.794206298828126,2.6278998851776123,-2.0861499309539795,3.6966874599456787
1773232841943116000,11.804115966796875,2.802525043487549,-2.112687587738037,4.048962593078613
1773232841953025800,11.81402587890625,2.8353874683380127,-2.205362558364868,4.432037353515625
1773232841962935600,11.823935546875,2.8290624618530273,-2.038300037384033,4.7843122482299805
1773232841972845300,11.83384521484375,2.8364875316619873,-1.8062000274658203,4.99399995803833
1773232841982755000,11.843755126953125,2.9599623680114746,-1.659350037574768,4.958937644958496
1773232841992665000,11.8536650390625,3.160024881362915,-1.5349124670028687,4.746087551116943
1773232842002574800,11.863574951171875,3.312237501144409,-1.3710124492645264,4.480024814605713
1773232842012484400,11.873484375,3.4058749675750732,-1.3220624923706055,4.1798624992370605
1773232842022394400,11.883394287109375,3.419762372970581,-1.30611252784729,3.8531625270843506
1773232842032304000,11.89330419921875,3.34413743019104,-1.3773374557495117,3.5381500720977783
1773232842042214000,11.9032138671875,3.1611249446868896,-1.6572874784469604,3.3274998664855957
1773232842052123600,11.91312353515625,2.857800006866455,-1.9159250259399414,3.223137378692627
1773232842062033700,11.92303369140625,2.461937427520752,-1.9116624593734741,3.1773500442504883
1773232842071943200,11.932943115234375,2.1586124897003174,-1.7902499437332153,3.073124885559082
1773232842081853200,11.942853271484376,2.208662509918213,-1.465749979019165,2.841024875640869
1773232842091763000,11.952762939453125,2.257612466812134,-1.2304874658584595,2.715487480163574
1773232842106627600,11.967627685546875,2.1788249015808105,-0.8366875052452087,2.535637378692627
1773232842126447000,11.987447021484375,1.816925048828125,-0.7122499942779541,2.199312448501587
1773232842136356900,11.99735693359375,1.4924249649047852,-0.8303624987602234,1.9289875030517578
1773232842146266600,12.0072666015625,1.1922625303268433,-0.8665249943733215,1.5405499935150146
1773232842156176400,12.01717626953125,0.9304624795913696,-0.8824750185012817,1.2043625116348267
1773232842166086100,12.027086181640625,0.7081249952316284,-1.2028499841690063,0.952049970626831
1773232842175996000,12.036995849609376,0.5240125060081482,-1.61576247215271,0.7647749781608582
1773232842185906000,12.046906005859375,0.32065001130104065,-1.8232499361038208,0.6285125017166138
1773232842195815700,12.056815673828124,0.12058749794960022,-1.96913743019104,0.5296499729156494
1773232842205725200,12.06672509765625,0.18975000083446503,-2.431962490081787,0.6520249843597412
1773232842215635200,12.07663525390625,0.38981249928474426,-2.263937473297119,0.7775624990463257
1773232842225545000,12.086544921875,0.23237499594688416,-2.108562469482422,0.7584499716758728
1773232842235454700,12.096454833984374,-0.016637500375509262,-1.7572499513626099,0.6498249769210815
1773232842245364500,12.106364501953125,-0.20184999704360962,-0.953837513923645,0.6434999704360962
1773232842255274500,12.1162744140625,-0.32848748564720154,0.021037500351667404,0.6743000149726868
1773232842265184000,12.12618408203125,-0.3273875117301941,0.15193749964237213,0.6743000149726868
1773232842275094000,12.136093994140625,-0.0826374962925911,-0.10986249893903732,0.5339124798774719
1773232842285003800,12.146003662109376,-0.01347499992698431,-0.518512487411499,0.41359999775886536
1773232842294913500,12.15591357421875,-0.05389999970793724,-0.9336249828338623,0.39338749647140503
1773232842304823300,12.1658232421875,-0.15289999544620514,-1.140012502670288,0.4657124876976013
1773232842314733300,12.1757333984375,-0.23485000431537628,-1.1539000272750854,0.5339124798774719
1773232842324643000,12.18564306640625,-0.19648750126361847,-1.011312484741211,0.5806624889373779
1773232842334552800,12.195552734375,-0.12526249885559082,-0.7430499792098999,0.6190249919891357
1773232842344462600,12.205462646484374,-0.12622499465942383,-0.4376625120639801,0.681725025177002
1773232842354372400,12.215372314453125,-0.16568750143051147,-0.33329999446868896,0.7360374927520752
1773232842364282000,12.2252822265625,-0.1443749964237213,-0.2993375062942505,0.7062000036239624
1773232842374191900,12.23519189453125,-0.14643749594688416,-0.26317501068115234,0.6093999743461609
1773232842389056800,12.250056884765625,-0.2582249939441681,-0.29397499561309814,0.3731749951839447
1773232842398966300,12.25996630859375,-0.42748749256134033,-0.227974995970726,0.19442500174045563
1773232842408876000,12.2698759765625,-0.6626124978065491,-0.14602500200271606,0.10711249709129333
1773232842418785800,12.279785888671874,-0.9138249754905701,-0.13859999179840088,0.12622499465942383
1773232842428695800,12.28969580078125,-1.091475009918213,-0.11728750169277191,0.2050125002861023
1773232842438605600,12.29960546875,-1.1830500364303589,-0.21312500536441803,0.32945001125335693
1773232842448515000,12.30951513671875,-1.2533124685287476,-0.3460874855518341,0.477400004863739
1773232842458425000,12.319425048828125,-1.3469499349594116,-0.48454999923706055,0.6115999817848206
1773232842468334800,12.3293349609375,-1.535325050354004,-0.6451500058174133,0.6785625219345093
1773232842478244600,12.33924462890625,-1.7194374799728394,-0.7452499866485596,0.6529874801635742
1773232842488154400,12.349154296875,-1.8481374979019165,-0.7441499829292297,0.454025000333786
1773232842498064400,12.359064453125,-1.8683500289916992,-0.7037249803543091,0.09322500228881836
1773232842507974000,12.368973876953126,-1.8833374977111816,-0.7601000070571899,-0.31968748569488525
1773232842517884000,12.3788837890625,-1.9300874471664429,-0.7590000033378601,-0.6549124717712402
1773232842527793700,12.388793701171876,-1.916337490081787,-0.7026249766349792,-0.8538749814033508
1773232842537703400,12.398703369140625,-1.7459750175476074,-0.7942000031471252,-0.935824990272522
1773232842547613000,12.408613037109374,-1.395900011062622,-0.8260999917984009,-0.8570374846458435
1773232842557523000,12.41852294921875,-1.0532499551773071,-0.7441499829292297,-0.516587495803833
1773232842567432700,12.4284326171875,-0.8329749703407288,-0.6749874949455261,-0.04193750023841858
1773232842577342500,12.438342529296875,-0.690387487411499,-0.6462500095367432,0.42748749256134033
1773232842587252200,12.448252197265624,-0.6711375117301941,-0.5600374937057495,0.7690374851226807
1773232842597162000,12.458161865234375,-0.7308124899864197,-0.5622375011444092,0.866937518119812
1773232842607071700,12.46807177734375,-0.7605124711990356,-0.6069250106811523,0.7275124788284302
1773232842616981500,12.4779814453125,-0.7764624953269958,-0.6356624960899353,0.477400004863739
1773232842626891500,12.4878916015625,-0.8051999807357788,-0.7005624771118164,0.2433750033378601
1773232842636801300,12.49780126953125,-0.8765624761581421,-0.8047875165939331,0.05169999971985817
1773232842646710800,12.507710693359375,-0.8446624875068665,-0.9675874710083008,-0.210099995136261
1773232842656620800,12.517620849609376,-0.7988749742507935,-1.037850022315979,-0.4676375091075897
1773232842666530600,12.527530517578125,-0.72861248254776,-1.11347496509552,-0.5431249737739563
1773232842676440300,12.5374404296875,-0.6296125054359436,-1.0740125179290771,-0.4292750060558319
1773232842686350000,12.54735009765625,-0.5711749792098999,-0.9219374656677246,-0.18768750131130219
1773232842696259800,12.557259765625,-0.5902875065803528,-0.7495124936103821,0.1251250058412552
1773232842706169600,12.567169677734375,-0.6179249882698059,-0.6047250032424927,0.4189625084400177
1773232842716079400,12.577079345703124,-0.7243499755859375,-0.4982999861240387,0.47533750534057617
1773232842725989400,12.5869892578125,-0.8467249870300293,-0.40892499685287476,0.34759998321533203
1773232842735899100,12.596899169921874,-0.8786249756813049,-0.32491248846054077,0.24227499961853027
1773232842745808600,12.60680859375,-0.794612467288971,-0.28971248865127563,0.18479999899864197
1773232842755718700,12.61671875,-0.5902875065803528,-0.2120250016450882,0.18369999527931213
1773232842765628400,12.62662841796875,-0.34127500653266907,-0.11838749796152115,0.24860000610351562
1773232842775538200,12.6365380859375,-0.16032500565052032,-0.1237500011920929,0.2890250086784363
1773232842785448000,12.646447998046876,-0.09116250276565552,-0.1163249984383583,0.2582249939441681
1773232842795357700,12.656357666015625,-0.1326874941587448,-0.12058749794960022,0.10175000131130219
1773232842805267500,12.666267333984376,-0.2199999988079071,-0.23017500340938568,-0.2579500079154968
1773232842815177200,12.67617724609375,-0.1699499934911728,-0.31735000014305115,-0.42721250653266907
1773232842825087200,12.686087158203126,-0.35186249017715454,-0.25671249628067017,0.3273875117301941
1773232842834996700,12.695996826171875,-0.5157625079154968,-0.4174500107765198,0.7998374700546265
1773232842844906800,12.70590673828125,-0.44123750925064087,-0.5398250222206116,0.7775624990463257
1773232842854816500,12.71581640625,-0.17847499251365662,-0.48977500200271606,0.5455999970436096
1773232842864726300,12.725726318359374,-0.0017874999903142452,-0.3759250044822693,0.24763749539852142
1773232842874636000,12.735635986328125,0.06421250104904175,-0.32807499170303345,0.04743750020861626
1773232842884545800,12.7455458984375,0.06531249731779099,-0.33550000190734863,-0.022687500342726707
1773232842899410400,12.760410400390626,0.016362499445676804,-0.3493874967098236,0.022962499409914017
1773232842909320200,12.7703203125,-0.030524998903274536,-0.272662490606308,0.060224998742341995
1773232842919230000,12.78022998046875,-0.08799999952316284,-0.22165000438690186,0.0719124972820282
