time,seconds_elapsed,z,y,x
1773232830412940800,0.27394091796875,7.786050319671631,2.848050117492676,-3.894000291824341
1773232830432760600,0.293760498046875,7.2330002784729,0.27900001406669617,-3.078000068664551
1773232830442670600,0.303670654296875,7.336050510406494,0.7939500212669373,-2.647050142288208
1773232830452580600,0.31358056640625,6.361950397491455,0.9979500770568848,-1.7539501190185547
1773232830462490400,0.323490478515625,5.419050216674805,1.4770500659942627,-1.6960500478744507
1773232830472400600,0.333400634765625,4.223999977111816,1.7419500350952148,-1.4710500240325928
1773232830482310400,0.343310302734375,4.341000080108643,0.8130000233650208,-1.6489500999450684
1773232830492220200,0.35322021484375,4.164000034332275,-0.7660500407218933,-3.957000255584717
1773232830502130400,0.36313037109375,4.0920000076293945,-1.4629501104354858,-7.0159502029418945
1773232830512040200,0.373040283203125,6.099000453948975,-1.6090500354766846,-8.842950820922852
1773232830521950000,0.382949951171875,7.762050151824951,-1.5580500364303589,-9.69795036315918
1773232830531860200,0.392860107421875,8.062050819396973,-1.4629501104354858,-8.529000282287598
1773232830541770000,0.40277001953125,7.24500036239624,-1.2090001106262207,-5.476950168609619
1773232830551679700,0.4126796875,6.891000270843506,-1.0960500240325928,-2.1660001277923584
1773232830561590000,0.422590087890625,6.987000465393066,-1.3980001211166382,1.390950083732605
1773232830571499800,0.432499755859375,8.65095043182373,-1.5510001182556152,0.42900002002716064
1773232830581409500,0.442409423828125,11.193000793457031,-2.1690001487731934,-1.5979501008987427
1773232830591319600,0.452319580078125,12.30405044555664,-2.16195011138916,-4.633950233459473
1773232830601229600,0.4622294921875,11.779950141906738,-1.755000114440918,-7.383000373840332
1773232830611139600,0.4721396484375,10.94895076751709,-1.6540501117706299,-9.351000785827637
1773232830621049600,0.482049560546875,10.521000862121582,-1.7040001153945923,-10.432950019836426
1773232830630959400,0.49195947265625,10.324050903320312,-1.4359500408172607,-9.777000427246094
1773232830640869400,0.501869384765625,9.718950271606445,-1.290000081062317,-6.660000324249268
1773232830650779400,0.511779296875,9.771000862121582,-0.7900500297546387,-3.742950201034546
1773232830660689200,0.521689208984375,10.117950439453125,-0.9769500494003296,-2.284950017929077
1773232830670599400,0.531599365234375,9.81195068359375,-1.4170501232147217,-2.0839500427246094
1773232830680509200,0.54150927734375,9.481950759887695,-1.3860000371932983,-3.564000129699707
1773232830690419200,0.551419189453125,10.39905071258545,-1.5100500583648682,-5.866950511932373
1773232830700329200,0.5613291015625,12.361950874328613,-1.5180001258850098,-7.3560004234313965
1773232830710239000,0.571239013671875,13.68600082397461,-1.53000009059906,-8.105999946594238
1773232830720149200,0.581149169921875,13.1850004196167,-1.8000000715255737,-7.677000522613525
1773232830730059000,0.59105908203125,11.866050720214844,-1.7020500898361206,-6.763050556182861
1773232830739969000,0.600968994140625,10.534950256347656,-1.6399500370025635,-6.6910505294799805
1773232830749879000,0.610879150390625,9.177000045776367,-1.7809500694274902,-6.712050437927246
1773232830759789000,0.6207890625,8.70300006866455,-2.0280001163482666,-6.12600040435791
1773232830769698800,0.63069873046875,8.746950149536133,-1.9579501152038574,-6.127950191497803
1773232830779608800,0.64060888671875,9.546000480651855,-2.0440499782562256,-5.4340500831604
1773232830789518800,0.650518798828125,10.579950332641602,-2.0440499782562256,-3.9810001850128174
1773232830799428600,0.6604287109375,11.280000686645508,-1.8340500593185425,-2.659050226211548
1773232830809338600,0.670338623046875,11.596050262451172,-1.815000057220459,-2.5489501953125
1773232830819248600,0.68024853515625,11.313000679016113,-1.9150501489639282,-3.3630001544952393
1773232830829158700,0.69015869140625,10.330950736999512,-2.2789502143859863,-3.784050226211548
1773232830839068700,0.700068603515625,9.594000816345215,-2.269050121307373,-4.273050308227539
1773232830848978400,0.709978515625,9.249000549316406,-2.4250500202178955,-5.08905029296875
1773232830858888400,0.719888427734375,8.940000534057617,-2.3340001106262207,-5.278050422668457
1773232830868798500,0.729798583984375,9.187050819396973,-2.4679501056671143,-5.689950466156006
1773232830878708200,0.739708251953125,9.426000595092773,-2.389050006866455,-5.455050468444824
1773232830888618200,0.7496181640625,8.79900074005127,-2.1660001277923584,-4.77495002746582
1773232830898528300,0.7595283203125,7.921050548553467,-2.1469500064849854,-3.9250502586364746
1773232830908438300,0.769438232421875,7.083000183105469,-2.350950002670288,-4.471050262451172
1773232830918348300,0.779348388671875,6.643950462341309,-2.6290500164031982,-5.593950271606445
1773232830928258000,0.789258056640625,9.04800033569336,-3.6480002403259277,-6.051000118255615
1773232830938168000,0.79916796875,8.617050170898438,-2.8849501609802246,-5.862000465393066
1773232830948078000,0.809078125,6.95805025100708,-2.098950147628784,-5.577000141143799
1773232830957988000,0.818988037109375,6.60105037689209,-2.9640002250671387,-5.380950450897217
1773232830967897900,0.82889794921875,6.640050411224365,-4.113000392913818,-4.753950119018555
1773232830977808100,0.83880810546875,6.364050388336182,-4.102950096130371,-3.745950222015381
1773232830987718000,0.8487177734375,6.154050350189209,-3.6750001907348633,-2.7880501747131348
1773232830997628000,0.8586279296875,5.9760003089904785,-4.266000270843506,-2.4150002002716064
1773232831007538000,0.868537841796875,5.593050479888916,-5.668950080871582,-2.2330501079559326
1773232831017447700,0.87844775390625,5.407050132751465,-6.598050117492676,-1.9380000829696655
1773232831027357700,0.888357666015625,5.626950263977051,-7.618050575256348,-1.2250500917434692
1773232831037267700,0.898267822265625,6.4860005378723145,-8.06100082397461,-1.1790000200271606
1773232831047177500,0.908177490234375,8.131050109863281,-8.832000732421875,-2.311950206756592
1773232831057087500,0.91808740234375,9.606000900268555,-9.979050636291504,-3.6190502643585205
1773232831066997500,0.92799755859375,10.990050315856934,-10.309050559997559,-4.483050346374512
1773232831076907500,0.937907470703125,11.928000450134277,-10.615950584411621,-4.363950252532959
1773232831086817300,0.9478173828125,11.493000984191895,-11.239950180053711,-3.3510000705718994
1773232831096727600,0.9577275390625,10.188000679016113,-10.120050430297852,-2.545950174331665
1773232831106637300,0.96763720703125,9.333000183105469,-9.574050903320312,-1.2490500211715698
1773232831116547000,0.977547119140625,9.934050559997559,-9.555000305175781,-0.08505000174045563
1773232831126457000,0.98745703125,9.901050567626953,-8.487000465393066,0.5149500370025635
1773232831136367000,0.9973671875,9.895950317382812,-9.331950187683105,0.5940000414848328
1773232831146276900,1.00727685546875,8.668050765991211,-8.796000480651855,0.6490500569343567
1773232831156187100,1.017187255859375,6.3160505294799805,-9.640950202941895,-0.42000001668930054
1773232831166097000,1.027096923828125,3.988950252532959,-9.445050239562988,0.5509500503540039
1773232831176006700,1.037006591796875,-1.6579500436782837,-10.158000946044922,1.1730000972747803
1773232831185917000,1.0469169921875,-7.039950370788574,-8.940000534057617,-1.4500501155853271
1773232831195826700,1.05682666015625,-10.252950668334961,-9.847050666809082,-1.9930500984191895
1773232831205736700,1.06673681640625,-11.574000358581543,-10.632000923156738,-3.20205020904541
1773232831215646700,1.076646728515625,-15.466950416564941,-10.70205020904541,-4.560000419616699
1773232831225556700,1.086556640625,-13.62600040435791,-9.93600082397461,-6.430050373077393
1773232831235466500,1.096466552734375,-9.420000076293945,-11.3100004196167,-6.115950107574463
1773232831245376500,1.10637646484375,-4.597949981689453,-10.189050674438477,-6.877050399780273
1773232831255286500,1.11628662109375,0.15600000321865082,-9.466050148010254,-8.355000495910645
1773232831265196500,1.126196533203125,13.434000968933105,-8.748000144958496,-11.283000946044922
1773232831275106600,1.1361064453125,25.22100067138672,-6.174000263214111,-10.938000679016113
1773232831285016300,1.146016357421875,7.195050239562988,-5.383950233459473,-8.247000694274902
1773232831294926300,1.15592626953125,-2.8380000591278076,-6.058950424194336,-10.620000839233398
1773232831304836400,1.16583642578125,0.18195000290870667,-7.716000556945801,-15.315000534057617
1773232831314746000,1.17574609375,8.47605037689209,-7.552950382232666,-19.837051391601562
1773232831324656400,1.185656494140625,7.458000183105469,-6.913950443267822,-21.496051788330078
1773232831334566100,1.195566162109375,2.7370500564575195,-7.876950263977051,-20.42595100402832
1773232831344476200,1.20547607421875,6.144000053405762,-7.470000267028809,-13.047000885009766
1773232831354386200,1.21538623046875,6.988950252532959,-4.885950088500977,-6.600000381469727
1773232831364296000,1.2252958984375,9.771000862121582,-3.069000244140625,-3.9900002479553223
1773232831374206000,1.2352060546875,11.93595027923584,-2.6740500926971436,-6.2719502449035645
1773232831384116000,1.245115966796875,11.122050285339355,-3.706050157546997,-11.640000343322754
1773232831394025700,1.255025634765625,6.61305046081543,-5.137950420379639,-13.368000984191895
1773232831403935700,1.264935791015625,4.189949989318848,-6.000000476837158,-12.934950828552246
1773232831413845500,1.274845458984375,4.810050010681152,-6.094950199127197,-12.757950782775879
1773232831428710700,1.289710693359375,7.549050331115723,-6.19605016708374,-9.681000709533691
1773232831438620400,1.299620361328125,9.193950653076172,-6.904950141906738,-6.667050361633301
1773232831448530700,1.30953076171875,9.582000732421875,-5.502000331878662,-7.4350504875183105
1773232831458440400,1.3194404296875,8.410950660705566,-5.611950397491455,-9.268950462341309
1773232831468350500,1.3293505859375,5.46405029296875,-7.1610002517700195,-14.118000984191895
1773232831478260500,1.339260498046875,0.5059500336647034,-9.39900016784668,-11.200950622558594
1773232831493125400,1.35412548828125,-8.905050277709961,-9.097949981689453,-3.484950065612793
1773232831503035400,1.364035400390625,-6.396000385284424,-8.209050178527832,-1.0049999952316284
1773232831512945200,1.373945068359375,-2.9239501953125,-6.595950126647949,-0.9019500613212585
1773232831522855200,1.383855224609375,-0.2550000250339508,-5.563950061798096,-1.609950065612793
1773232831532765000,1.393764892578125,1.1430000066757202,-5.928000450134277,-1.4140501022338867
1773232831542675000,1.403675048828125,1.2220500707626343,-5.418000221252441,-1.467000126838684
1773232831552585000,1.4135849609375,-0.4939500093460083,-5.383950233459473,-0.3340500295162201
1773232831562495000,1.423494873046875,0.3550500273704529,-6.727050304412842,-0.17595000565052032
1773232831572405000,1.433405029296875,0.7429500222206116,-7.036050319671631,1.1539500951766968
1773232831582315000,1.44331494140625,1.590000033378601,-6.832950115203857,0.534000039100647
1773232831592225000,1.45322509765625,0.06795000284910202,-8.194950103759766,-1.015950083732605
1773232831602134800,1.463134765625,-1.4760000705718994,-11.308050155639648,-1.9650001525878906
1773232831612044800,1.473044921875,-1.6740000247955322,-13.354950904846191,-3.3580501079559326
1773232831621954800,1.482954833984375,-0.9559500217437744,-13.984050750732422,-4.749000072479248
1773232831631864800,1.49286474609375,-0.24300001561641693,-14.197051048278809,-4.479000091552734
1773232831641774600,1.502774658203125,1.1740500926971436,-13.71405029296875,-3.8560502529144287
1773232831651684600,1.5126845703125,3.4360501766204834,-11.521050453186035,-4.359000205993652
1773232831661594600,1.5225947265625,5.076000213623047,-9.624000549316406,-2.3839499950408936
1773232831671504400,1.53250439453125,6.241950511932373,-8.077950477600098,-0.583050012588501
1773232831681414400,1.542414306640625,7.189950466156006,-7.800000190734863,-0.2670000195503235
1773232831691324400,1.552324462890625,7.365000247955322,-9.19800090789795,0.8839500546455383
1773232831701234200,1.562234130859375,2.407050132751465,-9.208050727844238,3.888000249862671
1773232831711144400,1.57214453125,-1.2769500017166138,-9.547950744628906,1.0339500904083252
1773232831721054200,1.58205419921875,-2.4310500621795654,-12.190950393676758,-0.5879999995231628
1773232831730964200,1.591964111328125,-1.2889500856399536,-10.929000854492188,-2.7090001106262207
1773232831740874200,1.601874267578125,3.8959500789642334,-9.438000679016113,-6.087000370025635
1773232831750784300,1.6117841796875,4.569000244140625,-8.619000434875488,-6.31695032119751
1773232831760694000,1.621694091796875,0.7159500122070312,-8.353050231933594,-6.547050476074219
1773232831770604000,1.63160400390625,-2.5699501037597656,-7.759050369262695,-8.338050842285156
1773232831780514000,1.64151416015625,-3.2809500694274902,-8.02695083618164,-8.995950698852539
1773232831790424000,1.651424072265625,-1.7389501333236694,-8.098950386047363,-10.078950881958008
1773232831800333800,1.661333740234375,1.4299501180648804,-8.84595012664795,-9.921000480651855
1773232831810243800,1.671243896484375,4.558950424194336,-9.12600040435791,-9.870000839233398
1773232831820153600,1.681153564453125,4.747950077056885,-9.022950172424316,-8.824049949645996
1773232831835018500,1.6960185546875,2.701050043106079,-9.757950782775879,-6.994950294494629
1773232831844928800,1.7059287109375,3.7710001468658447,-10.314000129699707,-4.692000389099121
1773232831854838500,1.715838623046875,3.66795015335083,-10.267950057983398,-2.6539502143859863
1773232831864748500,1.72574853515625,2.9239501953125,-10.615950584411621,-1.9260001182556152
1773232831874658600,1.735658447265625,0.8790000677108765,-10.045950889587402,-3.0520501136779785
1773232831884568300,1.745568359375,0.10095000267028809,-10.054950714111328,-2.2380001544952393
1773232831894478600,1.755478515625,0.5440500378608704,-10.543950080871582,0.8020500540733337
1773232831904388400,1.765388427734375,0.9390000700950623,-11.086950302124023,2.0710501670837402
1773232831914298400,1.77529833984375,-0.11595000326633453,-10.828950881958008,2.014050006866455
1773232831924208400,1.78520849609375,0.41505002975463867,-10.771050453186035,0.7830000519752502
1773232831934118100,1.7951181640625,1.5210000276565552,-11.106000900268555,0.34200000762939453
1773232831944028200,1.805028076171875,2.659950017929077,-11.568000793457031,-0.7290000319480896
1773232831953938200,1.814938232421875,3.01200008392334,-11.374950408935547,-0.9570000171661377
1773232831963848000,1.824847900390625,2.224950075149536,-11.443950653076172,0.6300000548362732
1773232831973758000,1.834758056640625,0.4120500087738037,-11.619000434875488,1.1590501070022583
1773232831983668000,1.84466796875,-0.8080500364303589,-11.767050743103027,1.5540000200271606
1773232831993578000,1.854577880859375,0.012000000104308128,-12.03795051574707,2.1379501819610596
1773232832003487700,1.86448779296875,-0.09195000678300858,-12.337050437927246,2.6700000762939453
1773232832013397800,1.874397705078125,0.10605000704526901,-12.301050186157227,2.823000192642212
1773232832023307800,1.884307861328125,0.7090500593185425,-12.220050811767578,1.8990000486373901
1773232832033217500,1.894217529296875,1.2430500984191895,-12.234000205993652,-1.2850500345230103
1773232832043127800,1.9041279296875,1.8820500373840332,-11.34795093536377,-3.9589502811431885
1773232832053037600,1.91403759765625,2.3710501194000244,-9.793950080871582,-4.311000347137451
1773232832062947600,1.923947509765625,1.9830000400543213,-7.836000442504883,0.2350500077009201
1773232832072857600,1.933857666015625,1.6410000324249268,-7.036050319671631,4.978050231933594
1773232832082767600,1.943767578125,1.7890501022338867,-7.249050140380859,7.087050437927246
1773232832092677400,1.953677490234375,2.244000196456909,-7.732950210571289,7.125000476837158
1773232832102587400,1.96358740234375,2.725050210952759,-8.446050643920898,5.623950481414795
1773232832117452300,1.978452392578125,2.8759500980377197,-8.935050010681152,3.192000150680542
1773232832127362300,1.9883623046875,2.7079501152038574,-9.217050552368164,2.111999988555908
1773232832137272300,1.998272216796875,2.470950126647949,-9.493050575256348,1.2859500646591187
1773232832147182000,2.00818212890625,2.464050054550171,-9.473999977111816,1.0579500198364258
1773232832157092000,2.018092041015625,2.7780001163482666,-9.256050109863281,0.5220000147819519
1773232832167002000,2.028002197265625,2.704050064086914,-8.971050262451172,-0.14505000412464142
1773232832176912100,2.037912109375,2.320050001144409,-8.896950721740723,-0.09000000357627869
1773232832186822000,2.04782177734375,1.4560500383377075,-9.1360502243042,0.49605002999305725
1773232832196732000,2.05773193359375,0.597000002861023,-9.222000122070312,1.204050064086914
1773232832206642000,2.067641845703125,0.5059500336647034,-9.361050605773926,1.446000099182129
1773232832216551700,2.0775517578125,0.9889500737190247,-9.592950820922852,1.2469500303268433
1773232832226462000,2.0874619140625,1.4470500946044922,-9.72705078125,0.8160000443458557
1773232832236371700,2.097371826171875,1.8750001192092896,-9.904950141906738,0.32295000553131104
1773232832246282000,2.107281982421875,2.136000156402588,-10.302000045776367,-0.13305000960826874
1773232832256191700,2.117191650390625,1.9039500951766968,-10.558050155639648,0.1270500123500824
1773232832266101500,2.1271015625,1.4590500593185425,-10.546050071716309,0.4810500144958496
1773232832276011500,2.137011474609375,1.0920000076293945,-10.479000091552734,0.6490500569343567
1773232832285921500,2.146921630859375,1.01295006275177,-10.282950401306152,0.5869500041007996
1773232832295831600,2.15683154296875,1.0519500970840454,-9.97605037689209,0.36195001006126404
1773232832305741600,2.166741455078125,1.152000069618225,-9.730050086975098,0.20595000684261322
1773232832315651600,2.176651611328125,1.2930001020431519,-9.531000137329102,-0.13500000536441803
1773232832325561300,2.186561279296875,1.5109500885009766,-9.426000595092773,-0.4350000321865082
1773232832335471600,2.1964716796875,1.7670000791549683,-9.363000869750977,-0.8509500622749329
1773232832345381400,2.20638134765625,2.1190500259399414,-9.355950355529785,-1.141050100326538
1773232832355291400,2.21629150390625,2.55495023727417,-9.457050323486328,-1.3129500150680542
1773232832365201200,2.226201171875,3.06000018119812,-9.567000389099121,-1.3300501108169556
1773232832375111200,2.236111083984375,3.421950101852417,-9.658050537109375,-1.0999500751495361
1773232832385021200,2.246021240234375,3.589050054550171,-9.730050086975098,-0.6379500031471252
1773232832394931200,2.25593115234375,3.5530502796173096,-9.804000854492188,-0.3150000274181366
1773232832404841200,2.26584130859375,3.6060001850128174,-9.895050048828125,0.08400000631809235
1773232832414751000,2.2757509765625,3.979950189590454,-10.13700008392334,0.4759500324726105
1773232832424661000,2.285660888671875,4.40595006942749,-10.194000244140625,0.7609500288963318
1773232832434571000,2.295571044921875,4.42995023727417,-9.957000732421875,1.3549500703811646
1773232832444480800,2.305480712890625,3.8580002784729004,-9.409049987792969,1.2790501117706299
1773232832454390800,2.315390869140625,3.261000156402588,-9.238950729370117,1.0150500535964966
1773232832464300800,2.32530078125,2.8590002059936523,-9.220050811767578,0.7849500179290771
1773232832474210600,2.33521044921875,2.5600500106811523,-9.12405014038086,0.3330000042915344
1773232832484120800,2.345120849609375,2.241000175476074,-9.15000057220459,-0.29805001616477966
1773232832494030600,2.355030517578125,1.9350000619888306,-9.13800048828125,-0.9420000314712524
1773232832503940600,2.364940673828125,1.7959500551223755,-9.117000579833984,-1.555050015449524
1773232832513850600,2.3748505859375,1.6519501209259033,-8.995050430297852,-1.8520500659942627
1773232832523760400,2.384760498046875,1.662000060081482,-8.904000282287598,-2.364000082015991
1773232832533670400,2.39467041015625,1.7239500284194946,-8.736000061035156,-2.866950035095215
1773232832543580400,2.404580322265625,1.7989500761032104,-8.599950790405273,-3.1090500354766846
1773232832553490200,2.414490234375,2.0119500160217285,-8.56095027923584,-3.1690502166748047
1773232832568355300,2.429355224609375,2.4810001850128174,-8.413050651550293,-3.0870001316070557
1773232832578265300,2.439265380859375,2.7829501628875732,-8.269050598144531,-2.854950189590454
1773232832588175000,2.449175048828125,2.9569501876831055,-8.130000114440918,-2.7589502334594727
1773232832598085000,2.459085205078125,2.7780001163482666,-8.038949966430664,-2.707050085067749
1773232832607995100,2.4689951171875,2.320050001144409,-7.999050617218018,-2.6710500717163086
1773232832617905000,2.47890478515625,1.8870000839233398,-7.948050498962402,-2.5990500450134277
1773232832627815200,2.488815185546875,1.53000009059906,-7.939050197601318,-2.368950128555298
1773232832637725000,2.498724853515625,1.4250000715255737,-8.281050682067871,-1.8690000772476196
1773232832647635000,2.508635009765625,1.437000036239624,-9.28695011138916,-0.8010000586509705
1773232832657545000,2.518544921875,1.1740500926971436,-10.551000595092773,0.3739500045776367
1773232832667454700,2.528454833984375,1.1350500583648682,-12.09000015258789,1.6090500354766846
1773232832677364700,2.53836474609375,1.6360501050949097,-13.777950286865234,2.899050235748291
1773232832687274800,2.548274658203125,2.332050085067749,-14.953950881958008,3.9619503021240234
1773232832697184800,2.558184814453125,3.0510001182556152,-15.481050491333008,4.896000385284424
1773232832707094500,2.568094482421875,3.1560001373291016,-15.141000747680664,5.611950397491455
1773232832717004500,2.578004638671875,2.0429999828338623,-12.301050186157227,5.025000095367432
1773232832726914600,2.58791455078125,0.46995002031326294,-9.258000373840332,3.4069502353668213
1773232832736824600,2.597824462890625,-0.9370500445365906,-7.455000400543213,2.3370001316070557
1773232832746734600,2.607734619140625,-1.6170001029968262,-6.720000267028809,1.5709500312805176
1773232832756644900,2.617644775390625,-1.7610000371932983,-6.57705020904541,0.7210500240325928
1773232832766554600,2.6275546875,-1.665000081062317,-6.87600040435791,-0.2550000250339508
1773232832776464400,2.63746435546875,-1.5259500741958618,-7.5610504150390625,-1.3639500141143799
1773232832786374400,2.64737451171875,-1.7220001220703125,-8.329050064086914,-2.3400001525878906
1773232832796284400,2.657284423828125,-1.7770501375198364,-9.064050674438477,-2.9920501708984375
1773232832806194200,2.667194091796875,-1.228950023651123,-9.556950569152832,-3.4489500522613525
1773232832816104200,2.677104248046875,-0.286050021648407,-9.778050422668457,-3.6790502071380615
1773232832826014200,2.68701416015625,0.6520500183105469,-9.873000144958496,-3.556950092315674
1773232832835924200,2.69692431640625,1.2430500984191895,-9.972000122070312,-3.046950101852417
1773232832845834000,2.706833984375,1.450950026512146,-9.972000122070312,-2.3959500789642334
1773232832855744000,2.716743896484375,1.3339500427246094,-9.85200023651123,-1.7320500612258911
1773232832865654000,2.726654052734375,1.0440000295639038,-9.708000183105469,-1.1239500045776367
1773232832875564000,2.73656396484375,0.6040500402450562,-9.562050819396973,-0.781950056552887
1773232832885474000,2.74647412109375,0.5320500135421753,-9.59595012664795,-0.6619500517845154
1773232832895383800,2.7563837890625,0.6349500417709351,-9.720000267028809,-0.21195000410079956
1773232832905293800,2.7662939453125,0.4549500346183777,-9.868950843811035,0.1080000028014183
1773232832915203800,2.776203857421875,-0.013050000183284283,-10.015050888061523,0.05505000427365303
1773232832925113900,2.78611376953125,-0.583050012588501,-10.14900016784668,-0.21405000984668732
1773232832939978800,2.800978759765625,-1.2750000953674316,-10.294950485229492,-0.625950038433075
1773232832949888800,2.810888671875,-1.5120000839233398,-10.45305061340332,-0.7480500340461731
1773232832959798500,2.820798583984375,-1.64805006980896,-10.608000755310059,-0.7080000042915344
1773232832969708500,2.83070849609375,-1.633950114250183,-10.683000564575195,-0.7080000042915344
1773232832979618600,2.84061865234375,-1.5240000486373901,-10.599000930786133,-0.7890000343322754
1773232832989528600,2.850528564453125,-1.4710500240325928,-10.39995002746582,-0.9139500260353088
1773232832999438300,2.860438232421875,-1.5259500741958618,-10.194000244140625,-0.9810000658035278
1773232833009348400,2.870348388671875,-1.6050000190734863,-10.060050010681152,-1.0500000715255737
1773232833019258400,2.88025830078125,-1.651050090789795,-10.017000198364258,-1.0740000009536743
1773232833029168000,2.890168212890625,-1.5859500169754028,-10.065000534057617,-1.0399500131607056
1773232833039078100,2.900078125,-1.4590500593185425,-10.096050262451172,-1.0069500207901
1773232833048988200,2.90998828125,-1.1620500087738037,-10.084050178527832,-0.8389500379562378
1773232833058898200,2.919898193359375,-0.778950035572052,-10.096050262451172,-0.5710500478744507
1773232833068808000,2.929807861328125,-0.5059500336647034,-10.084050178527832,-0.20205001533031464
1773232833078718000,2.939718017578125,-0.43905001878738403,-10.036050796508789,0.18405000865459442
1773232833088628000,2.9496279296875,-0.4440000355243683,-10.093950271606445,0.5239500403404236
1773232833098538200,2.959538330078125,-0.5920500159263611,-10.18695068359375,0.6990000605583191
1773232833108447700,2.96944775390625,-1.0140000581741333,-10.24905014038086,0.6780000329017639
1773232833118357800,2.979357666015625,-1.300950050354004,-10.233000755310059,0.44805002212524414
1773232833128267800,2.989267822265625,-1.4250000715255737,-10.243950843811035,0.14100000262260437
1773232833138177800,2.999177734375,-1.4160000085830688,-10.291950225830078,-0.15000000596046448
1773232833148087800,3.009087890625,-1.210050106048584,-10.362000465393066,-0.3940500319004059
1773232833157997600,3.01899755859375,-0.9540000557899475,-10.189050674438477,-0.625950038433075
1773232833167907600,3.028907470703125,-0.5779500007629395,-9.98805046081543,-0.89205002784729
1773232833177817600,3.038817626953125,-0.45600003004074097,-9.937950134277344,-1.1670000553131104
1773232833187727600,3.0487275390625,-0.5590500235557556,-10.078950881958008,-1.4310001134872437
1773232833197637600,3.0586376953125,-0.7069500088691711,-10.233000755310059,-1.609950065612793
1773232833207547400,3.06854736328125,-0.7620000243186951,-10.278000831604004,-1.5580500364303589
1773232833217457400,3.07845751953125,-0.8290500640869141,-10.234950065612793,-1.4550000429153442
1773232833227367200,3.0883671875,-0.8269500136375427,-10.093950271606445,-1.3519500494003296
1773232833237277400,3.09827734375,-0.7410000562667847,-9.87600040435791,-1.2220500707626343
1773232833247187200,3.108187255859375,-0.5299500226974487,-9.732000350952148,-1.0380001068115234
1773232833257097200,3.11809716796875,-0.40995001792907715,-9.67905044555664,-1.0500000715255737
1773232833267007200,3.12800732421875,-0.4459500312805176,-9.562050819396973,-0.9570000171661377
1773232833276917000,3.1379169921875,-0.40605002641677856,-9.415950775146484,-0.7320000529289246
1773232833286827300,3.1478271484375,-0.20400001108646393,-9.415950775146484,-0.6049500107765198
1773232833296737000,3.157737060546875,-0.1279500126838684,-9.41100025177002,-0.4630500078201294
1773232833306647300,3.167647216796875,-0.07800000160932541,-9.390000343322754,-0.44700002670288086
1773232833316557000,3.17755712890625,0.13695000112056732,-9.475950241088867,-0.42795002460479736
1773232833326467000,3.187467041015625,0.44805002212524414,-9.612000465393066,-0.544950008392334
1773232833336376800,3.197376953125,0.36195001006126404,-9.747000694274902,-1.3060500621795654
1773232833346286800,3.207286865234375,0.13695000112056732,-9.748950004577637,-1.9380000829696655
1773232833356196900,3.21719677734375,-0.29805001616477966,-9.97605037689209,-2.3170502185821533
1773232833366107000,3.22710693359375,0.7020000219345093,-9.967050552368164,-2.6730000972747803
1773232833376016600,3.2370166015625,1.1740500926971436,-10.006950378417969,-2.8980002403259277
1773232833385926700,3.2469267578125,1.300950050354004,-10.039050102233887,-3.1020002365112305
1773232833395836700,3.256836669921875,1.5180001258850098,-10.168050765991211,-3.451050281524658
1773232833405746700,3.26674658203125,1.645050048828125,-10.291950225830078,-3.7549502849578857
1773232833415656400,3.276656494140625,1.6980000734329224,-10.576950073242188,-3.9589502811431885
1773232833425566700,3.286566650390625,1.7700001001358032,-11.182950973510742,-3.870000123977661
1773232833435476500,3.2964765625,1.7080501317977905,-12.007050514221191,-3.6120002269744873
1773232833445386500,3.306386474609375,1.537950038909912,-13.005001068115234,-3.29295015335083
1773232833455296500,3.316296630859375,1.1380500793457031,-13.647000312805176,-2.9389500617980957
1773232833465206300,3.326206298828125,0.38100001215934753,-14.230950355529785,-2.8219501972198486
1773232833475116300,3.3361162109375,-0.595050036907196,-14.02695083618164,-2.2330501079559326
1773232833485026300,3.3460263671875,-0.7219500541687012,-13.402050971984863,-1.5739500522613525
1773232833494936300,3.355936279296875,-0.07800000160932541,-13.45305061340332,-1.3230000734329224
1773232833504846000,3.36584619140625,0.8719500303268433,-14.152050971984863,-0.9139500260353088
1773232833514756000,3.375756103515625,2.0929501056671143,-14.962950706481934,-0.2070000171661377
1773232833524666000,3.385666015625,3.349950075149536,-15.706050872802734,0.48405003547668457
1773232833534575900,3.395575927734375,4.357950210571289,-15.487950325012207,1.2570000886917114
1773232833544486000,3.40548583984375,5.064000129699707,-14.635050773620605,1.1899501085281372
1773232833554396000,3.41539599609375,5.044950008392334,-14.224050521850586,0.4549500346183777
1773232833564306000,3.425305908203125,4.333950042724609,-14.269050598144531,-0.40800002217292786
1773232833574216000,3.4352158203125,3.0460500717163086,-14.205000877380371,-0.8659500479698181
1773232833584125700,3.445125732421875,1.3840500116348267,-13.720951080322266,-0.5809500217437744
1773232833594035500,3.455035400390625,-0.1680000126361847,-13.027050971984863,0.29205000400543213
1773232833603945700,3.46494580078125,-1.054050087928772,-12.2920503616333,0.51705002784729
1773232833613855500,3.47485546875,-1.8250501155853271,-11.664000511169434,0.13395000994205475
1773232833623765500,3.484765625,-2.0220000743865967,-11.149950981140137,-0.8749500513076782
1773232833633675500,3.494675537109375,-1.606950044631958,-10.795050621032715,-1.4980500936508179
1773232833643585300,3.504585205078125,-1.6240500211715698,-10.795050621032715,-1.612950086593628
1773232833653495600,3.51449560546875,-1.2990000247955322,-11.116050720214844,-1.4310001134872437
1773232833663405300,3.5244052734375,-0.42195001244544983,-11.619000434875488,-1.6920000314712524
1773232833673315300,3.5343154296875,1.924950122833252,-12.166950225830078,-2.5630500316619873
1773232833683225300,3.544225341796875,4.806000232696533,-12.660000801086426,-3.741000175476074
1773232833693135000,3.554135009765625,5.871000289916992,-12.97605037689209,-5.305050373077393
1773232833703045000,3.564045166015625,5.2699503898620605,-13.02405071258545,-6.5809502601623535
1773232833712955100,3.573955078125,3.8050501346588135,-13.053000450134277,-6.604950428009033
1773232833722865200,3.583865234375,1.9780501127243042,-12.696001052856445,-5.544000148773193
1773232833732775000,3.59377490234375,0.7909500598907471,-12.121950149536133,-4.675050258636475
1773232833742685200,3.603685302734375,1.3960500955581665,-10.944000244140625,-2.5849502086639404
1773232833752595000,3.613594970703125,2.014050006866455,-9.462000846862793,0.12495000660419464
1773232833762504700,3.623504638671875,1.4970000982284546,-8.008049964904785,1.4560500383377075
1773232833772415000,3.6334150390625,0.5700000524520874,-7.3999505043029785,1.9230000972747803
1773232833782324700,3.64332470703125,0.3049500286579132,-7.764000415802002,1.5319501161575317
1773232833792234800,3.65323486328125,0.7669500112533569,-8.185050010681152,-0.05595000088214874
1773232833802144800,3.663144775390625,1.5400500297546387,-7.71405029296875,-1.8930001258850098
1773232833812054800,3.6730546875,1.8679500818252563,-7.387950420379639,-2.806950092315674
1773232833821964500,3.682964599609375,1.7389501333236694,-7.04295015335083,-2.68500018119812
1773232833831874600,3.69287451171875,1.5660001039505005,-6.51900053024292,-2.356950044631958
1773232833841784600,3.70278466796875,1.5640500783920288,-5.9730000495910645,-2.0629501342773438
1773232833851694300,3.7126943359375,1.0990500450134277,-5.461050033569336,-1.5139501094818115
1773232833861604400,3.722604248046875,0.9649500250816345,-4.692000389099121,-0.8029500246047974
1773232833871514400,3.732514404296875,1.0060499906539917,-4.05495023727417,-0.8509500622749329
1773232833881424400,3.74242431640625,0.7590000629425049,-3.378000259399414,-1.0960500240325928
1773232833891334100,3.752334228515625,0.4819500148296356,-2.698050022125244,-0.9640500545501709
1773232833901244200,3.762244140625,0.4600500166416168,-1.977000117301941,-0.5089499950408936
1773232833911154200,3.772154296875,0.48405003547668457,-1.4359500408172607,-0.0799500048160553
1773232833921064000,3.78206396484375,0.4050000309944153,-1.0150500535964966,0.09600000083446503
1773232833930974000,3.791973876953125,0.520050048828125,-0.7470000386238098,0.06705000251531601
1773232833940884000,3.801884033203125,0.5770500302314758,-0.7249500155448914,-0.14295001327991486
1773232833950794000,3.8117939453125,0.8290500640869141,-0.6889500617980957,-0.08505000174045563
1773232833960703700,3.821703857421875,1.068000078201294,-0.8380500674247742,0
1773232833970613800,3.83161376953125,1.2739500999450684,-1.125,-0.0970500037074089
1773232833980523800,3.841523681640625,1.4440500736236572,-1.5700501203536987,-0.934950053691864
1773232833990433500,3.85143359375,1.746000051498413,-1.6950000524520874,-1.2610501050949097
1773232834000343800,3.86134375,1.9090501070022583,-1.5580500364303589,-1.8709501028060913
1773232834010253600,3.871253662109375,1.8109500408172607,-1.4170501232147217,-2.386050224304199
1773232834020163600,3.88116357421875,1.7239500284194946,-1.6230000257492065,-2.809950113296509
1773232834030073600,3.891073486328125,1.5540000200271606,-2.095050096511841,-3.106950044631958
1773232834039983400,3.9009833984375,1.0519500970840454,-2.739000082015991,-3.511050224304199
1773232834049893400,3.910893310546875,0.27300000190734863,-3.517050266265869,-3.6499502658843994
1773232834059803400,3.920803466796875,0.7810500264167786,-4.264050006866455,-3.267000198364258
1773232834069713400,3.93071337890625,6.925050258636475,-5.025000095367432,-3.2790000438690186
1773232834079623200,3.940623046875,9.960000038146973,-8.206950187683105,-5.893050193786621
1773232834089533400,3.950533447265625,9.928950309753418,-14.365050315856934,-7.653000354766846
1773232834099443200,3.960443115234375,6.8359503746032715,-22.108051300048828,-11.545950889587402
1773232834109353000,3.97035302734375,8.068950653076172,-29.310001373291016,-18.652050018310547
1773232834119263000,3.980262939453125,8.545050621032715,-33.11894989013672,-23.656051635742188
1773232834129173000,3.990173095703125,8.569050788879395,-30.46095085144043,-20.752050399780273
1773232834139083000,4.0000830078125,7.129950523376465,-21.604951858520508,-11.395051002502441
1773232834148993000,4.009992919921875,6.95805025100708,-13.450050354003906,-4.288949966430664
1773232834158903000,4.019903076171875,4.174050331115723,-7.692000389099121,-0.527999997138977
1773232834168812800,4.029812744140625,1.7320500612258911,-4.471950054168701,1.5040500164031982
1773232834178722600,4.03972265625,1.7050501108169556,-2.641050100326538,2.770050048828125
1773232834188632800,4.0496328125,1.114050030708313,-2.1660001277923584,2.8729500770568848
1773232834198542600,4.05954248046875,0.9580500721931458,-2.619000196456909,1.4250000715255737
1773232834208452600,4.06945263671875,1.9060500860214233,-3.7270500659942627,-0.7480500340461731
1773232834218362600,4.079362548828125,2.1310501098632812,-5.221050262451172,-2.3449501991271973
1773232834228272400,4.0892724609375,1.4590500593185425,-7.273050308227539,-3.0400500297546387
1773232834238182700,4.0991826171875,0.9960000514984131,-10.243950843811035,-2.7550501823425293
1773232834248092400,4.109092529296875,0.8029500246047974,-12.837000846862793,-2.7090001106262207
1773232834258002200,4.119002197265625,0.45795002579689026,-14.475000381469727,-3.2569501399993896
1773232834267912400,4.128912353515625,-0.13500000536441803,-15.10995101928711,-4.201050281524658
1773232834277822200,4.138822265625,-0.6330000162124634,-14.32395076751709,-4.360949993133545
1773232834287732200,4.148732177734375,-0.8530500531196594,-12.508950233459473,-3.7990500926971436
1773232834297642200,4.158642333984375,-0.9709500670433044,-10.612950325012207,-3.6739501953125
1773232834307552000,4.168552001953125,-0.5640000104904175,-8.929950714111328,-4.213050365447998
1773232834317462000,4.1784619140625,-0.42195001244544983,-7.647000312805176,-4.723050117492676
1773232834327371800,4.188371826171875,-0.17295001447200775,-6.715050220489502,-5.034000396728516
1773232834337281800,4.19828173828125,-0.26205000281333923,-6.262950420379639,-5.424000263214111
1773232834347192000,4.208192138671875,-0.5400000214576721,-6.166950225830078,-5.664000034332275
1773232834357101600,4.2181015625,-0.5730000138282776,-6.201000213623047,-5.644050121307373
1773232834367011800,4.22801171875,-0.16395001113414764,-6.22005033493042,-5.473950386047363
1773232834376921600,4.237921630859375,0.36000001430511475,-6.238950252532959,-5.235000133514404
1773232834386831600,4.24783154296875,1.1640000343322754,-6.250950336456299,-4.941000461578369
1773232834396741600,4.25774169921875,1.7389501333236694,-6.415950298309326,-4.5
1773232834406651600,4.267651611328125,1.6690500974655151,-6.8710503578186035,-4.026000022888184
1773232834416561400,4.2775615234375,1.4940000772476196,-7.386000156402588,-3.90405011177063
1773232834426471400,4.287471435546875,1.300950050354004,-7.8070502281188965,-3.82200026512146
1773232834436381200,4.297381103515625,0.9679500460624695,-7.834050178527832,-3.556950092315674
1773232834446291200,4.307291259765625,0.7810500264167786,-7.704000473022461,-2.9580001831054688
1773232834456201200,4.317201171875,0.4720500111579895,-7.510050296783447,-2.5609500408172607
1773232834466111200,4.327111328125,0.16995000839233398,-7.4239501953125,-2.5219500064849854
1773232834476021000,4.33702099609375,-0.16095000505447388,-7.417050361633301,-2.829000234603882
1773232834485931000,4.346930908203125,-0.27900001406669617,-7.434000492095947,-3.0679502487182617
1773232834495841000,4.356841064453125,-0.5520000457763672,-7.510050296783447,-3.235950231552124
1773232834505750800,4.366750732421875,-0.7170000076293945,-7.684950351715088,-3.025050163269043
1773232834515660800,4.376660888671875,-0.7309500575065613,-8.086950302124023,-3.106950044631958
1773232834525570800,4.38657080078125,-0.6570000052452087,-8.712000846862793,-3.1470000743865967
1773232834535480600,4.39648046875,-0.6349500417709351,-9.28695011138916,-3.0349502563476562
1773232834545390600,4.406390625,-0.6330000162124634,-9.688950538635254,-2.697000026702881
1773232834555300600,4.416300537109375,-0.15405000746250153,-10.066950798034668,-1.6840500831604004
1773232834565210400,4.42621044921875,1.1069999933242798,-10.596000671386719,-1.1980500221252441
1773232834575120400,4.436120361328125,2.3490002155303955,-11.086950302124023,-1.4310001134872437
1773232834585030400,4.446030517578125,2.971950054168701,-11.109000205993652,-2.3959500789642334
1773232834594940400,4.4559404296875,2.533950090408325,-10.504950523376465,-4.1579999923706055
1773232834604850200,4.46585009765625,1.5019500255584717,-9.754050254821777,-6.099000453948975
1773232834614760200,4.47576025390625,0.7740000486373901,-9.318000793457031,-7.63200044631958
1773232834624670200,4.485670166015625,0.34005001187324524,-9.256050109863281,-8.692049980163574
1773232834634580000,4.495580078125,0.19905000925064087,-9.373050689697266,-8.926950454711914
1773232834644490200,4.505490234375,0.19905000925064087,-9.607950210571289,-8.695050239562988
1773232834654400000,4.51539990234375,0.16095000505447388,-9.95205020904541,-8.356950759887695
1773232834664310000,4.52531005859375,-0.031950000673532486,-10.462050437927246,-7.9860005378723145
1773232834674219800,4.5352197265625,-0.22395001351833344,-11.293050765991211,-7.990950584411621
1773232834684129800,4.5451298828125,-0.42705002427101135,-12.058950424194336,-7.974000453948975
1773232834694039800,4.555039794921875,-0.5920500159263611,-12.757950782775879,-7.813950538635254
1773232834703949600,4.564949462890625,-0.6739500164985657,-13.4239501953125,-7.288950443267822
1773232834713859600,4.574859619140625,-0.8440500497817993,-14.14905071258545,-6.430050373077393
1773232834723769600,4.58476953125,-0.9010500311851501,-14.950950622558594,-5.271000385284424
1773232834733679400,4.594679443359375,-0.9079500436782837,-15.588000297546387,-3.862950086593628
1773232834743589600,4.604589599609375,-0.609000027179718,-16.125,-2.76705002784729
1773232834753499400,4.61449951171875,0.27300000190734863,-16.735050201416016,-2.149049997329712
1773232834763409400,4.624409423828125,1.8630000352859497,-17.452951431274414,-1.4020500183105469
1773232834773319400,4.6343193359375,3.6760501861572266,-17.797950744628906,-0.4900500178337097
1773232834783229200,4.644229248046875,5.398950099945068,-17.224050521850586,0.20100000500679016
1773232834793139200,4.65413916015625,6.763950347900391,-15.706050872802734,0.5100000500679016
1773232834803049200,4.66404931640625,7.189950466156006,-14.145000457763672,-0.40095001459121704
1773232834812959200,4.673959228515625,6.714000225067139,-12.871050834655762,-1.7470500469207764
1773232834822869000,4.683868896484375,5.680050373077393,-12.226950645446777,-3.205050230026245
1773232834832779000,4.693779052734375,4.50600004196167,-11.944050788879395,-4.555050373077393
1773232834842689000,4.70368896484375,3.3190500736236572,-11.616000175476074,-5.640000343322754
1773232834852598800,4.713598876953125,2.6959500312805176,-10.908000946044922,-6.625950336456299
1773232834862508800,4.7235087890625,1.072950005531311,-9.868950843811035,-6.901050090789795
1773232834872418800,4.733418701171875,-3.3139500617980957,-9.06195068359375,-6.517950534820557
1773232834882328600,4.74332861328125,-8.010000228881836,-8.353050231933594,-7.786950588226318
1773232834892238600,4.753238525390625,-10.7989501953125,-8.473050117492676,-8.764050483703613
1773232834902148400,4.7631484375,-10.708050727844238,-9.16200065612793,-8.431050300598145
1773232834912058400,4.773058349609375,-5.800050258636475,-10.042950630187988,-6.916050434112549
1773232834921968400,4.782968505859375,2.328000068664551,-10.825950622558594,-6.154050350189209
1773232834931878400,4.79287841796875,6.331050395965576,-11.250000953674316,-5.4720001220703125
1773232834941788200,4.8027880859375,4.012950420379639,-10.759050369262695,-5.047950267791748
1773232834951698200,4.8126982421875,2.176950216293335,-10.630050659179688,-5.259000301361084
1773232834961608200,4.822608154296875,3.361950159072876,-11.122950553894043,-4.954950332641602
1773232834971518200,4.832518310546875,6.381000518798828,-11.535000801086426,-3.6739501953125
1773232834981428000,4.842427978515625,7.063050270080566,-11.389050483703613,-2.616000175476074
1773232834991338000,4.852337890625,5.361000061035156,-10.446000099182129,-1.519050121307373
1773232835001248000,4.862248046875,0.520050048828125,-8.87700080871582,-0.2050500065088272
1773232835011157800,4.87215771484375,-2.9629502296447754,-7.146000385284424,-1.5700501203536987
1773232835021067800,4.88206787109375,-1.9450501203536987,-6.205050468444824,-3.183000087738037
1773232835030977500,4.8919775390625,-0.208950012922287,-5.983050346374512,-2.0410501956939697
1773232835040887600,4.901887451171875,1.533000111579895,-6.148050308227539,-1.0120500326156616
1773232835050797600,4.911797607421875,2.052000045776367,-6.3319501876831055,-0.5070000290870667
1773232835060707300,4.921707275390625,1.0320000648498535,-6.469050407409668,-0.5590500235557556
1773232835070617600,4.93161767578125,-0.3940500319004059,-6.4519500732421875,-1.3090500831604004
1773232835080527400,4.94152734375,-0.364950031042099,-6.474000453948975,-2.3020501136779785
1773232835090437400,4.951437255859375,0.49800002574920654,-6.289050102233887,-2.2380001544952393
1773232835100347400,4.961347412109375,0.9610500335693359,-5.944950103759766,-1.2540000677108765
1773232835110257400,4.97125732421875,1.0279500484466553,-5.3269500732421875,-0.8730000257492065
1773232835120167200,4.981167236328125,0.9439500570297241,-4.4670000076293945,-0.4510500133037567
1773232835130077200,4.9910771484375,0.7710000276565552,-3.7080001831054688,-0.14505000412464142
1773232835139987200,5.0009873046875,0.47895002365112305,-3.0400500297546387,0.27105000615119934
1773232835149897000,5.01089697265625,0.04605000093579292,-2.3530499935150146,0.5389500260353088
1773232835159807000,5.020806884765625,-0.33105000853538513,-1.8000000715255737,0.89805006980896
1773232835169717000,5.030717041015625,-0.2569500207901001,-1.5490500926971436,0.9670500755310059
1773232835179626800,5.040626708984375,0.1270500123500824,-1.3000500202178955,0.7159500122070312
1773232835189537000,5.050537109375,0.24195000529289246,-1.024049997329712,0.14595000445842743
1773232835199446800,5.06044677734375,0.2779500186443329,-0.7680000066757202,-0.7560000419616699
1773232835209356800,5.070356689453125,0.38805001974105835,-0.5650500059127808,-2.0719501972198486
1773232835219266600,5.0802666015625,1.2960000038146973,-0.37800002098083496,-2.716050148010254
1773232835229176600,5.090176513671875,1.5040500164031982,-0.26295000314712524,-3.2530500888824463
1773232835239086600,5.100086669921875,0.7590000629425049,-0.7180500626564026,-5.829000473022461
1773232835248996400,5.109996337890625,-1.6600500345230103,-1.5940500497817993,-5.350050449371338
1773232835258906600,5.11990673828125,-4.3630499839782715,-2.6520001888275146,-2.3519999980926514
1773232835268816400,5.12981640625,-2.694000244140625,-3.6250500679016113,-0.8389500379562378
1773232835278726400,5.139726318359375,7.738950252532959,-3.864000082015991,-1.324950098991394
1773232835288636400,5.149636474609375,17.124000549316406,-5.365050315856934,-4.392000198364258
1773232835298546200,5.159546142578125,8.979000091552734,-10.861950874328613,-10.167000770568848
1773232835308456200,5.169456298828125,-1.8520500659942627,-18.424951553344727,-15.340950965881348
1773232835318366000,5.179365966796875,2.746950149536133,-26.78805160522461,-22.27695083618164
1773232835328276000,5.18927587890625,11.047050476074219,-32.608951568603516,-30.997051239013672
1773232835338186000,5.19918603515625,11.71500015258789,-31.6200008392334,-29.176950454711914
1773232835348096000,5.209095947265625,6.661050319671631,-21.753000259399414,-13.782000541687012
1773232835358006000,5.219006103515625,4.377000331878662,-10.903050422668457,-6.0199503898620605
1773232835367915800,5.228915771484375,0.25200000405311584,-5.236050128936768,-2.467050075531006
1773232835377825800,5.23882568359375,-0.5899500250816345,-2.562000036239624,0.20595000684261322
1773232835387735800,5.24873583984375,0.6210000514984131,-0.9330000281333923,2.281949996948242
1773232835397645600,5.2586455078125,1.055999994277954,-0.4159500300884247,2.2390501499176025
1773232835407555600,5.2685556640625,1.8490500450134277,-0.6700500249862671,0.32295000553131104
1773232835417465600,5.278465576171875,1.746000051498413,-1.0699501037597656,-1.7200500965118408
1773232835427375400,5.288375244140625,0.3450000286102295,-2.4469501972198486,-3.3319501876831055
1773232835437285400,5.298285400390625,-0.12300000339746475,-5.638050079345703,-2.5990500450134277
1773232835447195100,5.308195068359375,0.06795000284910202,-9.763050079345703,-1.0279500484466553
1773232835457105400,5.31810546875,0.3240000009536743,-13.515000343322754,-1.9140000343322754
1773232835467015200,5.32801513671875,-0.07500000298023224,-16.231950759887695,-3.44700026512146
1773232835476925200,5.33792529296875,0.5700000524520874,-17.62095069885254,-4.024050235748291
1773232835486835200,5.347835205078125,1.6960500478744507,-17.83905029296875,-3.6259500980377197
1773232835496745000,5.357744873046875,1.3530000448226929,-14.962950706481934,-2.848050117492676
1773232835506655200,5.3676552734375,0.14205001294612885,-11.467950820922852,-2.1750001907348633
1773232835516565000,5.37756494140625,-0.08895000070333481,-9.157950401306152,-2.187000036239624
1773232835526474800,5.387474853515625,0.4120500087738037,-7.567950248718262,-2.677950143814087
1773232835536384800,5.397384765625,0.33105000853538513,-6.616950511932373,-3.29295015335083
1773232835546294800,5.407294677734375,-0.05100000277161598,-6.106950283050537,-3.700050115585327
1773232835556204500,5.41720458984375,-0.44895002245903015,-5.820000171661377,-4.105050086975098
1773232835566114600,5.427114501953125,-0.6379500031471252,-5.691000461578369,-4.438050270080566
1773232835576024600,5.437024658203125,-0.44895002245903015,-5.736000061035156,-4.6650004386901855
1773232835585934600,5.4469345703125,-0.26205000281333923,-5.848950386047363,-4.792050361633301
1773232835595844400,5.45684423828125,-0.0799500048160553,-5.937000274658203,-4.924050331115723
1773232835605754400,5.46675439453125,0.4429500102996826,-6.106950283050537,-4.897050380706787
1773232835615664400,5.476664306640625,1.207050085067749,-6.414000511169434,-4.818000316619873
1773232835625574100,5.48657421875,1.6210501194000244,-6.6820502281188965,-4.411050319671631
1773232835635484200,5.496484130859375,1.3990501165390015,-6.778050422668457,-3.9850502014160156
1773232835645394200,5.506394287109375,0.7950000166893005,-6.76800012588501,-3.7360501289367676
1773232835655304200,5.51630419921875,0.2350500077009201,-6.829950332641602,-3.66195011138916
1773232835665214000,5.5262138671875,-0.04200000315904617,-6.967050552368164,-3.5350501537323
1773232835675123700,5.536123779296875,-0.18495000898838043,-7.189050197601318,-3.4420502185821533
1773232835685034000,5.546033935546875,-0.3840000033378601,-7.318950176239014,-3.4710001945495605
1773232835694943700,5.55594384765625,-0.5059500336647034,-7.453050136566162,-3.4230000972747803
1773232835704853800,5.565853759765625,-0.14205001294612885,-7.846050262451172,-3.4270501136779785
1773232835714763800,5.575763671875,0.036000002175569534,-8.26200008392334,-3.3100502490997314
1773232835724673500,5.585673583984375,-0.04605000093579292,-8.710050582885742,-3.123000144958496
1773232835734583600,5.59558349609375,-0.32895001769065857,-9.11400032043457,-2.8980002403259277
1773232835744493600,5.60549365234375,-0.453000009059906,-9.450000762939453,-2.3620500564575195
1773232835754403600,5.615403564453125,-0.2670000195503235,-9.57705020904541,-2.137050151824951
1773232835764313300,5.625313232421875,0.3520500063896179,-9.672000885009766,-1.9789501428604126
1773232835774223400,5.635223388671875,0.8239500522613525,-9.757950782775879,-2.299950122833252
1773232835784133400,5.64513330078125,0.7669500112533569,-9.763050079345703,-3.058950185775757
1773232835794043100,5.655043212890625,0.283050000667572,-9.69105052947998,-4.174050331115723
1773232835803953200,5.664953125,-0.6930000185966492,-9.519000053405762,-5.340000152587891
1773232835813863200,5.67486328125,-1.576050043106079,-9.538050651550293,-6.388950347900391
1773232835823773000,5.68477294921875,-1.91100013256073,-9.766050338745117,-7.25100040435791
1773232835833683200,5.69468310546875,-1.593000054359436,-10.24905014038086,-7.881000518798828
1773232835843593000,5.704593017578125,-0.5560500025749207,-10.867050170898438,-8.269050598144531
1773232835853503000,5.7145029296875,0.8860500454902649,-11.272050857543945,-8.431050300598145
1773232835863412700,5.724412841796875,2.155050039291382,-11.57805061340332,-8.653950691223145
1773232835873322800,5.73432275390625,2.3899500370025635,-11.992050170898438,-8.9170503616333
1773232835883232800,5.744232666015625,1.5690001249313354,-12.670050621032715,-9.030000686645508
1773232835893142500,5.754142578125,0.3570000231266022,-13.591950416564941,-8.982000350952148
1773232835903052500,5.764052490234375,-0.7309500575065613,-14.535000801086426,-8.695050239562988
1773232835912962600,5.773962646484375,-1.1809500455856323,-15.634050369262695,-8.31195068359375
1773232835922872600,5.78387255859375,-0.7380000352859497,-16.75695037841797,-7.540950298309326
1773232835932782300,5.7937822265625,0.6780000329017639,-17.713951110839844,-5.838000297546387
1773232835942692400,5.8036923828125,3.0319502353668213,-18.11895179748535,-2.9700000286102295
1773232835952602000,5.81360205078125,5.581050395965576,-18.126001358032227,-0.15900000929832458
1773232835962512100,5.82351220703125,7.477950572967529,-17.956050872802734,1.6230000257492065
1773232835972422100,5.833422119140625,8.071050643920898,-17.27895164489746,1.7359501123428345
1773232835982332200,5.843332275390625,7.558950424194336,-16.174951553344727,0.5890500545501709
1773232835992242000,5.853241943359375,6.253950119018555,-15.106950759887695,-0.4849500358104706
1773232836002152200,5.863152099609375,4.645050048828125,-14.272050857543945,-0.921000063419342
1773232836012062000,5.87306201171875,2.991000175476074,-13.47705078125,-1.231950044631958
1773232836021972000,5.882971923828125,1.606950044631958,-12.556950569152832,-1.7370001077651978
1773232836031882000,5.892882080078125,0.5010000467300415,-11.61405086517334,-2.4150002002716064
1773232836041791700,5.902791748046875,-0.7309500575065613,-10.704000473022461,-3.1549501419067383
1773232836051701500,5.912701416015625,-2.2159500122070312,-9.868950843811035,-4.657950401306152
1773232836061611500,5.922611572265625,-4.25100040435791,-9.105000495910645,-6.492000102996826
1773232836071521500,5.932521484375,-6.847950458526611,-8.592000007629395,-8.035950660705566
1773232836081431600,5.942431640625,-6.856050491333008,-8.394000053405762,-8.968050003051758
1773232836091341300,5.95234130859375,-3.910950183868408,-8.743050575256348,-8.944050788879395
1773232836101251000,5.9622509765625,0.07005000114440918,-9.271950721740723,-8.403000831604004
1773232836111161300,5.972161376953125,3.7189502716064453,-9.94005012512207,-7.372950553894043
1773232836121071000,5.982071044921875,5.979000091552734,-10.573050498962402,-6.303000450134277
1773232836130981000,5.991981201171875,6.697050094604492,-10.984050750732422,-5.938950061798096
1773232836140891100,6.00189111328125,6.112950325012207,-11.607000350952148,-5.874000072479248
1773232836150801000,6.01180078125,4.803000450134277,-12.433050155639648,-5.06505012512207
1773232836160710700,6.021710693359375,3.6180002689361572,-12.700950622558594,-3.576000213623047
1773232836170620700,6.03162060546875,2.577000141143799,-12.03795051574707,-1.6290000677108765
1773232836180530700,6.04153076171875,0.7069500088691711,-10.276050567626953,-0.909000039100647
1773232836190440700,6.051440673828125,-1.0420500040054321,-8.581050872802734,-1.7970000505447388
1773232836200350500,6.0613505859375,-0.41505002975463867,-7.422000408172607,-2.5510501861572266
1773232836210260500,6.071260498046875,1.1759999990463257,-6.718050479888916,-1.5289500951766968
1773232836220170500,6.08117041015625,0.690000057220459,-6.1120500564575195,-0.3150000274181366
1773232836230080300,6.091080322265625,-0.19500000774860382,-5.712000370025635,-0.2070000171661377
1773232836239990500,6.100990478515625,-0.4129500091075897,-5.4370503425598145,-0.909000039100647
1773232836249900300,6.110900390625,0.6180000305175781,-5.238000392913818,-2.1130499839782715
1773232836259810000,6.12081005859375,1.8079501390457153,-5.245050430297852,-3.2190001010894775
1773232836269720000,6.130719970703125,1.8370500802993774,-5.407950401306152,-3.4489500522613525
1773232836279630000,6.140630126953125,1.363050103187561,-5.485050201416016,-3.3130502700805664
1773232836289540000,6.1505400390625,0.843000054359436,-5.293050289154053,-2.545950174331665
1773232836299449900,6.160449951171875,0.04605000093579292,-4.624950408935547,-2.1559500694274902
1773232836309359900,6.17035986328125,-0.4030500054359436,-3.6940500736236572,-1.636950135231018
1773232836319269600,6.18026953125,0.034050002694129944,-2.7769501209259033,-0.5400000214576721
1773232836329179600,6.1901796875,0.6370500326156616,-1.9870500564575195,0.286950021982193
1773232836339089700,6.200089599609375,0.6880500316619873,-1.294950008392334,0.7950000166893005
1773232836348999400,6.20999951171875,0.19200000166893005,-0.661050021648407,1.0150500535964966
1773232836358909700,6.21990966796875,-0.21195000410079956,-0.13095000386238098,0.6820500493049622
1773232836368819500,6.2298193359375,0.12495000660419464,0.15000000596046448,0.19395001232624054
1773232836378729200,6.239729248046875,0.534000039100647,0.1290000081062317,-0.27195000648498535
1773232836388639200,6.24963916015625,0.906000018119812,-0.09795000404119492,0.028950002044439316
1773232836398549200,6.25954931640625,1.1830500364303589,-0.21495001018047333,0.0580500029027462
1773232836408459000,6.269458984375,1.8580501079559326,-0.0690000057220459,-0.4350000321865082
1773232836418369000,6.279369140625,3.0460500717163086,-0.20805001258850098,-1.4070000648498535
1773232836428279000,6.289279052734375,4.7310004234313965,-0.6199500560760498,-2.01705002784729
1773232836438189000,6.29918896484375,6.094050407409668,-0.9450000524520874,-3.267000198364258
1773232836448098800,6.309098876953125,5.8999505043029785,-1.0870500802993774,-7.047000408172607
1773232836458008800,6.3190087890625,4.734000205993652,-1.1700000762939453,-12.51300048828125
1773232836467918600,6.328918701171875,2.9070000648498535,-1.434000015258789,-13.633950233459473
1773232836477828600,6.33882861328125,1.339050054550171,-1.7239500284194946,-12.942000389099121
1773232836487738600,6.348738525390625,0.5269500017166138,-2.0299501419067383,-12.352951049804688
1773232836497648400,6.3586484375,0.4429500102996826,-2.5729501247406006,-11.419050216674805
1773232836507558400,6.368558349609375,4.447050094604492,-3.358950138092041,-8.347949981689453
1773232836517468400,6.378468505859375,16.171051025390625,-5.140050411224365,-5.134950160980225
1773232836527378200,6.388378173828125,19.666051864624023,-9.780000686645508,-6.834000110626221
1773232836537288200,6.3982880859375,16.16400146484375,-17.487001419067383,-12.171000480651855
1773232836547198000,6.408197998046875,5.622000217437744,-24.124052047729492,-19.075950622558594
1773232836557108000,6.41810791015625,-0.4729500114917755,-25.314001083374023,-19.930950164794922
1773232836567018000,6.42801806640625,4.1860504150390625,-22.309051513671875,-13.5600004196167
1773232836576927700,6.437927734375,9.8860502243042,-16.327951431274414,-5.127000331878662
1773232836586838000,6.447838134765625,4.999950408935547,-10.546050071716309,-2.7280502319335938
1773232836596747800,6.457747802734375,0.5700000524520874,-5.820000171661377,-0.7219500541687012
1773232836606657800,6.46765771484375,2.565000057220459,-2.1379501819610596,1.1779500246047974
1773232836616567600,6.477567626953125,4.332000255584717,0.16200000047683716,0.3570000231266022
1773232836626477600,6.4874775390625,2.1289501190185547,0.04005000367760658,-1.1479500532150269
1773232836636387300,6.49738720703125,0.283050000667572,-3.3919501304626465,-0.3820500075817108
1773232836646297300,6.50729736328125,1.114050030708313,-7.6080002784729,1.0530000925064087
1773232836656207000,6.51720703125,2.5890002250671387,-10.855050086975098,0.7660500407218933
1773232836666117000,6.5271171875,2.4499502182006836,-12.985950469970703,-0.6049500107765198
1773232836676027100,6.537027099609375,2.086050033569336,-13.893000602722168,-2.197050094604492
1773232836685937000,6.54693701171875,1.549950122833252,-13.972050666809082,-3.5350501537323
1773232836695847000,6.556846923828125,0.9889500737190247,-13.414051055908203,-4.3279500007629395
1773232836705757000,6.5667568359375,0.5989500284194946,-12.319951057434082,-4.756050109863281
1773232836715666700,6.576666748046875,-0.0580500029027462,-11.29800033569336,-5.343000411987305
1773232836725576700,6.58657666015625,-0.2950500249862671,-10.552950859069824,-5.683050155639648
1773232836735486700,6.59648681640625,-0.24495001137256622,-10.141950607299805,-6.0010504722595215
1773232836745396700,6.606396728515625,-0.018000001087784767,-9.8899507522583,-6.147000312805176
1773232836755306500,6.616306396484375,0.043950002640485764,-9.699000358581543,-6.315000534057617
1773232836765216500,6.626216552734375,0.6880500316619873,-9.237000465393066,-6.217050075531006
1773232836775126300,6.636126220703125,0.6970500349998474,-8.695050239562988,-5.881950378417969
1773232836785036000,6.6460361328125,0.3930000066757202,-8.194950103759766,-5.326050281524658
1773232836794946300,6.6559462890625,0.0580500029027462,-7.630050182342529,-4.890000343322754
1773232836804856000,6.66585595703125,-0.20400001108646393,-7.177950382232666,-4.711050033569336
1773232836814766000,6.67576611328125,-0.013050000183284283,-6.840000152587891,-4.579050064086914
1773232836824675800,6.68567578125,0.7069500088691711,-6.699000358581543,-4.492950439453125
1773232836834585900,6.6955859375,0.8359500169754028,-6.9310503005981445,-4.507050037384033
1773232836844496000,6.705495849609375,0.8820000290870667,-6.9910502433776855,-4.039950370788574
1773232836854405600,6.715405517578125,0.6640500426292419,-6.919050216674805,-3.613950252532959
1773232836864315600,6.725315673828125,0.1270500123500824,-6.973950386047363,-3.4729502201080322
1773232836874225400,6.735225341796875,0.13199999928474426,-7.030950546264648,-3.5500502586364746
1773232836884135400,6.745135498046875,0.5250000357627869,-7.228050231933594,-3.44700026512146
1773232836894045400,6.75504541015625,0.016950000077486038,-7.489050388336182,-3.787050247192383
1773232836903955200,6.764955078125,-0.5470499992370605,-7.624950408935547,-4.183950424194336
1773232836913865000,6.774864990234375,-0.7500000596046448,-7.597050189971924,-4.252950191497803
1773232836923775000,6.78477490234375,-0.9010500311851501,-7.510050296783447,-4.324950218200684
1773232836933685000,6.79468505859375,-0.7810500264167786,-7.351950168609619,-4.507050037384033
1773232836943594800,6.8045947265625,-0.10605000704526901,-7.051050186157227,-4.621950149536133
1773232836953504800,6.8145048828125,0.37605002522468567,-7.0219502449035645,-4.858950138092041
1773232836963414500,6.82441455078125,-0.027000000700354576,-7.374000549316406,-5.041050434112549
1773232836973324800,6.83432470703125,-0.3840000033378601,-7.707000255584717,-4.738950252532959
1773232836983234600,6.844234619140625,-0.453000009059906,-8.059050559997559,-4.315950393676758
1773232836993144300,6.854144287109375,-0.45795002579689026,-8.407950401306152,-3.9280502796173096
1773232837003054300,6.864054443359375,-0.4630500078201294,-8.731050491333008,-3.703050136566162
1773232837012964000,6.873964111328125,-0.5419500470161438,-9.057000160217285,-3.504000186920166
1773232837022874000,6.8838740234375,-0.5920500159263611,-9.268050193786621,-3.4110002517700195
1773232837032784100,6.8937841796875,-0.5490000247955322,-9.330000877380371,-3.2719502449035645
1773232837042694000,6.90369384765625,-0.48900002241134644,-9.234000205993652,-3.2500500679016113
1773232837052604000,6.91360400390625,-0.1879500150680542,-9.11400032043457,-3.267000198364258
1773232837062514000,6.923513916015625,0.24495001137256622,-9.097949981689453,-3.3360002040863037
1773232837072423700,6.933423583984375,0.4909500181674957,-9.268050193786621,-3.825000286102295
1773232837082333700,6.943333740234375,0.5629500150680542,-9.519000053405762,-4.924050331115723
1773232837092243500,6.953243408203125,0.40005001425743103,-9.598050117492676,-6.006000518798828
1773232837102153500,6.963153564453125,-0.31200000643730164,-9.493050575256348,-6.885000228881836
1773232837112063500,6.9730634765625,-1.0180500745773315,-9.193050384521484,-7.1860504150390625
1773232837121973200,6.98297314453125,-1.0500000715255737,-8.928000450134277,-6.901050090789795
1773232837131883300,6.99288330078125,-0.42900002002716064,-8.704950332641602,-6.7699503898620605
1773232837141793000,7.00279296875,0.6250500082969666,-8.28600025177002,-6.517950534820557
1773232837151703000,7.012703125,1.4250000715255737,-7.857000350952148,-5.853000164031982
1773232837161613000,7.022613037109375,1.6290000677108765,-7.732950210571289,-5.1660003662109375
1773232837171522800,7.032522705078125,1.1860500574111938,-8.0110502243042,-4.852050304412842
1773232837181432800,7.042432861328125,0.6949500441551208,-8.296050071716309,-4.215000152587891
1773232837191342600,7.052342529296875,0.09405000507831573,-8.509050369262695,-3.616950273513794
1773232837201252600,7.062252685546875,-0.7960500121116638,-8.662050247192383,-3.432000160217285
1773232837211162600,7.07216259765625,-1.6939500570297241,-8.7649507522583,-3.307950258255005
1773232837221072400,7.082072265625,-2.4210000038146973,-9.022950172424316,-3.733950138092041
1773232837230982400,7.091982421875,-2.5290000438690186,-9.31095027923584,-4.222050189971924
1773232837240892200,7.10189208984375,-2.0650501251220703,-9.517050743103027,-4.440000057220459
1773232837250802000,7.111802001953125,-0.9270000457763672,-9.744000434875488,-4.82295036315918
1773232837260712200,7.121712158203125,1.054050087928772,-9.925950050354004,-4.873950004577637
1773232837270622000,7.1316220703125,3.010050058364868,-10.120050430297852,-5.260950088500977
1773232837280532000,7.141531982421875,4.152000427246094,-10.486050605773926,-6.130950450897217
1773232837290441700,7.151441650390625,4.618950366973877,-11.154000282287598,-6.873000144958496
1773232837300351700,7.161351806640625,4.573050022125244,-11.8410005569458,-7.114950180053711
1773232837310261800,7.17126171875,4.333950042724609,-12.507000923156738,-7.093050479888916
1773232837320171500,7.181171630859375,4.320000171661377,-13.4239501953125,-6.837000370025635
1773232837330081300,7.191081298828125,4.104000091552734,-14.446050643920898,-6.19005012512207
1773232837339991300,7.2009912109375,4.854000091552734,-15.04995059967041,-5.512950420379639
1773232837349901000,7.210901123046875,5.950050354003906,-15.247950553894043,-4.942950248718262
1773232837359811000,7.22081103515625,5.425950050354004,-14.533050537109375,-3.787050247192383
1773232837369721000,7.23072119140625,3.498000144958496,-13.831050872802734,-2.704050064086914
1773232837379630800,7.240630859375,1.3240500688552856,-13.52505111694336,-1.6530001163482666
1773232837389540900,7.250540771484375,-0.8820000290870667,-13.528950691223145,-0.9930000305175781
1773232837399450600,7.26045068359375,-2.6680500507354736,-13.71405029296875,-0.5419500470161438
1773232837409360400,7.2703603515625,-3.1470000743865967,-13.849950790405273,-0.5689499974250793
1773232837419270700,7.280270751953125,-2.0380501747131348,-14.142000198364258,-1.3639500141143799
1773232837429180400,7.290180419921875,0.453000009059906,-14.518051147460938,-2.257050037384033
1773232837439090200,7.300090087890625,3.6250500679016113,-14.467950820922852,-2.470050096511841
1773232837449000200,7.310000244140625,5.119050025939941,-13.572000503540039,-2.9920501708984375
1773232837458910000,7.319909912109375,4.075050354003906,-12.250950813293457,-4.549950122833252
1773232837468820000,7.329820068359375,3.229950189590454,-10.771050453186035,-5.53695011138916
1773232837478730000,7.33972998046875,2.7850501537323,-9.473999977111816,-5.131950378417969
1773232837488639700,7.3496396484375,2.992950201034546,-8.575950622558594,-4.572000026702881
1773232837498549800,7.3595498046875,2.5380001068115234,-8.03700065612793,-3.825000286102295
1773232837508459500,7.36945947265625,2.104950189590454,-7.932000160217285,-3.526050090789795
1773232837518369500,7.37936962890625,2.5000500679016113,-7.992000579833984,-3.444000244140625
1773232837528279600,7.389279541015625,3.15405011177063,-8.154000282287598,-3.0400500297546387
1773232837538189300,7.399189208984375,3.5269501209259033,-8.26200008392334,-2.5660500526428223
1773232837548099000,7.40909912109375,3.6610500812530518,-8.314949989318848,-2.2729501724243164
1773232837558009000,7.419009033203125,3.6040501594543457,-8.473050117492676,-2.257050037384033
1773232837567918800,7.4289189453125,3.589050054550171,-8.644950866699219,-1.8019500970840454
1773232837577828900,7.438828857421875,3.324000120162964,-8.521050453186035,-1.609950065612793
1773232837587738600,7.448738525390625,2.8159501552581787,-8.059050559997559,-1.4070000648498535
1773232837597648600,7.458648681640625,2.5099501609802246,-7.309050559997559,-1.0999500751495361
1773232837607558700,7.46855859375,2.701050043106079,-6.571950435638428,-0.8989500403404236
1773232837617468400,7.478468505859375,2.3680500984191895,-5.692950248718262,-0.7339500188827515
1773232837627378400,7.48837841796875,1.8679500818252563,-4.993950366973877,-1.828050136566162
1773232837637288200,7.4982880859375,2.146050214767456,-4.7310004234313965,-2.6010000705718994
1773232837647198200,7.5081982421875,2.413950204849243,-4.585050106048584,-3.043950080871582
1773232837657108000,7.51810791015625,2.545950174331665,-4.479000091552734,-3.0300002098083496
1773232837667018000,7.52801806640625,2.6509501934051514,-4.35705041885376,-3.3199501037597656
1773232837676927700,7.537927734375,2.296950101852417,-4.209000110626221,-4.107000350952148
1773232837686837800,7.547837646484375,2.2099502086639404,-3.9090001583099365,-4.639050006866455
1773232837696747500,7.55774755859375,2.584050178527832,-3.495000123977661,-4.7989501953125
1773232837706657500,7.567657470703125,2.6989500522613525,-2.9569501876831055,-4.9170002937316895
1773232837716567600,7.577567626953125,2.7180001735687256,-2.3239500522613525,-4.933050155639648
1773232837726477300,7.587477294921875,2.7990000247955322,-1.7830500602722168,-4.858950138092041
1773232837736387000,7.597386962890625,3.2160000801086426,-1.4029500484466553,-4.73205041885376
1773232837746297000,7.607297119140625,3.3760502338409424,-1.1490000486373901,-5.0560503005981445
1773232837756206800,7.617206787109375,3.433950185775757,-1.0870500802993774,-5.269050121307373
1773232837766116900,7.627116943359375,3.3600001335144043,-1.2709500789642334,-6.007950305938721
1773232837776027000,7.63702685546875,3.340050220489502,-1.5370501279830933,-6.300000190734863
1773232837785936600,7.6469365234375,3.7380001544952393,-1.9200000762939453,-6.12600040435791
1773232837795846400,7.656846435546875,4.078050136566162,-2.434950113296509,-5.893050193786621
1773232837805756400,7.66675634765625,4.2430500984191895,-2.9040000438690186,-5.716050148010254
1773232837815666200,7.676666259765625,4.3120503425598145,-3.3640501499176025,-5.575050354003906
1773232837825576200,7.686576171875,4.281000137329102,-3.736950159072876,-5.64900016784668
1773232837835486000,7.69648583984375,4.216950416564941,-4.0219502449035645,-5.734950065612793
1773232837845395700,7.706395751953125,4.2210001945495605,-4.1579999923706055,-5.749950408935547
1773232837855305700,7.7163056640625,4.267050266265869,-4.105950355529785,-5.791050434112549
1773232837865215700,7.7262158203125,4.32705020904541,-3.933000087738037,-5.850000381469727
1773232837875125500,7.73612548828125,4.114050388336182,-3.7950000762939453,-5.901000499725342
1773232837885035500,7.746035400390625,3.76200008392334,-3.6820502281188965,-5.842950344085693
1773232837894945300,7.7559453125,3.5080502033233643,-3.616950273513794,-5.809950351715088
1773232837904855300,7.765855224609375,3.38100004196167,-3.6289501190185547,-5.64900016784668
1773232837914765000,7.77576513671875,3.6640501022338867,-3.81600022315979,-4.930950164794922
1773232837924674800,7.7856748046875,4.5520501136779785,-4.206000328063965,-3.8560502529144287
1773232837934584800,7.795584716796875,8.341950416564941,-5.229000091552734,-3.4009501934051514
1773232837944494800,7.805494873046875,12.855000495910645,-7.494000434875488,-5.206050395965576
1773232837954404600,7.815404541015625,9.988950729370117,-10.719000816345215,-11.308950424194336
1773232837964314600,7.825314697265625,5.2699503898620605,-14.752950668334961,-15.894001007080078
1773232837974224400,7.835224365234375,4.468050003051758,-18.424951553344727,-18.10395050048828
1773232837984134100,7.845134033203125,5.593050479888916,-19.342050552368164,-19.165050506591797
1773232837994044200,7.855044189453125,7.999950408935547,-17.145000457763672,-15.271950721740723
1773232838003954200,7.8649541015625,6.237000465393066,-12.760951042175293,-10.159950256347656
1773232838013864000,7.874864013671875,-0.8100000619888306,-8.985000610351562,-6.459000110626221
1773232838023774000,7.88477392578125,-2.164950132369995,-6.3160505294799805,-2.4600000381469727
1773232838033683700,7.89468359375,-0.8890500664710999,-4.750050067901611,0.7570500373840332
1773232838043593500,7.904593505859375,-1.3200000524520874,-4.017000198364258,1.4050500392913818
1773232838053503500,7.91450341796875,-0.6709500551223755,-3.7129502296447754,0.9460500478744507
1773232838063413200,7.924413330078125,-0.0010500000789761543,-4.501049995422363,-0.7890000343322754
1773232838073323300,7.9343232421875,0.43905001878738403,-6.88800048828125,-2.0839500427246094
1773232838083233000,7.94423291015625,0.33105000853538513,-10.741950035095215,-3.973050117492676
1773232838093143000,7.95414306640625,1.377000093460083,-14.575950622558594,-5.845950126647949
1773232838103052800,7.964052734375,2.8780500888824463,-16.915050506591797,-7.074000358581543
1773232838112962600,7.973962646484375,3.184950113296509,-17.851051330566406,-6.754950523376465
1773232838122872600,7.98387255859375,2.4780001640319824,-16.61505126953125,-5.557950496673584
1773232838132782300,7.9937822265625,1.4850000143051147,-13.213050842285156,-4.11899995803833
1773232838142692400,8.0036923828125,0.5800500512123108,-10.153950691223145,-2.9629502296447754
1773232838152602000,8.01360205078125,0.21105000376701355,-8.329050064086914,-2.580000162124634
1773232838162512400,8.023512451171875,0.20205001533031464,-7.300050258636475,-2.806950092315674
1773232838172422100,8.033422119140624,-0.019950000569224358,-7.036050319671631,-3.1780500411987305
1773232838182332000,8.043331787109375,-0.4249500334262848,-7.450050354003906,-3.514050245285034
1773232838192242000,8.053241943359374,-0.9919500350952148,-8.166000366210938,-3.6910502910614014
1773232838202151700,8.063151611328125,-1.5690001249313354,-8.794050216674805,-3.850950241088867
1773232838212061700,8.073061767578125,-1.8780001401901245,-9.201000213623047,-3.957000255584717
1773232838221971500,8.082971435546876,-1.9639500379562378,-9.478050231933594,-4.03095006942749
1773232838231881200,8.092881103515625,-1.8060001134872437,-9.660000801086426,-4.14300012588501
1773232838241791200,8.102791259765626,-1.6150500774383545,-9.796950340270996,-4.399050235748291
1773232838251701000,8.112700927734375,-1.662000060081482,-9.769950866699219,-4.921050071716309
1773232838261611000,8.122611083984374,-1.5949500799179077,-9.463950157165527,-5.307000160217285
1773232838271521000,8.13252099609375,-1.702950119972229,-8.880000114440918,-5.5320000648498535
1773232838281430800,8.1424306640625,-1.9639500379562378,-8.047050476074219,-5.48205041885376
1773232838291340800,8.1523408203125,-2.0220000743865967,-7.206000328063965,-5.404950141906738
1773232838301250600,8.16225048828125,-1.7149500846862793,-6.555000305175781,-5.56095027923584
1773232838311160300,8.172160400390625,-1.1430000066757202,-6.2440505027771,-5.683050155639648
1773232838321070300,8.1820703125,-0.8890500664710999,-6.225000381469727,-5.809950351715088
1773232838330980400,8.19198046875,-0.8959500193595886,-6.304050445556641,-5.632950305938721
1773232838340890000,8.20189013671875,-0.4849500358104706,-6.687000274658203,-5.224950313568115
1773232838350800000,8.2117998046875,0.13695000112056732,-7.030950546264648,-4.768050193786621
1773232838360710000,8.2217099609375,0.48405003547668457,-7.1419501304626465,-4.368000030517578
1773232838370619600,8.23161962890625,0.6589500308036804,-7.246950149536133,-4.0980000495910645
1773232838380529400,8.241529296875,0.520050048828125,-7.213050365447998,-3.865950107574463
1773232838390439400,8.251439453125,0.2760000228881836,-7.1700005531311035,-3.7789502143859863
1773232838400349200,8.26134912109375,0.7519500255584717,-7.482000350952148,-3.6499502658843994
1773232838410259200,8.27125927734375,0.6010500192642212,-7.744950294494629,-4.1509504318237305
1773232838420169200,8.281169189453125,0.2569500207901001,-8.202000617980957,-4.258049964904785
1773232838430079000,8.291078857421875,0.04800000041723251,-8.242950439453125,-4.471050262451172
1773232838439989000,8.300989013671876,-0.13500000536441803,-8.080050468444824,-4.845000267028809
1773232838449898800,8.310898681640625,-0.2550000250339508,-7.8259501457214355,-5.214000225067139
1773232838459808800,8.320808837890626,-0.1279500126838684,-7.528950214385986,-5.539050102233887
1773232838469718500,8.330718505859375,-0.015000000596046448,-7.3690505027771,-5.623050212860107
1773232838479628500,8.340628662109374,0.2569500207901001,-7.570050239562988,-5.485950469970703
1773232838489538300,8.350538330078125,0.7519500255584717,-8.185050010681152,-5.518050193786621
1773232838499448000,8.360447998046874,1.0420500040054321,-9.009000778198242,-5.953050136566162
1773232838509358000,8.370358154296875,0.9390000700950623,-9.736950874328613,-6.6499505043029785
1773232838519267800,8.380267822265624,0.40800002217292786,-10.17495059967041,-7.311000347137451
1773232838529177600,8.390177490234375,-0.4249500334262848,-10.324050903320312,-7.624050140380859
1773232838539087600,8.400087646484375,-1.0900501012802124,-10.359000205993652,-7.6080002784729
1773232838548997600,8.40999755859375,-1.1260499954223633,-10.656000137329102,-7.656000137329102
1773232838558907400,8.419907470703125,-0.4440000355243683,-11.326950073242188,-7.593000411987305
1773232838568817200,8.429817138671876,0.47700002789497375,-12.10995101928711,-7.3660502433776855
1773232838578727200,8.43972705078125,1.1470500230789185,-12.85200023651123,-6.994950294494629
1773232838588637000,8.449636962890626,1.549950122833252,-13.582050323486328,-6.669000148773193
1773232838598547000,8.459546875,2.044950008392334,-14.319000244140625,-5.934000492095947
1773232838608456700,8.469456787109374,2.5069501399993896,-15.031050682067871,-5.115000247955322
1773232838618366500,8.479366455078125,2.803950071334839,-15.67905044555664,-4.006950378417969
1773232838628276200,8.489276123046874,3.1870501041412354,-16.00695037841797,-2.797950029373169
1773232838638186200,8.499186279296875,3.811950206756592,-16.213050842285156,-1.8570001125335693
1773232838648096000,8.509095947265624,5.0119500160217285,-16.37594985961914,-1.1389501094818115
1773232838658006000,8.519006103515625,6.592050075531006,-16.366050720214844,-0.6529500484466553
1773232838667916000,8.528916015625,7.873050212860107,-15.982951164245605,-0.41100001335144043
1773232838677825800,8.53882568359375,8.158050537109375,-15.66300106048584,-0.46800002455711365
1773232838687735600,8.548735595703125,6.987000465393066,-15.181050300598145,-1.2460500001907349
1773232838697645600,8.5586455078125,5.265000343322754,-14.34795093536377,-2.3209500312805176
1773232838707555300,8.568555419921875,3.4770002365112305,-13.14900016784668,-3.8299500942230225
1773232838717465000,8.578465087890624,1.7119500637054443,-11.524950981140137,-5.023950099945068
1773232838727375000,8.588375,0.23805001378059387,-10.233000755310059,-6.070950508117676
1773232838737284900,8.598284912109374,-0.5680500268936157,-9.541050910949707,-6.549000263214111
1773232838747195000,8.60819482421875,-1.4899500608444214,-9.289050102233887,-6.628950119018555
1773232838757104600,8.618104736328124,-3.6949501037597656,-6.9720001220703125,-4.77495002746582
1773232838767014400,8.628014404296875,-2.6580002307891846,-8.30505084991455,-5.593950271606445
1773232838776924700,8.637924560546875,-3.1470000743865967,-10.13700008392334,-6.504000186920166
1773232838786834200,8.647834228515626,-3.2430002689361572,-11.082000732421875,-5.836050510406494
1773232838796744200,8.657744140625,-1.4110500812530518,-10.915050506591797,-4.609950065612793
1773232838806654200,8.667654296875,2.49495005607605,-10.105950355529785,-4.359000205993652
1773232838816564000,8.67756396484375,6.457950115203857,-9.214950561523438,-5.296950340270996
1773232838826473700,8.6874736328125,8.670000076293945,-8.983050346374512,-5.833950042724609
1773232838836383700,8.6973837890625,7.537050247192383,-8.87700080871582,-5.7430500984191895
1773232838846293500,8.70729345703125,3.9100501537323,-8.437050819396973,-4.6650004386901855
1773232838856203500,8.71720361328125,0.7669500112533569,-8.23799991607666,-3.38700008392334
1773232838866113300,8.72711328125,0.6370500326156616,-8.503950119018555,-2.1130499839782715
1773232838876023000,8.73702294921875,2.0380501747131348,-9.12405014038086,-1.3180500268936157
1773232838885933000,8.74693310546875,2.3490002155303955,-9.747000694274902,-0.3820500075817108
1773232838895842800,8.7568427734375,0.8220000267028809,-10.555950164794922,1.141950011253357
1773232838905752600,8.766752685546875,0.06300000101327896,-9.885000228881836,1.0800000429153442
1773232838915662600,8.77666259765625,1.2360000610351562,-8.116050720214844,-0.1879500150680542
1773232838925572400,8.786572265625,3.199050188064575,-5.868000507354736,-1.4689500331878662
1773232838935482000,8.796482177734376,3.7950000762939453,-4.146000385284424,-1.858950138092041
1773232838945392400,8.806392333984375,3.181950092315674,-3.28695011138916,-1.9099501371383667
1773232838955302100,8.81630224609375,2.2270500659942627,-3.9810001850128174,-2.3550000190734863
1773232838965212000,8.8262119140625,0.7260000109672546,-4.98900032043457,-2.8980002403259277
1773232838975122000,8.836121826171874,0.364050030708313,-5.3580002784729,-2.6680500507354736
1773232838985031700,8.84603173828125,0.30705001950263977,-5.0560503005981445,-2.1610500812530518
1773232838994941400,8.85594140625,-0.037050001323223114,-4.575000286102295,-1.8229501247406006
1773232839004851500,8.8658515625,-0.0990000069141388,-4.060050010681152,-1.4310001134872437
1773232839014761200,8.87576123046875,-0.08895000070333481,-3.8419501781463623,-1.5100500583648682
1773232839024671000,8.8856708984375,0.31200000643730164,-3.4260001182556152,-1.3180500268936157
1773232839034581000,8.8955810546875,1.420050024986267,-3.019050121307373,-1.171950101852417
1773232839044490800,8.90549072265625,1.6980000734329224,-2.290950059890747,-1.1359500885009766
1773232839054400800,8.91540087890625,1.0080000162124634,-1.2229501008987427,-0.9259500503540039
1773232839064310500,8.925310546875,0.6160500049591064,-0.3660000264644623,-1.194000005722046
1773232839074220300,8.93522021484375,0.8479500412940979,0.33705002069473267,-1.2250500917434692
1773232839084130300,8.94513037109375,1.0900501012802124,0.7579500079154968,-1.7680500745773315
1773232839094040000,8.9550400390625,1.3440001010894775,0.18405000865459442,-5.293050289154053
1773232839103950000,8.9649501953125,1.321950078010559,-1.6350001096725464,-8.632050514221191
1773232839113859800,8.97485986328125,-0.09405000507831573,-3.2220001220703125,-8.212950706481934
1773232839123769600,8.98476953125,-1.1089500188827515,-4.338000297546387,-7.534050464630127
1773232839133679600,8.9946796875,-0.31005001068115234,-4.98900032043457,-7.014000415802002
1773232839143589600,9.004589599609375,0.38805001974105835,-5.5849504470825195,-6.142050266265869
1773232839153499400,9.01449951171875,1.6380001306533813,-5.920950412750244,-4.336950302124023
1773232839163409200,9.0244091796875,4.690950393676758,-6.057000160217285,-2.364000082015991
1773232839173319200,9.034319091796876,8.827950477600098,-6.591000080108643,-1.9260001182556152
1773232839183229000,9.04422900390625,8.657999992370605,-8.51294994354248,-4.609950065612793
1773232839193138700,9.054138671875,-0.3240000009536743,-11.650050163269043,-10.665000915527344
1773232839203048700,9.064048583984375,-2.9239501953125,-15.72705078125,-13.593000411987305
1773232839212958500,9.07395849609375,7.473000526428223,-20.025001525878906,-15.621000289916992
1773232839222868500,9.083868408203125,11.71500015258789,-23.542051315307617,-18.60405158996582
1773232839232778200,9.0937783203125,5.296050071716309,-22.777950286865234,-16.92405128479004
1773232839242688000,9.10368798828125,4.605000019073486,-15.91200065612793,-12.72900104522705
1773232839252597800,9.11359765625,4.663950443267822,-9.385050773620605,-8.439000129699707
1773232839262507800,9.1235078125,2.245950222015381,-5.302950382232666,-4.273050308227539
1773232839272417500,9.13341748046875,1.2450000047683716,-3.1050002574920654,-1.171950101852417
1773232839282327600,9.14332763671875,1.3270500898361206,-2.5540502071380615,0.4140000343322754
1773232839292237300,9.1532373046875,1.5400500297546387,-3.637050151824951,0.20400001108646393
1773232839302147000,9.16314697265625,1.9609501361846924,-5.605050086975098,-0.8940000534057617
1773232839312057000,9.17305712890625,2.236950159072876,-8.332050323486328,-1.828050136566162
1773232839321966800,9.182966796875,2.136000156402588,-11.226000785827637,-1.7400001287460327
1773232839331876600,9.192876708984375,1.7170500755310059,-14.164051055908203,-1.7080501317977905
1773232839341786600,9.20278662109375,1.8870000839233398,-15.865950584411621,-2.7400500774383545
1773232839351696400,9.2126962890625,1.9489500522613525,-15.526050567626953,-3.9780001640319824
1773232839361606400,9.2226064453125,1.308000087738037,-12.979050636291504,-4.510050296783447
1773232839371516400,9.232516357421876,0.18495000898838043,-9.972000122070312,-4.513950347900391
1773232839381426200,9.24242626953125,-0.034050002694129944,-8.212050437927246,-4.3279500007629395
1773232839391336000,9.2523359375,-0.1879500150680542,-8.1739501953125,-4.332000255584717
1773232839401246000,9.262245849609375,-0.5370000004768372,-8.820000648498535,-4.605000019073486
1773232839411155700,9.27215576171875,-0.931950032711029,-9.544950485229492,-4.335000038146973
1773232839421065500,9.2820654296875,-0.987000048160553,-10.534050941467285,-3.775050163269043
1773232839430975500,9.2919755859375,-1.5480000972747803,-8.944050788879395,-4.06695032119751
1773232839440885200,9.30188525390625,-0.7099500298500061,-7.048050403594971,-4.455000400543213
1773232839450795000,9.311794921875,0.48705002665519714,-5.980050086975098,-4.546050071716309
1773232839460705000,9.321705078125,0.5580000281333923,-5.676000118255615,-4.852050304412842
1773232839470614800,9.33161474609375,-0.04200000315904617,-6.0259504318237305,-5.143950462341309
1773232839480524500,9.341524658203125,-0.5230500102043152,-6.6820502281188965,-5.158050060272217
1773232839490434600,9.3514345703125,-0.3460500240325928,-7.173000335693359,-4.725000381469727
1773232839500344300,9.36134423828125,-0.037050001323223114,-7.458000183105469,-3.9760501384735107
1773232839510254000,9.371254150390625,0.019950000569224358,-7.585050582885742,-3.1330502033233643
1773232839520164000,9.3811640625,0.22605000436306,-7.411950588226318,-2.3430001735687256
1773232839530073900,9.391073974609375,0.609000027179718,-7.087050437927246,-1.8379501104354858
1773232839539983600,9.400983642578124,0.673050045967102,-7.0410003662109375,-1.7440500259399414
1773232839549893600,9.4108935546875,0.4240500330924988,-7.017000198364258,-1.9170000553131104
1773232839559803400,9.420803466796874,0.2639999985694885,-6.799050331115723,-2.530050039291382
1773232839569713200,9.430713134765625,0.22095000743865967,-5.808000087738037,-3.541950225830078
1773232839579623000,9.440622802734374,-1.1569499969482422,-5.217000484466553,-4.5360002517700195
1773232839589533000,9.450532958984375,-1.9690500497817993,-5.911050319671631,-5.002950191497803
1773232839599442700,9.460442626953125,-1.828050136566162,-6.967050552368164,-5.484000205993652
1773232839609352700,9.470352783203126,-1.1809500455856323,-8.391000747680664,-5.427000045776367
1773232839619262500,9.480262451171875,-0.283050000667572,-9.567000389099121,-4.984050273895264
1773232839629172500,9.49017236328125,-0.15195000171661377,-10.290000915527344,-4.519050121307373
1773232839639082200,9.500082275390625,-0.2689500153064728,-10.843050956726074,-3.4800002574920654
1773232839648992000,9.509991943359376,-0.36195001006126404,-10.576950073242188,-1.8780001401901245
1773232839658901800,9.51990185546875,-0.9780000448226929,-9.234000205993652,-1.102950096130371
1773232839668811800,9.529811767578124,-1.8880500793457031,-7.744950294494629,-1.9210500717163086
1773232839678721500,9.539721435546875,-1.5019500255584717,-7.957950592041016,-3.553950071334839
1773232839688631300,9.54963134765625,-1.0350000858306885,-9.373050689697266,-4.303950309753418
1773232839698541300,9.559541259765625,-0.010050000622868538,-10.405050277709961,-5.020050048828125
1773232839708451000,9.569451171875,1.2529500722885132,-11.098950386047363,-6.259950160980225
1773232839718360800,9.57936083984375,1.2499500513076782,-11.118000984191895,-6.435000419616699
1773232839728270800,9.589270751953125,0.6660000085830688,-11.080050468444824,-6.376950263977051
1773232839738180600,9.5991806640625,0.2880000174045563,-11.110950469970703,-6.166050434112549
1773232839748090600,9.609090576171875,-0.15405000746250153,-11.209050178527832,-5.968050479888916
1773232839758000400,9.61900048828125,-0.6469500064849854,-11.473050117492676,-5.869950294494629
1773232839767910100,9.62891015625,-1.13100004196167,-11.84595012664795,-5.958000183105469
1773232839777820200,9.638820068359376,-1.477950096130371,-12.301050186157227,-6.094950199127197
1773232839787730000,9.64872998046875,-1.6579500436782837,-12.868950843811035,-6.708000183105469
1773232839797639700,9.6586396484375,-1.6030501127243042,-13.434000968933105,-7.138050556182861
1773232839807549700,9.6685498046875,-1.5120000839233398,-13.944000244140625,-7.2870001792907715
1773232839817459500,9.67845947265625,-1.3180500268936157,-14.233050346374512,-6.9210004806518555
1773232839827369500,9.688369384765625,-0.7050000429153442,-14.595000267028809,-6.289050102233887
1773232839837279200,9.698279296875,0.4459500312805176,-15.004050254821777,-5.326050281524658
1773232839847189000,9.70818896484375,1.360050082206726,-15.34695053100586,-3.961050271987915
1773232839857098800,9.7180986328125,2.373000144958496,-15.526050567626953,-2.926950216293335
1773232839867008800,9.7280087890625,3.870000123977661,-15.229050636291504,-2.098950147628784
1773232839876918500,9.73791845703125,6.1180500984191895,-14.464950561523438,-1.7440500259399414
1773232839886828300,9.747828369140626,6.454950332641602,-13.467000961303711,-2.3839499950408936
1773232839896738300,9.75773828125,4.387050151824951,-13.12695026397705,-3.1090500354766846
1773232839906648000,9.76764794921875,3.979950189590454,-13.077000617980957,-3.7099502086639404
1773232839916557800,9.777557861328125,4.537950038909912,-12.904050827026367,-4.420950412750244
1773232839926467800,9.7874677734375,5.509950160980225,-12.909000396728516,-4.330049991607666
1773232839936377600,9.797377685546875,6.70395040512085,-13.144050598144531,-4.081050395965576
1773232839946287400,9.807287353515624,3.010050058364868,-12.366000175476074,-3.7200002670288086
1773232839956197400,9.817197265625,-2.9029500484466553,-10.759050369262695,-2.9820001125335693
1773232839966107100,9.827107177734375,-8.613000869750977,-9.562050819396973,-2.7360000610351562
1773232839976017000,9.837016845703126,-11.869050979614258,-8.949000358581543,-2.4750001430511475
1773232839985927000,9.846927001953125,-11.256000518798828,-9.13800048828125,-2.6760001182556152
1773232839995836700,9.856836669921876,-7.411050319671631,-9.720000267028809,-3.742950201034546
1773232840005746400,9.866746337890625,-0.19500000774860382,-9.8899507522583,-6.0420002937316895
1773232840015656400,9.876656494140626,3.42900013923645,-9.588000297546387,-7.122000217437744
1773232840025566200,9.886566162109375,4.585050106048584,-9.145950317382812,-6.4270501136779785
1773232840035476000,9.89647607421875,5.689050197601318,-8.53695011138916,-3.624000072479248
1773232840045385700,9.9063857421875,5.316000461578369,-7.9200005531311035,-4.854000091552734
1773232840055295500,9.91629541015625,4.413000106811523,-7.834050178527832,-7.576950550079346
1773232840065205500,9.92620556640625,2.4430501461029053,-8.56605052947998,-8.676000595092773
1773232840075115500,9.936115478515624,0.6280500292778015,-8.956050872802734,-8.431050300598145
1773232840085025300,9.946025390625,0.1080000028014183,-8.86500072479248,-6.448950290679932
1773232840094935000,9.95593505859375,0.09600000083446503,-8.671950340270996,-3.2809500694274902
1773232840104844800,9.9658447265625,0.6370500326156616,-8.59005069732666,-1.5910500288009644
1773232840114754800,9.9757548828125,2.1529500484466553,-8.3100004196167,-0.9370500445365906
1773232840124664300,9.985664306640626,3.2730002403259277,-8.0149507522583,-0.6690000295639038
1773232840134574000,9.995573974609375,2.5189502239227295,-7.777950286865234,-0.6409500241279602
1773232840144484000,10.005484130859376,0.931950032711029,-7.198950290679932,-1.612950086593628
1773232840154393900,10.015393798828125,1.3699500560760498,-6.498000144958496,-3.2260501384735107
1773232840164303600,10.0253037109375,2.842050075531006,-6.055050373077393,-4.021049976348877
1773232840174213600,10.035213623046875,3.003000259399414,-6.12600040435791,-2.8429501056671143
1773232840184123400,10.045123291015624,1.924950122833252,-6.426000118255615,-1.2889500856399536
1773232840194033200,10.055033203125,0.9610500335693359,-5.9730000495910645,-1.2300000190734863
1773232840203943200,10.064943115234374,0.3720000088214874,-5.1739501953125,-1.5910500288009644
1773232840213853000,10.07485302734375,0.8790000677108765,-4.7470502853393555,-1.2820500135421753
1773232840223762700,10.0847626953125,1.1779500246047974,-4.53000020980835,-0.8989500403404236
1773232840233672700,10.094672607421876,0.6760500073432922,-4.138950347900391,-0.5520000457763672
1773232840243582500,10.10458251953125,0.4030500054359436,-3.5410501956939697,-0.3460500240325928
1773232840258447000,10.119447021484374,0.19905000925064087,-2.4750001430511475,-1.3519500494003296
1773232840268356900,10.12935693359375,0.12000000476837158,-2.0440499782562256,-1.990950107574463
1773232840278267000,10.139266845703125,0.1680000126361847,-1.7640000581741333,-2.2950000762939453
1773232840288176600,10.1491767578125,0.2970000207424164,-2.0680501461029053,-2.080049991607666
1773232840298086700,10.159086669921875,0.8740500211715698,-2.6959500312805176,-2.1229500770568848
1773232840307996400,10.168996337890626,1.237950086593628,-2.63100004196167,-3.82200026512146
1773232840317906200,10.17890625,1.3750500679016113,-2.1499500274658203,-6.243000507354736
1773232840327816200,10.188816162109376,1.2930001020431519,-1.968000054359436,-7.512000560760498
1773232840337726000,10.198725830078125,0.8580000400543213,-2.1949501037597656,-7.957050323486328
1773232840347635700,10.2086357421875,-0.06105000153183937,-2.8339500427246094,-7.573950290679932
1773232840357545700,10.218545654296875,-0.9709500670433044,-3.5500502586364746,-6.648000240325928
1773232840367455500,10.22845556640625,-1.456950068473816,-4.045950412750244,-5.824050426483154
1773232840377365200,10.238365234375,1.4710500240325928,-4.111050128936768,-4.085999965667725
1773232840387275000,10.24827490234375,9.0600004196167,-4.801950454711914,-2.095950126647949
1773232840397185000,10.25818505859375,12.2160005569458,-7.945950508117676,-3.106950044631958
1773232840407094800,10.2680947265625,4.486950397491455,-12.907051086425781,-8.416950225830078
1773232840417004500,10.278004638671876,-4.162050247192383,-16.801950454711914,-14.66295051574707
1773232840426914600,10.28791455078125,2.7799501419067383,-18.742050170898438,-17.922000885009766
1773232840436824300,10.29782421875,12.570000648498535,-17.12295150756836,-16.75605010986328
1773232840446734000,10.307734130859375,5.713050365447998,-12.270000457763672,-11.652000427246094
1773232840456644000,10.31764404296875,2.5099501609802246,-11.731050491333008,-4.948050022125244
1773232840466553900,10.327553955078125,3.2760002613067627,-12.105000495910645,-0.10200000554323196
1773232840476463400,10.33746337890625,2.2270500659942627,-10.45305061340332,0.7110000252723694
1773232840486373600,10.34737353515625,1.0780500173568726,-9.660000801086426,-0.24105000495910645
1773232840496283100,10.357283203125,1.987950086593628,-9.532950401306152,-2.0869500637054443
1773232840506193200,10.367193115234375,2.593050241470337,-9.022950172424316,-3.825000286102295
1773232840516103000,10.37710302734375,2.2770001888275146,-8.686050415039062,-5.20395040512085
1773232840526012700,10.3870126953125,1.8540000915527344,-9.040050506591797,-6.090000152587891
1773232840535922400,10.39692236328125,1.76295006275177,-9.141000747680664,-5.925000190734863
1773232840545832400,10.40683251953125,1.240950107574463,-8.959050178527832,-5.023950099945068
1773232840555742200,10.4167421875,0.6949500441551208,-8.83905029296875,-3.934950113296509
1773232840565652000,10.42665185546875,0.024000000208616257,-8.746050834655762,-2.9610002040863037
1773232840575561700,10.436561767578125,-0.4819500148296356,-9.028050422668457,-2.338050127029419
1773232840585471700,10.4464716796875,-0.7099500298500061,-9.2920503616333,-2.7550501823425293
1773232840595381500,10.456381591796875,-1.0399500131607056,-9.375,-3.1900501251220703
1773232840605291300,10.466291259765624,-1.1209501028060913,-9.234000205993652,-3.29295015335083
1773232840615201300,10.476201171875,-1.0330500602722168,-9.213000297546387,-3.700050115585327
1773232840625111000,10.486111083984374,-1.4710500240325928,-9.567000389099121,-3.9210002422332764
1773232840635020800,10.496020751953125,-1.7820000648498535,-10.13895034790039,-4.432950019836426
1773232840644930600,10.5059306640625,-1.537950038909912,-10.956000328063965,-5.488950252532959
1773232840654840300,10.51584033203125,-0.8479500412940979,-10.783050537109375,-6.466050148010254
1773232840664750300,10.525750244140625,-0.24000000953674316,-10.302000045776367,-7.324950218200684
1773232840674660000,10.53566015625,0.06495000422000885,-10.117950439453125,-7.738950252532959
1773232840684569900,10.54556982421875,0.11295000463724136,-9.696000099182129,-6.95205020904541
1773232840694480000,10.55547998046875,-0.1660500019788742,-9.351000785827637,-6.073050498962402
1773232840704389600,10.5653896484375,-0.7380000352859497,-9.354000091552734,-5.725950241088867
1773232840714299400,10.57529931640625,-0.9919500350952148,-9.270000457763672,-5.115000247955322
1773232840724209200,10.585209228515625,-0.9559500217437744,-8.7649507522583,-4.8349504470825195
1773232840734119200,10.595119140625,-1.0950000286102295,-8.377050399780273,-4.486050128936768
1773232840744029000,10.60502880859375,-1.384950041770935,-7.873950481414795,-3.7699501514434814
1773232840753938700,10.614938720703124,-1.64805006980896,-7.180050373077393,-3.2809500694274902
1773232840763848400,10.624848388671875,-1.3230000734329224,-6.897000312805176,-3.5779502391815186
1773232840773758500,10.634758544921874,-0.6760500073432922,-6.897000312805176,-4.507050037384033
1773232840783668000,10.64466796875,-0.31905001401901245,-6.426000118255615,-5.125050067901611
1773232840793578000,10.654577880859375,0.26100000739097595,-5.995050430297852,-5.079000473022461
1773232840803487700,10.66448779296875,0.7980000376701355,-5.944950103759766,-3.9900002479553223
1773232840813397500,10.6743974609375,0.5299500226974487,-6.1120500564575195,-3.4800002574920654
1773232840823307800,10.684307861328126,0.09105000644922256,-6.1620001792907715,-3.3390002250671387
1773232840833217300,10.69421728515625,-0.5179499983787537,-6.246000289916992,-3.265050172805786
1773232840843127000,10.704126953125,-1.054050087928772,-6.624000549316406,-3.0640501976013184
1773232840853036800,10.714036865234375,-1.6459500789642334,-6.949950218200684,-2.886000156402588
1773232840862946800,10.72394677734375,-1.4970000982284546,-7.306950569152832,-2.9250001907348633
1773232840872856600,10.733856689453125,-0.23100000619888306,-7.63200044631958,-2.7120001316070557
1773232840882766300,10.743766357421874,1.3920000791549683,-7.992000579833984,-1.918950080871582
1773232840892676400,10.75367626953125,1.9450501203536987,-8.365050315856934,-1.8190500736236572
1773232840902586000,10.763586181640624,1.2889500856399536,-8.925000190734863,-2.63700008392334
1773232840912495900,10.773495849609375,0.11505000293254852,-9.222000122070312,-3.52305006980896
1773232840922405600,10.783405517578124,-0.6739500164985657,-9.438000679016113,-4.240950107574463
1773232840932315400,10.7933154296875,-0.46800002455711365,-9.766050338745117,-4.689000129699707
1773232840942225700,10.8032255859375,0.4510500133037567,-10.65195083618164,-4.736999988555908
1773232840952135200,10.81313525390625,0.8359500169754028,-10.795050621032715,-6.243000507354736
1773232840962045000,10.823044921875,0.38805001974105835,-11.050950050354004,-7.258050441741943
1773232840971954700,10.83295458984375,-0.2689500153064728,-11.446050643920898,-7.513950347900391
1773232840981864700,10.84286474609375,-1.0740000009536743,-11.784000396728516,-7.147950172424316
1773232840991774500,10.8527744140625,-1.4590500593185425,-12.205050468444824,-6.490050315856934
1773232841001684200,10.862684326171875,-1.2630000114440918,-12.769950866699219,-5.995950222015381
1773232841011594200,10.87259423828125,-0.595050036907196,-13.450050354003906,-7.024050235748291
1773232841021503700,10.882503662109375,-0.04200000315904617,-13.905000686645508,-7.8349504470825195
1773232841031413800,10.892413818359374,0.20595000684261322,-14.080050468444824,-7.962000370025635
1773232841041323500,10.902323486328125,0.4120500087738037,-14.205000877380371,-7.91895055770874
1773232841051233300,10.9122333984375,0.05295000225305557,-14.170950889587402,-7.593000411987305
1773232841061143000,10.92214306640625,-0.24795001745224,-14.391000747680664,-6.822000503540039
1773232841071053000,10.932052978515625,-1.1380500793457031,-14.61600112915039,-5.838000297546387
1773232841080962800,10.941962890625,-2.086050033569336,-14.719050407409668,-5.970000267028809
1773232841090872600,10.95187255859375,-1.9069501161575317,-14.736001014709473,-6.243000507354736
1773232841100782300,10.9617822265625,-1.689000129699707,-13.929000854492188,-5.098950386047363
1773232841110692000,10.971692138671875,-2.07705020904541,-13.018950462341309,-4.816050052642822
1773232841120601900,10.981601806640626,-2.1630001068115234,-12.295950889587402,-5.424000263214111
1773232841130512000,10.991511962890625,-1.5739500522613525,-10.99905014038086,-6.652050495147705
1773232841140421600,11.001421630859374,8.943000793457031,-10.627950668334961,-5.3020501136779785
1773232841150331400,11.011331298828125,9.33495044708252,-10.431000709533691,-5.034000396728516
1773232841160241200,11.0212412109375,6.892950534820557,-11.628000259399414,-4.738950252532959
1773232841170151200,11.031151123046875,4.99500036239624,-12.95205020904541,-2.874000072479248
1773232841180061000,11.04106103515625,2.751000165939331,-12.90000057220459,-0.6649500131607056
1773232841189970700,11.050970703125,0.44805002212524414,-12.17400074005127,-0.47805002331733704
1773232841199880400,11.06088037109375,-0.6810000538825989,-11.628000259399414,-2.7360000610351562
1773232841209790200,11.070790283203126,-2.2009501457214355,-11.209050178527832,-4.930950164794922
1773232841219700000,11.080699951171875,-5.404950141906738,-10.71405029296875,-5.47005033493042
1773232841229610000,11.09060986328125,-7.942050457000732,-10.405050277709961,-4.2970499992370605
1773232841239519700,11.100519775390625,-7.8949503898620605,-9.877950668334961,-3.3360002040863037
1773232841249429500,11.110429443359376,-6.2310004234313965,-8.587950706481934,-2.994000196456909
1773232841259339500,11.120339599609375,-2.364000082015991,-8.059050559997559,-4.218000411987305
1773232841269249300,11.130249267578124,1.6210501194000244,-7.4410505294799805,-5.11305046081543
1773232841279159000,11.140158935546875,3.478950262069702,-7.048050403594971,-6.789000511169434
1773232841289068800,11.15006884765625,3.6730501651763916,-7.786050319671631,-7.378050327301025
1773232841298978600,11.159978515625,4.723950386047363,-7.348050117492676,-8.509950637817383
1773232841308888300,11.169888427734374,5.356050491333008,-6.178950309753418,-10.404000282287598
1773232841318798300,11.17979833984375,5.002050399780273,-6.02400016784668,-10.324950218200684
1773232841328708000,11.1897080078125,3.979950189590454,-6.868950366973877,-5.946000099182129
1773232841338617900,11.199617919921875,2.1790502071380615,-6.295950412750244,-0.34095001220703125
1773232841348527600,11.209527587890625,1.1809500455856323,-4.975050449371338,1.234950065612793
1773232841358437600,11.219437744140626,0.7549500465393066,-4.774050235748291,0.9240000247955322
1773232841368347400,11.229347412109375,0.6880500316619873,-5.016000270843506,-0.05595000088214874
1773232841378257200,11.239257080078126,1.2930001020431519,-4.615950107574463,-0.6450000405311584
1773232841388167000,11.2491669921875,1.9830000400543213,-3.9690001010894775,-2.137050151824951
1773232841398077000,11.259076904296874,2.1480000019073486,-3.9529502391815186,-3.1930501461029053
1773232841407986700,11.268986572265625,2.155050039291382,-4.434000015258789,-2.745000123977661
1773232841417896400,11.278896484375,2.3419501781463623,-6.763050556182861,-4.240950107574463
1773232841427806200,11.28880615234375,2.275050163269043,-9.439949989318848,-6.985050201416016
1773232841437716000,11.298716064453124,2.572050094604492,-10.732950210571289,-7.882950305938721
1773232841447626000,11.3086259765625,3.5970001220703125,-9.772950172424316,-6.118950366973877
1773232841457535500,11.318535400390624,2.7270002365112305,-5.0560503005981445,-3.43500018119812
1773232841467445200,11.3284453125,0.2850000262260437,-2.7840001583099365,-0.583050012588501
1773232841477355300,11.338355224609375,-0.42900002002716064,-2.221950054168701,0.7900500297546387
1773232841487265000,11.34826513671875,0.0580500029027462,-2.180999994277954,1.225950002670288
1773232841497174800,11.3581748046875,-0.1969500035047531,-2.952000141143799,-0.7750500440597534
1773232841507084500,11.36808447265625,0.7090500593185425,-4.249050140380859,-2.095950126647949
1773232841516994600,11.37799462890625,1.8900001049041748,-4.50600004196167,-2.746950149536133
1773232841526904300,11.387904296875,2.4090001583099365,-4.546050071716309,-3.7200002670288086
1773232841536814000,11.39781396484375,2.6800501346588135,-4.663950443267822,-4.4670000076293945
1773232841546723800,11.407723876953124,3.0270001888275146,-5.419950485229492,-4.9930500984191895
1773232841556633600,11.417633544921875,3.312000274658203,-6.19605016708374,-5.977050304412842
1773232841566543600,11.427543701171874,3.891000270843506,-6.969000339508057,-8.055000305175781
1773232841576453400,11.437453369140625,4.165950298309326,-8.414999961853027,-9.324000358581543
1773232841586363100,11.447363037109374,4.35105037689209,-9.547950744628906,-9.681000709533691
1773232841596273000,11.45727294921875,4.216950416564941,-10.134000778198242,-11.011950492858887
1773232841606182700,11.4671826171875,4.447050094604492,-10.810050964355469,-10.383000373840332
1773232841616092400,11.477092529296876,4.116000175476074,-11.443950653076172,-9.571050643920898
1773232841626002200,11.487002197265625,3.5029501914978027,-13.144050598144531,-6.957000255584717
1773232841635912200,11.496912109375,4.198050022125244,-11.952000617980957,-6.504000186920166
1773232841645822000,11.506822021484375,8.392050743103027,-13.209000587463379,-5.920050144195557
1773232841655731700,11.516731689453126,10.08495044708252,-12.784950256347656,-5.485950469970703
1773232841665641500,11.526641357421875,4.747950077056885,-13.7160005569458,-5.977050304412842
1773232841675551500,11.536551513671874,3.180000066757202,-14.194951057434082,-5.970000267028809
1773232841685461000,11.5464609375,3.7450501918792725,-13.927050590515137,-7.990950584411621
1773232841695371000,11.55637109375,5.605050086975098,-15.121050834655762,-5.761950492858887
1773232841705280800,11.56628076171875,6.77400016784668,-13.345050811767578,-3.541950225830078
1773232841715190500,11.5761904296875,6.702000141143799,-13.369050979614258,-4.777950286865234
1773232841725100500,11.5861005859375,8.622000694274902,-13.446001052856445,-4.095000267028809
1773232841735010300,11.59601025390625,8.260050773620605,-12.145051002502441,-4.617000102996826
1773232841744920000,11.605920166015625,5.257950305938721,-10.956000328063965,-4.858950138092041
1773232841754829800,11.615829833984375,6.910050392150879,-9.694050788879395,-0.10005000233650208
1773232841764739800,11.62573974609375,9.865050315856934,-8.491950035095215,-2.436000108718872
1773232841774649300,11.6356494140625,11.931000709533691,-7.089000225067139,-4.88100004196167
1773232841784559000,11.64555908203125,14.560050964355469,-5.5489501953125,-6.322050094604492
1773232841794469000,11.65546923828125,16.249950408935547,-3.928950071334839,-8.27595043182373
1773232841804379000,11.66537890625,15.727951049804688,-2.230950117111206,-9.796050071716309
1773232841814288600,11.67528857421875,15.490950584411621,-0.45000001788139343,-9.784050941467285
1773232841824198400,11.685198486328124,15.958050727844238,1.2990000247955322,-9.21405029296875
1773232841834108200,11.695108154296875,16.588050842285156,2.9820001125335693,-8.809950828552246
1773232841844018000,11.705017822265624,17.083051681518555,3.5380501747131348,-9.490050315856934
1773232841853927700,11.714927734375,16.96095085144043,3.3889501094818115,-11.539050102233887
1773232841863837400,11.72483740234375,15.100950241088867,3.5209500789642334,-15.26400089263916
1773232841873747500,11.73474755859375,12.76395034790039,3.81600022315979,-19.86600112915039
1773232841883657000,11.744656982421875,11.574000358581543,3.5710501670837402,-24.37200164794922
1773232841893567000,11.75456689453125,10.858050346374512,3.078000068664551,-28.437002182006836
1773232841903476700,11.764476806640625,10.156950950622559,2.700000047683716,-30.400951385498047
1773232841913386500,11.774386474609376,9.757050514221191,1.8480000495910645,-29.41695213317871
1773232841923296300,11.784296142578125,9.58905029296875,0.7459500432014465,-26.220001220703125
1773232841933206300,11.794206298828126,9.34695053100586,-0.20595000684261322,-21.814950942993164
1773232841943116000,11.804115966796875,8.979000091552734,-1.3570500612258911,-18.091951370239258
1773232841953025800,11.81402587890625,8.002050399780273,-3.2410502433776855,-15.837000846862793
1773232841962935600,11.823935546875,6.184950351715088,-5.6449503898620605,-15.015000343322754
1773232841972845300,11.83384521484375,3.5530502796173096,-6.790050506591797,-15.070050239562988
1773232841982755000,11.843755126953125,1.3170000314712524,-8.06100082397461,-14.878951072692871
1773232841992665000,11.8536650390625,-0.11595000326633453,-9.349050521850586,-13.8589506149292
1773232842002574800,11.863574951171875,-0.8100000619888306,-9.849000930786133,-12.205050468444824
1773232842012484400,11.873484375,-1.3540500402450562,-9.586050033569336,-10.483050346374512
1773232842022394400,11.883394287109375,-1.284000039100647,-9.672000885009766,-8.497950553894043
1773232842032304000,11.89330419921875,-0.7500000596046448,-9.447000503540039,-6.360000133514404
1773232842042214000,11.9032138671875,0.2850000262260437,-9.403950691223145,-4.6459503173828125
1773232842052123600,11.91312353515625,1.2340500354766846,-9.208050727844238,-3.0679502487182617
1773232842062033700,11.92303369140625,1.7940000295639038,-8.740950584411621,-2.3140501976013184
1773232842071943200,11.932943115234375,1.7940000295639038,-9.337050437927246,-3.4729502201080322
1773232842081853200,11.942853271484376,2.1670501232147217,-10.498050689697266,-5.613000392913818
1773232842091763000,11.952762939453125,2.8399500846862793,-9.607950210571289,-4.897050380706787
1773232842106627600,11.967627685546875,2.6770501136779785,-8.973000526428223,-2.533950090408325
1773232842126447000,11.987447021484375,2.5980000495910645,-7.144050121307373,1.4029500484466553
1773232842136356900,11.99735693359375,1.8370500802993774,-5.4150004386901855,1.852950096130371
1773232842146267000,12.007266845703125,2.035950183868408,-4.114950180053711,1.7449500560760498
1773232842156176400,12.01717626953125,2.995950222015381,-3.8140501976013184,1.6300500631332397
1773232842166086100,12.027086181640625,3.9679501056671143,-3.8230502605438232,1.7260501384735107
1773232842175996000,12.036995849609376,4.78695011138916,-3.6030001640319824,2.449050188064575
1773232842185906000,12.046906005859375,5.389950275421143,-3.1030502319335938,2.539950132369995
1773232842195815700,12.056815673828124,6.850050449371338,-2.748000144958496,1.3650000095367432
1773232842205725200,12.06672509765625,10.10205078125,-2.5350000858306885,-1.2390000820159912
1773232842215635200,12.07663525390625,9.112950325012207,-1.9609501361846924,0.534000039100647
1773232842225545000,12.086544921875,8.74905014038086,-1.1059499979019165,2.6770501136779785
1773232842235454700,12.096454833984374,10.666950225830078,-0.5239500403404236,2.6170501708984375
1773232842245364500,12.106364501953125,13.05405044555664,0.5760000348091125,0.675000011920929
1773232842255274500,12.1162744140625,13.05405044555664,0.39900001883506775,-0.7050000429153442
1773232842265184000,12.12618408203125,9.05505084991455,-0.013950000517070293,-3.9469501972198486
1773232842275094000,12.136093994140625,7.618950366973877,0.559950053691864,-3.334050178527832
1773232842285003800,12.146003662109376,9.096000671386719,1.078950047492981,-1.2340500354766846
1773232842294913500,12.15591357421875,10.743000984191895,1.7179501056671143,-0.29100000858306885
1773232842304823300,12.1658232421875,10.37700080871582,2.1850500106811523,0.06705000251531601
1773232842314733300,12.1757333984375,9.283050537109375,2.009999990463257,-0.909000039100647
1773232842324643000,12.18564306640625,8.679000854492188,1.951050043106079,-2.1319501399993896
1773232842334552800,12.195552734375,8.839950561523438,2.3310000896453857,-1.88100004196167
1773232842344462600,12.205462646484374,9.196950912475586,2.9419500827789307,-1.1980500221252441
1773232842354372400,12.215372314453125,9.016950607299805,3.267000198364258,-1.5000001192092896
1773232842364282000,12.2252822265625,8.51205062866211,3.2220001220703125,-1.8570001125335693
1773232842374191900,12.23519189453125,8.101950645446777,3.166950225830078,-1.1599500179290771
1773232842384101600,12.2451015625,8.004000663757324,3.436950206756592,-1.3230000734329224
1773232842394011400,12.255011474609375,7.9110002517700195,3.3820502758026123,-0.44700002670288086
1773232842403921200,12.264921142578125,8.44005012512207,2.868000030517578,-0.05595000088214874
1773232842413831200,12.2748310546875,9.04800033569336,3.5620501041412354,-0.30300000309944153
1773232842423741000,12.284740966796875,9.582000732421875,3.765000104904175,-0.8149500489234924
1773232842433650700,12.294650634765626,9.826050758361816,3.4710001945495605,-1.6009501218795776
1773232842443560400,12.304560546875,10.117950439453125,3.4420502185821533,-1.957050085067749
1773232842453470200,12.31447021484375,10.092000007629395,3.5020501613616943,-1.8499500751495361
1773232842463380000,12.3243798828125,9.259050369262695,3.6289501190185547,-1.1509500741958618
1773232842473289700,12.334289794921874,8.304000854492188,3.646050214767456,-1.2630000114440918
1773232842483199500,12.344199462890625,7.000950336456299,3.4039502143859863,-1.5220500230789185
1773232842493109200,12.354109130859374,6.127050399780273,3.44700026512146,-2.038950204849243
1773232842503019000,12.36401904296875,6.148950099945068,3.5520002841949463,-1.555050015449524
1773232842512929000,12.373928955078124,6.826050281524658,3.3889501094818115,-1.1359500885009766
1773232842522838500,12.383838623046875,7.672050476074219,3.4639501571655273,-1.864050030708313
1773232842532748300,12.393748291015624,8.311050415039062,3.1879501342773438,-2.3620500564575195
1773232842542658300,12.403658203125,9.442950248718262,3.5500502586364746,-3.325050115585327
1773232842552568000,12.413568115234375,10.813050270080566,3.3390002250671387,-2.884050130844116
1773232842562477800,12.423477783203126,11.421000480651855,2.9659502506256104,-1.9890000820159912
1773232842572387600,12.4333876953125,11.884950637817383,2.659050226211548,-1.9290001392364502
1773232842582297300,12.44329736328125,11.560050964355469,2.616000175476074,-2.496000051498413
1773232842592207000,12.45320703125,10.426950454711914,2.7499501705169678,-2.2039501667022705
1773232842602116900,12.463116943359376,9.301950454711914,3.334050178527832,-2.0340001583099365
1773232842612027000,12.47302685546875,8.44005012512207,3.8299500942230225,-1.9210500717163086
1773232842621936400,12.482936279296876,8.338950157165527,3.9210002422332764,-1.596000075340271
1773232842631846100,12.49284619140625,8.494950294494629,3.696000099182129,-0.8059500455856323
1773232842641756000,12.502755859375,7.702950477600098,3.4830002784729004,-1.218000054359436
1773232842651666000,12.512666015625,7.569000244140625,3.44700026512146,-1.5310500860214233
1773232842661575700,12.52257568359375,8.830050468444824,3.1840500831604004,-1.2889500856399536
1773232842671485200,12.532485107421875,9.721050262451172,2.9850001335144043,-1.4550000429153442
1773232842681395500,12.5423955078125,10.255050659179688,2.9059500694274902,-0.8470500111579895
1773232842691305000,12.552304931640625,10.458000183105469,2.5990500450134277,0.37095001339912415
1773232842701214700,12.562214599609375,10.441950798034668,2.319000005722046,0.5749500393867493
1773232842711124700,12.572124755859376,9.498000144958496,2.3430001735687256,0.843000054359436
1773232842721034200,12.5820341796875,8.392050743103027,2.3740501403808594,0.7570500373840332
1773232842730944000,12.591944091796876,8.425950050354004,2.4840002059936523,-0.016050001606345177
1773232842740854000,12.60185400390625,8.742000579833984,3.028050184249878,-1.1269500255584717
1773232842750763800,12.611763671875,8.789999961853027,3.7290000915527344,-2.3140501976013184
1773232842760673500,12.621673583984375,9.091050148010254,4.060050010681152,-2.824050188064575
1773232842770583300,12.631583251953124,9.027000427246094,3.892050266265869,-2.6110501289367676
1773232842780493000,12.6414931640625,8.690999984741211,3.945000171661377,-1.9260001182556152
1773232842795357700,12.656357666015625,7.729050159454346,3.973950147628784,-1.3039500713348389
1773232842805267500,12.666267333984376,6.925050258636475,3.576000213623047,-1.537950038909912
1773232842815177200,12.67617724609375,9.946050643920898,3.2310001850128174,-1.735050082206726
1773232842825087200,12.686087158203126,13.197000503540039,4.186950206756592,0.15300001204013824
1773232842834996700,12.695996826171875,10.755000114440918,3.0400500297546387,-1.1269500255584717
1773232842844906800,12.70590673828125,8.49000072479248,2.986950159072876,-2.568000078201294
1773232842854816500,12.71581640625,7.267050266265869,4.363950252532959,-2.467050075531006
1773232842864726300,12.725726318359374,6.931950092315674,4.174950122833252,-1.5120000839233398
1773232842874636000,12.735635986328125,7.648050308227539,3.4519500732421875,-0.7000500559806824
1773232842884545800,12.7455458984375,8.821050643920898,3.4609501361846924,-0.29100000858306885
1773232842894455600,12.75545556640625,9.658950805664062,3.646050214767456,-0.27000001072883606
1773232842904365300,12.765365234375,9.45300006866455,3.4420502185821533,-0.322050005197525
1773232842914275000,12.775275146484375,8.979000091552734,3.5620501041412354,-0.19305001199245453
1773232842924184800,12.785184814453125,8.657999992370605,3.6409502029418945,-0.04005000367760658
1773232842934094600,12.795094482421876,8.337000846862793,3.643050193786621,-0.2959500253200531
1773232842944004400,12.80500439453125,8.677050590515137,3.8230502605438232,-0.6379500031471252
1773232842953914000,12.8149140625,9.088950157165527,3.8400001525878906,-0.7939500212669373
1773232842963824000,12.82482421875,9.217950820922852,3.8230502605438232,-0.5230500102043152
1773232842973733600,12.834733642578126,9.189000129699707,3.805950164794922,-0.3630000054836273
1773232842983643600,12.8446435546875,9.124950408935547,3.6889500617980957,-0.544950008392334
1773232842993553400,12.854553466796874,8.967000007629395,3.8179502487182617,-0.6169500350952148
1773232843003463200,12.864463134765625,8.848950386047363,3.835050106048584,-0.5779500007629395
