time,seconds_elapsed,z,y,x
1772727469325610000,0.06460986328125,0,0,0
1772727469335609900,0.07460986328125,0.016129493713378906,0.03248929977416992,0.0007421970367431641
1772727469345610000,0.08460986328125,0.08431625366210938,0.0800790786743164,-0.00017058849334716797
1772727469355609900,0.09460986328125,0.09669876098632812,0.06345748901367188,0.07293176651000977
1772727469365610000,0.10460986328125,0.06139039993286133,0.07714080810546875,0.12831240892410278
1772727469375609900,0.11460986328125,0.059044837951660156,0.07070398330688477,0.1400025486946106
1772727469385610000,0.12460986328125,0.09336519241333008,-0.0017724037170410156,0.10671865940093994
1772727469395609900,0.13460986328125,0.02957296371459961,-0.022846221923828125,0.10375204682350159
1772727469405610000,0.14460986328125,0.05115079879760742,-0.02623748779296875,0.023296773433685303
1772727469415609900,0.15460986328125,0.07628345489501953,-0.060943603515625,0.017310887575149536
1772727469425610000,0.16460986328125,0.08938360214233398,0.038836002349853516,-0.005055785179138184
1772727469435609900,0.17460986328125,0.16227245330810547,0.14881181716918945,0.05164298415184021
1772727469445610000,0.18460986328125,0.02960681915283203,0.2757563591003418,0.051888078451156616
1772727469455609900,0.19460986328125,0.08869266510009766,0.4004664421081543,0.07488149404525757
1772727469465610000,0.20460986328125,0.08097076416015625,0.40111351013183594,0.10088843107223511
1772727469475609900,0.21460986328125,0.12586688995361328,0.3683781623840332,0.1947636604309082
1772727469485610000,0.22460986328125,0.10737228393554688,0.06413030624389648,0.305858850479126
1772727469495609900,0.23460986328125,-0.34490060806274414,-0.12862873077392578,0.626150369644165
1772727469505610000,0.24460986328125,-0.3955092430114746,0.08224630355834961,0.6483432054519653
1772727469515609900,0.25460986328125,-0.3472719192504883,0.31093406677246094,0.30211105942726135
1772727469525610000,0.26460986328125,-0.10005044937133789,0.16250944137573242,-0.04912480711936951
1772727469535609900,0.27460986328125,-0.2169790267944336,-0.12668514251708984,-0.07711014151573181
1772727469545610000,0.28460986328125,-0.4557638168334961,-0.039145469665527344,-0.014469742774963379
1772727469555609900,0.29460986328125,-0.35961103439331055,-0.11125659942626953,-0.0753777027130127
1772727469565610000,0.30460986328125,-0.4172191619873047,-0.14275884628295898,-0.05166512727737427
1772727469575609900,0.31460986328125,-0.38626813888549805,-0.3457064628601074,-0.2619590163230896
1772727469585610000,0.32460986328125,-0.08604764938354492,-0.5487508773803711,-0.5088962912559509
1772727469595609900,0.33460986328125,0.3359041213989258,-0.5203909873962402,-0.42395538091659546
1772727469605610000,0.34460986328125,0.3692312240600586,-0.41555309295654297,-0.41798099875450134
1772727469615609900,0.35460986328125,1.0920419692993164,-0.4230074882507324,-0.5130509734153748
1772727469625610000,0.36460986328125,1.2844738960266113,-0.7161450386047363,-0.5303226709365845
1772727469635609900,0.37460986328125,0.6789412498474121,-0.53125,-0.6212868690490723
1772727469645610000,0.38460986328125,0.31900787353515625,-0.2532663345336914,-0.6798668503761292
1772727469655609900,0.39460986328125,0.4769134521484375,-0.32157421112060547,-0.4839038848876953
1772727469665610000,0.40460986328125,0.4281935691833496,-0.46345043182373047,-0.09919342398643494
1772727469675609900,0.41460986328125,0.4472317695617676,-0.6390728950500488,-0.013002753257751465
1772727469685610000,0.42460986328125,0.761415958404541,-0.7627520561218262,-0.11162596940994263
1772727469695609900,0.43460986328125,0.9071540832519531,-1.1250648498535156,-0.23693221807479858
1772727469705610000,0.44460986328125,0.549102783203125,-1.4920358657836914,-0.34570807218551636
1772727469715609900,0.45460986328125,0.6080236434936523,-1.2772178649902344,-0.3932083249092102
1772727469725610000,0.46460986328125,0.5640053749084473,-1.3604049682617188,-0.25532886385917664
1772727469735609900,0.47460986328125,0.28105831146240234,-1.287672996520996,-0.15047794580459595
1772727469745610000,0.48460986328125,-0.4615817070007324,-0.8404936790466309,0.12895041704177856
1772727469755609900,0.49460986328125,-1.040224313735962,-0.37001800537109375,0.43667715787887573
1772727469765610000,0.50460986328125,-1.0902416706085205,-0.002849578857421875,0.6185240745544434
1772727469775609900,0.51460986328125,-0.9984502792358398,0.1057291030883789,0.3774428367614746
1772727469785610000,0.52460986328125,-1.1668920516967773,-0.08621025085449219,0.023939967155456543
1772727469795609900,0.53460986328125,-0.6354436874389648,0.08467578887939453,0.19635331630706787
1772727469805610000,0.54460986328125,0.05869436264038086,0.4267082214355469,0.6253477931022644
1772727469815609900,0.55460986328125,0.4163076877593994,0.6708030700683594,0.4577491879463196
1772727469825610000,0.56460986328125,0.6491076946258545,0.6215724945068359,0.20442479848861694
1772727469835609900,0.57460986328125,1.0542445182800293,0.5494661331176758,-0.031031548976898193
1772727469845610000,0.58460986328125,1.4828453063964844,0.4377784729003906,-0.34217947721481323
1772727469855609900,0.59460986328125,1.68988037109375,0.3320941925048828,-0.5946359038352966
1772727469865610000,0.60460986328125,1.843144178390503,0.2408609390258789,-0.7102968692779541
1772727469875609900,0.61460986328125,1.756662130355835,0.17935848236083984,-0.9421446323394775
1772727469885610000,0.62460986328125,1.5411553382873535,-0.0076541900634765625,-0.9195128679275513
1772727469895609900,0.63460986328125,1.853015661239624,0.2770404815673828,-1.020263433456421
1772727469905610000,0.64460986328125,1.7315430641174316,0.3177776336669922,-1.3752912282943726
1772727469915609900,0.65460986328125,1.1718406677246094,-0.14341068267822266,-1.5960674285888672
1772727469925610000,0.66460986328125,0.41754627227783203,-0.4252614974975586,-1.4779257774353027
1772727469935609900,0.67460986328125,0.005967617034912109,-0.16988754272460938,-1.3127611875534058
1772727469945610000,0.68460986328125,-0.0880134105682373,0.09247779846191406,-1.328047275543213
1772727469955609900,0.69460986328125,-0.38721275329589844,-0.030294418334960938,-1.377143144607544
1772727469965610000,0.70460986328125,-1.0787365436553955,-0.5520505905151367,-1.028016448020935
1772727469975609900,0.71460986328125,-0.4065554141998291,-0.6791210174560547,-0.6685824394226074
1772727469985610000,0.72460986328125,-0.2200336456298828,-0.45507335662841797,-0.39680278301239014
1772727469995609900,0.73460986328125,-0.7283821105957031,-0.9340624809265137,-0.47250986099243164
1772727470005610000,0.74460986328125,-0.9674713611602783,-1.4900875091552734,-0.25238871574401855
1772727470015609900,0.75460986328125,-0.07335114479064941,-1.5355749130249023,0.024915099143981934
1772727470025610000,0.76460986328125,0.3052198886871338,-1.6512188911437988,1.167999029159546
1772727470035609900,0.77460986328125,0.2381138801574707,-1.5648441314697266,2.007377862930298
1772727470045610000,0.78460986328125,0.2021346092224121,-1.3593358993530273,2.1387557983398438
1772727470055609900,0.79460986328125,0.08039736747741699,-0.8847055435180664,2.4135563373565674
1772727470065610000,0.80460986328125,-0.6756939888000488,0.4271078109741211,2.762329578399658
1772727470075609900,0.81460986328125,-1.0986396074295044,0.3724966049194336,2.841146945953369
1772727470085610000,0.82460986328125,-1.52045738697052,0.1457653045654297,2.169504165649414
1772727470095609900,0.83460986328125,-1.5307437181472778,0.15039634704589844,1.4709281921386719
1772727470105610000,0.84460986328125,-1.0901341438293457,0.3052339553833008,1.2734408378601074
1772727470115609900,0.85460986328125,-1.1971056461334229,0.1653118133544922,0.12933969497680664
1772727470125610000,0.86460986328125,-1.425154209136963,-0.47942638397216797,-0.6886532306671143
1772727470135609900,0.87460986328125,-1.571325421333313,-0.7775583267211914,-1.3190150260925293
1772727470145610000,0.88460986328125,-1.6291224956512451,-0.9197463989257812,-1.5382294654846191
1772727470155609900,0.89460986328125,-0.8667720556259155,-0.9146757125854492,-1.1173458099365234
1772727470165610000,0.90460986328125,-0.9997800588607788,-0.727015495300293,-0.9135230779647827
1772727470175609900,0.91460986328125,-1.0988245010375977,-0.14683055877685547,-0.8340086936950684
1772727470185610000,0.92460986328125,-1.847231388092041,0.22146892547607422,-0.7356948852539062
1772727470195609900,0.93460986328125,-2.660881519317627,0.4813251495361328,-0.3657383918762207
1772727470205610000,0.94460986328125,-2.633575201034546,0.8346538543701172,0.4069347381591797
1772727470215609900,0.95460986328125,-3.1687018871307373,1.4549646377563477,1.1676959991455078
1772727470225610000,0.96460986328125,-3.798091173171997,1.8244524002075195,1.0226376056671143
1772727470235609900,0.97460986328125,-3.4611756801605225,1.994241714477539,0.21822214126586914
1772727470245610000,0.98460986328125,-2.7468652725219727,0.8186206817626953,-0.3886082172393799
1772727470255609900,0.99460986328125,-0.06057119369506836,-1.0150060653686523,-1.2562575340270996
1772727470265610000,1.00460986328125,2.467926502227783,-3.058539867401123,-2.1365411281585693
1772727470275609900,1.01460986328125,2.725173234939575,-3.7407431602478027,-3.119218349456787
1772727470285610000,1.02460986328125,3.771195411682129,-4.418117523193359,-3.0248827934265137
1772727470295609900,1.03460986328125,2.5000360012054443,-5.44233512878418,-2.9956130981445312
1772727470305610000,1.04460986328125,1.2892017364501953,-7.648344993591309,-3.855429172515869
1772727470315609900,1.05460986328125,2.4104275703430176,-6.179924011230469,-3.5177340507507324
1772727470325610000,1.06460986328125,1.1105213165283203,-5.096692085266113,-2.556520938873291
1772727470335609900,1.07460986328125,0.3530111312866211,-4.8683390617370605,-1.0880835056304932
1772727470345610000,1.08460986328125,-0.702242374420166,-3.5393128395080566,0.18846642971038818
1772727470355609900,1.09460986328125,-1.664487361907959,-0.7385678291320801,0.14812427759170532
1772727470365610000,1.10460986328125,-2.1759157180786133,1.3096728324890137,0.7528709173202515
1772727470375609900,1.11460986328125,-2.363971710205078,2.379798412322998,1.8151370286941528
1772727470385610000,1.12460986328125,-2.3382554054260254,2.8863706588745117,2.6445059776306152
1772727470395609900,1.13460986328125,-3.5065860748291016,3.691889762878418,3.004849910736084
1772727470405610000,1.14460986328125,-3.674074649810791,5.297861576080322,3.159842014312744
1772727470415609900,1.15460986328125,-3.3085274696350098,5.951749801635742,3.7141213417053223
1772727470425610000,1.16460986328125,-3.140974521636963,6.304487705230713,3.2928431034088135
1772727470435609900,1.17460986328125,-4.0520477294921875,6.805644989013672,1.944446086883545
1772727470445610000,1.18460986328125,-7.977911472320557,7.093344688415527,-0.09697359800338745
1772727470455609900,1.19460986328125,-9.027260780334473,2.971963882446289,0.4230327606201172
1772727470465610000,1.20460986328125,-6.785508155822754,1.512406349182129,1.476056456565857
1772727470475609900,1.21460986328125,-2.5516738891601562,2.216374397277832,1.6647011041641235
1772727470485610000,1.22460986328125,-3.855166435241699,2.740981101989746,0.9335650205612183
1772727470495609900,1.23460986328125,-4.028416156768799,4.442182540893555,0.8199121952056885
1772727470505610000,1.24460986328125,-2.775413990020752,5.3262786865234375,1.4581801891326904
1772727470515609900,1.25460986328125,-2.303256034851074,5.032614707946777,1.2750160694122314
1772727470525610000,1.26460986328125,-2.232123374938965,4.722015380859375,0.5418820381164551
1772727470535609900,1.27460986328125,-1.3345847129821777,3.5860633850097656,0.37432730197906494
1772727470545610000,1.28460986328125,-0.7766852378845215,2.5985593795776367,-0.10271596908569336
1772727470555609900,1.29460986328125,-1.0728135108947754,1.0816802978515625,-0.20529353618621826
1772727470565610000,1.30460986328125,-0.2672920227050781,-0.48595619201660156,0.7495641708374023
1772727470575609900,1.31460986328125,0.9199156761169434,-1.0790576934814453,1.834093451499939
1772727470585610000,1.32460986328125,1.2488951683044434,-0.9360122680664062,1.944827914237976
1772727470595609900,1.33460986328125,0.5177943706512451,-0.4669017791748047,1.3579479455947876
1772727470605610000,1.34460986328125,0.009196996688842773,0.013091087341308594,1.038761019706726
1772727470615609900,1.35460986328125,0.04332327842712402,0.4608039855957031,1.3078571557998657
1772727470625610000,1.36460986328125,0.26354193687438965,0.8922643661499023,1.6299902200698853
1772727470635609900,1.37460986328125,-0.04947233200073242,0.8797483444213867,1.5506525039672852
1772727470645610000,1.38460986328125,-0.8268184661865234,0.3677406311035156,0.9079012870788574
1772727470655609900,1.39460986328125,-2.617316722869873,-1.1655206680297852,0.01288217306137085
1772727470665610000,1.40460986328125,-1.2882304191589355,-2.110930919647217,-0.3087405562400818
1772727470675609900,1.41460986328125,1.1680171489715576,-2.4505515098571777,-0.27185094356536865
1772727470685610000,1.42460986328125,2.5309531688690186,-3.1509270668029785,-0.46805065870285034
1772727470695609900,1.43460986328125,3.5342397689819336,-3.4568099975585938,-1.1457794904708862
1772727470705610000,1.44460986328125,2.8762404918670654,-2.9531140327453613,-1.733961582183838
1772727470715609900,1.45460986328125,2.3503448963165283,-2.51702880859375,-1.3264501094818115
1772727470725610000,1.46460986328125,1.563166856765747,-1.9576845169067383,-1.010561466217041
1772727470735609900,1.47460986328125,0.9136495590209961,-1.7134513854980469,-0.9315243363380432
1772727470745610000,1.48460986328125,0.7437427043914795,-1.7397289276123047,-0.2174164354801178
1772727470755609900,1.49460986328125,1.0033937692642212,-1.9644336700439453,0.05489557981491089
1772727470765610000,1.50460986328125,1.0109106302261353,-2.5233287811279297,-0.1552320122718811
1772727470775609900,1.51460986328125,1.1051533222198486,-2.580770492553711,-0.5378549695014954
1772727470785610000,1.52460986328125,1.1969482898712158,-2.420581340789795,-0.8224897384643555
1772727470795609900,1.53460986328125,1.2169697284698486,-2.638205051422119,-1.1681864261627197
1772727470805610000,1.54460986328125,1.4691232442855835,-2.8527469635009766,-1.334385871887207
1772727470815609900,1.55460986328125,1.4752178192138672,-2.9347915649414062,-1.4065287113189697
1772727470825610000,1.56460986328125,1.3265016078948975,-3.0395565032958984,-1.0913712978363037
1772727470835609900,1.57460986328125,1.164668321609497,-2.901728630065918,-0.7222162485122681
1772727470845610000,1.58460986328125,0.9635615348815918,-2.6829028129577637,-0.5458658337593079
1772727470855609900,1.59460986328125,0.676864743232727,-2.6198244094848633,-0.13638365268707275
1772727470865610000,1.60460986328125,0.3674163818359375,-2.809453010559082,0.591705322265625
1772727470875609900,1.61460986328125,-0.3190199136734009,-3.0719451904296875,1.1478404998779297
1772727470885610000,1.62460986328125,-1.3497881889343262,-2.5510644912719727,0.77491295337677
1772727470895609900,1.63460986328125,-1.8897075653076172,-1.3861522674560547,0.23891818523406982
1772727470905610000,1.64460986328125,-1.6615763902664185,-0.29850006103515625,-0.18621623516082764
1772727470915609900,1.65460986328125,-1.1206860542297363,0.08849906921386719,-0.16850829124450684
1772727470925610000,1.66460986328125,-0.47329461574554443,-0.5590457916259766,0.6146759986877441
1772727470935609900,1.67460986328125,0.4387328326702118,-1.5510339736938477,1.3966879844665527
1772727470945610000,1.68460986328125,0.9794546961784363,-2.134891986846924,1.8641533851623535
1772727470955609900,1.69460986328125,1.3229751586914062,-2.185743808746338,2.4758970737457275
1772727470965610000,1.70460986328125,1.2104270458221436,-1.9439496994018555,2.4711754322052
1772727470975609900,1.71460986328125,0.6196179986000061,-1.4613361358642578,1.8860101699829102
1772727470985610000,1.72460986328125,0.6527783274650574,-0.7498712539672852,1.3383288383483887
1772727470995609900,1.73460986328125,0.6218801736831665,-0.09297657012939453,0.49406981468200684
1772727471005610000,1.74460986328125,0.3313736915588379,0.38878822326660156,-0.7297837734222412
1772727471015609900,1.75460986328125,0.3861432671546936,0.09717369079589844,-1.034015417098999
1772727471025610000,1.76460986328125,0.45118197798728943,-0.18044567108154297,-0.8739426136016846
1772727471035609900,1.77460986328125,0.1060076653957367,-0.4848747253417969,-0.96197509765625
1772727471045610000,1.78460986328125,-0.2638041079044342,-1.024648666381836,-0.7233037948608398
1772727471055609900,1.79460986328125,1.8414326906204224,-1.062063217163086,-1.052826166152954
1772727471065610000,1.80460986328125,3.311919689178467,-0.8759260177612305,-1.9480526447296143
1772727471075609900,1.81460986328125,1.6859456300735474,-2.7014288902282715,-0.9938240051269531
1772727471085610000,1.82460986328125,1.843597650527954,-0.4739522933959961,-1.4307247400283813
1772727471095609900,1.83460986328125,0.2980969548225403,1.223555564880371,-2.844038486480713
1772727471105610000,1.84460986328125,-1.647666096687317,2.400941848754883,-2.4142396450042725
1772727471115609900,1.85460986328125,-2.1747584342956543,2.3179540634155273,-0.8367953300476074
1772727471125610000,1.86460986328125,-1.713868260383606,1.6995019912719727,1.2687981128692627
1772727471135609900,1.87460986328125,-1.5714237689971924,1.5726099014282227,2.9105992317199707
1772727471145610000,1.88460986328125,-2.584383487701416,1.6653499603271484,3.0607752799987793
1772727471155609900,1.89460986328125,-2.3484115600585938,1.4496955871582031,2.7066330909729004
1772727471165610000,1.90460986328125,-1.6740596294403076,0.7536449432373047,2.1604206562042236
1772727471175609900,1.91460986328125,-0.4232645034790039,-0.2608938217163086,1.420274257659912
1772727471185610000,1.92460986328125,0.49860405921936035,-1.6467313766479492,0.9196491241455078
1772727471195609900,1.93460986328125,0.748938798904419,-2.5098400115966797,0.5243704319000244
1772727471205610000,1.94460986328125,0.749488115310669,-2.45314884185791,0.2947657108306885
1772727471215609900,1.95460986328125,0.5071046352386475,-2.180424690246582,0.1648397445678711
1772727471225610000,1.96460986328125,0.32045888900756836,-1.8194036483764648,0.09706568717956543
1772727471235609900,1.97460986328125,-0.18373632431030273,-1.2427253723144531,-0.3441798686981201
1772727471245610000,1.98460986328125,-0.9514577388763428,-1.3203959465026855,-0.1557626724243164
1772727471255609900,1.99460986328125,-0.2554662227630615,-1.6356167793273926,-0.10909628868103027
1772727471265610000,2.00460986328125,0.7881243228912354,-1.8374347686767578,-0.3149681091308594
1772727471275609900,2.01460986328125,0.09773540496826172,-2.6488475799560547,-0.14217543601989746
1772727471285610000,2.02460986328125,-0.4541196823120117,-3.1271848678588867,0.010928153991699219
1772727471295609900,2.03460986328125,-0.32524871826171875,-3.470158100128174,-0.0859076976776123
1772727471305610000,2.04460986328125,-0.43036794662475586,-5.247185707092285,-0.3728466033935547
1772727471315609900,2.05460986328125,-0.5128130912780762,-4.473936080932617,-0.42402076721191406
1772727471325610000,2.06460986328125,0.5558862686157227,-0.4662189483642578,-0.21955561637878418
1772727471335609900,2.07460986328125,-3.614030361175537,1.5638947486877441,-1.301600456237793
1772727471345610000,2.08460986328125,-4.692889213562012,3.2843098640441895,-1.9900678396224976
1772727471355609900,2.09460986328125,-4.536987781524658,2.263225555419922,-1.2592346668243408
1772727471365610000,2.10460986328125,-3.0566253662109375,0.984555721282959,2.8015711307525635
1772727471375609900,2.11460986328125,-2.3042964935302734,2.0632705688476562,2.3936898708343506
1772727471385610000,2.12460986328125,-1.2865352630615234,2.4774365425109863,0.4474642276763916
1772727471395609900,2.13460986328125,0.11660194396972656,0.7110519409179688,1.622358798980713
1772727471405610000,2.14460986328125,0.11024951934814453,0.524381160736084,0.5201418399810791
1772727471415609900,2.15460986328125,0.11345338821411133,-0.14090824127197266,-1.0871589183807373
1772727471425610000,2.16460986328125,0.300539493560791,-0.700047492980957,-0.3139948844909668
1772727471435609900,2.17460986328125,0.04936838150024414,-0.1923813819885254,0.09767436981201172
1772727471445610000,2.18460986328125,-0.793698787689209,0.6939926147460938,0.14302587509155273
1772727471455609900,2.19460986328125,-1.9776496887207031,1.5295429229736328,0.24222886562347412
1772727471465610000,2.20460986328125,-2.744088649749756,2.0375585556030273,0.1595907211303711
1772727471475609900,2.21460986328125,-2.116328716278076,2.0424861907958984,0.11796152591705322
1772727471485610000,2.22460986328125,-1.9048805236816406,1.7357053756713867,-0.013429760932922363
1772727471495609900,2.23460986328125,-1.3885905742645264,1.1134414672851562,-0.42688286304473877
1772727471505610000,2.24460986328125,-0.10458803176879883,0.7458534240722656,-0.7685161828994751
1772727471515609900,2.25460986328125,2.5698812007904053,0.6587448120117188,-0.873093843460083
1772727471525610000,2.26460986328125,4.500662326812744,0.909266471862793,-0.7711505889892578
1772727471535609900,2.27460986328125,3.31550931930542,1.408578872680664,-0.7705363035202026
1772727471545610000,2.28460986328125,2.458632230758667,1.8589162826538086,-0.6459451913833618
1772727471555609900,2.29460986328125,2.086968421936035,2.469736099243164,-0.15762019157409668
1772727471565610000,2.30460986328125,1.2384397983551025,2.8087158203125,0.3591771125793457
1772727471575609900,2.31460986328125,-0.5041747093200684,2.3403396606445312,0.17026090621948242
1772727471585610000,2.32460986328125,-0.5117106437683105,1.6552610397338867,-0.1762068271636963
1772727471595609900,2.33460986328125,-1.2558815479278564,2.201559066772461,0.3529033660888672
1772727471605610000,2.34460986328125,-0.9765377044677734,2.091305732727051,0.517798662185669
1772727471615609900,2.35460986328125,-0.45816802978515625,1.9035453796386719,0.9284255504608154
1772727471625610000,2.36460986328125,0.18143320083618164,0.8468742370605469,0.4242894649505615
1772727471635609900,2.37460986328125,0.9187251329421997,0.5530147552490234,-0.05126619338989258
1772727471645610000,2.38460986328125,1.677307367324829,0.1743335723876953,1.1622560024261475
1772727471655609900,2.39460986328125,0.8867700099945068,0.09954166412353516,1.4711623191833496
1772727471665610000,2.40460986328125,0.3083057403564453,-0.005118370056152344,1.0218150615692139
1772727471675609900,2.41460986328125,-0.6719720363616943,-0.09842872619628906,0.041440486907958984
1772727471685610000,2.42460986328125,-0.8546955585479736,-0.3463172912597656,0.11968088150024414
1772727471695609900,2.43460986328125,-0.33774471282958984,-0.3418436050415039,0.21657347679138184
1772727471705610000,2.44460986328125,0.23049330711364746,-0.037461280822753906,0.1171104907989502
1772727471715609900,2.45460986328125,0.5027668476104736,0.11833858489990234,0.008392572402954102
1772727471725610000,2.46460986328125,0.23936057090759277,0.1861400604248047,0.23213696479797363
1772727471735609900,2.47460986328125,0.003762960433959961,0.11748123168945312,0.4200472831726074
1772727471745610000,2.48460986328125,-0.1233675479888916,-0.000301361083984375,0.43436312675476074
1772727471755609900,2.49460986328125,-0.14988207817077637,-0.03732109069824219,0.12728214263916016
1772727471765610000,2.50460986328125,0.12412142753601074,-0.07514667510986328,0.11309289932250977
1772727471775609900,2.51460986328125,0.24454450607299805,-0.10993671417236328,0.09632754325866699
1772727471785610000,2.52460986328125,0.11110782623291016,-0.13044261932373047,0.015758275985717773
1772727471795609900,2.53460986328125,-0.16124296188354492,-0.06834983825683594,0.06496644020080566
1772727471805610000,2.54460986328125,-0.15478897094726562,-0.06932544708251953,0.17410922050476074
1772727471815609900,2.55460986328125,-0.04239058494567871,-0.004202842712402344,0.14917635917663574
1772727471825610000,2.56460986328125,0.11650300025939941,0.023006439208984375,0.13891983032226562
1772727471835609900,2.57460986328125,0.11972212791442871,0.034676551818847656,0.1628890037536621
1772727471845610000,2.58460986328125,0.049730777740478516,0.011960029602050781,0.10549283027648926
1772727471855609900,2.59460986328125,-0.013895750045776367,-0.04669952392578125,0.09298539161682129
1772727471865610000,2.60460986328125,0.012597322463989258,-0.07777690887451172,0.08412575721740723
1772727471875609900,2.61460986328125,0.02682638168334961,-0.11012458801269531,0.03748822212219238
1772727471885610000,2.62460986328125,0.05468940734863281,-0.08539199829101562,0.0065577030181884766
1772727471895609900,2.63460986328125,0.05785107612609863,-0.07665157318115234,0.047599077224731445
1772727471905610000,2.64460986328125,0.0012617111206054688,-0.04633617401123047,0.0958566665649414
1772727471915609900,2.65460986328125,-0.016674518585205078,-0.028901100158691406,0.14020133018493652
1772727471925610000,2.66460986328125,-0.024617671966552734,0.008558273315429688,0.18015217781066895
1772727471935609900,2.67460986328125,0.023404836654663086,0.015157699584960938,0.2335672378540039
1772727471945610000,2.68460986328125,0.048005104064941406,0.016953468322753906,0.2476816177368164
1772727471955609900,2.69460986328125,0.08712601661682129,-0.026680946350097656,0.26543283462524414
1772727471965610000,2.70460986328125,0.08575224876403809,-0.06096649169921875,0.2589080333709717
1772727471975609900,2.71460986328125,0.06092357635498047,-0.07561588287353516,0.2476634979248047
1772727471985610000,2.72460986328125,0.0025343894958496094,-0.10773086547851562,0.2297959327697754
1772727471995609900,2.73460986328125,-0.028354883193969727,-0.11955642700195312,0.2147202491760254
1772727472005610000,2.74460986328125,-0.03137922286987305,-0.11347103118896484,0.19738292694091797
1772727472015609900,2.75460986328125,-0.03824329376220703,-0.10721969604492188,0.20789074897766113
1772727472025610000,2.76460986328125,0.01041269302368164,-0.10769939422607422,0.26289939880371094
1772727472035609900,2.77460986328125,0.3446650505065918,-0.10783100128173828,0.16341018676757812
1772727472045610000,2.78460986328125,0.5105757713317871,-0.10797309875488281,-0.11327528953552246
1772727472055609900,2.79460986328125,-0.7748284339904785,0.10064315795898438,0.123992919921875
1772727472065610000,2.80460986328125,-0.8441743850708008,-0.12888336181640625,0.4109039306640625
1772727472075609900,2.81460986328125,0.19552183151245117,-0.0030660629272460938,0.1366596221923828
1772727472085610000,2.82460986328125,0.3687927722930908,-0.017867088317871094,0.0422055721282959
1772727472095609900,2.83460986328125,0.2742757797241211,0.02111530303955078,0.0804288387298584
1772727472105610000,2.84460986328125,-0.26917481422424316,0.02842998504638672,0.06437516212463379
1772727472115609900,2.85460986328125,-0.2457265853881836,-0.01485443115234375,0.08504939079284668
1772727472125610000,2.86460986328125,-0.0010864734649658203,-0.04681682586669922,0.11424922943115234
1772727472135609900,2.87460986328125,0.1284961700439453,-0.009997367858886719,0.18724322319030762
1772727472145610000,2.88460986328125,0.09234929084777832,0.024538040161132812,0.240584135055542
1772727472155609900,2.89460986328125,-0.023740291595458984,-0.0012617111206054688,0.2751271724700928
1772727472165610000,2.90460986328125,-0.25816845893859863,-0.26504039764404297,0.41985273361206055
1772727472175609900,2.91460986328125,0.09490561485290527,-0.04090690612792969,0.17865657806396484
1772727472185610000,2.92460986328125,0.35840797424316406,-0.032263755798339844,0.16124248504638672
1772727472195609900,2.93460986328125,0.03995823860168457,-0.03573036193847656,0.2226088047027588
1772727472205610000,2.94460986328125,-0.06443142890930176,0.11245918273925781,0.07493042945861816
1772727472215609900,2.95460986328125,-0.1580815315246582,-0.012696266174316406,0.1623382568359375
1772727472225610000,2.96460986328125,-0.052026987075805664,-0.0645914077758789,0.05268454551696777
1772727472235609900,2.97460986328125,0.03922772407531738,0.02783966064453125,-0.004858493804931641
1772727472245610000,2.98460986328125,0.13872742652893066,0.06043529510498047,0.016656160354614258
1772727472255609900,2.99460986328125,-0.05198383331298828,-0.08122062683105469,0.06913208961486816
1772727472265610000,3.00460986328125,0.0604555606842041,-0.12239456176757812,-0.027507781982421875
1772727472275609900,3.01460986328125,-0.1399388313293457,-0.1843729019165039,-0.01026606559753418
1772727472285610000,3.02460986328125,-0.1320176124572754,-0.20871257781982422,0.18395447731018066
1772727472295609900,3.03460986328125,0.14955401420593262,-0.05490589141845703,0.06545162200927734
1772727472305610000,3.04460986328125,0.20488595962524414,-0.15091896057128906,-0.004462003707885742
1772727472315609900,3.05460986328125,-0.05226540565490723,-0.0902242660522461,0.01158595085144043
1772727472325610000,3.06460986328125,-0.13576388359069824,-0.11496543884277344,0.07744836807250977
1772727472335609900,3.07460986328125,-0.11313724517822266,-0.063385009765625,0.06242227554321289
1772727472345610000,3.08460986328125,0.07681846618652344,0.04443073272705078,0.030678510665893555
1772727472355609900,3.09460986328125,0.09527206420898438,0.12256050109863281,0.04157447814941406
1772727472365610000,3.10460986328125,0.04395246505737305,0.12583065032958984,0.016603708267211914
1772727472375609900,3.11460986328125,-0.04098153114318848,0.0699319839477539,0.011818647384643555
1772727472385610000,3.12460986328125,-0.003964424133300781,-0.0044403076171875,-0.005317211151123047
1772727472395609900,3.13460986328125,0.005871772766113281,-0.027167320251464844,-0.008600234985351562
1772727472405610000,3.14460986328125,0.06988024711608887,-0.019639015197753906,-0.008634567260742188
1772727472415609900,3.15460986328125,0.009745597839355469,-0.048442840576171875,0.02244853973388672
1772727472425610000,3.16460986328125,0.09391498565673828,-0.06504154205322266,0.071502685546875
1772727472435609900,3.17460986328125,0.06428360939025879,-0.02217864990234375,0.08371758460998535
1772727472445610000,3.18460986328125,0.024242877960205078,-0.040566444396972656,0.1215665340423584
1772727472455609900,3.19460986328125,0.02645111083984375,0.058490753173828125,0.09556794166564941
1772727472465610000,3.20460986328125,0.038492441177368164,0.03797626495361328,0.13418340682983398
1772727472475609900,3.21460986328125,0.09412002563476562,0.033928871154785156,0.08551740646362305
1772727472485610000,3.22460986328125,0.023027420043945312,0.015347480773925781,0.04327535629272461
1772727472495609900,3.23460986328125,0.02542877197265625,-0.014586448669433594,0.0389859676361084
1772727472505610000,3.24460986328125,0.02368307113647461,-0.06231403350830078,0.022983551025390625
1772727472515609900,3.25460986328125,-0.013377189636230469,-0.08680248260498047,0.00927877426147461
1772727472525610000,3.26460986328125,-0.012348175048828125,-0.09137248992919922,-0.01877880096435547
1772727472535609900,3.27460986328125,-0.0002422332763671875,-0.06246662139892578,0.022760868072509766
1772727472545610000,3.28460986328125,-0.0058023929595947266,-0.02562713623046875,0.06794881820678711
1772727472555609900,3.29460986328125,-0.03104710578918457,0.012220382690429688,0.0966334342956543
1772727472565610000,3.30460986328125,-0.05942225456237793,0.045516014099121094,0.10814642906188965
1772727472575609900,3.31460986328125,-0.035857439041137695,0.049355506896972656,0.0971822738647461
1772727472585610000,3.32460986328125,-0.004431962966918945,0.009999275207519531,0.0379023551940918
1772727472595609900,3.33460986328125,0.02403855323791504,-0.022005081176757812,0.0061533451080322266
1772727472605610000,3.34460986328125,0.039540767669677734,-0.07931232452392578,0.0018420219421386719
1772727472615609900,3.35460986328125,0.03471016883850098,-0.09272384643554688,0.0301363468170166
1772727472625610000,3.36460986328125,-0.019564390182495117,-0.09326362609863281,0.05864429473876953
1772727472635609900,3.37460986328125,-0.028515100479125977,-0.08100032806396484,0.08672428131103516
1772727472645610000,3.38460986328125,-0.05096578598022461,-0.040564537048339844,0.10511612892150879
1772727472655609900,3.39460986328125,0.009213924407958984,0.00505828857421875,0.07705187797546387
1772727472665610000,3.40460986328125,0.01826024055480957,0.05421161651611328,0.051293373107910156
1772727472675609900,3.41460986328125,0.03072047233581543,0.08766460418701172,0.01069498062133789
1772727472685610000,3.42460986328125,0.01874065399169922,0.06323528289794922,-0.02642679214477539
1772727472695609900,3.43460986328125,0.031224489212036133,0.02726268768310547,-0.023458242416381836
1772727472705610000,3.44460986328125,0.016747236251831055,-0.013387680053710938,-0.030446290969848633
1772727472715609900,3.45460986328125,0.03362464904785156,-0.050113677978515625,-0.02556467056274414
1772727472725610000,3.46460986328125,0.031077146530151367,-0.07654094696044922,-0.03040027618408203
1772727472735609900,3.47460986328125,0.017150402069091797,-0.09518623352050781,0.038088083267211914
1772727472745610000,3.48460986328125,-0.023405790328979492,-0.0679788589477539,0.08614325523376465
1772727472755609900,3.49460986328125,-0.05531597137451172,-0.015191078186035156,0.0968475341796875
1772727472765610000,3.50460986328125,-0.03785967826843262,0.056273460388183594,0.10952377319335938
1772727472775609900,3.51460986328125,-0.0065119266510009766,0.08716106414794922,0.10515308380126953
1772727472785610000,3.52460986328125,0.00942850112915039,0.09125423431396484,0.07081985473632812
1772727472795609900,3.53460986328125,0.009007453918457031,0.046387672424316406,0.051091670989990234
1772727472805610000,3.54460986328125,0.010779619216918945,-0.011606216430664062,0.05188322067260742
1772727472815609900,3.55460986328125,-0.006563663482666016,-0.05767822265625,0.0400538444519043
1772727472825610000,3.56460986328125,-0.0066945552825927734,-0.0984811782836914,0.047353506088256836
1772727472835609900,3.57460986328125,-0.0038547515869140625,-0.11690998077392578,0.0607304573059082
1772727472845610000,3.58460986328125,-0.01666259765625,-0.10467815399169922,0.055303335189819336
1772727472855609900,3.59460986328125,-0.02182149887084961,-0.05997467041015625,0.06369471549987793
1772727472865610000,3.60460986328125,-0.00926351547241211,0.013696670532226562,0.07277655601501465
1772727472875609900,3.61460986328125,0.00821542739868164,0.06300735473632812,0.04585766792297363
1772727472885610000,3.62460986328125,0.03965950012207031,0.10609817504882812,0.01028299331665039
1772727472895609900,3.63460986328125,0.045172691345214844,0.07941627502441406,-0.031015634536743164
1772727472905610000,3.64460986328125,0.05091571807861328,0.02737712860107422,-0.06463885307312012
1772727472915609900,3.65460986328125,0.01159524917602539,-0.01607227325439453,-0.057538747787475586
1772727472925610000,3.66460986328125,0.01113438606262207,-0.0655660629272461,-0.018950462341308594
1772727472935609900,3.67460986328125,-0.0015306472778320312,-0.07770442962646484,0.008316278457641602
1772727472945610000,3.68460986328125,-0.007866382598876953,-0.0685272216796875,0.0009355545043945312
1772727472955609900,3.69460986328125,-0.012452125549316406,-0.05088520050048828,0.04614663124084473
1772727472965610000,3.70460986328125,-0.025297880172729492,-0.0182342529296875,0.09347319602966309
1772727472975609900,3.71460986328125,-0.032790422439575195,0.01771259307861328,0.12794017791748047
1772727472985610000,3.72460986328125,-0.020479202270507812,0.04310131072998047,0.1126253604888916
1772727472995609900,3.73460986328125,0.0019214153289794922,0.04175090789794922,0.0907130241394043
1772727473005610000,3.74460986328125,0.009852170944213867,0.02274608612060547,0.05952286720275879
1772727473015609900,3.75460986328125,0.015952587127685547,0.0026788711547851562,0.01023721694946289
1772727473025610000,3.76460986328125,-0.003443479537963867,-0.03537940979003906,0.004658222198486328
1772727473035609900,3.77460986328125,0.0011086463928222656,-0.0646209716796875,-0.000732421875
1772727473045610000,3.78460986328125,-0.00044798851013183594,-0.075042724609375,0.02519965171813965
1772727473055609900,3.79460986328125,0.013039588928222656,-0.06893444061279297,0.020586490631103516
1772727473065610000,3.80460986328125,0.02498459815979004,-0.057125091552734375,0.024179697036743164
1772727473075609900,3.81460986328125,0.016397714614868164,-0.01586627960205078,0.03812718391418457
1772727473085610000,3.82460986328125,0.008060455322265625,0.021188735961914062,0.05903911590576172
1772727473095609900,3.83460986328125,-0.0018963813781738281,0.03815460205078125,0.06929683685302734
1772727473105610000,3.84460986328125,0.01314687728881836,0.05658912658691406,0.04597830772399902
1772727473115609900,3.85460986328125,0.007052898406982422,0.057793617248535156,0.02185368537902832
1772727473125610000,3.86460986328125,0.01788473129272461,0.017078399658203125,0.000675201416015625
1772727473135609900,3.87460986328125,0.03898048400878906,-0.01681804656982422,0.01217031478881836
1772727473145610000,3.88460986328125,0.04872322082519531,-0.07393169403076172,0.014430046081542969
1772727473155609900,3.89460986328125,0.028621196746826172,-0.1021881103515625,0.022832393646240234
1772727473165610000,3.90460986328125,0.0026738643646240234,-0.10999202728271484,0.0440678596496582
1772727473175609900,3.91460986328125,-0.0211489200592041,-0.07849788665771484,0.08943390846252441
1772727473185610000,3.92460986328125,-0.026379823684692383,-0.04899883270263672,0.14064264297485352
1772727473195609900,3.93460986328125,-0.022046327590942383,0.0039577484130859375,0.15320563316345215
1772727473205610000,3.94460986328125,-0.011762142181396484,0.045899391174316406,0.13114261627197266
1772727473215609900,3.95460986328125,-0.010979652404785156,0.061496734619140625,0.09174036979675293
1772727473225610000,3.96460986328125,0.004312992095947266,0.048976898193359375,0.019504547119140625
1772727473235609900,3.97460986328125,0.011733293533325195,0.00045108795166015625,-0.03721451759338379
1772727473245610000,3.98460986328125,0.0002570152282714844,-0.03716278076171875,-0.07313084602355957
1772727473255609900,3.99460986328125,-0.0035216808319091797,-0.05196666717529297,-0.04827594757080078
1772727473265610000,4.00460986328125,0.01255035400390625,-0.05718421936035156,-0.014710426330566406
1772727473275609900,4.01460986328125,0.008758544921875,-0.03928184509277344,0.02092289924621582
1772727473285610000,4.02460986328125,0.004162311553955078,-0.024517059326171875,0.06507062911987305
1772727473295609900,4.03460986328125,0.014186620712280273,0.0006198883056640625,0.0752708911895752
1772727473305610000,4.04460986328125,0.018437623977661133,0.013550758361816406,0.07296991348266602
1772727473315609900,4.05460986328125,0.018582820892333984,0.034974098205566406,0.0623469352722168
1772727473325610000,4.06460986328125,0.017439603805541992,0.027749061584472656,0.03755307197570801
1772727473335609900,4.07460986328125,0.026489734649658203,0.008252143859863281,0.004653215408325195
1772727473345610000,4.08460986328125,0.009668350219726562,-0.0025739669799804688,-0.015716075897216797
1772727473355609900,4.09460986328125,-0.007131814956665039,0.01881885528564453,-0.016553401947021484
1772727473365610000,4.10460986328125,-0.008342981338500977,0.016422271728515625,-0.036000728607177734
1772727473375609900,4.11460986328125,0.006604194641113281,0.005076408386230469,-0.06519913673400879
1772727473385610000,4.12460986328125,-0.0006823539733886719,0.009987831115722656,-0.05595993995666504
1772727473395609900,4.13460986328125,-0.018352031707763672,-0.008822441101074219,-0.014563798904418945
1772727473405610000,4.14460986328125,-0.035906076431274414,-0.005431175231933594,0.021060466766357422
1772727473415609900,4.15460986328125,-0.028708219528198242,-0.000583648681640625,0.047821044921875
1772727473425610000,4.16460986328125,-0.011261463165283203,0.004309654235839844,0.04541349411010742
1772727473435609900,4.17460986328125,0.007752895355224609,0.0036516189575195312,0.03833913803100586
1772727473445610000,4.18460986328125,0.012346267700195312,0.0055675506591796875,0.004330158233642578
1772727473455609900,4.19460986328125,0.03285026550292969,0.006573677062988281,-0.02443099021911621
1772727473465610000,4.20460986328125,0.030530214309692383,0.006603240966796875,-0.02589869499206543
1772727473475609900,4.21460986328125,-0.0031824111938476562,0.0064601898193359375,-0.033522844314575195
1772727473485610000,4.22460986328125,-0.005180835723876953,0.007557868957519531,-0.03762030601501465
1772727473495609900,4.23460986328125,0.012304067611694336,0.013207435607910156,-0.058640241622924805
1772727473505610000,4.24460986328125,0.017208337783813477,0.0284271240234375,-0.08238410949707031
1772727473515609900,4.25460986328125,0.027109861373901367,0.03183269500732422,-0.09334349632263184
1772727473525610000,4.26460986328125,0.01541447639465332,0.048172950744628906,-0.07461905479431152
1772727473535609900,4.27460986328125,0.023541688919067383,0.025987625122070312,-0.03967428207397461
1772727473545610000,4.28460986328125,0.023957252502441406,0.018655776977539062,-0.014715909957885742
1772727473555609900,4.29460986328125,0.031244516372680664,-0.0072612762451171875,0.010461807250976562
1772727473565610000,4.30460986328125,0.042966365814208984,-0.012777328491210938,0.02474188804626465
1772727473575609900,4.31460986328125,0.01976776123046875,-0.02494335174560547,0.07986903190612793
1772727473585610000,4.32460986328125,-0.021941423416137695,-0.01412200927734375,0.09649085998535156
1772727473595609900,4.33460986328125,-0.053183794021606445,-0.009148597717285156,0.11457180976867676
1772727473605610000,4.34460986328125,-0.056729793548583984,0.0038366317749023438,0.12864947319030762
1772727473615609900,4.35460986328125,-0.07463693618774414,0.0073184967041015625,0.16019296646118164
1772727473625610000,4.36460986328125,-0.09401845932006836,0.010066032409667969,0.14943289756774902
1772727473635609900,4.37460986328125,-0.07697057723999023,-0.016938209533691406,0.12746047973632812
1772727473645610000,4.38460986328125,-0.05655980110168457,-0.039711952209472656,0.09343981742858887
1772727473655609900,4.39460986328125,-0.0410308837890625,-0.04329681396484375,0.07610511779785156
1772727473665610000,4.40460986328125,-0.04819488525390625,-0.05132007598876953,0.033115386962890625
1772727473675609900,4.41460986328125,-0.037966251373291016,-0.06813621520996094,-0.009720325469970703
1772727473685610000,4.42460986328125,-0.01808452606201172,-0.09667015075683594,-0.019935131072998047
1772727473695609900,4.43460986328125,-0.0022110939025878906,-0.07683086395263672,-0.036192893981933594
1772727473705610000,4.44460986328125,-0.03233957290649414,-0.03619670867919922,-0.04338383674621582
1772727473715609900,4.45460986328125,-0.043347835540771484,0.016732215881347656,-0.0101165771484375
1772727473725610000,4.46460986328125,-0.043752431869506836,0.056740760803222656,0.023097515106201172
1772727473735609900,4.47460986328125,0.05473828315734863,0.07336807250976562,0.0069463253021240234
1772727473745610000,4.48460986328125,0.08746623992919922,0.05425071716308594,-0.018816232681274414
1772727473755609900,4.49460986328125,0.07733273506164551,0.05523872375488281,-0.07205009460449219
1772727473765610000,4.50460986328125,0.038750648498535156,0.014981269836425781,-0.13900971412658691
1772727473775609900,4.51460986328125,0.07421398162841797,-0.02492523193359375,-0.12732911109924316
1772727473785610000,4.52460986328125,0.0756070613861084,-0.026014328002929688,-0.10599613189697266
1772727473795609900,4.53460986328125,0.06156468391418457,-0.014784812927246094,-0.08370661735534668
1772727473805610000,4.54460986328125,0.07191705703735352,-0.009430885314941406,-0.06328344345092773
1772727473815609900,4.55460986328125,0.04816842079162598,-0.0009946823120117188,-0.01675271987915039
1772727473825610000,4.56460986328125,0.05408287048339844,0.029054641723632812,0.04449105262756348
1772727473835609900,4.57460986328125,0.05769848823547363,0.06627941131591797,0.07093071937561035
1772727473845610000,4.58460986328125,0.04649209976196289,0.08118915557861328,0.08286523818969727
1772727473855609900,4.59460986328125,0.036618947982788086,0.0700693130493164,0.07091879844665527
1772727473865610000,4.60460986328125,-0.001667022705078125,0.04827308654785156,0.02973175048828125
1772727473875609900,4.61460986328125,0.0015513896942138672,-0.014926910400390625,-0.002920866012573242
1772727473885610000,4.62460986328125,0.019207000732421875,-0.05666160583496094,-0.020839691162109375
1772727473895609900,4.63460986328125,0.005415201187133789,-0.06825542449951172,-0.03283429145812988
1772727473905610000,4.64460986328125,0.0019114017486572266,-0.05571746826171875,-0.00895380973815918
1772727473915609900,4.65460986328125,-0.018013477325439453,-0.031073570251464844,0.03283286094665527
1772727473925610000,4.66460986328125,-0.047905683517456055,-0.005606651306152344,0.033812761306762695
1772727473935609900,4.67460986328125,-0.029318809509277344,0.0158538818359375,0.03813982009887695
1772727473945610000,4.68460986328125,-0.008006572723388672,0.04211616516113281,0.013237953186035156
1772727473955609900,4.69460986328125,-0.0263059139251709,0.04569816589355469,0.004602670669555664
1772727473965610000,4.70460986328125,-0.05114316940307617,0.045683860778808594,-0.041159629821777344
1772727473975609900,4.71460986328125,-0.029634952545166016,0.029458045959472656,-0.038443565368652344
1772727473985610000,4.72460986328125,-0.024090051651000977,0.012854576110839844,-0.06419563293457031
1772727473995609900,4.73460986328125,0.0026738643646240234,-0.013645172119140625,-0.08908796310424805
1772727474005610000,4.74460986328125,0.008656978607177734,-0.024555206298828125,-0.11310124397277832
1772727474015609900,4.75460986328125,0.02372264862060547,-0.04001331329345703,-0.028609752655029297
1772727474025610000,4.76460986328125,0.009988069534301758,-0.054004669189453125,0.07931900024414062
1772727474035609900,4.77460986328125,0.017947673797607422,-0.06480693817138672,0.1693880558013916
1772727474045610000,4.78460986328125,-0.023507356643676758,-0.07104015350341797,0.22482848167419434
1772727474055609900,4.79460986328125,-0.020241498947143555,-0.03859996795654297,0.25405406951904297
1772727474065610000,4.80460986328125,-0.020487308502197266,0.006165504455566406,0.20758748054504395
1772727474075609900,4.81460986328125,-0.02339768409729004,0.045853614807128906,0.08548712730407715
1772727474085610000,4.82460986328125,-0.003606557846069336,0.03620433807373047,-0.057138681411743164
1772727474095609900,4.83460986328125,0.01292872428894043,-0.041703224182128906,-0.1261000633239746
1772727474105610000,4.84460986328125,-0.021999359130859375,-0.03611278533935547,-0.14625072479248047
1772727474115609900,4.85460986328125,-0.0263211727142334,-0.005127906799316406,-0.1164541244506836
1772727474125610000,4.86460986328125,0.002703428268432617,0.023769378662109375,-0.07004308700561523
1772727474135609900,4.87460986328125,0.005751848220825195,0.0035009384155273438,-0.01779341697692871
1772727474145610000,4.88460986328125,-0.024587392807006836,0.008993148803710938,0.0033483505249023438
1772727474155609900,4.89460986328125,0.03131890296936035,0.000110626220703125,0.11052751541137695
1772727474165610000,4.90460986328125,0.053490400314331055,0.010970115661621094,0.10826897621154785
1772727474175609900,4.91460986328125,0.02869248390197754,0.009881973266601562,0.09989309310913086
1772727474185610000,4.92460986328125,0.006487369537353516,-0.04716205596923828,0.09282541275024414
1772727474195609900,4.93460986328125,-0.0333409309387207,-0.08191490173339844,-0.03870224952697754
1772727474205610000,4.94460986328125,0.005604982376098633,-0.006035804748535156,-0.09567594528198242
1772727474215609900,4.95460986328125,0.07087874412536621,-0.00008869171142578125,0.010065555572509766
1772727474225610000,4.96460986328125,-0.009044647216796875,0.0006589889526367188,-0.09208846092224121
1772727474235609900,4.97460986328125,-0.07206416130065918,0.043076515197753906,-0.13135004043579102
1772727474245610000,4.98460986328125,0.07944750785827637,0.06707382202148438,0.036164283752441406
1772727474255609900,4.99460986328125,0.03111124038696289,0.02780914306640625,0.10353636741638184
1772727474265610000,5.00460986328125,-0.06762361526489258,-0.032570838928222656,0.19205284118652344
1772727474275609900,5.01460986328125,-0.14627313613891602,0.0019941329956054688,0.0845956802368164
1772727474285610000,5.02460986328125,0.01493692398071289,-0.020318031311035156,0.03217720985412598
1772727474295609900,5.03460986328125,0.10770225524902344,-0.037079811096191406,-0.017191171646118164
1772727474305610000,5.04460986328125,0.02495121955871582,-0.060105323791503906,-0.0570216178894043
1772727474315609900,5.05460986328125,-0.0746910572052002,-0.0728759765625,-0.06651973724365234
1772727474325610000,5.06460986328125,-0.03283953666687012,-0.07735157012939453,-0.06031179428100586
1772727474335609900,5.07460986328125,0.032044172286987305,-0.05054664611816406,-0.03706073760986328
1772727474345610000,5.08460986328125,-0.026857376098632812,-0.019744873046875,0.008521080017089844
1772727474355609900,5.09460986328125,-0.13060402870178223,0.040923118591308594,-0.03186345100402832
1772727474365610000,5.10460986328125,0.07495379447937012,0.03307819366455078,0.03835463523864746
1772727474375609900,5.11460986328125,0.12640595436096191,-0.02728271484375,0.1395421028137207
1772727474385610000,5.12460986328125,-0.08015108108520508,0.09589099884033203,-0.06176924705505371
1772727474395609900,5.13460986328125,-0.10770773887634277,0.12000179290771484,-0.1259469985961914
1772727474405610000,5.14460986328125,-0.028211116790771484,0.0035886764526367188,-0.12465262413024902
1772727474415609900,5.15460986328125,0.11829352378845215,-0.06052589416503906,-0.11994171142578125
1772727474425610000,5.16460986328125,0.008147001266479492,-0.03685474395751953,-0.14175844192504883
1772727474435609900,5.17460986328125,-0.11066293716430664,0.032988548278808594,-0.1415262222290039
1772727474445610000,5.18460986328125,-0.11783051490783691,-0.08489322662353516,-0.002794504165649414
1772727474455609900,5.19460986328125,0.007364511489868164,-0.009735107421875,0.06006813049316406
1772727474465610000,5.20460986328125,0.01492452621459961,0.0237274169921875,0.15120673179626465
1772727474475609900,5.21460986328125,0.09198117256164551,0.12968730926513672,0.1720445156097412
1772727474485610000,5.22460986328125,0.06299424171447754,0.05578422546386719,0.06730985641479492
1772727474495609900,5.23460986328125,0.04543876647949219,0.019164085388183594,0.02596735954284668
1772727474505610000,5.24460986328125,-0.09640049934387207,0.04528045654296875,-0.036650657653808594
1772727474515609900,5.25460986328125,-0.10378670692443848,0.03774261474609375,-0.13855433464050293
1772727474525610000,5.26460986328125,0.07919049263000488,-0.04439735412597656,-0.011374950408935547
1772727474535609900,5.27460986328125,0.09405279159545898,-0.07548141479492188,-0.03903341293334961
1772727474545610000,5.28460986328125,0.01444244384765625,-0.19979476928710938,-0.22561240196228027
1772727474555609900,5.29460986328125,-0.04034590721130371,-0.14389324188232422,0.08442950248718262
1772727474565610000,5.30460986328125,0.06338191032409668,-0.0339508056640625,0.3246598243713379
1772727474575609900,5.31460986328125,0.10201025009155273,0.10481548309326172,0.31528568267822266
1772727474585610000,5.32460986328125,0.08206629753112793,0.1852264404296875,0.17477011680603027
1772727474595609900,5.33460986328125,0.006052732467651367,0.18118572235107422,0.06789255142211914
1772727474605610000,5.34460986328125,0.036661386489868164,0.023764610290527344,-0.005907297134399414
1772727474615609900,5.35460986328125,-0.0744779109954834,-0.11791038513183594,-0.0889902114868164
1772727474625610000,5.36460986328125,-0.09499073028564453,-0.11056232452392578,-0.15862441062927246
1772727474635609900,5.37460986328125,-0.04613828659057617,-0.104034423828125,-0.18759822845458984
1772727474645610000,5.38460986328125,0.019003629684448242,-0.08991336822509766,-0.16737103462219238
1772727474655609900,5.39460986328125,-0.01385641098022461,-0.00777435302734375,-0.11577343940734863
1772727474665610000,5.40460986328125,-0.058875322341918945,0.12124156951904297,-0.09203362464904785
1772727474675609900,5.41460986328125,-0.03318595886230469,0.19742202758789062,-0.047223567962646484
1772727474685610000,5.42460986328125,0.09163665771484375,0.2076406478881836,-0.0005886554718017578
1772727474695609900,5.43460986328125,0.13563847541809082,0.15503501892089844,0.03880739212036133
1772727474705610000,5.44460986328125,0.07050061225891113,0.10218238830566406,0.08933615684509277
1772727474715609900,5.45460986328125,-0.0004165172576904297,0.030137062072753906,0.10300683975219727
1772727474725610000,5.46460986328125,-0.005162239074707031,-0.0630035400390625,0.0764927864074707
1772727474735609900,5.47460986328125,-0.0004558563232421875,-0.08844280242919922,-0.03612375259399414
1772727474745610000,5.48460986328125,-0.011548042297363281,-0.10750675201416016,-0.06615066528320312
1772727474755609900,5.49460986328125,-0.024904727935791016,-0.12337875366210938,0.008424043655395508
1772727474765610000,5.50460986328125,-0.05647850036621094,-0.12009620666503906,0.07352685928344727
1772727474775609900,5.51460986328125,-0.06684494018554688,-0.10601425170898438,0.06856513023376465
1772727474785610000,5.52460986328125,-0.05424785614013672,-0.06607341766357422,0.07030582427978516
1772727474795609900,5.53460986328125,-0.050452470779418945,-0.018817901611328125,0.06574749946594238
1772727474805610000,5.54460986328125,-0.03129768371582031,0.005860328674316406,0.05328536033630371
1772727474815609900,5.55460986328125,0.013758420944213867,0.011224746704101562,0.018439769744873047
1772727474825610000,5.56460986328125,0.05647850036621094,-0.033263206481933594,-0.00487971305847168
1772727474835609900,5.57460986328125,0.06709051132202148,-0.06679821014404297,-0.025838375091552734
1772727474845610000,5.58460986328125,0.021933317184448242,-0.06554317474365234,-0.06359410285949707
1772727474855609900,5.59460986328125,0.015227794647216797,-0.02516460418701172,-0.08645868301391602
1772727474865610000,5.60460986328125,-0.010327339172363281,0.04645347595214844,-0.08739161491394043
1772727474875609900,5.61460986328125,-0.014190673828125,0.10433387756347656,-0.08115649223327637
1772727474885610000,5.62460986328125,-0.0032248497009277344,0.1181325912475586,-0.039624691009521484
1772727474895609900,5.63460986328125,0.05381512641906738,0.1256580352783203,0.0540614128112793
1772727474905610000,5.64460986328125,0.044753074645996094,0.0707864761352539,0.020591259002685547
1772727474915609900,5.65460986328125,0.02010965347290039,-0.0501251220703125,-0.021998882293701172
1772727474925610000,5.66460986328125,-0.038820743560791016,-0.12163352966308594,0.014655351638793945
1772727474935609900,5.67460986328125,-0.056201934814453125,-0.083587646484375,0.05534863471984863
1772727474945610000,5.68460986328125,-0.08465147018432617,-0.06609821319580078,0.021243572235107422
1772727474955609900,5.69460986328125,-0.033802032470703125,-0.02922534942626953,-0.017598867416381836
1772727474965610000,5.70460986328125,0.03570055961608887,0.029506683349609375,-0.03540825843811035
1772727474975609900,5.71460986328125,0.046828508377075195,0.009033203125,-0.019140958786010742
1772727474985610000,5.72460986328125,-0.007105588912963867,0.022974014282226562,-0.01987004280090332
1772727474995609900,5.73460986328125,-0.037558794021606445,0.04248523712158203,-0.011052846908569336
1772727475005610000,5.74460986328125,-0.04294991493225098,0.044091224670410156,0.012377500534057617
1772727475015609900,5.75460986328125,0.007838010787963867,0.06235980987548828,0.023607730865478516
1772727475025610000,5.76460986328125,0.025622129440307617,0.058376312255859375,0.016994476318359375
1772727475035609900,5.77460986328125,0.018836021423339844,0.02521038055419922,0.03146862983703613
1772727475045610000,5.78460986328125,0.02028656005859375,-0.0033845901489257812,0.027820348739624023
1772727475055609900,5.79460986328125,0.024808406829833984,-0.015310287475585938,0.01505422592163086
1772727475065610000,5.80460986328125,0.0491480827331543,-0.011260032653808594,-0.008178949356079102
1772727475075609900,5.81460986328125,0.04503965377807617,0.0003204345703125,0.00017380714416503906
1772727475085610000,5.82460986328125,0.021591663360595703,0.01921558380126953,0.03861498832702637
1772727475095609900,5.83460986328125,-0.019634246826171875,0.03290557861328125,0.061121463775634766
1772727475105610000,5.84460986328125,-0.05546069145202637,0.030002593994140625,0.07040166854858398
1772727475115609900,5.85460986328125,-0.03158140182495117,0.02811145782470703,0.05181527137756348
1772727475125610000,5.86460986328125,-0.025957107543945312,0.030213356018066406,0.03689694404602051
1772727475135609900,5.87460986328125,-0.02873969078063965,-0.008985519409179688,-0.01174020767211914
1772727475145610000,5.88460986328125,-0.011322021484375,-0.05463600158691406,-0.049176931381225586
1772727475155609900,5.89460986328125,-0.0026845932006835938,-0.06309223175048828,-0.05777335166931152
1772727475165610000,5.90460986328125,-0.000048160552978515625,-0.04039955139160156,-0.02969193458557129
1772727475175609900,5.91460986328125,-0.002225637435913086,-0.0209808349609375,0.004424095153808594
1772727475185610000,5.92460986328125,0.009344100952148438,0.0049953460693359375,0.015172004699707031
1772727475195609900,5.93460986328125,0.01638960838317871,0.007908821105957031,0.025910139083862305
1772727475205610000,5.94460986328125,-0.0015027523040771484,0.018062591552734375,0.0558779239654541
1772727475215609900,5.95460986328125,-0.0031180381774902344,0.033270835876464844,0.053414344787597656
1772727475225610000,5.96460986328125,0.01602935791015625,0.03997611999511719,0.03520321846008301
1772727475235609900,5.97460986328125,0.029308319091796875,0.013452529907226562,0.005618095397949219
1772727475245610000,5.98460986328125,0.04241442680358887,-0.030054092407226562,-0.038094282150268555
1772727475255609900,5.99460986328125,0.03751373291015625,-0.05640983581542969,-0.07101154327392578
1772727475265610000,6.00460986328125,0.04550909996032715,-0.06836128234863281,-0.07882881164550781
1772727475275609900,6.01460986328125,0.006437063217163086,-0.05589103698730469,-0.04918098449707031
1772727475285610000,6.02460986328125,-0.014428377151489258,-0.0027437210083007812,-0.012890100479125977
1772727475295609900,6.03460986328125,-0.01563715934753418,0.062079429626464844,0.016382932662963867
1772727475305610000,6.04460986328125,0.005479335784912109,0.1013336181640625,0.012804031372070312
1772727475315609900,6.05460986328125,0.003994464874267578,0.08167266845703125,-0.026952505111694336
1772727475325610000,6.06460986328125,-0.01128387451171875,0.03474903106689453,-0.05814933776855469
1772727475335609900,6.07460986328125,0.0003154277801513672,-0.0068359375,-0.025264978408813477
1772727475345610000,6.08460986328125,-0.02067875862121582,-0.034821510314941406,0.02241373062133789
1772727475355609900,6.09460986328125,-0.015982389450073242,-0.056304931640625,0.06936407089233398
1772727475365610000,6.10460986328125,-0.017533540725708008,-0.0723123550415039,0.06288719177246094
1772727475375609900,6.11460986328125,0.021378517150878906,-0.054129600524902344,0.03739023208618164
1772727475385610000,6.12460986328125,-0.0026922225952148438,-0.08233070373535156,-0.020270109176635742
1772727475395609900,6.13460986328125,-0.015873432159423828,-0.03644371032714844,-0.019283056259155273
1772727475405610000,6.14460986328125,-0.04730081558227539,0.02262401580810547,0.0168607234954834
1772727475415609900,6.15460986328125,-0.028107404708862305,0.05655479431152344,0.04305863380432129
1772727475425610000,6.16460986328125,-0.0056493282318115234,0.07880973815917969,0.043271541595458984
1772727475435609900,6.17460986328125,0.02555561065673828,0.060006141662597656,0.01138448715209961
1772727475445610000,6.18460986328125,0.05255436897277832,-0.006739616394042969,-0.08292746543884277
1772727475455609900,6.19460986328125,0.05167412757873535,-0.08510875701904297,-0.09953761100769043
1772727475465610000,6.20460986328125,0.015699148178100586,-0.08865165710449219,-0.11532139778137207
1772727475475609900,6.21460986328125,-0.008644580841064453,-0.07635974884033203,-0.10834836959838867
1772727475485610000,6.22460986328125,-0.0018184185028076172,-0.052524566650390625,-0.05534482002258301
1772727475495609900,6.23460986328125,-0.023372650146484375,0.026737213134765625,-0.0561525821685791
1772727475505610000,6.24460986328125,-0.048989295959472656,0.09159088134765625,-0.06564736366271973
1772727475515609900,6.25460986328125,-0.05202054977416992,0.1486959457397461,-0.0302581787109375
1772727475525610000,6.26460986328125,-0.0014622211456298828,0.14164257049560547,0.018506765365600586
1772727475535609900,6.27460986328125,0.02641606330871582,0.11017322540283203,0.05117297172546387
1772727475545610000,6.28460986328125,0.04696536064147949,0.062320709228515625,0.09502291679382324
1772727475555609900,6.29460986328125,0.0015327930450439453,-0.002941131591796875,0.07930445671081543
1772727475565610000,6.30460986328125,-0.05369162559509277,-0.0823831558227539,0.04244112968444824
1772727475575609900,6.31460986328125,-0.025819063186645508,-0.11359119415283203,0.07146763801574707
1772727475585610000,6.32460986328125,-0.09207963943481445,-0.12172985076904297,0.04099440574645996
1772727475595609900,6.33460986328125,-0.060822248458862305,-0.03929710388183594,0.09955024719238281
1772727475605610000,6.34460986328125,-0.07202792167663574,0.008688926696777344,0.13971257209777832
1772727475615609900,6.35460986328125,-0.019810914993286133,0.03659629821777344,0.08455848693847656
1772727475625610000,6.36460986328125,0.01916193962097168,0.05207347869873047,0.009947776794433594
1772727475635609900,6.37460986328125,0.037631988525390625,0.04327964782714844,-0.052542686462402344
1772727475645610000,6.38460986328125,0.0030372142791748047,0.02783489227294922,-0.1190493106842041
1772727475655609900,6.39460986328125,0.010004520416259766,0.02365875244140625,-0.11014151573181152
1772727475665610000,6.40460986328125,-0.02060866355895996,0.009404182434082031,-0.10844659805297852
1772727475675609900,6.41460986328125,-0.018895387649536133,0.026505470275878906,-0.08707022666931152
1772727475685610000,6.42460986328125,-0.0009522438049316406,0.009722709655761719,-0.03690624237060547
1772727475695609900,6.43460986328125,0.008410930633544922,-0.006569862365722656,-0.042276620864868164
1772727475705610000,6.44460986328125,0.004258632659912109,-0.020641326904296875,-0.028430700302124023
1772727475715609900,6.45460986328125,0.007653713226318359,-0.02155303955078125,0.00716090202331543
1772727475725610000,6.46460986328125,0.018609046936035156,-0.011175155639648438,0.07971811294555664
1772727475735609900,6.47460986328125,0.00231170654296875,0.030259132385253906,0.1299610137939453
1772727475745610000,6.48460986328125,-0.023874282836914062,0.01786518096923828,0.11437392234802246
1772727475755609900,6.49460986328125,-0.06452083587646484,0.008691787719726562,0.06596207618713379
1772727475765610000,6.50460986328125,-0.03718161582946777,0.000209808349609375,0.009408235549926758
1772727475775609900,6.51460986328125,-0.011989116668701172,0.0015010833740234375,-0.05158567428588867
1772727475785610000,6.52460986328125,-0.00564122200012207,-0.005414009094238281,-0.07852578163146973
1772727475795609900,6.53460986328125,-0.008166790008544922,0.024890899658203125,-0.04387712478637695
1772727475805610000,6.54460986328125,0.009905815124511719,0.018546104431152344,-0.03137087821960449
1772727475815609900,6.55460986328125,0.057697296142578125,0.015962600708007812,0.007306337356567383
1772727475825610000,6.56460986328125,0.08191037178039551,0.00489044189453125,0.03193092346191406
1772727475835609900,6.57460986328125,0.053282976150512695,-0.004809379577636719,0.029641389846801758
1772727475845610000,6.58460986328125,0.0229949951171875,-0.018756866455078125,0.03415679931640625
1772727475855609900,6.59460986328125,-0.006623983383178711,-0.046736717224121094,0.015583515167236328
1772727475865610000,6.60460986328125,-0.007926702499389648,-0.07061576843261719,-0.017012596130371094
1772727475875609900,6.61460986328125,0.008773088455200195,-0.07383441925048828,-0.05479884147644043
1772727475885610000,6.62460986328125,0.030999422073364258,-0.057633399963378906,-0.11222434043884277
1772727475895609900,6.63460986328125,0.04623675346374512,-0.031232833862304688,-0.13112115859985352
1772727475905610000,6.64460986328125,0.03762698173522949,0.006396293640136719,-0.1469895839691162
1772727475915609900,6.65460986328125,0.018330097198486328,0.04034900665283203,-0.09791779518127441
1772727475925610000,6.66460986328125,-0.014964818954467773,0.08127212524414062,0.016868114471435547
1772727475935609900,6.67460986328125,-0.029663801193237305,0.08175182342529297,0.08310055732727051
1772727475945610000,6.68460986328125,-0.014580488204956055,0.048201560974121094,0.07777190208435059
1772727475955609900,6.69460986328125,0.007962465286254883,-0.01958751678466797,0.07255816459655762
1772727475965610000,6.70460986328125,0.029827594757080078,-0.07723712921142578,0.06338214874267578
1772727475975609900,6.71460986328125,0.02264094352722168,-0.12811851501464844,0.05374503135681152
1772727475985610000,6.72460986328125,0.018749475479125977,-0.1218719482421875,0.0631411075592041
1772727475995609900,6.73460986328125,-0.013519763946533203,-0.06642627716064453,0.05466198921203613
1772727476005610000,6.74460986328125,-0.032861948013305664,-0.021035194396972656,0.03190946578979492
1772727476015609900,6.75460986328125,-0.04325556755065918,0.034155845642089844,-0.003971576690673828
1772727476025610000,6.76460986328125,-0.03187131881713867,0.06961631774902344,-0.04029059410095215
1772727476035609900,6.77460986328125,0.01301121711730957,0.08450984954833984,-0.05927610397338867
1772727476045610000,6.78460986328125,0.03343915939331055,0.07132244110107422,-0.06072378158569336
1772727476055609900,6.79460986328125,0.042654991149902344,0.034134864807128906,-0.06817770004272461
1772727476065610000,6.80460986328125,0.012905597686767578,-0.025163650512695312,-0.06586360931396484
1772727476075609900,6.81460986328125,-0.003529071807861328,-0.032550811767578125,-0.012704133987426758
1772727476085610000,6.82460986328125,-0.020418882369995117,-0.019681930541992188,0.03983783721923828
1772727476095609900,6.83460986328125,-0.0077974796295166016,0.0037784576416015625,0.09440970420837402
1772727476105610000,6.84460986328125,0.0012776851654052734,0.021825790405273438,0.10664749145507812
1772727476115609900,6.85460986328125,0.02031707763671875,0.04012870788574219,0.05064082145690918
1772727476125610000,6.86460986328125,0.04720568656921387,0.014842987060546875,-0.023190736770629883
1772727476135609900,6.87460986328125,0.03188180923461914,0.0033521652221679688,-0.05643057823181152
1772727476145610000,6.88460986328125,-0.05498695373535156,0.00039005279541015625,-0.04596352577209473
1772727476155609900,6.89460986328125,-0.10631036758422852,0.0063877105712890625,-0.01681685447692871
1772727476165610000,6.90460986328125,-0.12254524230957031,0.029938697814941406,0.020392179489135742
1772727476175609900,6.91460986328125,-0.10607028007507324,0.06478691101074219,0.06055808067321777
1772727476185610000,6.92460986328125,-0.037120819091796875,0.0759267807006836,0.05307626724243164
1772727476195609900,6.93460986328125,-0.009406805038452148,0.05502510070800781,0.01581120491027832
1772727476205610000,6.94460986328125,0.02833104133605957,0.0028057098388671875,-0.022426605224609375
1772727476215609900,6.95460986328125,0.02622818946838379,-0.05342864990234375,-0.023789405822753906
1772727476225610000,6.96460986328125,0.031469106674194336,-0.07888126373291016,-0.010998964309692383
1772727476235609900,6.97460986328125,0.01783895492553711,-0.07516670227050781,0.011997461318969727
1772727476245610000,6.98460986328125,-0.01085519790649414,-0.05189990997314453,0.0026154518127441406
1772727476255609900,6.99460986328125,-0.0305020809173584,0.011054039001464844,0.021144390106201172
1772727476265610000,7.00460986328125,-0.03109908103942871,0.07136917114257812,0.020261764526367188
1772727476275609900,7.01460986328125,-0.02700328826904297,0.10823345184326172,-0.007600307464599609
1772727476285610000,7.02460986328125,0.027034997940063477,0.10300445556640625,-0.05320262908935547
1772727476295609900,7.03460986328125,0.03824591636657715,0.07216930389404297,-0.1006622314453125
1772727476305610000,7.04460986328125,0.052399396896362305,0.023077964782714844,-0.11020135879516602
1772727476315609900,7.05460986328125,0.003316640853881836,-0.02689361572265625,-0.07516694068908691
1772727476325610000,7.06460986328125,0.004221200942993164,-0.049378395080566406,-0.03819012641906738
1772727476335609900,7.07460986328125,-0.038520097732543945,-0.052672386169433594,-0.0008399486541748047
1772727476345610000,7.08460986328125,-0.04139566421508789,-0.05541038513183594,0.0670163631439209
1772727476355609900,7.09460986328125,-0.04174399375915527,-0.04911613464355469,0.09671378135681152
1772727476365610000,7.10460986328125,0.018619775772094727,-0.00965118408203125,0.10190510749816895
1772727476375609900,7.11460986328125,0.05839872360229492,0.018152236938476562,0.06723976135253906
1772727476385610000,7.12460986328125,0.018554210662841797,0.029363632202148438,0.04950284957885742
1772727476395609900,7.13460986328125,-0.028486013412475586,0.0029163360595703125,0.008225440979003906
1772727476405610000,7.14460986328125,-0.03144431114196777,-0.023621559143066406,-0.04628586769104004
1772727476415609900,7.15460986328125,-0.020481348037719727,-0.024684906005859375,-0.08563613891601562
1772727476425610000,7.16460986328125,0.024782896041870117,-0.040874481201171875,-0.08017849922180176
1772727476435609900,7.17460986328125,0.01703619956970215,-0.0727071762084961,-0.06436300277709961
1772727476445610000,7.18460986328125,0.03114151954650879,-0.08024883270263672,-0.026546955108642578
1772727476455609900,7.19460986328125,0.027153491973876953,-0.0651407241821289,0.00808262825012207
1772727476465610000,7.20460986328125,0.004803657531738281,-0.04491138458251953,0.02049422264099121
1772727476475609900,7.21460986328125,0.010445594787597656,-0.005428314208984375,0.009679079055786133
1772727476485610000,7.22460986328125,0.010909318923950195,0.027962684631347656,0.012270450592041016
1772727476495609900,7.23460986328125,0.0447850227355957,0.05637836456298828,0.022317886352539062
1772727476505610000,7.24460986328125,0.05514836311340332,0.037929534912109375,0.007652759552001953
1772727476515609900,7.25460986328125,0.0464930534362793,-0.0028333663940429688,-0.032381296157836914
1772727476525610000,7.26460986328125,0.03586840629577637,-0.04693889617919922,-0.06463050842285156
1772727476535609900,7.27460986328125,0.02533435821533203,-0.07761192321777344,-0.0685422420501709
1772727476545610000,7.28460986328125,0.01095724105834961,-0.05989837646484375,-0.01411890983581543
1772727476555609900,7.29460986328125,-0.01446676254272461,-0.012609481811523438,0.07180929183959961
1772727476565610000,7.30460986328125,-0.0496370792388916,0.031767845153808594,0.1390531063079834
1772727476575609900,7.31460986328125,0.016766786575317383,0.060059547424316406,0.13141655921936035
1772727476585610000,7.32460986328125,0.05601620674133301,0.061397552490234375,0.059946537017822266
1772727476595609900,7.33460986328125,0.05243992805480957,0.03032684326171875,-0.0071315765380859375
1772727476605610000,7.34460986328125,0.017199277877807617,-0.04133319854736328,-0.04944109916687012
1772727476615609900,7.35460986328125,0.006381034851074219,-0.0843038558959961,-0.06318187713623047
1772727476625610000,7.36460986328125,-0.005609750747680664,-0.10106945037841797,-0.06743144989013672
1772727476635609900,7.37460986328125,-0.027448177337646484,-0.050017356872558594,-0.06732797622680664
1772727476645610000,7.38460986328125,-0.01793217658996582,0.017665863037109375,-0.019159317016601562
1772727476655609900,7.39460986328125,-0.007112979888916016,0.07143878936767578,0.03207278251647949
1772727476665610000,7.40460986328125,0.01936030387878418,0.12337017059326172,0.05750584602355957
1772727476675609900,7.41460986328125,0.03857064247131348,0.12386703491210938,0.03237795829772949
1772727476685610000,7.42460986328125,0.025577783584594727,0.09294414520263672,0.005551815032958984
1772727476695609900,7.43460986328125,0.0077054500579833984,0.026250839233398438,-0.031935930252075195
1772727476705610000,7.44460986328125,-0.0072748661041259766,-0.022396087646484375,-0.0315091609954834
1772727476715609900,7.45460986328125,-0.008106708526611328,-0.04496574401855469,-0.017527103424072266
1772727476725610000,7.46460986328125,-0.006779193878173828,-0.05445098876953125,-0.00428462028503418
1772727476735609900,7.47460986328125,0.023716211318969727,-0.04806709289550781,-0.030242919921875
1772727476745610000,7.48460986328125,0.043764352798461914,-0.013753890991210938,-0.05132651329040527
1772727476755609900,7.49460986328125,0.023068666458129883,0.036345481872558594,-0.035890817642211914
1772727476765610000,7.50460986328125,-0.045279502868652344,0.06736564636230469,0.0160677433013916
1772727476775609900,7.51460986328125,-0.06940340995788574,0.06594562530517578,0.0878138542175293
1772727476785610000,7.52460986328125,-0.07389974594116211,0.04278755187988281,0.07408857345581055
1772727476795609900,7.53460986328125,-0.05013561248779297,0.0070343017578125,0.023120880126953125
1772727476805610000,7.54460986328125,-0.005098104476928711,-0.018179893493652344,-0.03257274627685547
1772727476815609900,7.55460986328125,0.036318302154541016,-0.046031951904296875,-0.03577613830566406
1772727476825610000,7.56460986328125,0.019956111907958984,-0.06797409057617188,-0.023833513259887695
1772727476835609900,7.57460986328125,0.015062808990478516,-0.03606414794921875,0.007230520248413086
1772727476845610000,7.58460986328125,0.007422447204589844,0.018378257751464844,0.023036479949951172
1772727476855609900,7.59460986328125,-0.005854129791259766,0.049224853515625,0.06835627555847168
1772727476865610000,7.60460986328125,-0.009981632232666016,0.053646087646484375,0.07221126556396484
1772727476875609900,7.61460986328125,0.010335206985473633,0.03222942352294922,0.027857542037963867
1772727476885610000,7.62460986328125,0.023975133895874023,-0.020778656005859375,-0.0328526496887207
1772727476895609900,7.63460986328125,0.004789829254150391,-0.053917884826660156,-0.09020853042602539
1772727476905610000,7.64460986328125,-0.04754328727722168,-0.04378032684326172,-0.08172988891601562
1772727476915609900,7.65460986328125,-0.05298137664794922,0.0021953582763671875,-0.04365825653076172
1772727476925610000,7.66460986328125,-0.009467601776123047,0.09218025207519531,0.01565861701965332
1772727476935609900,7.67460986328125,0.021984577178955078,0.12320995330810547,0.05478239059448242
1772727476945610000,7.68460986328125,0.06351399421691895,0.08506011962890625,0.021221160888671875
1772727476955609900,7.69460986328125,0.06624841690063477,0.004193305969238281,-0.026531457901000977
1772727476965610000,7.70460986328125,0.05314445495605469,-0.07204246520996094,-0.0576472282409668
1772727476975609900,7.71460986328125,-0.018715858459472656,-0.11199283599853516,-0.011386632919311523
1772727476985610000,7.72460986328125,-0.06872272491455078,-0.12274360656738281,0.0845496654510498
1772727476995609900,7.73460986328125,-0.08928561210632324,-0.09994220733642578,0.13109755516052246
1772727477005610000,7.74460986328125,-0.05292320251464844,-0.03726673126220703,0.12558245658874512
1772727477015609900,7.75460986328125,-0.01971125602722168,0.022027015686035156,0.08585429191589355
1772727477025610000,7.76460986328125,0.007627248764038086,0.053802490234375,0.011404991149902344
1772727477035609900,7.77460986328125,0.04667496681213379,0.052178382873535156,-0.0943608283996582
1772727477045610000,7.78460986328125,0.004744529724121094,0.0019073486328125,-0.14598917961120605
1772727477055609900,7.79460986328125,-0.024281740188598633,-0.018922805786132812,-0.12447023391723633
1772727477065610000,7.80460986328125,-0.023460865020751953,-0.04884052276611328,-0.10761857032775879
1772727477075609900,7.81460986328125,0.004674196243286133,-0.06665706634521484,-0.07322406768798828
1772727477085610000,7.82460986328125,-0.020702838897705078,-0.035152435302734375,-0.020280838012695312
1772727477095609900,7.83460986328125,-0.02720022201538086,0.019606590270996094,0.0432124137878418
1772727477105610000,7.84460986328125,0.006026506423950195,0.061316490173339844,0.07154154777526855
1772727477115609900,7.85460986328125,0.050264835357666016,0.07161998748779297,0.04852461814880371
1772727477125610000,7.86460986328125,0.054100990295410156,0.04387187957763672,0.03444409370422363
1772727477135609900,7.87460986328125,0.04027676582336426,0.00030612945556640625,0.023652076721191406
1772727477145610000,7.88460986328125,0.028474807739257812,-0.026328086853027344,0.008546829223632812
1772727477155609900,7.89460986328125,0.04127359390258789,-0.03235626220703125,-0.039197683334350586
1772727477165610000,7.90460986328125,0.023960590362548828,0.0034112930297851562,-0.0585019588470459
1772727477175609900,7.91460986328125,-0.005520343780517578,0.03596210479736328,-0.04262065887451172
1772727477185610000,7.92460986328125,-0.06009984016418457,0.04228973388671875,0.0065457820892333984
1772727477195609900,7.93460986328125,-0.07216382026672363,0.04656028747558594,0.04655957221984863
1772727477205610000,7.94460986328125,-0.025821685791015625,0.040409088134765625,0.05057835578918457
1772727477215609900,7.95460986328125,0.01988387107849121,0.011576652526855469,0.046207427978515625
1772727477225610000,7.96460986328125,0.0549473762512207,-0.00250244140625,0.03135085105895996
1772727477235609900,7.97460986328125,0.04067397117614746,-0.048674583435058594,0.0033750534057617188
1772727477245610000,7.98460986328125,0.012166738510131836,-0.06693840026855469,-0.015819311141967773
1772727477255609900,7.99460986328125,-0.020694971084594727,-0.053824424743652344,-0.015938758850097656
1772727477265610000,8.00460986328125,-0.0357511043548584,-0.027349472045898438,-0.005122661590576172
1772727477275609900,8.01460986328125,-0.02953505516052246,-0.0038518905639648438,0.030247926712036133
1772727477285610000,8.02460986328125,-0.027998685836791992,0.02386951446533203,0.030768394470214844
1772727477295609900,8.03460986328125,0.012358665466308594,0.01929473876953125,-0.008641481399536133
1772727477305610000,8.04460986328125,0.02774810791015625,0.018201828002929688,-0.04992270469665527
1772727477315609900,8.05460986328125,0.030800580978393555,0.027406692504882812,-0.05081367492675781
1772727477325610000,8.06460986328125,-0.003047466278076172,0.03898811340332031,-0.019858360290527344
1772727477335609900,8.07460986328125,-0.01817178726196289,0.05150318145751953,0.008214235305786133
1772727477345610000,8.08460986328125,-0.0221254825592041,0.05151081085205078,0.019707679748535156
1772727477355609900,8.09460986328125,-0.016223907470703125,0.061179161071777344,-0.013430118560791016
1772727477365610000,8.10460986328125,-0.008656024932861328,0.053168296813964844,-0.0241546630859375
1772727477375609900,8.11460986328125,-0.007947444915771484,0.0005693435668945312,-0.0356905460357666
1772727477385610000,8.12460986328125,0.005419015884399414,-0.04492473602294922,-0.008091211318969727
1772727477395609900,8.13460986328125,-0.012437105178833008,-0.05173778533935547,0.04237484931945801
1772727477405610000,8.14460986328125,-0.0030159950256347656,-0.015260696411132812,0.12900424003601074
1772727477415609900,8.15460986328125,0.020962953567504883,-0.0029735565185546875,0.12472105026245117
1772727477425610000,8.16460986328125,0.024998188018798828,0.0174560546875,0.12131953239440918
1772727477435609900,8.17460986328125,-0.008814573287963867,0.043659210205078125,0.06965184211730957
1772727477445610000,8.18460986328125,-0.017333984375,0.047260284423828125,-0.011826038360595703
1772727477455609900,8.19460986328125,-0.024725675582885742,0.04943656921386719,-0.11434555053710938
1772727477465610000,8.20460986328125,-0.037672996520996094,0.0390777587890625,-0.1766345500946045
1772727477475609900,8.21460986328125,-0.041060447692871094,0.017156600952148438,-0.1814713478088379
1772727477485610000,8.22460986328125,-0.019481658935546875,0.005703926086425781,-0.15001249313354492
1772727477495609900,8.23460986328125,-0.008141040802001953,-0.012264251708984375,-0.07140183448791504
1772727477505610000,8.24460986328125,0.011457681655883789,0.013510704040527344,0.019733905792236328
1772727477515609900,8.25460986328125,0.02161717414855957,0.0387115478515625,0.13575029373168945
1772727477525610000,8.26460986328125,0.01909947395324707,0.060543060302734375,0.19038081169128418
1772727477535609900,8.27460986328125,0.02941417694091797,0.03882884979248047,0.1754295825958252
1772727477545610000,8.28460986328125,0.056642770767211914,-0.0062713623046875,0.12139368057250977
1772727477555609900,8.29460986328125,0.05249667167663574,-0.05413341522216797,0.017787456512451172
1772727477565610000,8.30460986328125,-0.016082048416137695,-0.06823921203613281,-0.06024312973022461
1772727477575609900,8.31460986328125,-0.06733393669128418,-0.0627584457397461,-0.11071467399597168
1772727477585610000,8.32460986328125,-0.04692387580871582,-0.0619049072265625,-0.16223573684692383
1772727477595609900,8.33460986328125,-0.007828950881958008,-0.03211784362792969,-0.14890766143798828
1772727477605610000,8.34460986328125,-0.00408172607421875,0.048071861267089844,-0.0735628604888916
1772727477615609900,8.35460986328125,-0.024564743041992188,0.08270072937011719,0.01584625244140625
1772727477625610000,8.36460986328125,0.013651847839355469,0.061392784118652344,0.050745487213134766
1772727477635609900,8.37460986328125,0.041909217834472656,0.018921852111816406,0.06617259979248047
1772727477645610000,8.38460986328125,0.0213468074798584,-0.014815330505371094,0.04203057289123535
1772727477655609900,8.39460986328125,-0.03148484230041504,-0.03877544403076172,0.029544591903686523
1772727477665610000,8.40460986328125,-0.02771925926208496,-0.056954383850097656,0.011815309524536133
1772727477675609900,8.41460986328125,0.006482601165771484,-0.055034637451171875,0.008131742477416992
1772727477685610000,8.42460986328125,0.022552013397216797,-0.03161811828613281,-0.031151533126831055
1772727477695609900,8.43460986328125,0.011562585830688477,-0.03655242919921875,-0.036364078521728516
1772727477705610000,8.44460986328125,0.003007650375366211,-0.04738616943359375,0.0011737346649169922
1772727477715609900,8.45460986328125,-0.005105495452880859,-0.023365020751953125,0.027010679244995117
1772727477725610000,8.46460986328125,-0.012669086456298828,-0.013868331909179688,0.03594541549682617
1772727477735609900,8.47460986328125,-0.022364139556884766,0.0013208389282226562,0.029923200607299805
1772727477745610000,8.48460986328125,-0.022275924682617188,0.0062961578369140625,0.015372753143310547
1772727477755609900,8.49460986328125,-0.02723217010498047,0.003912925720214844,-0.006644487380981445
1772727477765610000,8.50460986328125,0.009098291397094727,0.005657196044921875,-0.017160892486572266
1772727477775609900,8.51460986328125,0.02355051040649414,-0.00127410888671875,-0.016861438751220703
1772727477785610000,8.52460986328125,0.034885406494140625,-0.025054931640625,-0.03853321075439453
1772727477795609900,8.53460986328125,0.03816676139831543,-0.011577606201171875,-0.0793313980102539
1772727477805610000,8.54460986328125,0.018530845642089844,0.0038461685180664062,-0.07384562492370605
1772727477815609900,8.55460986328125,-0.02456831932067871,0.0013093948364257812,-0.01970195770263672
1772727477825610000,8.56460986328125,-0.03963422775268555,0.015486717224121094,0.026549816131591797
1772727477835609900,8.57460986328125,-0.04230856895446777,0.009367942810058594,0.049867868423461914
1772727477845610000,8.58460986328125,-0.01927351951599121,0.01897716522216797,0.05230093002319336
1772727477855609900,8.59460986328125,0.010703086853027344,0.013111114501953125,0.07477307319641113
1772727477865610000,8.60460986328125,0.023621559143066406,-0.02762603759765625,0.0742034912109375
1772727477875609900,8.61460986328125,0.028793811798095703,-0.0432281494140625,0.04875016212463379
1772727477885610000,8.62460986328125,0.020113468170166016,-0.05318260192871094,-0.010010719299316406
1772727477895609900,8.63460986328125,-0.08717131614685059,-0.027367591857910156,0.022206783294677734
1772727477905610000,8.64460986328125,-0.0848536491394043,0.02444171905517578,0.053411006927490234
1772727477915609900,8.65460986328125,0.008821964263916016,0.020059585571289062,0.026857614517211914
1772727477925610000,8.66460986328125,0.059018850326538086,0.013962745666503906,-0.0636284351348877
1772727477935609900,8.67460986328125,0.007111310958862305,0.017482757568359375,-0.12347078323364258
1772727477945610000,8.68460986328125,-0.019952058792114258,0.012852668762207031,-0.1319255828857422
1772727477955609900,8.69460986328125,-0.02632284164428711,-0.006381034851074219,-0.11289715766906738
1772727477965610000,8.70460986328125,-0.014552831649780273,0.014722824096679688,-0.06987285614013672
1772727477975609900,8.71460986328125,-0.004904747009277344,0.0658721923828125,0.0266873836517334
1772727477985610000,8.72460986328125,0.019736528396606445,0.062957763671875,0.07778334617614746
1772727477995609900,8.73460986328125,0.055572509765625,-0.000202178955078125,0.0717165470123291
1772727478005610000,8.74460986328125,0.06143832206726074,-0.06095600128173828,0.04505014419555664
1772727478015609900,8.75460986328125,0.038268327713012695,-0.1048269271850586,-0.00041413307189941406
1772727478025610000,8.76460986328125,0.008467435836791992,-0.07747268676757812,0.03974103927612305
1772727478035609900,8.77460986328125,-0.03794384002685547,-0.027950286865234375,0.10431861877441406
1772727478045610000,8.78460986328125,-0.07102632522583008,0.022981643676757812,0.11111974716186523
1772727478055609900,8.79460986328125,-0.040814876556396484,0.05321693420410156,0.03606414794921875
1772727478065610000,8.80460986328125,-0.0005643367767333984,0.060924530029296875,-0.05115079879760742
1772727478075609900,8.81460986328125,0.015934228897094727,0.03371620178222656,-0.08449125289916992
1772727478085610000,8.82460986328125,0.03105640411376953,-0.02611541748046875,-0.08316898345947266
1772727478095609900,8.83460986328125,0.00748443603515625,-0.08420181274414062,-0.08715605735778809
1772727478105610000,8.84460986328125,-0.020119667053222656,-0.09489154815673828,-0.09250950813293457
1772727478115609900,8.85460986328125,-0.05257916450500488,-0.08222103118896484,-0.058089494705200195
1772727478125610000,8.86460986328125,-0.04653668403625488,-0.04666614532470703,-0.011964559555053711
1772727478135609900,8.87460986328125,0.018541574478149414,-0.013278007507324219,0.04421210289001465
1772727478145610000,8.88460986328125,0.05728650093078613,0.03637504577636719,0.06399917602539062
1772727478155609900,8.89460986328125,0.07161974906921387,0.03991508483886719,0.04068756103515625
1772727478165610000,8.90460986328125,0.05760908126831055,0.03834056854248047,0.0006444454193115234
1772727478175609900,8.91460986328125,0.04543757438659668,0.012441635131835938,-0.043764591217041016
1772727478185610000,8.92460986328125,0.019558429718017578,-0.008057594299316406,-0.05127096176147461
1772727478195609900,8.93460986328125,-0.026486873626708984,-0.03820037841796875,-0.027956008911132812
1772727478205610000,8.94460986328125,-0.022956371307373047,-0.03931999206542969,0.0035703182220458984
1772727478215609900,8.95460986328125,0.016762971878051758,-0.03354072570800781,-0.019258737564086914
1772727478225610000,8.96460986328125,0.0742790699005127,-0.019644737243652344,-0.038268089294433594
1772727478235609900,8.97460986328125,0.07295465469360352,-0.02169513702392578,-0.0023908615112304688
1772727478245610000,8.98460986328125,0.0034499168395996094,-0.015842437744140625,0.06580352783203125
1772727478255609900,8.99460986328125,-0.03816938400268555,-0.004282951354980469,0.13097286224365234
1772727478265610000,9.00460986328125,-0.04742264747619629,0.0057621002197265625,0.15221095085144043
1772727478275609900,9.01460986328125,-0.022696971893310547,0.04076957702636719,0.12100815773010254
1772727478285610000,9.02460986328125,-0.002970457077026367,0.04487323760986328,0.02995753288269043
1772727478295609900,9.03460986328125,0.016834259033203125,0.012578964233398438,-0.05880260467529297
1772727478305610000,9.04460986328125,0.050124406814575195,-0.036353111267089844,-0.09470987319946289
1772727478315609900,9.05460986328125,0.028001785278320312,-0.07494926452636719,-0.10675573348999023
1772727478325610000,9.06460986328125,-0.024770021438598633,-0.08448314666748047,-0.08853268623352051
1772727478335609900,9.07460986328125,-0.04684042930603027,-0.03864860534667969,-0.02383565902709961
1772727478345610000,9.08460986328125,-0.014186859130859375,0.026737213134765625,0.03170919418334961
1772727478355609900,9.09460986328125,0.006976604461669922,0.058114051818847656,0.059328556060791016
1772727478365610000,9.10460986328125,0.017702102661132812,0.08024215698242188,0.0435795783996582
1772727478375609900,9.11460986328125,0.029387950897216797,0.06044578552246094,-0.018024206161499023
1772727478385610000,9.12460986328125,0.04033350944519043,0.03432750701904297,-0.05273723602294922
1772727478395609900,9.13460986328125,0.04710197448730469,0.010102272033691406,-0.046135902404785156
1772727478405610000,9.14460986328125,0.016272306442260742,-0.018915176391601562,-0.03955984115600586
1772727478415609900,9.15460986328125,-0.0005285739898681641,-0.04839324951171875,-0.018217802047729492
1772727478425610000,9.16460986328125,-0.014662981033325195,-0.07681941986083984,-0.02291274070739746
1772727478435609900,9.17460986328125,-0.01650214195251465,-0.048035621643066406,0.004995107650756836
1772727478445610000,9.18460986328125,-0.017246723175048828,-0.01699352264404297,0.057984113693237305
1772727478455609900,9.19460986328125,-0.03364706039428711,0.026085853576660156,0.08884310722351074
1772727478465610000,9.20460986328125,-0.03629159927368164,0.05249214172363281,0.06851935386657715
1772727478475609900,9.21460986328125,-0.05473613739013672,0.06999969482421875,0.05402493476867676
1772727478485610000,9.22460986328125,-0.034850120544433594,0.059978485107421875,0.039116859436035156
1772727478495609900,9.23460986328125,-0.016184091567993164,0.03550910949707031,-0.008633136749267578
1772727478505610000,9.24460986328125,-0.007711648941040039,0.007781028747558594,-0.051024675369262695
1772727478515609900,9.25460986328125,-0.031099796295166016,-0.03988838195800781,-0.08132338523864746
1772727478525610000,9.26460986328125,-0.03522920608520508,-0.05141162872314453,-0.06778526306152344
1772727478535609900,9.27460986328125,-0.023078441619873047,-0.029242515563964844,-0.02777862548828125
1772727478545610000,9.28460986328125,-0.009244918823242188,-0.0004787445068359375,0.006590366363525391
1772727478555609900,9.29460986328125,-0.012684822082519531,0.020053863525390625,0.04411792755126953
1772727478565610000,9.30460986328125,-0.004398822784423828,0.04009819030761719,0.04514050483703613
1772727478575609900,9.31460986328125,0.041533708572387695,0.036049842834472656,0.020030736923217773
1772727478585610000,9.32460986328125,0.07123088836669922,0.037962913513183594,-0.0383610725402832
1772727478595609900,9.33460986328125,0.043369293212890625,0.027306556701660156,-0.06598544120788574
1772727478605610000,9.34460986328125,-0.01607990264892578,0.015551567077636719,-0.030330896377563477
1772727478615609900,9.35460986328125,-0.04712700843811035,0.013250350952148438,0.009063005447387695
1772727478625610000,9.36460986328125,-0.03642630577087402,0.015583992004394531,-0.0021820068359375
1772727478635609900,9.37460986328125,0.0049250125885009766,0.02860260009765625,-0.04765486717224121
1772727478645610000,9.38460986328125,0.036658525466918945,0.02399730682373047,-0.07597923278808594
1772727478655609900,9.39460986328125,0.029772281646728516,0.013721466064453125,-0.02443695068359375
1772727478665610000,9.40460986328125,-0.006453275680541992,-0.00672149658203125,0.02810382843017578
1772727478675609900,9.41460986328125,-0.03467106819152832,-0.014675140380859375,0.04779338836669922
1772727478685610000,9.42460986328125,-0.0034465789794921875,-0.0001392364501953125,0.10611510276794434
1772727478695609900,9.43460986328125,0.007946968078613281,0.021360397338867188,0.15284991264343262
1772727478705610000,9.44460986328125,0.03985142707824707,0.02606964111328125,0.12354755401611328
1772727478715609900,9.45460986328125,0.017700672149658203,-0.019265174865722656,0.03363943099975586
1772727478725610000,9.46460986328125,0.007037639617919922,-0.04781627655029297,-0.057950496673583984
1772727478735609900,9.47460986328125,-0.01186513900756836,-0.05022239685058594,-0.07435059547424316
1772727478745610000,9.48460986328125,-0.0017828941345214844,-0.021302223205566406,-0.07631826400756836
1772727478755609900,9.49460986328125,-0.0044062137603759766,0.0009670257568359375,-0.06834077835083008
1772727478765610000,9.50460986328125,-0.034830331802368164,0.012319564819335938,-0.07356381416320801
1772727478775609900,9.51460986328125,-0.02620553970336914,0.01835155487060547,-0.04483771324157715
1772727478785610000,9.52460986328125,0.015990018844604492,0.019287109375,-0.0043125152587890625
1772727478795609900,9.53460986328125,0.05760383605957031,0.008893013000488281,0.006139993667602539
1772727478805610000,9.54460986328125,0.04885673522949219,0.010021209716796875,0.024422168731689453
1772727478815609900,9.55460986328125,0.03404998779296875,-0.012938499450683594,0.04025745391845703
1772727478825610000,9.56460986328125,0.009022712707519531,-0.06014442443847656,0.03670620918273926
1772727478835609900,9.57460986328125,-0.0033102035522460938,-0.06141090393066406,0.02859950065612793
1772727478845610000,9.58460986328125,-0.01543426513671875,-0.02213573455810547,-0.011859416961669922
1772727478855609900,9.59460986328125,-0.007278919219970703,-0.00026988983154296875,-0.04164433479309082
1772727478865610000,9.60460986328125,-0.019548416137695312,0.008710861206054688,-0.02969074249267578
1772727478875609900,9.61460986328125,-0.059560298919677734,0.02923297882080078,-0.01703619956970215
1772727478885610000,9.62460986328125,-0.063140869140625,0.025804519653320312,0.009929180145263672
1772727478895609900,9.63460986328125,-0.012088775634765625,0.020360946655273438,0.0028591156005859375
1772727478905610000,9.64460986328125,0.02086782455444336,-0.035213470458984375,0.03348898887634277
1772727478915609900,9.65460986328125,0.009649038314819336,-0.06811237335205078,-0.007487773895263672
1772727478925610000,9.66460986328125,-0.050310373306274414,-0.07945728302001953,-0.04183816909790039
1772727478935609900,9.67460986328125,-0.02983713150024414,0.0022287368774414062,-0.005997419357299805
1772727478945610000,9.68460986328125,0.016471385955810547,-0.0066928863525390625,0.03359675407409668
1772727478955609900,9.69460986328125,0.03983139991760254,-0.015402793884277344,0.022835493087768555
1772727478965610000,9.70460986328125,-0.004554271697998047,0.024178504943847656,-0.012529134750366211
1772727478975609900,9.71460986328125,-0.023984670639038086,0.06333160400390625,-0.04192686080932617
1772727478985610000,9.72460986328125,-0.01790022850036621,0.051117897033691406,0.005784273147583008
1772727478995609900,9.73460986328125,0.0024843215942382812,0.029203414916992188,0.013915538787841797
1772727479005610000,9.74460986328125,-0.030155420303344727,-0.011923789978027344,-0.0343015193939209
1772727479015609900,9.75460986328125,-0.023205280303955078,-0.016695022583007812,-0.042627811431884766
1772727479025610000,9.76460986328125,-0.00397038459777832,-0.016744613647460938,-0.015642166137695312
1772727479035609900,9.77460986328125,0.014635324478149414,-0.009716987609863281,-0.006600856781005859
1772727479045610000,9.78460986328125,0.006800174713134766,-0.004860877990722656,-0.04200243949890137
1772727479055609900,9.79460986328125,0.02121114730834961,0.011197090148925781,-0.05555081367492676
1772727479065610000,9.80460986328125,0.012640714645385742,0.006389617919921875,-0.007313728332519531
1772727479075609900,9.81460986328125,0.00838470458984375,0.026737213134765625,0.0595240592956543
1772727479085610000,9.82460986328125,-0.033742666244506836,-0.0019884109497070312,0.06793737411499023
1772727479095609900,9.83460986328125,-0.04410433769226074,-0.004314422607421875,0.03581118583679199
1772727479105610000,9.84460986328125,-0.025815725326538086,-0.008256912231445312,0.05787301063537598
1772727479115609900,9.85460986328125,0.008634090423583984,0.0019016265869140625,0.04026436805725098
1772727479125610000,9.86460986328125,0.03360462188720703,0.010067939758300781,-0.011226654052734375
1772727479135609900,9.87460986328125,0.028905391693115234,0.018375396728515625,-0.0759119987487793
1772727479145610000,9.88460986328125,0.002743244171142578,0.01727294921875,-0.08737444877624512
1772727479155609900,9.89460986328125,-0.0186159610748291,0.0183868408203125,-0.0417938232421875
1772727479165610000,9.90460986328125,0.017731904983520508,0.04134368896484375,-0.0027790069580078125
1772727479175609900,9.91460986328125,0.047475337982177734,0.04135608673095703,0.024981975555419922
1772727479185610000,9.92460986328125,0.010077476501464844,0.047730445861816406,0.017358779907226562
1772727479195609900,9.93460986328125,-0.015567302703857422,0.0290374755859375,0.0197298526763916
1772727479205610000,9.94460986328125,0.0057811737060546875,0.005202293395996094,0.04064464569091797
1772727479215609900,9.95460986328125,0.03177642822265625,0.010045051574707031,0.00691676139831543
1772727479225610000,9.96460986328125,0.006331205368041992,0.0048065185546875,-0.0059549808502197266
1772727479235609900,9.97460986328125,-0.0029556751251220703,-0.02142810821533203,-0.018951892852783203
1772727479245610000,9.98460986328125,0.020609140396118164,-0.027113914489746094,-0.03208422660827637
1772727479255609900,9.99460986328125,0.032361507415771484,-0.026238441467285156,-0.046910762786865234
1772727479265610000,10.00460986328125,0.02353954315185547,-0.0047512054443359375,-0.0400390625
1772727479275609900,10.01460986328125,0.016542911529541016,-0.005832672119140625,0.0036041736602783203
1772727479285610000,10.02460986328125,0.027631044387817383,-0.02577972412109375,0.03185701370239258
1772727479295609900,10.03460986328125,0.02226996421813965,-0.02288532257080078,0.04127955436706543
1772727479305610000,10.04460986328125,-0.006500959396362305,0.010310173034667969,0.058684349060058594
1772727479315609900,10.05460986328125,-0.015132904052734375,0.02971649169921875,0.06364893913269043
1772727479325610000,10.06460986328125,-0.007806539535522461,0.025971412658691406,0.07055377960205078
1772727479335609900,10.07460986328125,0.023169755935668945,0.03396034240722656,0.005433559417724609
1772727479345610000,10.08460986328125,0.027335405349731445,0.026032447814941406,-0.04270648956298828
1772727479355609900,10.09460986328125,0.058332204818725586,0.008943557739257812,-0.0941014289855957
1772727479365610000,10.10460986328125,0.06280922889709473,-0.029320716857910156,-0.12352395057678223
1772727479375609900,10.11460986328125,0.033809661865234375,-0.041403770446777344,-0.09182214736938477
1772727479385610000,10.12460986328125,-0.013084173202514648,-0.027825355529785156,-0.01718735694885254
1772727479395609900,10.13460986328125,0.021290302276611328,-0.009754180908203125,0.035889387130737305
1772727479405610000,10.14460986328125,0.050600290298461914,0.010227203369140625,0.03205680847167969
1772727479415609900,10.15460986328125,0.03171420097351074,0.020864486694335938,0.022281169891357422
1772727479425610000,10.16460986328125,0.022976398468017578,0.013735771179199219,0.0059051513671875
1772727479435609900,10.17460986328125,0.036479949951171875,-0.012096405029296875,-0.010549783706665039
1772727479445610000,10.18460986328125,0.04092121124267578,-0.014679908752441406,-0.03516960144042969
1772727479455609900,10.19460986328125,0.028301239013671875,-0.009118080139160156,-0.06078696250915527
1772727479465610000,10.20460986328125,-0.0049877166748046875,-0.01947784423828125,-0.07049179077148438
1772727479475609900,10.21460986328125,0.010755777359008789,-0.03765583038330078,-0.07417798042297363
1772727479485610000,10.22460986328125,0.022497892379760742,-0.023672103881835938,-0.061972856521606445
1772727479495609900,10.23460986328125,-0.011394739151000977,0.019347190856933594,-0.013532638549804688
1772727479505610000,10.24460986328125,-0.05339217185974121,0.04481983184814453,0.049767255783081055
1772727479515609900,10.25460986328125,-0.05504894256591797,0.042507171630859375,0.08220458030700684
1772727479525610000,10.26460986328125,-0.012027978897094727,0.046698570251464844,0.07113051414489746
1772727479535609900,10.27460986328125,0.008222579956054688,0.06641960144042969,0.04693031311035156
1772727479545610000,10.28460986328125,-0.005494117736816406,0.04322242736816406,0.028923511505126953
1772727479555609900,10.29460986328125,-0.00782012939453125,0.000823974609375,0.002980947494506836
1772727479565610000,10.30460986328125,0.014529943466186523,-0.03771018981933594,-0.015094280242919922
1772727479575609900,10.31460986328125,0.009630441665649414,-0.039658546447753906,-0.015871047973632812
1772727479585610000,10.32460986328125,-0.008005619049072266,-0.0248565673828125,0.0299227237701416
1772727479595609900,10.33460986328125,-0.017346858978271484,-0.0037784576416015625,0.03888273239135742
1772727479605610000,10.34460986328125,-0.0012063980102539062,0.019422531127929688,0.0029718875885009766
1772727479615609900,10.35460986328125,0.012916088104248047,0.05480384826660156,-0.0163419246673584
1772727479625610000,10.36460986328125,0.029132366180419922,0.09534740447998047,-0.018725872039794922
1772727479635609900,10.37460986328125,0.033554792404174805,0.096038818359375,-0.05985903739929199
1772727479645610000,10.38460986328125,0.011100530624389648,0.07266712188720703,-0.05683326721191406
1772727479655609900,10.39460986328125,-0.007625102996826172,0.03921794891357422,-0.06332254409790039
1772727479665610000,10.40460986328125,0.003857851028442383,-0.0040645599365234375,-0.03540444374084473
1772727479675609900,10.41460986328125,0.00613093376159668,-0.035900115966796875,-0.03771495819091797
1772727479685610000,10.42460986328125,0.023273706436157227,-0.04807758331298828,-0.049373626708984375
1772727479695609900,10.43460986328125,-0.00006318092346191406,-0.031524658203125,-0.014327049255371094
1772727479705610000,10.44460986328125,-0.0263369083404541,0.006859779357910156,0.06619715690612793
1772727479715609900,10.45460986328125,-0.05586647987365723,0.044119834899902344,0.0945734977722168
1772727479725610000,10.46460986328125,-0.0620882511138916,0.0691976547241211,0.06271171569824219
1772727479735609900,10.47460986328125,-0.03743934631347656,0.08050823211669922,0.03160285949707031
1772727479745610000,10.48460986328125,-0.006208896636962891,0.06144523620605469,0.01372671127319336
1772727479755609900,10.49460986328125,-0.002020597457885742,0.03179931640625,-0.038684844970703125
1772727479765610000,10.50460986328125,-0.004367351531982422,-0.005450248718261719,-0.10556745529174805
1772727479775609900,10.51460986328125,-0.010671615600585938,-0.028631210327148438,-0.13167905807495117
1772727479785610000,10.52460986328125,-0.01686263084411621,-0.03803062438964844,-0.08518600463867188
1772727479795609900,10.53460986328125,-0.012540578842163086,-0.037326812744140625,-0.03177905082702637
1772727479805610000,10.54460986328125,0.0011551380157470703,-0.025424957275390625,-0.0027866363525390625
1772727479815609900,10.55460986328125,-0.016744136810302734,-0.015496253967285156,0.04305386543273926
1772727479825610000,10.56460986328125,-0.019353628158569336,-0.013619422912597656,0.06779718399047852
1772727479835609900,10.57460986328125,-0.010488271713256836,-0.013950347900390625,0.041525840759277344
1772727479845610000,10.58460986328125,-0.004260540008544922,-0.01227569580078125,-0.01382136344909668
1772727479855609900,10.59460986328125,-0.025943279266357422,0.0028781890869140625,-0.04522848129272461
1772727479865610000,10.60460986328125,-0.025674819946289062,-0.012525558471679688,-0.041059017181396484
1772727479875609900,10.61460986328125,-0.02794957160949707,-0.01085662841796875,-0.031407833099365234
1772727479885610000,10.62460986328125,-0.0468440055847168,0.0013065338134765625,-0.031065702438354492
1772727479895609900,10.63460986328125,-0.03079962730407715,-0.0008563995361328125,-0.06437158584594727
1772727479905610000,10.64460986328125,0.0033245086669921875,0.00014781951904296875,-0.08648443222045898
1772727479915609900,10.65460986328125,0.0057277679443359375,-0.009538650512695312,-0.04395484924316406
1772727479925610000,10.66460986328125,-0.03824663162231445,-0.02135944366455078,0.0034847259521484375
1772727479935609900,10.67460986328125,-0.06782412528991699,-0.046927452087402344,0.0306093692779541
1772727479945610000,10.68460986328125,-0.06808853149414062,-0.031864166259765625,0.07103586196899414
1772727479955609900,10.69460986328125,-0.05236315727233887,-0.010009765625,0.11182975769042969
1772727479965610000,10.70460986328125,-0.03274393081665039,0.0005426406860351562,0.0870361328125
1772727479975609900,10.71460986328125,-0.019823789596557617,-0.00989532470703125,-0.0017061233520507812
1772727479985610000,10.72460986328125,0.0017421245574951172,-0.025634765625,-0.06466436386108398
1772727479995609900,10.73460986328125,-0.006108999252319336,-0.030663490295410156,-0.09505462646484375
1772727480005610000,10.74460986328125,-0.014724969863891602,-0.036139488220214844,-0.07539963722229004
1772727480015609900,10.75460986328125,-0.03941750526428223,-0.015857696533203125,-0.07217526435852051
1772727480025610000,10.76460986328125,-0.07596898078918457,0.014569282531738281,-0.041728973388671875
1772727480035609900,10.77460986328125,-0.07183051109313965,0.051735877990722656,0.022269487380981445
1772727480045610000,10.78460986328125,-0.02067255973815918,0.07367420196533203,0.06160235404968262
1772727480055609900,10.79460986328125,0.015605688095092773,0.06039714813232422,-0.0005681514739990234
1772727480065610000,10.80460986328125,0.021152973175048828,0.01945209503173828,-0.02689838409423828
1772727480075609900,10.81460986328125,0.006285905838012695,-0.05147075653076172,-0.045523881912231445
1772727480085610000,10.82460986328125,0.010063648223876953,-0.1176443099975586,-0.07158112525939941
1772727480095609900,10.83460986328125,-0.014676570892333984,-0.1281719207763672,-0.09558796882629395
1772727480105610000,10.84460986328125,-0.06075406074523926,-0.09513187408447266,-0.06929826736450195
1772727480115609900,10.85460986328125,-0.060446739196777344,-0.00576019287109375,0.011475563049316406
1772727480125610000,10.86460986328125,-0.03707695007324219,0.06968116760253906,0.07188177108764648
1772727480135609900,10.87460986328125,-0.009792566299438477,0.10192108154296875,0.0874185562133789
1772727480145610000,10.88460986328125,0.0014548301696777344,0.11583232879638672,0.03981280326843262
1772727480155609900,10.89460986328125,0.011274576187133789,0.0684366226196289,-0.0010769367218017578
1772727480165610000,10.90460986328125,0.019950151443481445,0.022403717041015625,0.011917591094970703
1772727480175609900,10.91460986328125,-0.013521671295166016,-0.03291797637939453,0.014255046844482422
1772727480185610000,10.92460986328125,-0.029854297637939453,-0.0711069107055664,-0.02658557891845703
1772727480195609900,10.93460986328125,-0.013193368911743164,-0.08005714416503906,-0.03765273094177246
1772727480205610000,10.94460986328125,0.059598445892333984,-0.07682514190673828,-0.04096651077270508
1772727480215609900,10.95460986328125,0.077880859375,-0.07921314239501953,-0.026427507400512695
1772727480225610000,10.96460986328125,0.06865668296813965,-0.06286048889160156,-0.0014159679412841797
1772727480235609900,10.97460986328125,0.02260136604309082,-0.03931903839111328,0.03194928169250488
1772727480245610000,10.98460986328125,0.007352590560913086,0.02785778045654297,0.05484509468078613
1772727480255609900,10.99460986328125,0.024337291717529297,0.09767532348632812,0.026629209518432617
1772727480265610000,11.00460986328125,0.03310728073120117,0.15091896057128906,-0.006397247314453125
1772727480275609900,11.01460986328125,0.025619983673095703,0.12308597564697266,-0.07169651985168457
1772727480285610000,11.02460986328125,0.04234194755554199,0.04877281188964844,-0.12458300590515137
1772727480295609900,11.03460986328125,0.05249738693237305,-0.026137351989746094,-0.10878944396972656
1772727480305610000,11.04460986328125,0.0658876895904541,-0.08678340911865234,-0.0984654426574707
1772727480315609900,11.05460986328125,0.014704227447509766,-0.113800048828125,-0.047910451889038086
1772727480325610000,11.06460986328125,-0.021247386932373047,-0.10649776458740234,-0.001682281494140625
1772727480335609900,11.07460986328125,-0.02896595001220703,-0.06154823303222656,0.0855405330657959
1772727480345610000,11.08460986328125,-0.01518869400024414,0.011777877807617188,0.1337568759918213
1772727480355609900,11.09460986328125,-0.004525423049926758,0.07383060455322266,0.12745022773742676
1772727480365610000,11.10460986328125,0.004820346832275391,0.09295845031738281,0.09942960739135742
1772727480375609900,11.11460986328125,0.00956416130065918,0.0544891357421875,0.03723502159118652
1772727480385610000,11.12460986328125,0.008461952209472656,0.008864402770996094,-0.048201560974121094
1772727480395609900,11.13460986328125,-0.03759312629699707,-0.02069377899169922,-0.1360151767730713
1772727480405610000,11.14460986328125,-0.052608489990234375,-0.016671180725097656,-0.14127159118652344
1772727480415609900,11.15460986328125,-0.03272294998168945,0.010687828063964844,-0.07670950889587402
1772727480425610000,11.16460986328125,-0.0169680118560791,0.033535003662109375,-0.013296127319335938
1772727480435609900,11.17460986328125,0.006200313568115234,0.031662940979003906,-0.004511833190917969
1772727480445610000,11.18460986328125,0.019066572189331055,-0.01961231231689453,-0.012110710144042969
1772727480455609900,11.19460986328125,0.0379636287689209,-0.0658273696899414,0.009469747543334961
1772727480465610000,11.20460986328125,0.026584148406982422,-0.07723331451416016,0.051627159118652344
1772727480475609900,11.21460986328125,-0.003922700881958008,-0.08302116394042969,0.05618405342102051
1772727480485610000,11.22460986328125,-0.023775100708007812,-0.04301929473876953,0.06576418876647949
1772727480495609900,11.23460986328125,-0.002747058868408203,0.004927635192871094,0.04073643684387207
1772727480505610000,11.24460986328125,0.04158949851989746,0.037075042724609375,0.01604461669921875
1772727480515609900,11.25460986328125,0.050830841064453125,0.05673503875732422,-0.0511782169342041
1772727480525610000,11.26460986328125,0.02728867530822754,0.026221275329589844,-0.1192164421081543
1772727480535609900,11.27460986328125,0.008696317672729492,-0.028623580932617188,-0.1258084774017334
1772727480545610000,11.28460986328125,0.00723576545715332,-0.05043601989746094,-0.08990740776062012
1772727480555609900,11.29460986328125,-0.038515567779541016,-0.02982616424560547,-0.020531892776489258
1772727480565610000,11.30460986328125,-0.04549217224121094,0.010451316833496094,0.03644752502441406
1772727480575609900,11.31460986328125,0.008242607116699219,0.019895553588867188,0.08998394012451172
1772727480585610000,11.32460986328125,0.09158205986022949,0.010446548461914062,0.10187196731567383
1772727480595609900,11.33460986328125,0.08592081069946289,-0.015283584594726562,0.020415067672729492
1772727480605610000,11.34460986328125,0.04207968711853027,-0.039947509765625,-0.036917686462402344
1772727480615609900,11.35460986328125,0.03207278251647949,-0.07501411437988281,-0.029337644577026367
1772727480625610000,11.36460986328125,0.028482675552368164,-0.09697437286376953,-0.004708766937255859
1772727480635609900,11.37460986328125,-0.00802302360534668,-0.05620002746582031,0.013109683990478516
1772727480645610000,11.38460986328125,-0.05423545837402344,0.0061206817626953125,0.020506620407104492
1772727480655609900,11.39460986328125,-0.029744386672973633,0.049712181091308594,0.026062726974487305
1772727480665610000,11.40460986328125,0.03421163558959961,0.0742959976196289,0.020023107528686523
1772727480675609900,11.41460986328125,0.07039737701416016,0.07091236114501953,-0.02720165252685547
1772727480685610000,11.42460986328125,0.039327383041381836,0.04582023620605469,-0.04985761642456055
1772727480695609900,11.43460986328125,0.013363838195800781,0.014233589172363281,-0.03066706657409668
1772727480705610000,11.44460986328125,0.004297971725463867,-0.013459205627441406,-0.00471043586730957
1772727480715609900,11.45460986328125,-0.02246713638305664,-0.026216506958007812,0.006711006164550781
1772727480725610000,11.46460986328125,-0.03147459030151367,-0.027693748474121094,0.0007486343383789062
1772727480735609900,11.47460986328125,0.0308835506439209,-0.03089141845703125,-0.011109352111816406
1772727480745610000,11.48460986328125,0.0688333511352539,-0.03026580810546875,-0.021240711212158203
1772727480755609900,11.49460986328125,0.046282291412353516,-0.016394615173339844,-0.017877817153930664
1772727480765610000,11.50460986328125,-0.037477731704711914,0.015178680419921875,0.03354001045227051
1772727480775609900,11.51460986328125,-0.07155489921569824,0.050246238708496094,0.07622742652893066
1772727480785610000,11.52460986328125,-0.02999734878540039,0.08484458923339844,0.11189103126525879
1772727480795609900,11.53460986328125,-0.010971546173095703,0.13481998443603516,0.0551450252532959
1772727480805610000,11.54460986328125,-0.01461029052734375,0.12620925903320312,-0.03505992889404297
1772727480815609900,11.55460986328125,-0.025599241256713867,0.050049781799316406,-0.09343552589416504
1772727480825610000,11.56460986328125,-0.0028336048126220703,-0.03611278533935547,-0.09885716438293457
1772727480835609900,11.57460986328125,-0.02075505256652832,-0.06587409973144531,-0.059118032455444336
1772727480845610000,11.58460986328125,-0.05505228042602539,-0.06846141815185547,0.016592979431152344
1772727480855609900,11.59460986328125,-0.025513172149658203,-0.07023048400878906,0.05972027778625488
1772727480865610000,11.60460986328125,-0.005141735076904297,-0.04787158966064453,0.07912349700927734
1772727480875609900,11.61460986328125,0.00028443336486816406,0.001216888427734375,0.0556948184967041
1772727480885610000,11.62460986328125,0.016414165496826172,0.05499553680419922,0.027022838592529297
1772727480895609900,11.63460986328125,0.022110700607299805,0.08724021911621094,0.0033113956451416016
1772727480905610000,11.64460986328125,0.021648645401000977,0.07370853424072266,-0.02884984016418457
1772727480915609900,11.65460986328125,-0.013342142105102539,0.0674276351928711,-0.07449054718017578
1772727480925610000,11.66460986328125,-0.0534672737121582,0.037261009216308594,-0.0842282772064209
1772727480935609900,11.67460986328125,-0.05927586555480957,-0.0035619735717773438,-0.05983686447143555
1772727480945610000,11.68460986328125,-0.005936145782470703,-0.04587268829345703,-0.06957125663757324
1772727480955609900,11.69460986328125,-0.005842447280883789,-0.05527210235595703,-0.05379199981689453
1772727480965610000,11.70460986328125,-0.04573965072631836,-0.053238868713378906,0.02421736717224121
1772727480975609900,11.71460986328125,-0.057341814041137695,-0.022233963012695312,0.10316133499145508
1772727480985610000,11.72460986328125,-0.034735918045043945,-0.022039413452148438,0.1169881820678711
1772727480995609900,11.73460986328125,-0.004902839660644531,0.022192955017089844,0.08625411987304688
1772727481005610000,11.74460986328125,0.00012731552124023438,0.042815208435058594,0.059981346130371094
1772727481015609900,11.75460986328125,0.003997325897216797,0.02191162109375,0.033429861068725586
1772727481025610000,11.76460986328125,0.023051738739013672,-0.013393402099609375,-0.03874349594116211
1772727481035609900,11.77460986328125,0.009404420852661133,-0.030343055725097656,-0.09768271446228027
1772727481045610000,11.78460986328125,-0.01927638053894043,-0.03365135192871094,-0.11685705184936523
1772727481055609900,11.79460986328125,-0.029599905014038086,-0.022787094116210938,-0.04236936569213867
1772727481065610000,11.80460986328125,0.007294893264770508,-0.006137847900390625,-0.011816263198852539
1772727481075609900,11.81460986328125,0.021341323852539062,0.017999649047851562,-0.006819248199462891
1772727481085610000,11.82460986328125,0.04179835319519043,0.034600257873535156,0.0238494873046875
1772727481095609900,11.83460986328125,0.0666806697845459,0.01941680908203125,0.04601407051086426
1772727481105610000,11.84460986328125,0.04687809944152832,0.008917808532714844,0.04087948799133301
1772727481115609900,11.85460986328125,0.023880720138549805,-0.0023174285888671875,0.02660536766052246
1772727481125610000,11.86460986328125,-0.012536287307739258,-0.026597023010253906,0.0144805908203125
1772727481135609900,11.87460986328125,-0.028746366500854492,-0.03026866912841797,0.000278472900390625
1772727481145610000,11.88460986328125,-0.016408205032348633,-0.011371612548828125,-0.03357982635498047
1772727481155609900,11.89460986328125,-0.01880025863647461,-0.01580047607421875,-0.08259844779968262
1772727481165610000,11.90460986328125,-0.01237940788269043,-0.01730060577392578,-0.08760976791381836
1772727481175609900,11.91460986328125,-0.025250911712646484,-0.03732585906982422,-0.047820329666137695
1772727481185610000,11.92460986328125,-0.024710655212402344,-0.028537750244140625,0.015450239181518555
1772727481195609900,11.93460986328125,-0.03581953048706055,-0.029714584350585938,0.06181502342224121
1772727481205610000,11.94460986328125,-0.02759528160095215,-0.0025653839111328125,0.10258269309997559
1772727481215609900,11.95460986328125,-0.02075028419494629,0.013702392578125,0.11472392082214355
1772727481225610000,11.96460986328125,-0.041007041931152344,0.012409210205078125,0.08100628852844238
1772727481235609900,11.97460986328125,-0.025008201599121094,0.01377105712890625,0.01640939712524414
1772727481245610000,11.98460986328125,0.00844573974609375,-0.02140331268310547,-0.05154871940612793
1772727481255609900,11.99460986328125,0.009145498275756836,-0.060904502868652344,-0.12188959121704102
1772727481265610000,12.00460986328125,-0.029266834259033203,-0.07260704040527344,-0.12680888175964355
1772727481275609900,12.01460986328125,-0.027257442474365234,-0.05189323425292969,-0.06726932525634766
1772727481285610000,12.02460986328125,-0.018688678741455078,-0.02525043487548828,0.0076406002044677734
1772727481295609900,12.03460986328125,0.009351253509521484,0.012081146240234375,0.05422496795654297
1772727481305610000,12.04460986328125,0.022179126739501953,0.049652099609375,0.03728818893432617
1772727481315609900,12.05460986328125,0.023818492889404297,0.0667572021484375,0.02032303810119629
1772727481325610000,12.06460986328125,0.05818676948547363,0.03578948974609375,0.017046213150024414
1772727481335609900,12.07460986328125,0.05840349197387695,-0.0020132064819335938,-0.03001546859741211
1772727481345610000,12.08460986328125,0.018106460571289062,-0.024776458740234375,-0.06462764739990234
1772727481355609900,12.09460986328125,-0.0024297237396240234,-0.04985523223876953,-0.04628872871398926
1772727481365610000,12.10460986328125,0.010930538177490234,-0.049713134765625,-0.03706622123718262
1772727481375609900,12.11460986328125,0.02101445198059082,-0.018751144409179688,-0.01540231704711914
1772727481385610000,12.12460986328125,0.015980005264282227,0.021330833435058594,0.05578875541687012
1772727481395609900,12.13460986328125,0.011631965637207031,0.05013751983642578,0.09887504577636719
1772727481405610000,12.14460986328125,-0.011656522750854492,0.0469970703125,0.10052084922790527
1772727481415609900,12.15460986328125,-0.008038520812988281,0.045874595642089844,0.02364325523376465
1772727481425610000,12.16460986328125,-0.010689020156860352,0.022663116455078125,-0.015225648880004883
1772727481435609900,12.17460986328125,0.002367734909057617,-0.0016117095947265625,-0.006637096405029297
