time,seconds_elapsed,z,y,x
1772727469325610000,0.06460986328125,7.899149417877197,5.772273063659668,-0.6743087768554688
1772727469335609900,0.07460986328125,7.889688491821289,5.785825252532959,-0.668901801109314
1772727469345610000,0.08460986328125,7.884616374969482,5.793802261352539,-0.6596002578735352
1772727469355609900,0.09460986328125,7.885160446166992,5.7969746589660645,-0.6242666840553284
1772727469365610000,0.10460986328125,7.880280017852783,5.808136463165283,-0.5806170701980591
1772727469375609900,0.11460986328125,7.876202583312988,5.817406177520752,-0.5418477058410645
1772727469385610000,0.12460986328125,7.879847526550293,5.814974784851074,-0.5142571330070496
1772727469395609900,0.13460986328125,7.88036584854126,5.816298961639404,-0.49081653356552124
1772727469405610000,0.14460986328125,7.880244255065918,5.817485809326172,-0.4785328805446625
1772727469415609900,0.15460986328125,7.88064432144165,5.818095684051514,-0.46431079506874084
1772727469425610000,0.16460986328125,7.873464584350586,5.829147815704346,-0.4471992254257202
1772727469435609900,0.17460986328125,7.860795974731445,5.848583698272705,-0.4151502251625061
1772727469445610000,0.18460986328125,7.834328651428223,5.886795997619629,-0.37325364351272583
1772727469455609900,0.19460986328125,7.799543380737305,5.936001777648926,-0.31843504309654236
1772727469465610000,0.20460986328125,7.758086681365967,5.993459701538086,-0.24680712819099426
1772727469475609900,0.21460986328125,7.710838794708252,6.05715799331665,-0.1555948406457901
1772727469485610000,0.22460986328125,7.660853862762451,6.122044563293457,-0.04779142513871193
1772727469495609900,0.23460986328125,7.591018199920654,6.208088397979736,0.0803786888718605
1772727469505610000,0.24460986328125,7.498153209686279,6.317388534545898,0.19667939841747284
1772727469515609900,0.25460986328125,7.3867645263671875,6.444138050079346,0.28139543533325195
1772727469525610000,0.26460986328125,7.275466442108154,6.566656589508057,0.3420461416244507
1772727469535609900,0.27460986328125,7.162744522094727,6.686440467834473,0.39622947573661804
1772727469545610000,0.28460986328125,7.039400100708008,6.813313007354736,0.4427050054073334
1772727469555609900,0.29460986328125,6.917140483856201,6.935371398925781,0.4734768867492676
1772727469565610000,0.30460986328125,6.790889739990234,7.057435989379883,0.49679848551750183
1772727469575609900,0.31460986328125,6.664968013763428,7.175998210906982,0.5036302208900452
1772727469585610000,0.32460986328125,6.541857719421387,7.289254665374756,0.49117910861968994
1772727469595609900,0.33460986328125,6.415223121643066,7.401744842529297,0.47903871536254883
1772727469605610000,0.34460986328125,6.271725177764893,7.524242877960205,0.47077566385269165
1772727469615609900,0.35460986328125,6.1262969970703125,7.643550395965576,0.46367862820625305
1772727469625610000,0.36460986328125,5.977332592010498,7.7603044509887695,0.46858111023902893
1772727469635609900,0.37460986328125,5.810657501220703,7.885061264038086,0.4821411371231079
1772727469645610000,0.38460986328125,5.639482021331787,8.007291793823242,0.49990999698638916
1772727469655609900,0.39460986328125,5.480872631072998,8.11490535736084,0.5279496312141418
1772727469665610000,0.40460986328125,5.3281145095825195,8.213134765625,0.5709577202796936
1772727469675609900,0.41460986328125,5.179133415222168,8.304646492004395,0.6162812113761902
1772727469685610000,0.42460986328125,5.034511089324951,8.38984203338623,0.6592792868614197
1772727469695609900,0.43460986328125,4.887824058532715,8.472689628601074,0.7022098302841187
1772727469705610000,0.44460986328125,4.726462364196777,8.560833930969238,0.736930787563324
1772727469715609900,0.45460986328125,4.552995681762695,8.653080940246582,0.751541256904602
1772727469725610000,0.46460986328125,4.370400428771973,8.746323585510254,0.7561803460121155
1772727469735609900,0.47460986328125,4.176369667053223,8.840633392333984,0.7559949159622192
1772727469745610000,0.48460986328125,3.964919090270996,8.937283515930176,0.758141279220581
1772727469755609900,0.49460986328125,3.7517004013061523,9.02830696105957,0.7647329568862915
1772727469765610000,0.50460986328125,3.5629827976226807,9.103089332580566,0.7805793285369873
1772727469775609900,0.51460986328125,3.4156651496887207,9.157449722290039,0.8029552698135376
1772727469785610000,0.52460986328125,3.31262469291687,9.193427085876465,0.823287844657898
1772727469795609900,0.53460986328125,3.2646756172180176,9.208757400512695,0.843253493309021
1772727469805610000,0.54460986328125,3.2658743858337402,9.205987930297852,0.8684723377227783
1772727469815609900,0.55460986328125,3.302241563796997,9.190439224243164,0.8952149748802185
1772727469825610000,0.56460986328125,3.3651840686798096,9.164408683776855,0.9271188974380493
1772727469835609900,0.57460986328125,3.446780204772949,9.130606651306152,0.9602740406990051
1772727469845610000,0.58460986328125,3.535860538482666,9.093320846557617,0.9897447228431702
1772727469855609900,0.59460986328125,3.6213347911834717,9.056650161743164,1.0165696144104004
1772727469865610000,0.60460986328125,3.6991357803344727,9.021987915039062,1.0442817211151123
1772727469875609900,0.61460986328125,3.76196026802063,8.992594718933105,1.0729838609695435
1772727469885610000,0.62460986328125,3.8067283630371094,8.970088958740234,1.1030452251434326
1772727469895609900,0.63460986328125,3.834967613220215,8.954692840576172,1.129995346069336
1772727469905610000,0.64460986328125,3.840289354324341,8.948507308959961,1.160507321357727
1772727469915609900,0.65460986328125,3.8229217529296875,8.950417518615723,1.2023656368255615
1772727469925610000,0.66460986328125,3.785220146179199,8.960078239440918,1.2487972974777222
1772727469935609900,0.67460986328125,3.736287832260132,8.974592208862305,1.291210651397705
1772727469945610000,0.68460986328125,3.6859893798828125,8.988958358764648,1.3351025581359863
1772727469955609900,0.69460986328125,3.635990619659424,9.00130844116211,1.387948989868164
1772727469965610000,0.70460986328125,3.584941864013672,9.01126480102539,1.4545423984527588
1772727469975609900,0.71460986328125,3.549537420272827,9.01315689086914,1.52780020236969
1772727469985610000,0.72460986328125,3.5105605125427246,9.013344764709473,1.6142996549606323
1772727469995609900,0.73460986328125,3.4593007564544678,9.014161109924316,1.717125415802002
1772727470005610000,0.74460986328125,3.4013900756835938,9.012282371520996,1.8383961915969849
1772727470015609900,0.75460986328125,3.3420329093933105,9.00566291809082,1.9746508598327637
1772727470025610000,0.76460986328125,3.2585461139678955,8.9999418258667,2.1338465213775635
1772727470035609900,0.77460986328125,3.1374101638793945,9.003067970275879,2.2960422039031982
1772727470045610000,0.78460986328125,2.9762675762176514,9.019762992858887,2.440509557723999
1772727470055609900,0.79460986328125,2.7704291343688965,9.049811363220215,2.568268060684204
1772727470065610000,0.80460986328125,2.513725996017456,9.091919898986816,2.681149482727051
1772727470075609900,0.81460986328125,2.227566719055176,9.134428977966309,2.7875657081604004
1772727470085610000,0.82460986328125,1.9153000116348267,9.178995132446289,2.8719449043273926
1772727470095609900,0.83460986328125,1.5852259397506714,9.224788665771484,2.925868511199951
1772727470105610000,0.84460986328125,1.25026273727417,9.267255783081055,2.9538440704345703
1772727470115609900,0.85460986328125,0.9052608013153076,9.307974815368652,2.9516923427581787
1772727470125610000,0.86460986328125,0.5509474873542786,9.342772483825684,2.929067850112915
1772727470135609900,0.87460986328125,0.18089380860328674,9.3682279586792,2.8937830924987793
1772727470145610000,0.88460986328125,-0.19170382618904114,9.37856388092041,2.859400510787964
1772727470155609900,0.89460986328125,-0.5520412921905518,9.371891021728516,2.8343071937561035
1772727470165610000,0.90460986328125,-0.9058023691177368,9.351255416870117,2.8113930225372314
1772727470175609900,0.91460986328125,-1.2408274412155151,9.320287704467773,2.7862110137939453
1772727470185610000,0.92460986328125,-1.556917428970337,9.280694961547852,2.759544849395752
1772727470195609900,0.93460986328125,-1.8432117700576782,9.236241340637207,2.7321839332580566
1772727470205610000,0.94460986328125,-2.0898287296295166,9.19027328491211,2.7095937728881836
1772727470215609900,0.95460986328125,-2.3086090087890625,9.144017219543457,2.6884312629699707
1772727470225610000,0.96460986328125,-2.497772455215454,9.099900245666504,2.6689581871032715
1772727470235609900,0.97460986328125,-2.645838499069214,9.061216354370117,2.657872200012207
1772727470245610000,0.98460986328125,-2.752406358718872,9.026673316955566,2.667175054550171
1772727470255609900,0.99460986328125,-2.8027145862579346,9.00416374206543,2.690760850906372
1772727470265610000,1.00460986328125,-2.8351004123687744,8.990859985351562,2.7013003826141357
1772727470275609900,1.01460986328125,-2.9057557582855225,8.979674339294434,2.6631624698638916
1772727470285610000,1.02460986328125,-3.0325088500976562,8.964326858520508,2.571985960006714
1772727470295609900,1.03460986328125,-3.2629880905151367,8.926342964172363,2.417374849319458
1772727470305610000,1.04460986328125,-3.587674140930176,8.856229782104492,2.205939531326294
1772727470315609900,1.05460986328125,-3.9390459060668945,8.763856887817383,1.9619145393371582
1772727470325610000,1.06460986328125,-4.320175647735596,8.637678146362305,1.702056884765625
1772727470335609900,1.07460986328125,-4.706624507904053,8.479522705078125,1.4545679092407227
1772727470345610000,1.08460986328125,-5.08064603805542,8.29804515838623,1.2246928215026855
1772727470355609900,1.09460986328125,-5.414510250091553,8.114272117614746,1.0060113668441772
1772727470365610000,1.10460986328125,-5.698389053344727,7.938885688781738,0.8202645778656006
1772727470375609900,1.11460986328125,-5.9320292472839355,7.780020713806152,0.6728240251541138
1772727470385610000,1.12460986328125,-6.117927551269531,7.6438469886779785,0.5594344139099121
1772727470395609900,1.13460986328125,-6.260010242462158,7.533595085144043,0.47707825899124146
1772727470405610000,1.14460986328125,-6.330824375152588,7.4758124351501465,0.45086514949798584
1772727470415609900,1.15460986328125,-6.319323539733887,7.48336935043335,0.4855135679244995
1772727470425610000,1.16460986328125,-6.210568904876709,7.568815231323242,0.5587930083274841
1772727470435609900,1.17460986328125,-5.998656749725342,7.73061990737915,0.6511690020561218
1772727470445610000,1.18460986328125,-5.72737979888916,7.9203948974609375,0.7967714071273804
1772727470455609900,1.19460986328125,-5.476398944854736,8.07036304473877,1.0240495204925537
1772727470465610000,1.20460986328125,-5.312196731567383,8.147573471069336,1.2521963119506836
1772727470475609900,1.21460986328125,-5.248295307159424,8.164373397827148,1.4031366109848022
1772727470485610000,1.22460986328125,-5.2663655281066895,8.143357276916504,1.4565424919128418
1772727470495609900,1.23460986328125,-5.276989936828613,8.131705284118652,1.4829493761062622
1772727470505610000,1.24460986328125,-5.236244201660156,8.153836250305176,1.5056841373443604
1772727470515609900,1.25460986328125,-5.133690357208252,8.218185424804688,1.5089843273162842
1772727470525610000,1.26460986328125,-4.965787410736084,8.323570251464844,1.4931598901748657
1772727470535609900,1.27460986328125,-4.734594345092773,8.4617280960083,1.4673594236373901
1772727470545610000,1.28460986328125,-4.457126617431641,8.618400573730469,1.4239341020584106
1772727470555609900,1.29460986328125,-4.155599594116211,8.775795936584473,1.3735995292663574
1772727470565610000,1.30460986328125,-3.839998960494995,8.926008224487305,1.3233224153518677
1772727470575609900,1.31460986328125,-3.5393524169921875,9.05863094329834,1.2587978839874268
1772727470585610000,1.32460986328125,-3.2847394943237305,9.166337013244629,1.165817379951477
1772727470595609900,1.33460986328125,-3.0851552486419678,9.247512817382812,1.065696358680725
1772727470605610000,1.34460986328125,-2.929171562194824,9.307065963745117,0.9843178391456604
1772727470615609900,1.35460986328125,-2.81036114692688,9.348974227905273,0.932172954082489
1772727470625610000,1.36460986328125,-2.7260637283325195,9.37677001953125,0.902862012386322
1772727470635609900,1.37460986328125,-2.675417184829712,9.392670631408691,0.888968825340271
1772727470645610000,1.38460986328125,-2.6505134105682373,9.399643898010254,0.8898635506629944
1772727470655609900,1.39460986328125,-2.640178918838501,9.400423049926758,0.9120753407478333
1772727470665610000,1.40460986328125,-2.610821008682251,9.404363632202148,0.9549556970596313
1772727470675609900,1.41460986328125,-2.5654892921447754,9.412883758544922,0.9931102395057678
1772727470685610000,1.42460986328125,-2.5154874324798584,9.424776077270508,1.0081226825714111
1772727470695609900,1.43460986328125,-2.4535446166992188,9.443645477294922,0.9839046001434326
1772727470705610000,1.44460986328125,-2.3836448192596436,9.467371940612793,0.926014244556427
1772727470715609900,1.45460986328125,-2.2957470417022705,9.495879173278809,0.8533489108085632
1772727470725610000,1.46460986328125,-2.1894845962524414,9.527771949768066,0.7733748555183411
1772727470735609900,1.47460986328125,-2.0668416023254395,9.560891151428223,0.698514997959137
1772727470745610000,1.48460986328125,-1.9297493696212769,9.593585014343262,0.6399897336959839
1772727470755609900,1.49460986328125,-1.7838202714920044,9.62476921081543,0.5934624075889587
1772727470765610000,1.50460986328125,-1.6389758586883545,9.652510643005371,0.5596359968185425
1772727470775609900,1.51460986328125,-1.4954849481582642,9.6768159866333,0.5414204597473145
1772727470785610000,1.52460986328125,-1.3552166223526,9.697449684143066,0.5415284633636475
1772727470795609900,1.53460986328125,-1.222217321395874,9.714010238647461,0.5608687400817871
1772727470805610000,1.54460986328125,-1.0973122119903564,9.726677894592285,0.5983675122261047
1772727470815609900,1.55460986328125,-0.985638439655304,9.735332489013672,0.6497694849967957
1772727470825610000,1.56460986328125,-0.8913813233375549,9.740345001220703,0.7081743478775024
1772727470835609900,1.57460986328125,-0.8155397176742554,9.742775917053223,0.7639472484588623
1772727470845610000,1.58460986328125,-0.7565891742706299,9.743638038635254,0.8120793104171753
1772727470855609900,1.59460986328125,-0.7089852690696716,9.743331909179688,0.8574454188346863
1772727470865610000,1.60460986328125,-0.6650146842002869,9.742170333862305,0.9045768976211548
1772727470875609900,1.61460986328125,-0.6196864247322083,9.740525245666504,0.9531756043434143
1772727470885610000,1.62460986328125,-0.5628506541252136,9.738901138305664,1.0036884546279907
1772727470895609900,1.63460986328125,-0.4813512861728668,9.736446380615234,1.0678465366363525
1772727470905610000,1.64460986328125,-0.36970603466033936,9.731024742126465,1.157957911491394
1772727470915609900,1.65460986328125,-0.23831476271152496,9.719730377197266,1.2808040380477905
1772727470925610000,1.66460986328125,-0.10185082256793976,9.701013565063477,1.4319041967391968
1772727470935609900,1.67460986328125,0.028988458216190338,9.675863265991211,1.595999002456665
1772727470945610000,1.68460986328125,0.1433514654636383,9.645855903625488,1.7627567052841187
1772727470955609900,1.69460986328125,0.2329539954662323,9.612284660339355,1.9287536144256592
1772727470965610000,1.70460986328125,0.287841796875,9.577683448791504,2.0869860649108887
1772727470975609900,1.71460986328125,0.30685484409332275,9.542293548583984,2.2407259941101074
1772727470985610000,1.72460986328125,0.2970810830593109,9.503758430480957,2.400148630142212
1772727470995609900,1.73460986328125,0.25570037961006165,9.460892677307129,2.5683650970458984
1772727471005610000,1.74460986328125,0.18154358863830566,9.41256332397461,2.7461018562316895
1772727471015609900,1.75460986328125,0.0784679725766182,9.356649398803711,2.935530662536621
1772727471025610000,1.76460986328125,-0.05360433831810951,9.296405792236328,3.1215951442718506
1772727471035609900,1.77460986328125,-0.2132258415222168,9.237310409545898,3.2858808040618896
1772727471045610000,1.78460986328125,-0.38633808493614197,9.183640480041504,3.417877435684204
1772727471055609900,1.79460986328125,-0.5335555076599121,9.14213752746582,3.5081374645233154
1772727471065610000,1.80460986328125,-0.6496778726577759,9.123311042785645,3.5374419689178467
1772727471075609900,1.81460986328125,-0.748623788356781,9.12075424194336,3.5244545936584473
1772727471085610000,1.82460986328125,-0.8466460704803467,9.12741470336914,3.48480486869812
1772727471095609900,1.83460986328125,-0.9710322022438049,9.13078498840332,3.4432919025421143
1772727471105610000,1.84460986328125,-1.1142717599868774,9.11977481842041,3.4290671348571777
1772727471115609900,1.85460986328125,-1.2547862529754639,9.091395378112793,3.455782413482666
1772727471125610000,1.86460986328125,-1.3993244171142578,9.051325798034668,3.505107879638672
1772727471135609900,1.87460986328125,-1.566037893295288,9.006622314453125,3.549459934234619
1772727471145610000,1.88460986328125,-1.761716365814209,8.961051940917969,3.57299542427063
1772727471155609900,1.89460986328125,-1.9664331674575806,8.915192604064941,3.580904006958008
1772727471165610000,1.90460986328125,-2.172259569168091,8.868430137634277,3.5780744552612305
1772727471175609900,1.91460986328125,-2.3738439083099365,8.820801734924316,3.5677297115325928
1772727471185610000,1.92460986328125,-2.575866222381592,8.770355224609375,3.5519235134124756
1772727471195609900,1.93460986328125,-2.776400089263916,8.718376159667969,3.5287258625030518
1772727471205610000,1.94460986328125,-2.972259998321533,8.665702819824219,3.4988062381744385
1772727471215609900,1.95460986328125,-3.1598668098449707,8.612434387207031,3.4657769203186035
1772727471225610000,1.96460986328125,-3.3381247520446777,8.55880355834961,3.4313547611236572
1772727471235609900,1.97460986328125,-3.509263515472412,8.506762504577637,3.3897573947906494
1772727471245610000,1.98460986328125,-3.670860528945923,8.45494270324707,3.3480026721954346
1772727471255609900,1.99460986328125,-3.8173651695251465,8.405928611755371,3.3073368072509766
1772727471265610000,2.00460986328125,-3.967118263244629,8.353659629821777,3.2632389068603516
1772727471275609900,2.01460986328125,-4.135395050048828,8.290762901306152,3.214366912841797
1772727471285610000,2.02460986328125,-4.3115692138671875,8.220251083374023,3.163578748703003
1772727471295609900,2.03460986328125,-4.489130020141602,8.142618179321289,3.1170270442962646
1772727471305610000,2.04460986328125,-4.677382469177246,8.051265716552734,3.077270746231079
1772727471315609900,2.05460986328125,-4.8393778800964355,7.968564987182617,3.0418403148651123
1772727471325610000,2.06460986328125,-4.95353364944458,7.928328990936279,2.962174654006958
1772727471335609900,2.07460986328125,-5.048222064971924,7.923843860626221,2.8104336261749268
1772727471345610000,2.08460986328125,-5.079541206359863,7.959460735321045,2.648704767227173
1772727471355609900,2.09460986328125,-5.075522422790527,7.997826099395752,2.5385501384735107
1772727471365610000,2.10460986328125,-5.069537162780762,8.010064125061035,2.5117812156677246
1772727471375609900,2.11460986328125,-5.0706682205200195,8.04250717163086,2.403494358062744
1772727471385610000,2.12460986328125,-5.068408966064453,8.073358535766602,2.3027162551879883
1772727471395609900,2.13460986328125,-5.058419704437256,8.100271224975586,2.228984832763672
1772727471405610000,2.14460986328125,-5.037021636962891,8.134260177612305,2.152348756790161
1772727471415609900,2.15460986328125,-5.003345489501953,8.171926498413086,2.087233543395996
1772727471425610000,2.16460986328125,-4.9600067138671875,8.209654808044434,2.042127847671509
1772727471435609900,2.17460986328125,-4.912747383117676,8.246725082397461,2.0066962242126465
1772727471445610000,2.18460986328125,-4.856282711029053,8.288803100585938,1.9704458713531494
1772727471455609900,2.19460986328125,-4.7765398025512695,8.343684196472168,1.933390498161316
1772727471465610000,2.20460986328125,-4.6583333015441895,8.416845321655273,1.9044731855392456
1772727471475609900,2.21460986328125,-4.490461826324463,8.511530876159668,1.886789083480835
1772727471485610000,2.22460986328125,-4.279379844665527,8.62192153930664,1.8761038780212402
1772727471495609900,2.23460986328125,-4.029053211212158,8.74021053314209,1.8830405473709106
1772727471505610000,2.24460986328125,-3.7491815090179443,8.857162475585938,1.9143410921096802
1772727471515609900,2.25460986328125,-3.464712142944336,8.962359428405762,1.9601701498031616
1772727471525610000,2.26460986328125,-3.2320375442504883,9.043440818786621,1.9850693941116333
1772727471535609900,2.27460986328125,-3.0831685066223145,9.09335994720459,1.9938080310821533
1772727471545610000,2.28460986328125,-2.9953250885009766,9.118658065795898,2.012091636657715
1772727471555609900,2.29460986328125,-2.9398162364959717,9.129256248474121,2.04561710357666
1772727471565610000,2.30460986328125,-2.9056894779205322,9.131768226623535,2.082826852798462
1772727471575609900,2.31460986328125,-2.887380599975586,9.130690574645996,2.11279296875
1772727471585610000,2.32460986328125,-2.8679540157318115,9.132251739501953,2.132417917251587
1772727471595609900,2.33460986328125,-2.8460140228271484,9.135499000549316,2.1478464603424072
1772727471605610000,2.34460986328125,-2.811570644378662,9.141287803649902,2.168482542037964
1772727471615609900,2.35460986328125,-2.767199993133545,9.148077011108398,2.196744680404663
1772727471625610000,2.36460986328125,-2.723243236541748,9.15431022644043,2.2255170345306396
1772727471635609900,2.37460986328125,-2.6839730739593506,9.159099578857422,2.2533438205718994
1772727471645610000,2.38460986328125,-2.6600053310394287,9.159181594848633,2.281264066696167
1772727471655609900,2.39460986328125,-2.6607093811035156,9.15457820892334,2.2988526821136475
1772727471665610000,2.40460986328125,-2.674992084503174,9.14853572845459,2.3063156604766846
1772727471675609900,2.41460986328125,-2.689969778060913,9.144115447998047,2.306426525115967
1772727471685610000,2.42460986328125,-2.693596839904785,9.14251708984375,2.3085267543792725
1772727471695609900,2.43460986328125,-2.687164306640625,9.143791198730469,2.31097412109375
1772727471705610000,2.44460986328125,-2.6773009300231934,9.146297454833984,2.312504529953003
1772727471715609900,2.45460986328125,-2.6703805923461914,9.147799491882324,2.314566135406494
1772727471725610000,2.46460986328125,-2.66929030418396,9.147160530090332,2.318347454071045
1772727471735609900,2.47460986328125,-2.6714982986450195,9.145637512207031,2.321810245513916
1772727471745610000,2.48460986328125,-2.6737873554229736,9.144485473632812,2.323711395263672
1772727471755609900,2.49460986328125,-2.6739766597747803,9.144430160522461,2.3237128257751465
1772727471765610000,2.50460986328125,-2.671891689300537,9.144834518432617,2.3245186805725098
1772727471775609900,2.51460986328125,-2.671376943588257,9.14484977722168,2.325049638748169
1772727471785610000,2.52460986328125,-2.6737160682678223,9.143938064575195,2.3259456157684326
1772727471795609900,2.53460986328125,-2.6766605377197266,9.142696380615234,2.3274428844451904
1772727471805610000,2.54460986328125,-2.6772968769073486,9.142107963562012,2.3290231227874756
1772727471815609900,2.55460986328125,-2.676089286804199,9.142239570617676,2.3298885822296143
1772727471825610000,2.56460986328125,-2.6746084690093994,9.142415046691895,2.330899477005005
1772727471835609900,2.57460986328125,-2.6745762825012207,9.142154693603516,2.3319568634033203
1772727471845610000,2.58460986328125,-2.6755974292755127,9.14161205291748,2.3329150676727295
1772727471855609900,2.59460986328125,-2.6770002841949463,9.140922546386719,2.3340086936950684
1772727471865610000,2.60460986328125,-2.6776764392852783,9.140400886535645,2.3352770805358887
1772727471875609900,2.61460986328125,-2.6780428886413574,9.140029907226562,2.3363096714019775
1772727471885610000,2.62460986328125,-2.678011655807495,9.13973331451416,2.3375046253204346
1772727471895609900,2.63460986328125,-2.677954912185669,9.139345169067383,2.339081048965454
1772727471905610000,2.64460986328125,-2.6780829429626465,9.138803482055664,2.341052770614624
1772727471915609900,2.65460986328125,-2.6777029037475586,9.138330459594727,2.343334913253784
1772727471925610000,2.66460986328125,-2.6767849922180176,9.137994766235352,2.3456883430480957
1772727471935609900,2.67460986328125,-2.6756956577301025,9.137642860412598,2.3483035564422607
1772727471945610000,2.68460986328125,-2.674823760986328,9.137237548828125,2.350874423980713
1772727471955609900,2.69460986328125,-2.6741819381713867,9.136756896972656,2.353463888168335
1772727471965610000,2.70460986328125,-2.674124240875244,9.136124610900879,2.355987310409546
1772727471975609900,2.71460986328125,-2.6746578216552734,9.13536548614502,2.3583250045776367
1772727471985610000,2.72460986328125,-2.675532341003418,9.134527206420898,2.360576629638672
1772727471995609900,2.73460986328125,-2.6762566566467285,9.133785247802734,2.36262583732605
1772727472005610000,2.74460986328125,-2.6763899326324463,9.133285522460938,2.3644068241119385
1772727472015609900,2.75460986328125,-2.6760411262512207,9.132896423339844,2.3663063049316406
1772727472025610000,2.76460986328125,-2.675018072128296,9.132574081420898,2.3687028884887695
1772727472035609900,2.77460986328125,-2.672985315322876,9.132036209106445,2.3730690479278564
1772727472045610000,2.78460986328125,-2.6768016815185547,9.130341529846191,2.3752846717834473
1772727472055609900,2.79460986328125,-2.6863467693328857,9.127358436584473,2.3759732246398926
1772727472065610000,2.80460986328125,-2.6862385272979736,9.12656307220459,2.37915301322937
1772727472075609900,2.81460986328125,-2.6801300048828125,9.128355979919434,2.379162073135376
1772727472085610000,2.82460986328125,-2.676544427871704,9.12928581237793,2.379631996154785
1772727472095609900,2.83460986328125,-2.6771953105926514,9.12878704071045,2.3808083534240723
1772727472105610000,2.84460986328125,-2.684399366378784,9.12630558013916,2.3822133541107178
1772727472115609900,2.85460986328125,-2.6884002685546875,9.124434471130371,2.3848681449890137
1772727472125610000,2.86460986328125,-2.6864798069000244,9.124080657958984,2.388380765914917
1772727472135609900,2.87460986328125,-2.683063507080078,9.123832702636719,2.393162727355957
1772727472145610000,2.88460986328125,-2.6816203594207764,9.122889518737793,2.398371696472168
1772727472155609900,2.89460986328125,-2.68264102935791,9.121164321899414,2.4037866592407227
1772727472165610000,2.90460986328125,-2.687833309173584,9.117558479309082,2.411653995513916
1772727472175609900,2.91460986328125,-2.684924602508545,9.117817878723145,2.413907527923584
1772727472185610000,2.92460986328125,-2.6757020950317383,9.119837760925293,2.416517734527588
1772727472195609900,2.93460986328125,-2.6762075424194336,9.118875503540039,2.4195897579193115
1772727472205610000,2.94460986328125,-2.6812703609466553,9.117409706115723,2.419510841369629
1772727472215609900,2.95460986328125,-2.684220790863037,9.116166114807129,2.4209249019622803
1772727472225610000,2.96460986328125,-2.6841816902160645,9.116232872009277,2.4207112789154053
1772727472235609900,2.97460986328125,-2.6842408180236816,9.116425514221191,2.419923782348633
1772727472245610000,2.98460986328125,-2.683015823364258,9.11678409576416,2.4199299812316895
1772727472255609900,2.99460986328125,-2.6858022212982178,9.115713119506836,2.4208731651306152
1772727472265610000,3.00460986328125,-2.687673330307007,9.115104675292969,2.421088218688965
1772727472275609900,3.01460986328125,-2.6925835609436035,9.113466262817383,2.4217963218688965
1772727472285610000,3.02460986328125,-2.6951870918273926,9.111627578735352,2.4258201122283936
1772727472295609900,3.03460986328125,-2.691687822341919,9.112425804138184,2.426705837249756
1772727472305610000,3.04460986328125,-2.689187526702881,9.113099098205566,2.4269518852233887
1772727472315609900,3.05460986328125,-2.692274570465088,9.112157821655273,2.427058696746826
1772727472325610000,3.06460986328125,-2.6954739093780518,9.110913276672363,2.4281811714172363
1772727472335609900,3.07460986328125,-2.695592164993286,9.110795974731445,2.428489923477173
1772727472345610000,3.08460986328125,-2.6914138793945312,9.112127304077148,2.4281296730041504
1772727472355609900,3.09460986328125,-2.688053846359253,9.113214492797852,2.4277727603912354
1772727472365610000,3.10460986328125,-2.6869895458221436,9.113677978515625,2.4272074699401855
1772727472375609900,3.11460986328125,-2.6879096031188965,9.11349868774414,2.426867723464966
1772727472385610000,3.12460986328125,-2.687971591949463,9.113494873046875,2.426807403564453
1772727472395609900,3.13460986328125,-2.6875972747802734,9.113503456115723,2.427194118499756
1772727472405610000,3.14460986328125,-2.6859898567199707,9.113755226135254,2.428025960922241
1772727472415609900,3.15460986328125,-2.6857333183288574,9.113399505615234,2.4296469688415527
1772727472425610000,3.16460986328125,-2.6838479042053223,9.11318302154541,2.4325366020202637
1772727472435609900,3.17460986328125,-2.6821889877319336,9.112991333007812,2.4350850582122803
1772727472445610000,3.18460986328125,-2.68141770362854,9.112403869628906,2.4381320476531982
1772727472455609900,3.19460986328125,-2.680159330368042,9.112205505371094,2.4402542114257812
1772727472465610000,3.20460986328125,-2.678252696990967,9.112042427062988,2.4429550170898438
1772727472475609900,3.21460986328125,-2.6765401363372803,9.112176895141602,2.444330930709839
1772727472485610000,3.22460986328125,-2.6767499446868896,9.111894607543945,2.4451494216918945
1772727472495609900,3.23460986328125,-2.677003860473633,9.111538887023926,2.446200370788574
1772727472505610000,3.24460986328125,-2.6774520874023438,9.111119270324707,2.447272777557373
1772727472515609900,3.25460986328125,-2.6787092685699463,9.11048412322998,2.4482617378234863
1772727472525610000,3.26460986328125,-2.679706335067749,9.110064506530762,2.4487311840057373
1772727472535609900,3.27460986328125,-2.6798768043518066,9.109746932983398,2.4497275352478027
1772727472545610000,3.28460986328125,-2.6798298358917236,9.10937213897705,2.451172113418579
1772727472555609900,3.29460986328125,-2.6799988746643066,9.108893394470215,2.452763557434082
1772727472565610000,3.30460986328125,-2.680340528488159,9.108397483825684,2.454233169555664
1772727472575609900,3.31460986328125,-2.6801345348358154,9.108152389526367,2.4553639888763428
1772727472585610000,3.32460986328125,-2.6799583435058594,9.108141899108887,2.4556000232696533
1772727472595609900,3.33460986328125,-2.6801576614379883,9.108052253723145,2.4557113647460938
1772727472605610000,3.34460986328125,-2.6805355548858643,9.107760429382324,2.456380605697632
1772727472615609900,3.35460986328125,-2.6809535026550293,9.107253074645996,2.4578053951263428
1772727472625610000,3.36460986328125,-2.682053804397583,9.106433868408203,2.4596426486968994
1772727472635609900,3.37460986328125,-2.6827735900878906,9.105666160583496,2.4616951942443848
1772727472645610000,3.38460986328125,-2.683018207550049,9.105122566223145,2.4634389877319336
1772727472655609900,3.39460986328125,-2.6820034980773926,9.10517406463623,2.4643545150756836
1772727472665610000,3.40460986328125,-2.680832862854004,9.105487823486328,2.4644689559936523
1772727472675609900,3.41460986328125,-2.6796884536743164,9.105978012084961,2.4639036655426025
1772727472685610000,3.42460986328125,-2.679288625717163,9.106319427490234,2.463076591491699
1772727472695609900,3.43460986328125,-2.678969144821167,9.106486320495605,2.4628031253814697
1772727472705610000,3.44460986328125,-2.679103136062622,9.106451988220215,2.4627878665924072
1772727472715609900,3.45460986328125,-2.6790997982025146,9.10630989074707,2.463319778442383
1772727472725610000,3.46460986328125,-2.6791467666625977,9.106104850769043,2.464026689529419
1772727472735609900,3.47460986328125,-2.6792256832122803,9.105518341064453,2.4661049842834473
1772727472745610000,3.48460986328125,-2.679429531097412,9.10473918914795,2.4687559604644775
1772727472755609900,3.49460986328125,-2.6794674396514893,9.1041259765625,2.470980167388916
1772727472765610000,3.50460986328125,-2.6786763668060303,9.103846549987793,2.472865343093872
1772727472775609900,3.51460986328125,-2.6774520874023438,9.103802680969238,2.474353313446045
1772727472785610000,3.52460986328125,-2.676532745361328,9.103808403015137,2.4753270149230957
1772727472795609900,3.53460986328125,-2.676522731781006,9.103548049926758,2.4762916564941406
1772727472805610000,3.54460986328125,-2.6770474910736084,9.103006362915039,2.4777166843414307
1772727472815609900,3.55460986328125,-2.677922248840332,9.10232925415039,2.479257822036743
1772727472825610000,3.56460986328125,-2.67891263961792,9.101584434509277,2.480921983718872
1772727472835609900,3.57460986328125,-2.67972731590271,9.100850105285645,2.482736587524414
1772727472845610000,3.58460986328125,-2.680480718612671,9.100257873535156,2.484092950820923
1772727472855609900,3.59460986328125,-2.6805906295776367,9.09996223449707,2.4850568771362305
1772727472865610000,3.60460986328125,-2.6799252033233643,9.099980354309082,2.4857065677642822
1772727472875609900,3.61460986328125,-2.6787078380584717,9.10035228729248,2.4856579303741455
1772727472885610000,3.62460986328125,-2.677065372467041,9.101042747497559,2.4849038124084473
1772727472895609900,3.63460986328125,-2.6761398315429688,9.101614952087402,2.4838011264801025
1772727472905610000,3.64460986328125,-2.6759209632873535,9.101968765258789,2.482741117477417
1772727472915609900,3.65460986328125,-2.676619052886963,9.101876258850098,2.4823267459869385
1772727472925610000,3.66460986328125,-2.6773841381073,9.101480484008789,2.4829559326171875
1772727472935609900,3.67460986328125,-2.6781084537506104,9.100963592529297,2.4840664863586426
1772727472945610000,3.68460986328125,-2.678595542907715,9.100566864013672,2.4849939346313477
1772727472955609900,3.69460986328125,-2.67883038520813,9.10007095336914,2.4865591526031494
1772727472965610000,3.70460986328125,-2.6788687705993652,9.099516868591309,2.4885432720184326
1772727472975609900,3.71460986328125,-2.6787269115448,9.09898567199707,2.4906363487243652
1772727472985610000,3.72460986328125,-2.678190231323242,9.098729133605957,2.4921517372131348
1772727472995609900,3.73460986328125,-2.67760968208313,9.098613739013672,2.493199110031128
1772727473005610000,3.74460986328125,-2.677412748336792,9.098512649536133,2.4937710762023926
1772727473015609900,3.75460986328125,-2.677567720413208,9.098467826843262,2.4937751293182373
1772727473025610000,3.76460986328125,-2.678251266479492,9.098213195800781,2.493969440460205
1772727473035609900,3.77460986328125,-2.679035186767578,9.097882270812988,2.494330883026123
1772727473045610000,3.78460986328125,-2.679520845413208,9.097502708435059,2.4951937198638916
1772727473055609900,3.79460986328125,-2.6795496940612793,9.09726619720459,2.4960262775421143
1772727473065610000,3.80460986328125,-2.6791412830352783,9.09717845916748,2.4967844486236572
1772727473075609900,3.81460986328125,-2.6785972118377686,9.097150802612305,2.497471332550049
1772727473085610000,3.82460986328125,-2.678096055984497,9.09708023071289,2.498265027999878
1772727473095609900,3.83460986328125,-2.6777234077453613,9.096993446350098,2.498981475830078
1772727473105610000,3.84460986328125,-2.676952838897705,9.097186088562012,2.499100923538208
1772727473115609900,3.85460986328125,-2.6766152381896973,9.097325325012207,2.4989562034606934
1772727473125610000,3.86460986328125,-2.6766786575317383,9.097330093383789,2.498875141143799
1772727473135609900,3.87460986328125,-2.676546573638916,9.097201347351074,2.4994845390319824
1772727473145610000,3.88460986328125,-2.6765518188476562,9.096863746643066,2.500706911087036
1772727473155609900,3.89460986328125,-2.6769514083862305,9.096306800842285,2.502304792404175
1772727473165610000,3.90460986328125,-2.6775572299957275,9.095587730407715,2.504267454147339
1772727473175609900,3.91460986328125,-2.678068161010742,9.094758033752441,2.506732225418091
1772727473185610000,3.92460986328125,-2.6781766414642334,9.093963623046875,2.5094964504241943
1772727473195609900,3.93460986328125,-2.677684783935547,9.093494415283203,2.511720895767212
1772727473205610000,3.94460986328125,-2.6769847869873047,9.093329429626465,2.5130696296691895
1772727473215609900,3.95460986328125,-2.676607131958008,9.093338012695312,2.513437271118164
1772727473225610000,3.96460986328125,-2.6764490604400635,9.09360122680664,2.51265025138855
1772727473235609900,3.97460986328125,-2.6766669750213623,9.093886375427246,2.5113868713378906
1772727473245610000,3.98460986328125,-2.6774063110351562,9.094038963317871,2.510047197341919
1772727473255609900,3.99460986328125,-2.6779603958129883,9.094001770019531,2.5095911026000977
1772727473265610000,4.00460986328125,-2.6778690814971924,9.093953132629395,2.5098650455474854
1772727473275609900,4.01460986328125,-2.677647590637207,9.09377384185791,2.510748863220215
1772727473285610000,4.02460986328125,-2.677267551422119,9.093482971191406,2.5122077465057373
1772727473295609900,4.03460986328125,-2.6765739917755127,9.093299865722656,2.513612747192383
1772727473305610000,4.04460986328125,-2.675755262374878,9.093234062194824,2.514721632003784
1772727473315609900,4.05460986328125,-2.6750779151916504,9.093255996704102,2.5153582096099854
1772727473325610000,4.06460986328125,-2.6746139526367188,9.093347549438477,2.5155210494995117
1772727473335609900,4.07460986328125,-2.6742091178894043,9.093564987182617,2.5151665210723877
1772727473345610000,4.08460986328125,-2.6743032932281494,9.09368896484375,2.5146195888519287
1772727473355609900,4.09460986328125,-2.674517869949341,9.09380054473877,2.5139875411987305
1772727473365610000,4.10460986328125,-2.6746933460235596,9.093966484069824,2.5132007598876953
1772727473375609900,4.11460986328125,-2.6747167110443115,9.09423828125,2.5121917724609375
1772727473385610000,4.12460986328125,-2.6748435497283936,9.094377517700195,2.5115509033203125
1772727473395609900,4.13460986328125,-2.675415277481079,9.094151496887207,2.5117595195770264
1772727473405610000,4.14460986328125,-2.6761367321014404,9.093732833862305,2.5125086307525635
1772727473415609900,4.15460986328125,-2.6765453815460205,9.093343734741211,2.513481378555298
1772727473425610000,4.16460986328125,-2.6765589714050293,9.093111991882324,2.514305353164673
1772727473435609900,4.17460986328125,-2.676301956176758,9.092997550964355,2.514991521835327
1772727473445610000,4.18460986328125,-2.67594051361084,9.093099594116211,2.5150105953216553
1772727473455609900,4.19460986328125,-2.6753451824188232,9.093378067016602,2.5146350860595703
1772727473465610000,4.20460986328125,-2.674980640411377,9.09361743927002,2.5141568183898926
1772727473475609900,4.21460986328125,-2.675231456756592,9.093727111816406,2.5134966373443604
1772727473485610000,4.22460986328125,-2.6753995418548584,9.093914985656738,2.5126373767852783
1772727473495609900,4.23460986328125,-2.675062417984009,9.094367027282715,2.5113558769226074
1772727473505610000,4.24460986328125,-2.6744942665100098,9.095004081726074,2.509653091430664
1772727473515609900,4.25460986328125,-2.673821210861206,9.095671653747559,2.5079519748687744
1772727473525610000,4.26460986328125,-2.6733741760253906,9.096125602722168,2.5067801475524902
1772727473535609900,4.27460986328125,-2.6729390621185303,9.096319198608398,2.506542444229126
1772727473545610000,4.28460986328125,-2.672517776489258,9.096372604370117,2.5067968368530273
1772727473555609900,4.29460986328125,-2.6720829010009766,9.09627914428711,2.5075998306274414
1772727473565610000,4.30460986328125,-2.671326160430908,9.096174240112305,2.5087900161743164
1772727473575609900,4.31460986328125,-2.671015977859497,9.095739364624023,2.510693311691284
1772727473585610000,4.32460986328125,-2.671515703201294,9.095053672790527,2.512648820877075
1772727473595609900,4.33460986328125,-2.672462224960327,9.094216346740723,2.5146677494049072
1772727473605610000,4.34460986328125,-2.6732101440429688,9.093360900878906,2.51696515083313
1772727473615609900,4.35460986328125,-2.6743760108947754,9.092259407043457,2.5197062492370605
1772727473625610000,4.36460986328125,-2.675966501235962,9.091094970703125,2.5222201347351074
1772727473635609900,4.37460986328125,-2.677196979522705,9.090088844299316,2.524538516998291
1772727473645610000,4.38460986328125,-2.6782610416412354,9.08926773071289,2.5263640880584717
1772727473655609900,4.39460986328125,-2.6793460845947266,9.088561058044434,2.5277557373046875
1772727473665610000,4.40460986328125,-2.680765390396118,9.088019371032715,2.5281996726989746
1772727473675609900,4.41460986328125,-2.6822493076324463,9.08768081665039,2.527839183807373
1772727473685610000,4.42460986328125,-2.6834349632263184,9.087421417236328,2.5275156497955322
1772727473695609900,4.43460986328125,-2.684206008911133,9.087343215942383,2.52698016166687
1772727473705610000,4.44460986328125,-2.6847825050354004,9.087362289428711,2.526297092437744
1772727473715609900,4.45460986328125,-2.685131788253784,9.087324142456055,2.5260612964630127
1772727473725610000,4.46460986328125,-2.6851563453674316,9.087313652038574,2.5260767936706543
1772727473735609900,4.47460986328125,-2.683452844619751,9.087896347045898,2.5257904529571533
1772727473745610000,4.48460986328125,-2.6816444396972656,9.08859920501709,2.525181770324707
1772727473755609900,4.49460986328125,-2.6805970668792725,9.089301109313965,2.523768186569214
1772727473765610000,4.50460986328125,-2.680482864379883,9.08998966217041,2.521407127380371
1772727473775609900,4.51460986328125,-2.679798126220703,9.0906982421875,2.5195791721343994
1772727473785610000,4.52460986328125,-2.6787939071655273,9.091334342956543,2.518350601196289
1772727473795609900,4.53460986328125,-2.6779191493988037,9.09179401397705,2.5176219940185547
1772727473805610000,4.54460986328125,-2.6766281127929688,9.092244148254395,2.5173680782318115
1772727473815609900,4.55460986328125,-2.6754488945007324,9.092476844787598,2.5177807807922363
1772727473825610000,4.56460986328125,-2.673818826675415,9.092634201049805,2.5189459323883057
1772727473835609900,4.57460986328125,-2.6718244552612305,9.092883110046387,2.5201621055603027
1772727473845610000,4.58460986328125,-2.6701102256774902,9.09310531616211,2.5211730003356934
1772727473855609900,4.59460986328125,-2.6691534519195557,9.093236923217773,2.521714687347412
1772727473865610000,4.60460986328125,-2.669292688369751,9.093269348144531,2.521453857421875
1772727473875609900,4.61460986328125,-2.6698222160339355,9.09324836730957,2.520966053009033
1772727473885610000,4.62460986328125,-2.670267105102539,9.093199729919434,2.5206735134124756
1772727473895609900,4.63460986328125,-2.670905351638794,9.09302806854248,2.520610809326172
1772727473905610000,4.64460986328125,-2.671048164367676,9.092845916748047,2.5211193561553955
1772727473915609900,4.65460986328125,-2.6712677478790283,9.09249210357666,2.522160291671753
1772727473925610000,4.66460986328125,-2.6718943119049072,9.092105865478516,2.522893190383911
1772727473935609900,4.67460986328125,-2.672044515609741,9.091938018798828,2.5233349800109863
1772727473945610000,4.68460986328125,-2.6717357635498047,9.09212589263916,2.5229876041412354
1772727473955609900,4.69460986328125,-2.6722254753112793,9.092141151428223,2.522413969039917
1772727473965610000,4.70460986328125,-2.6734087467193604,9.092120170593262,2.5212364196777344
1772727473975609900,4.71460986328125,-2.6741228103637695,9.092100143432617,2.520552158355713
1772727473985610000,4.72460986328125,-2.6748294830322266,9.092092514038086,2.5198240280151367
1772727473995609900,4.73460986328125,-2.675098180770874,9.092108726501465,2.5194826126098633
1772727474005610000,4.74460986328125,-2.675204038619995,9.09207820892334,2.5194787979125977
1772727474015609900,4.75460986328125,-2.675001859664917,9.091629981994629,2.5213098526000977
1772727474025610000,4.76460986328125,-2.675185203552246,9.090618133544922,2.524761915206909
1772727474035609900,4.77460986328125,-2.675067663192749,9.089424133300781,2.529184341430664
1772727474045610000,4.78460986328125,-2.675433874130249,9.088138580322266,2.5334103107452393
1772727474055609900,4.79460986328125,-2.6752030849456787,9.087125778198242,2.537287950515747
1772727474065610000,4.80460986328125,-2.67484450340271,9.086668014526367,2.539302349090576
1772727474075609900,4.81460986328125,-2.6745336055755615,9.086894035339355,2.538818120956421
1772727474085610000,4.82460986328125,-2.674333333969116,9.087675094604492,2.536233425140381
1772727474095609900,4.83460986328125,-2.6746602058410645,9.088359832763672,2.5334315299987793
1772727474105610000,4.84460986328125,-2.675389051437378,9.088817596435547,2.5310235023498535
1772727474115609900,4.85460986328125,-2.6754064559936523,9.089180946350098,2.5296971797943115
1772727474125610000,4.86460986328125,-2.674633741378784,9.089488983154297,2.5294110774993896
1772727474135609900,4.87460986328125,-2.6741886138916016,9.089425086975098,2.53011155128479
1772727474145610000,4.88460986328125,-2.6740634441375732,9.089139938354492,2.5312674045562744
1772727474155609900,4.89460986328125,-2.672929286956787,9.088783264160156,2.5337424278259277
1772727474165610000,4.90460986328125,-2.6717686653137207,9.088552474975586,2.535794734954834
1772727474175609900,4.91460986328125,-2.6716063022613525,9.0882568359375,2.53702449798584
1772727474185610000,4.92460986328125,-2.672137975692749,9.087839126586914,2.537964105606079
1772727474195609900,4.93460986328125,-2.673168420791626,9.087857246398926,2.5368127822875977
1772727474205610000,4.94460986328125,-2.6726346015930176,9.088553428649902,2.5348763465881348
1772727474215609900,4.95460986328125,-2.6711416244506836,9.088967323303223,2.53497052192688
1772727474225610000,4.96460986328125,-2.671745538711548,9.089176177978516,2.533583164215088
1772727474235609900,4.97460986328125,-2.672752618789673,9.089378356933594,2.53179669380188
1772727474245610000,4.98460986328125,-2.6703848838806152,9.089690208435059,2.533174753189087
1772727474255609900,4.99460986328125,-2.6702933311462402,9.089071273803711,2.535491704940796
1772727474265610000,5.00460986328125,-2.672612190246582,9.087408065795898,2.539006471633911
1772727474275609900,5.01460986328125,-2.6748969554901123,9.086593627929688,2.5395147800445557
1772727474285610000,5.02460986328125,-2.6735141277313232,9.087085723876953,2.5392065048217773
1772727474295609900,5.03460986328125,-2.6720621585845947,9.087807655334473,2.538151264190674
1772727474305610000,5.04460986328125,-2.6733105182647705,9.08786678314209,2.5366272926330566
1772727474315609900,5.05460986328125,-2.67553448677063,9.087623596191406,2.535153865814209
1772727474325610000,5.06460986328125,-2.6762335300445557,9.08775520324707,2.533945322036743
1772727474335609900,5.07460986328125,-2.675576686859131,9.088138580322266,2.533257484436035
1772727474345610000,5.08460986328125,-2.6760406494140625,9.088116645812988,2.532848834991455
1772727474355609900,5.09460986328125,-2.677229404449463,9.088211059570312,2.531256914138794
1772727474365610000,5.10460986328125,-2.6745166778564453,9.089092254638672,2.530956983566284
1772727474375609900,5.11460986328125,-2.6726763248443604,9.089356422424316,2.5319533348083496
1772727474385610000,5.12460986328125,-2.6746652126312256,9.08971118927002,2.5285778045654297
1772727474395609900,5.13460986328125,-2.6755824089050293,9.090415000915527,2.525073528289795
1772727474405610000,5.14460986328125,-2.6754848957061768,9.091028213500977,2.52297043800354
1772727474415609900,5.15460986328125,-2.673795700073242,9.091922760009766,2.5215370655059814
1772727474425610000,5.16460986328125,-2.6739792823791504,9.092338562011719,2.519840717315674
1772727474435609900,5.17460986328125,-2.6749887466430664,9.092331886291504,2.518795967102051
1772727474445610000,5.18460986328125,-2.6760265827178955,9.09157657623291,2.5204148292541504
1772727474455609900,5.19460986328125,-2.6736931800842285,9.091594696044922,2.5228278636932373
1772727474465610000,5.20460986328125,-2.67071533203125,9.091590881347656,2.525993585586548
1772727474475609900,5.21460986328125,-2.667066812515259,9.091934204101562,2.528611660003662
1772727474485610000,5.22460986328125,-2.6656320095062256,9.092085838317871,2.529576301574707
1772727474495609900,5.23460986328125,-2.6654374599456787,9.092042922973633,2.529935598373413
1772727474505610000,5.24460986328125,-2.667353391647339,9.091733932495117,2.5290257930755615
1772727474515609900,5.25460986328125,-2.6684203147888184,9.091849327087402,2.5274932384490967
1772727474525610000,5.26460986328125,-2.6666345596313477,9.091989517211914,2.5288679599761963
1772727474535609900,5.27460986328125,-2.6658337116241455,9.091987609863281,2.5297181606292725
1772727474545610000,5.28460986328125,-2.6681110858917236,9.091591835021973,2.5287396907806396
1772727474555609900,5.29460986328125,-2.6703100204467773,9.089960098266602,2.5322844982147217
1772727474565610000,5.30460986328125,-2.668706178665161,9.088810920715332,2.5380911827087402
1772727474575609900,5.31460986328125,-2.666282892227173,9.088529586791992,2.5416433811187744
1772727474585610000,5.32460986328125,-2.6658008098602295,9.08869743347168,2.5415468215942383
1772727474595609900,5.33460986328125,-2.6674656867980957,9.088727951049805,2.5396947860717773
1772727474605610000,5.34460986328125,-2.6691243648529053,9.08890438079834,2.537315607070923
1772727474615609900,5.35460986328125,-2.672927141189575,9.088708877563477,2.534012794494629
1772727474625610000,5.36460986328125,-2.675570249557495,9.089014053344727,2.5301263332366943
1772727474635609900,5.37460986328125,-2.6752846240997314,9.090096473693848,2.526535987854004
1772727474645610000,5.38460986328125,-2.6734485626220703,9.091320991516113,2.524076223373413
1772727474655609900,5.39460986328125,-2.671816825866699,9.092227935791016,2.522533893585205
1772727474665610000,5.40460986328125,-2.6694955825805664,9.093250274658203,2.5213043689727783
1772727474675609900,5.41460986328125,-2.666154384613037,9.094331741333008,2.5209403038024902
1772727474685610000,5.42460986328125,-2.6617021560668945,9.095444679260254,2.5216310024261475
1772727474695609900,5.43460986328125,-2.658501148223877,9.095979690551758,2.523076295852661
1772727474705610000,5.44460986328125,-2.6582539081573486,9.095447540283203,2.525252103805542
1772727474715609900,5.45460986328125,-2.660224199295044,9.094186782836914,2.527719497680664
1772727474725610000,5.46460986328125,-2.6626505851745605,9.092833518981934,2.5300302505493164
1772727474735609900,5.47460986328125,-2.6648569107055664,9.091960906982422,2.5308468341827393
1772727474745610000,5.48460986328125,-2.6667871475219727,9.09115219116211,2.5317189693450928
1772727474755609900,5.49460986328125,-2.668618679046631,9.089967727661133,2.5340402126312256
1772727474765610000,5.50460986328125,-2.6704111099243164,9.088597297668457,2.53706431388855
1772727474775609900,5.51460986328125,-2.671292304992676,9.08769416809082,2.539369821548462
1772727474785610000,5.52460986328125,-2.671360969543457,9.087189674377441,2.541102647781372
1772727474795609900,5.53460986328125,-2.671119213104248,9.086954116821289,2.5421974658966064
1772727474805610000,5.54460986328125,-2.670412063598633,9.087000846862793,2.5427730083465576
1772727474815609900,5.55460986328125,-2.669039011001587,9.087414741516113,2.5427374839782715
1772727474825610000,5.56460986328125,-2.667511463165283,9.087933540344238,2.5424888134002686
1772727474835609900,5.57460986328125,-2.6662206649780273,9.088443756103516,2.542015552520752
1772727474845610000,5.58460986328125,-2.665440559387207,9.088943481445312,2.541046142578125
1772727474855609900,5.59460986328125,-2.6640942096710205,9.08971881866455,2.5396833419799805
1772727474865610000,5.60460986328125,-2.6624021530151367,9.090592384338379,2.538332223892212
1772727474875609900,5.61460986328125,-2.6602630615234375,9.09151840209961,2.537262439727783
1772727474885610000,5.62460986328125,-2.6582281589508057,9.092142105102539,2.5371546745300293
1772727474895609900,5.63460986328125,-2.6561167240142822,9.092375755310059,2.5385286808013916
1772727474905610000,5.64460986328125,-2.655482053756714,9.092340469360352,2.5393190383911133
1772727474915609900,5.65460986328125,-2.6564109325408936,9.09186840057373,2.54004168510437
1772727474925610000,5.66460986328125,-2.658784866333008,9.090896606445312,2.541033983230591
1772727474935609900,5.67460986328125,-2.6602728366851807,9.09000015258789,2.542679786682129
1772727474945610000,5.68460986328125,-2.6609294414520264,9.08951187133789,2.5437393188476562
1772727474955609900,5.69460986328125,-2.65999698638916,9.089677810668945,2.5441198348999023
1772727474965610000,5.70460986328125,-2.657832384109497,9.090276718139648,2.5442492961883545
1772727474975609900,5.71460986328125,-2.656275987625122,9.090546607971191,2.544905662536621
1772727474985610000,5.72460986328125,-2.6560871601104736,9.090455055236816,2.545433759689331
1772727474995609900,5.73460986328125,-2.656313896179199,9.090253829956055,2.545910358428955
1772727475005610000,5.74460986328125,-2.656223773956299,9.090121269226074,2.546476364135742
1772727475015609900,5.75460986328125,-2.6553542613983154,9.090179443359375,2.547178268432617
1772727475025610000,5.76460986328125,-2.654862403869629,9.090149879455566,2.547793388366699
1772727475035609900,5.77460986328125,-2.6548256874084473,9.089876174926758,2.548809289932251
1772727475045610000,5.78460986328125,-2.654731512069702,9.089641571044922,2.5497448444366455
1772727475055609900,5.79460986328125,-2.654433012008667,9.089537620544434,2.5504307746887207
1772727475065610000,5.80460986328125,-2.6539130210876465,9.08959674835205,2.550753593444824
1772727475075609900,5.81460986328125,-2.6535263061523438,9.089605331420898,2.5511252880096436
1772727475085610000,5.82460986328125,-2.6537041664123535,9.08931827545166,2.5519697666168213
1772727475095609900,5.83460986328125,-2.654536008834839,9.08879566192627,2.5529651641845703
1772727475105610000,5.84460986328125,-2.6557271480560303,9.088160514831543,2.5539848804473877
1772727475115609900,5.85460986328125,-2.6561765670776367,9.087837219238281,2.5546696186065674
1772727475125610000,5.86460986328125,-2.6566426753997803,9.087620735168457,2.5549545288085938
1772727475135609900,5.87460986328125,-2.6575281620025635,9.087484359741211,2.5545201301574707
1772727475145610000,5.88460986328125,-2.658292770385742,9.087437629699707,2.5538854598999023
1772727475155609900,5.89460986328125,-2.6587438583374023,9.087456703186035,2.553349733352661
1772727475165610000,5.90460986328125,-2.6590335369110107,9.087406158447266,2.5532243251800537
1772727475175609900,5.91460986328125,-2.659227132797241,9.087251663208008,2.553579092025757
1772727475185610000,5.92460986328125,-2.659170150756836,9.087198257446289,2.5538229942321777
1772727475195609900,5.93460986328125,-2.6590399742126465,9.087156295776367,2.5541133880615234
1772727475205610000,5.94460986328125,-2.6592068672180176,9.086943626403809,2.554692506790161
1772727475215609900,5.95460986328125,-2.6590986251831055,9.086864471435547,2.5550899505615234
1772727475225610000,5.96460986328125,-2.658644199371338,9.08700180053711,2.555074691772461
1772727475235609900,5.97460986328125,-2.658468246459961,9.087172508239746,2.554650068283081
1772727475245610000,5.98460986328125,-2.658792495727539,9.087312698364258,2.5538103580474854
1772727475255609900,5.99460986328125,-2.659446954727173,9.087456703186035,2.5526163578033447
1772727475265610000,6.00460986328125,-2.6598691940307617,9.087605476379395,2.551649332046509
1772727475275609900,6.01460986328125,-2.660548448562622,9.087532043457031,2.5512032508850098
1772727475285610000,6.02460986328125,-2.6608076095581055,9.087486267089844,2.551095962524414
1772727475295609900,6.03460986328125,-2.66023588180542,9.087637901306152,2.551149368286133
1772727475305610000,6.04460986328125,-2.6595733165740967,9.087971687316895,2.550651788711548
1772727475315609900,6.05460986328125,-2.659811496734619,9.088244438171387,2.5494329929351807
1772727475325610000,6.06460986328125,-2.6606388092041016,9.088387489318848,2.5480592250823975
1772727475335609900,6.07460986328125,-2.6615209579467773,9.088242530822754,2.547651529312134
1772727475345610000,6.08460986328125,-2.662879705429077,9.087672233581543,2.5482661724090576
1772727475355609900,6.09460986328125,-2.6641812324523926,9.086902618408203,2.549654245376587
1772727475365610000,6.10460986328125,-2.6656100749969482,9.086186408996582,2.550710439682007
1772727475375609900,6.11460986328125,-2.666201114654541,9.08591365814209,2.5510647296905518
1772727475385610000,6.12460986328125,-2.667633295059204,9.085646629333496,2.5505194664001465
1772727475395609900,6.13460986328125,-2.668494701385498,9.085453033447266,2.5503084659576416
1772727475405610000,6.14460986328125,-2.668858289718628,9.085269927978516,2.55057954788208
1772727475415609900,6.15460986328125,-2.6682794094085693,9.085233688354492,2.5513131618499756
1772727475425610000,6.16460986328125,-2.6675634384155273,9.085293769836426,2.551848888397217
1772727475435609900,6.17460986328125,-2.6668896675109863,9.085474967956543,2.551906108856201
1772727475445610000,6.18460986328125,-2.666774034500122,9.085883140563965,2.5505752563476562
1772727475455609900,6.19460986328125,-2.66726016998291,9.086135864257812,2.5491673946380615
1772727475465610000,6.20460986328125,-2.6681599617004395,9.086341857910156,2.5474889278411865
1772727475475609900,6.21460986328125,-2.6688499450683594,9.086583137512207,2.5459048748016357
1772727475485610000,6.22460986328125,-2.6687629222869873,9.08684253692627,2.5450706481933594
1772727475495609900,6.23460986328125,-2.668388843536377,9.087305068969727,2.5438103675842285
1772727475505610000,6.24460986328125,-2.668063163757324,9.08784294128418,2.542228937149048
1772727475515609900,6.25460986328125,-2.667445659637451,9.08825969696045,2.5413899421691895
1772727475525610000,6.26460986328125,-2.666151285171509,9.088540077209473,2.5417439937591553
1772727475535609900,6.27460986328125,-2.664933919906616,9.088536262512207,2.543034791946411
1772727475545610000,6.28460986328125,-2.664118528366089,9.088132858276367,2.545330047607422
1772727475555609900,6.29460986328125,-2.6651549339294434,9.087274551391602,2.5473058223724365
1772727475565610000,6.30460986328125,-2.667412042617798,9.08617115020752,2.548881769180298
1772727475575609900,6.31460986328125,-2.668808937072754,9.085183143615723,2.5509414672851562
1772727475585610000,6.32460986328125,-2.670985460281372,9.084132194519043,2.5524048805236816
1772727475595609900,6.33460986328125,-2.6715574264526367,9.083352088928223,2.5545804500579834
1772727475605610000,6.34460986328125,-2.6718943119049072,9.082598686218262,2.5569093227386475
1772727475615609900,6.35460986328125,-2.6713032722473145,9.08241081237793,2.5581912994384766
1772727475625610000,6.36460986328125,-2.6705150604248047,9.082714080810547,2.557936429977417
1772727475635609900,6.37460986328125,-2.6697654724121094,9.083282470703125,2.5567009449005127
1772727475645610000,6.38460986328125,-2.669956922531128,9.083846092224121,2.554492712020874
1772727475655609900,6.39460986328125,-2.669872999191284,9.084403991699219,2.552602767944336
1772727475665610000,6.40460986328125,-2.6700284481048584,9.084850311279297,2.5508460998535156
1772727475675609900,6.41460986328125,-2.6697168350219727,9.085282325744629,2.5496368408203125
1772727475685610000,6.42460986328125,-2.669286012649536,9.085433006286621,2.549551248550415
1772727475695609900,6.43460986328125,-2.669154167175293,9.085437774658203,2.5496726036071777
1772727475705610000,6.44460986328125,-2.6690471172332764,9.085280418395996,2.5503463745117188
1772727475715609900,6.45460986328125,-2.668442487716675,9.085054397583008,2.551781415939331
1772727475725610000,6.46460986328125,-2.667646646499634,9.084636688232422,2.554100513458252
1772727475735609900,6.47460986328125,-2.6669583320617676,9.084136009216309,2.5565993785858154
1772727475745610000,6.48460986328125,-2.6670799255371094,9.083687782287598,2.5580625534057617
1772727475755609900,6.49460986328125,-2.66817045211792,9.08337116241455,2.558048963546753
1772727475765610000,6.50460986328125,-2.668900489807129,9.083471298217773,2.556934356689453
1772727475775609900,6.51460986328125,-2.669038772583008,9.083955764770508,2.5550646781921387
1772727475785610000,6.52460986328125,-2.6693167686462402,9.084395408630371,2.5532147884368896
1772727475795609900,6.53460986328125,-2.669492244720459,9.084569931030273,2.552407741546631
1772727475805610000,6.54460986328125,-2.668945074081421,9.084738731384277,2.552377223968506
1772727475815609900,6.55460986328125,-2.667743682861328,9.084829330444336,2.553309440612793
1772727475825610000,6.56460986328125,-2.666574478149414,9.084785461425781,2.5546886920928955
1772727475835609900,6.57460986328125,-2.666233777999878,9.084556579589844,2.5558574199676514
1772727475845610000,6.58460986328125,-2.6664490699768066,9.08422565460205,2.5568130016326904
1772727475855609900,6.59460986328125,-2.667151927947998,9.083906173706055,2.557213544845581
1772727475865610000,6.60460986328125,-2.667741060256958,9.083853721618652,2.556783676147461
1772727475875609900,6.61460986328125,-2.667759656906128,9.08419418334961,2.555553913116455
1772727475885610000,6.62460986328125,-2.6671712398529053,9.084943771362305,2.553504228591919
1772727475895609900,6.63460986328125,-2.666163444519043,9.085811614990234,2.5514655113220215
1772727475905610000,6.64460986328125,-2.665288209915161,9.086612701416016,2.5495259761810303
1772727475915609900,6.65460986328125,-2.6644515991210938,9.087104797363281,2.548645496368408
1772727475925610000,6.66460986328125,-2.6640126705169678,9.086997985839844,2.5494892597198486
1772727475935609900,6.67460986328125,-2.6639902591705322,9.086525917053223,2.551192283630371
1772727475945610000,6.68460986328125,-2.663963794708252,9.086137771606445,2.5526018142700195
1772727475955609900,6.69460986328125,-2.6640970706939697,9.08570384979248,2.5540082454681396
1772727475965610000,6.70460986328125,-2.6642391681671143,9.085247039794922,2.5554819107055664
1772727475975609900,6.71460986328125,-2.6646728515625,9.084710121154785,2.556938409805298
1772727475985610000,6.72460986328125,-2.6647961139678955,9.084244728088379,2.5584661960601807
1772727475995609900,6.73460986328125,-2.664854049682617,9.08398151397705,2.5593395233154297
1772727476005610000,6.74460986328125,-2.6649575233459473,9.083924293518066,2.559438943862915
1772727476015609900,6.75460986328125,-2.6649889945983887,9.084177017211914,2.5585060119628906
1772727476025610000,6.76460986328125,-2.6648972034454346,9.08466911315918,2.5568532943725586
1772727476035609900,6.77460986328125,-2.664032459259033,9.085402488708496,2.555148124694824
1772727476045610000,6.78460986328125,-2.663301467895508,9.085982322692871,2.553846836090088
1772727476055609900,6.79460986328125,-2.6629128456115723,9.086385726928711,2.5528159141540527
1772727476065610000,6.80460986328125,-2.663468599319458,9.086380004882812,2.552258014678955
1772727476075609900,6.81460986328125,-2.6640520095825195,9.086068153381348,2.5527608394622803
1772727476085610000,6.82460986328125,-2.6643459796905518,9.085675239562988,2.5538527965545654
1772727476095609900,6.83460986328125,-2.6640450954437256,9.08528995513916,2.5555365085601807
1772727476105610000,6.84460986328125,-2.663450241088867,9.085041999816895,2.5570340156555176
1772727476115609900,6.85460986328125,-2.662714719772339,9.085171699523926,2.557344675064087
1772727476125610000,6.86460986328125,-2.662182092666626,9.085518836975098,2.5566601753234863
1772727476135609900,6.87460986328125,-2.662367105484009,9.085731506347656,2.5557143688201904
1772727476145610000,6.88460986328125,-2.66402268409729,9.085433959960938,2.555046319961548
1772727476155609900,6.89460986328125,-2.666114568710327,9.084892272949219,2.554792881011963
1772727476165610000,6.90460986328125,-2.6676175594329834,9.084392547607422,2.554999589920044
1772727476175609900,6.91460986328125,-2.6682755947113037,9.084066390991211,2.5554730892181396
1772727476185610000,6.92460986328125,-2.6679441928863525,9.084117889404297,2.5556328296661377
1772727476195609900,6.93460986328125,-2.667762517929077,9.084236145019531,2.555403232574463
1772727476205610000,6.94460986328125,-2.6675662994384766,9.084378242492676,2.555100917816162
1772727476215609900,6.95460986328125,-2.6677405834198,9.084259033203125,2.5553441047668457
1772727476225610000,6.96460986328125,-2.6679365634918213,9.084027290344238,2.5559639930725098
1772727476235609900,6.97460986328125,-2.668229579925537,9.083751678466797,2.556635856628418
1772727476245610000,6.98460986328125,-2.668569564819336,9.083645820617676,2.55665922164917
1772727476255609900,6.99460986328125,-2.6685972213745117,9.083738327026367,2.5563011169433594
1772727476265610000,7.00460986328125,-2.668125629425049,9.08410930633545,2.5554747581481934
1772727476275609900,7.01460986328125,-2.667433023452759,9.084729194641113,2.553992986679077
1772727476285610000,7.02460986328125,-2.666364908218384,9.085583686828613,2.5520682334899902
1772727476295609900,7.03460986328125,-2.665761709213257,9.08634090423584,2.550004482269287
1772727476305610000,7.04460986328125,-2.6655726432800293,9.086811065673828,2.5485236644744873
1772727476315609900,7.05460986328125,-2.666391372680664,9.08665943145752,2.548213005065918
1772727476325610000,7.06460986328125,-2.6671571731567383,9.086281776428223,2.548754930496216
1772727476335609900,7.07460986328125,-2.6684186458587646,9.085619926452637,2.5497934818267822
1772727476345610000,7.08460986328125,-2.669463634490967,9.084769248962402,2.5517256259918213
1772727476355609900,7.09460986328125,-2.670070171356201,9.083998680114746,2.5538394451141357
1772727476365610000,7.10460986328125,-2.669226884841919,9.08375358581543,2.5555901527404785
1772727476375609900,7.11460986328125,-2.667834520339966,9.0839262008667,2.5564262866973877
1772727476385610000,7.12460986328125,-2.667752742767334,9.08387565612793,2.5566916465759277
1772727476395609900,7.13460986328125,-2.66876482963562,9.083712577819824,2.5562193393707275
1772727476405610000,7.14460986328125,-2.669647455215454,9.083795547485352,2.5550012588500977
1772727476415609900,7.15460986328125,-2.670199155807495,9.084074020385742,2.553435802459717
1772727476425610000,7.16460986328125,-2.6700427532196045,9.084403991699219,2.552422046661377
1772727476435609900,7.17460986328125,-2.670248031616211,9.084433555603027,2.5521023273468018
1772727476445610000,7.18460986328125,-2.6700572967529297,9.084366798400879,2.5525403022766113
1772727476455609900,7.19460986328125,-2.669487237930298,9.084318161010742,2.5533101558685303
1772727476465610000,7.20460986328125,-2.668890953063965,9.084319114685059,2.553929090499878
1772727476475609900,7.21460986328125,-2.6679604053497314,9.084589958190918,2.5539402961730957
1772727476485610000,7.22460986328125,-2.666901111602783,9.084954261779785,2.5537514686584473
1772727476495609900,7.23460986328125,-2.6654396057128906,9.085410118103027,2.5536530017852783
1772727476505610000,7.24460986328125,-2.664304256439209,9.08580493927002,2.553431987762451
1772727476515609900,7.25460986328125,-2.6638684272766113,9.086078643798828,2.5529136657714844
1772727476525610000,7.26460986328125,-2.6638574600219727,9.0862398147583,2.552354335784912
1772727476535609900,7.27460986328125,-2.664109945297241,9.086200714111328,2.5522301197052
1772727476545610000,7.28460986328125,-2.6641321182250977,9.085979461669922,2.552992820739746
1772727476555609900,7.29460986328125,-2.664013147354126,9.085497856140137,2.554830551147461
1772727476565610000,7.30460986328125,-2.6639604568481445,9.084853172302246,2.557175636291504
1772727476575609900,7.31460986328125,-2.662721872329712,9.084759712219238,2.5587968826293945
1772727476585610000,7.32460986328125,-2.661294460296631,9.085149765014648,2.558896541595459
1772727476595609900,7.33460986328125,-2.660820245742798,9.085588455200195,2.557833433151245
1772727476605610000,7.34460986328125,-2.6616291999816895,9.085758209228516,2.5563876628875732
1772727476615609900,7.35460986328125,-2.6624627113342285,9.085883140563965,2.555074453353882
1772727476625610000,7.36460986328125,-2.663097620010376,9.086053848266602,2.5538063049316406
1772727476635609900,7.37460986328125,-2.6632912158966064,9.086328506469727,2.5526251792907715
1772727476645610000,7.38460986328125,-2.662681818008423,9.08663558959961,2.5521697998046875
1772727476655609900,7.39460986328125,-2.661530017852783,9.086915016174316,2.5523746013641357
1772727476665610000,7.40460986328125,-2.6599273681640625,9.087301254272461,2.55267333984375
1772727476675609900,7.41460986328125,-2.6585500240325928,9.087763786315918,2.552461862564087
1772727476685610000,7.42460986328125,-2.6581716537475586,9.088001251220703,2.5520055294036865
1772727476695609900,7.43460986328125,-2.658811330795288,9.087995529174805,2.5513627529144287
1772727476705610000,7.44460986328125,-2.6598522663116455,9.087793350219727,2.5510003566741943
1772727476715609900,7.45460986328125,-2.6606924533843994,9.087514877319336,2.5511109828948975
1772727476725610000,7.46460986328125,-2.6612470149993896,9.0872220993042,2.5515782833099365
1772727476735609900,7.47460986328125,-2.660963296890259,9.08729076385498,2.5516276359558105
1772727476745610000,7.48460986328125,-2.660083055496216,9.087621688842773,2.5513665676116943
1772727476755609900,7.49460986328125,-2.659438133239746,9.08784008026123,2.551262617111206
1772727476765610000,7.50460986328125,-2.659830093383789,9.087592124938965,2.5517377853393555
1772727476775609900,7.51460986328125,-2.660634994506836,9.087027549743652,2.552910566329956
1772727476785610000,7.52460986328125,-2.661344051361084,9.086626052856445,2.5535950660705566
1772727476795609900,7.53460986328125,-2.6616017818450928,9.086624145507812,2.5533337593078613
1772727476805610000,7.54460986328125,-2.661271333694458,9.086939811706543,2.552553653717041
1772727476815609900,7.55460986328125,-2.6606109142303467,9.087206840515137,2.5522916316986084
1772727476825610000,7.56460986328125,-2.66042160987854,9.087191581726074,2.5525472164154053
1772727476835609900,7.57460986328125,-2.659900188446045,9.087190628051758,2.5530920028686523
1772727476845610000,7.58460986328125,-2.659127950668335,9.087286949157715,2.5535550117492676
1772727476855609900,7.59460986328125,-2.658796787261963,9.087139129638672,2.5544257164001465
1772727476865610000,7.60460986328125,-2.6589548587799072,9.086956024169922,2.5549094676971436
1772727476875609900,7.61460986328125,-2.6590309143066406,9.08706283569336,2.5544495582580566
1772727476885610000,7.62460986328125,-2.659482955932617,9.087306022644043,2.553119659423828
1772727476895609900,7.63460986328125,-2.660478353500366,9.087522506713867,2.5513112545013428
1772727476905610000,7.64460986328125,-2.6617279052734375,9.087517738342285,2.5500242710113525
1772727476915609900,7.65460986328125,-2.662254810333252,9.08749771118164,2.549541473388672
1772727476925610000,7.66460986328125,-2.6615941524505615,9.087625503540039,2.549774646759033
1772727476935609900,7.67460986328125,-2.6605191230773926,9.087699890136719,2.5506370067596436
1772727476945610000,7.68460986328125,-2.660071611404419,9.087658882141113,2.551248550415039
1772727476955609900,7.69460986328125,-2.6608269214630127,9.087347984313965,2.5515687465667725
1772727476965610000,7.70460986328125,-2.662358522415161,9.086803436279297,2.551908016204834
1772727476975609900,7.71460986328125,-2.6648409366607666,9.08572769165039,2.5531506538391113
1772727476985610000,7.72460986328125,-2.667449712753296,9.084232330322266,2.5557432174682617
1772727476995609900,7.73460986328125,-2.6692585945129395,9.082948684692383,2.558412790298462
1772727477005610000,7.74460986328125,-2.6695029735565186,9.082422256469727,2.560027599334717
1772727477015609900,7.75460986328125,-2.6688294410705566,9.082558631896973,2.560244083404541
1772727477025610000,7.76460986328125,-2.667933464050293,9.083155632019043,2.559061288833618
1772727477035609900,7.77460986328125,-2.6669373512268066,9.084197998046875,2.556401252746582
1772727477045610000,7.78460986328125,-2.667741537094116,9.084795951843262,2.553431987762451
1772727477055609900,7.79460986328125,-2.6694045066833496,9.08492660522461,2.551231861114502
1772727477065610000,7.80460986328125,-2.6702442169189453,9.085070610046387,2.549837589263916
1772727477075609900,7.81460986328125,-2.6702091693878174,9.085176467895508,2.549494504928589
1772727477085610000,7.82460986328125,-2.670192003250122,9.08505630493164,2.5499441623687744
1772727477095609900,7.83460986328125,-2.6693122386932373,9.084980010986328,2.5511398315429688
1772727477105610000,7.84460986328125,-2.6674532890319824,9.085192680358887,2.5523226261138916
1772727477115609900,7.85460986328125,-2.6652512550354004,9.08566665649414,2.55293607711792
1772727477125610000,7.86460986328125,-2.663961172103882,9.085962295532227,2.5532264709472656
1772727477135609900,7.87460986328125,-2.6636009216308594,9.086009979248047,2.553438186645508
1772727477145610000,7.88460986328125,-2.663689136505127,9.085917472839355,2.553676128387451
1772727477155609900,7.89460986328125,-2.663625717163086,9.086023330688477,2.5533649921417236
1772727477165610000,7.90460986328125,-2.6636486053466797,9.086183547973633,2.552769422531128
1772727477175609900,7.91460986328125,-2.664076566696167,9.086121559143066,2.552544593811035
1772727477185610000,7.92460986328125,-2.665278673171997,9.08561897277832,2.5530788898468018
1772727477195609900,7.93460986328125,-2.6662824153900146,9.085077285766602,2.553955078125
1772727477205610000,7.94460986328125,-2.6662771701812744,9.08487606048584,2.5546772480010986
1772727477215609900,7.95460986328125,-2.665782928466797,9.084835052490234,2.5553412437438965
1772727477225610000,7.96460986328125,-2.6653146743774414,9.084818840026855,2.55588436126709
1772727477235609900,7.97460986328125,-2.6655187606811523,9.084692001342773,2.556119441986084
1772727477245610000,7.98460986328125,-2.6662957668304443,9.084465026855469,2.5561187267303467
1772727477255609900,7.99460986328125,-2.667255163192749,9.084247589111328,2.555891275405884
1772727477265610000,8.00460986328125,-2.6678783893585205,9.084097862243652,2.5557737350463867
1772727477275609900,8.01460986328125,-2.6678898334503174,9.08401107788086,2.5560696125030518
1772727477285610000,8.02460986328125,-2.6674599647521973,9.084118843078613,2.556133985519409
1772727477295609900,8.03460986328125,-2.666438341140747,9.084595680236816,2.5555081367492676
1772727477305610000,8.04460986328125,-2.6653900146484375,9.085264205932617,2.5542237758636475
1772727477315609900,8.05460986328125,-2.6645352840423584,9.085819244384766,2.553140163421631
1772727477325610000,8.06460986328125,-2.6644582748413086,9.085997581481934,2.5525872707366943
1772727477335609900,8.07460986328125,-2.6646816730499268,9.085949897766113,2.5525224208831787
1772727477345610000,8.08460986328125,-2.665074348449707,9.085824012756348,2.5525588989257812
1772727477355609900,8.09460986328125,-2.6655616760253906,9.085771560668945,2.5522348880767822
1772727477365610000,8.10460986328125,-2.666259288787842,9.085622787475586,2.55203914642334
1772727477375609900,8.11460986328125,-2.6672492027282715,9.08526611328125,2.552276611328125
1772727477385610000,8.12460986328125,-2.6681067943573,9.084683418273926,2.5534515380859375
1772727477395609900,8.13460986328125,-2.6687958240509033,9.08388614654541,2.5555684566497803
1772727477405610000,8.14460986328125,-2.668771266937256,9.083026885986328,2.558647632598877
1772727477415609900,8.15460986328125,-2.668268918991089,9.082515716552734,2.560983419418335
1772727477425610000,8.16460986328125,-2.6677632331848145,9.08224105834961,2.5624799728393555
1772727477435609900,8.17460986328125,-2.6678285598754883,9.082256317138672,2.562361478805542
1772727477445610000,8.18460986328125,-2.6682350635528564,9.082707405090332,2.5603418350219727
1772727477455609900,8.19460986328125,-2.669020175933838,9.083475112915039,2.5567965507507324
1772727477465610000,8.20460986328125,-2.670090436935425,9.084259033203125,2.552887201309204
1772727477475609900,8.21460986328125,-2.6711971759796143,9.084771156311035,2.549907684326172
1772727477485610000,8.22460986328125,-2.6717472076416016,9.085097312927246,2.5481679439544678
1772727477495609900,8.23460986328125,-2.671811580657959,9.085061073303223,2.548229217529297
1772727477505610000,8.24460986328125,-2.67112398147583,9.084790229797363,2.549917221069336
1772727477515609900,8.25460986328125,-2.6700823307037354,9.084175109863281,2.5531980991363525
1772727477525610000,8.26460986328125,-2.6693458557128906,9.083395957946777,2.5567362308502197
1772727477535609900,8.27460986328125,-2.6688430309295654,9.082817077636719,2.559319019317627
1772727477545610000,8.28460986328125,-2.6686532497406006,9.082481384277344,2.5607073307037354
1772727477555609900,8.29460986328125,-2.669189214706421,9.082418441772461,2.5603718757629395
1772727477565610000,8.30460986328125,-2.671159029006958,9.082286834716797,2.558779001235962
1772727477575609900,8.31460986328125,-2.673569679260254,9.08214282989502,2.5567727088928223
1772727477585610000,8.32460986328125,-2.6749267578125,9.082390785217285,2.554474115371704
1772727477595609900,8.33460986328125,-2.674938201904297,9.082880020141602,2.552722692489624
1772727477605610000,8.34460986328125,-2.674424409866333,9.083171844482422,2.5522196292877197
1772727477615609900,8.35460986328125,-2.674224376678467,9.083029747009277,2.5529329776763916
1772727477625610000,8.36460986328125,-2.673687219619751,9.082870483398438,2.554062843322754
1772727477635609900,8.37460986328125,-2.6730575561523438,9.08271598815918,2.555270195007324
1772727477645610000,8.38460986328125,-2.673312187194824,9.082449913024902,2.5559535026550293
1772727477655609900,8.39460986328125,-2.674424648284912,9.082000732421875,2.5563886165618896
1772727477665610000,8.40460986328125,-2.675321340560913,9.081673622131348,2.556607246398926
1772727477675609900,8.41460986328125,-2.675445318222046,9.081619262695312,2.556671380996704
1772727477685610000,8.42460986328125,-2.675245761871338,9.08181381225586,2.5561885833740234
1772727477695609900,8.43460986328125,-2.67543363571167,9.081850051879883,2.555866003036499
1772727477705610000,8.44460986328125,-2.675905704498291,9.081548690795898,2.5564417839050293
1772727477715609900,8.45460986328125,-2.676051139831543,9.081308364868164,2.5571391582489014
1772727477725610000,8.46460986328125,-2.676213502883911,9.0811128616333,2.557668447494507
1772727477735609900,8.47460986328125,-2.676645040512085,9.08093547821045,2.5578455924987793
1772727477745610000,8.48460986328125,-2.67690110206604,9.080902099609375,2.557697057723999
1772727477755609900,8.49460986328125,-2.677346706390381,9.080881118774414,2.557302474975586
1772727477765610000,8.50460986328125,-2.677457332611084,9.080985069274902,2.556816816329956
1772727477775609900,8.51460986328125,-2.6773228645324707,9.081123352050781,2.5564684867858887
1772727477785610000,8.52460986328125,-2.677154541015625,9.081296920776367,2.5560266971588135
1772727477795609900,8.53460986328125,-2.677121162414551,9.081610679626465,2.554945945739746
1772727477805610000,8.54460986328125,-2.6772642135620117,9.0818452835083,2.5539629459381104
1772727477815609900,8.55460986328125,-2.67799711227417,9.081632614135742,2.553950548171997
1772727477825610000,8.56460986328125,-2.678722381591797,9.08126163482666,2.5545098781585693
1772727477835609900,8.57460986328125,-2.6792755126953125,9.080867767333984,2.555330514907837
1772727477845610000,8.58460986328125,-2.679267644882202,9.080667495727539,2.5560483932495117
1772727477855609900,8.59460986328125,-2.6789097785949707,9.080439567565918,2.557234764099121
1772727477865610000,8.60460986328125,-2.678856372833252,9.080084800720215,2.5585479736328125
1772727477875609900,8.61460986328125,-2.678605556488037,9.079886436462402,2.559516668319702
1772727477885610000,8.62460986328125,-2.678496837615967,9.079924583435059,2.559495210647583
1772727477895609900,8.63460986328125,-2.6801884174346924,9.079384803771973,2.5596392154693604
1772727477905610000,8.64460986328125,-2.68118953704834,9.079020500183105,2.559882640838623
1772727477915609900,8.65460986328125,-2.680295467376709,9.07938289642334,2.559532642364502
1772727477925610000,8.66460986328125,-2.679237127304077,9.080202102661133,2.557732105255127
1772727477935609900,8.67460986328125,-2.6796655654907227,9.080789566040039,2.555199146270752
1772727477945610000,8.68460986328125,-2.680187940597534,9.081257820129395,2.5529861450195312
1772727477955609900,8.69460986328125,-2.6803781986236572,9.08161735534668,2.551508665084839
1772727477965610000,8.70460986328125,-2.680009126663208,9.08187198638916,2.550987482070923
1772727477975609900,8.71460986328125,-2.678971767425537,9.081884384155273,2.552030563354492
1772727477985610000,8.72460986328125,-2.6777992248535156,9.08173942565918,2.553776741027832
1772727477995609900,8.73460986328125,-2.677140712738037,9.08143424987793,2.555553436279297
1772727478005610000,8.74460986328125,-2.677136182785034,9.081019401550293,2.557032823562622
1772727478015609900,8.75460986328125,-2.677600383758545,9.08065128326416,2.557851552963257
1772727478025610000,8.76460986328125,-2.6781604290008545,9.080127716064453,2.559126377105713
1772727478035609900,8.77460986328125,-2.678999423980713,9.079397201538086,2.5608415603637695
1772727478045610000,8.78460986328125,-2.6800947189331055,9.078777313232422,2.561889410018921
1772727478055609900,8.79460986328125,-2.6802284717559814,9.078922271728516,2.5612385272979736
1772727478065610000,8.80460986328125,-2.680044412612915,9.079548835754395,2.5592029094696045
1772727478075609900,8.81460986328125,-2.6802759170532227,9.080041885375977,2.557213544845581
1772727478085610000,8.82460986328125,-2.6808021068573,9.0802583694458,2.555893898010254
1772727478095609900,8.83460986328125,-2.6817028522491455,9.080214500427246,2.5551035404205322
1772727478105610000,8.84460986328125,-2.6828231811523438,9.080085754394531,2.5543885231018066
1772727478115609900,8.85460986328125,-2.6838996410369873,9.079822540283203,2.554189443588257
1772727478125610000,8.86460986328125,-2.6841156482696533,9.079615592956543,2.554699659347534
1772727478135609900,8.87460986328125,-2.682814836502075,9.079645156860352,2.5559604167938232
1772727478145610000,8.88460986328125,-2.680720806121826,9.079901695251465,2.557246208190918
1772727478155609900,8.89460986328125,-2.678684711456299,9.080286026000977,2.5580172538757324
1772727478165610000,8.90460986328125,-2.677513837814331,9.080647468566895,2.5579628944396973
1772727478175609900,8.91460986328125,-2.6771931648254395,9.080944061279297,2.557241439819336
1772727478185610000,8.92460986328125,-2.6774566173553467,9.081063270568848,2.556541681289673
1772727478195609900,8.93460986328125,-2.678288221359253,9.080862998962402,2.5563833713531494
1772727478205610000,8.94460986328125,-2.678724765777588,9.080609321594238,2.55682635307312
1772727478215609900,8.95460986328125,-2.6781697273254395,9.080711364746094,2.5570428371429443
1772727478225610000,8.96460986328125,-2.6766226291656494,9.081099510192871,2.5572845935821533
1772727478235609900,8.97460986328125,-2.675564765930176,9.081144332885742,2.5582308769226074
1772727478245610000,8.98460986328125,-2.6758854389190674,9.080537796020508,2.5600504875183105
1772727478255609900,8.99460986328125,-2.676495313644409,9.079706192016602,2.5623626708984375
1772727478265610000,9.00460986328125,-2.676809549331665,9.079049110412598,2.5643599033355713
1772727478275609900,9.01460986328125,-2.67661190032959,9.078886985778809,2.565142869949341
1772727478285610000,9.02460986328125,-2.6764883995056152,9.07919979095459,2.5641629695892334
1772727478295609900,9.03460986328125,-2.676811695098877,9.079697608947754,2.562058448791504
1772727478305610000,9.04460986328125,-2.6772260665893555,9.080102920532227,2.560190200805664
1772727478315609900,9.05460986328125,-2.678184986114502,9.080209732055664,2.5588088035583496
1772727478325610000,9.06460986328125,-2.6794023513793945,9.080059051513672,2.5580673217773438
1772727478335609900,9.07460986328125,-2.6799278259277344,9.07981014251709,2.5584049224853516
1772727478345610000,9.08460986328125,-2.679227352142334,9.079789161682129,2.5592095851898193
1772727478355609900,9.09460986328125,-2.6781527996063232,9.079901695251465,2.5599331855773926
1772727478365610000,9.10460986328125,-2.6771366596221924,9.08019733428955,2.559946298599243
1772727478375609900,9.11460986328125,-2.6762681007385254,9.080734252929688,2.5589520931243896
1772727478385610000,9.12460986328125,-2.6756396293640137,9.081259727478027,2.557748794555664
1772727478395609900,9.13460986328125,-2.6751787662506104,9.081579208374023,2.5570952892303467
1772727478405610000,9.14460986328125,-2.675496816635132,9.081536293029785,2.5569112300872803
1772727478415609900,9.15460986328125,-2.6761457920074463,9.081216812133789,2.5573697090148926
1772727478425610000,9.16460986328125,-2.676952838897705,9.080830574035645,2.5578930377960205
1772727478435609900,9.17460986328125,-2.67728590965271,9.08049201965332,2.558745861053467
1772727478445610000,9.18460986328125,-2.677262544631958,9.080092430114746,2.560189962387085
1772727478455609900,9.19460986328125,-2.677297830581665,9.07971477508545,2.5614941120147705
1772727478465610000,9.20460986328125,-2.6774871349334717,9.079509735107422,2.562020778656006
1772727478475609900,9.21460986328125,-2.6781461238861084,9.07935905456543,2.56186580657959
1772727478485610000,9.22460986328125,-2.678748846054077,9.079286575317383,2.5614936351776123
1772727478495609900,9.23460986328125,-2.679490566253662,9.07934284210205,2.5605175495147705
1772727478505610000,9.24460986328125,-2.6803934574127197,9.079444885253906,2.5592129230499268
1772727478515609900,9.25460986328125,-2.681881904602051,9.079386711120605,2.557859182357788
1772727478525610000,9.26460986328125,-2.6830484867095947,9.07924747467041,2.5571272373199463
1772727478535609900,9.27460986328125,-2.6834981441497803,9.079124450683594,2.55709171295166
1772727478545610000,9.28460986328125,-2.683412790298462,9.079047203063965,2.557459831237793
1772727478555609900,9.29460986328125,-2.683305263519287,9.07886791229248,2.5582046508789062
1772727478565610000,9.30460986328125,-2.682748794555664,9.07886791229248,2.5587902069091797
1772727478575609900,9.31460986328125,-2.681586265563965,9.079209327697754,2.5587968826293945
1772727478585610000,9.32460986328125,-2.6803836822509766,9.079809188842773,2.5579240322113037
1772727478595609900,9.33460986328125,-2.680135488510132,9.08022403717041,2.5567164421081543
1772727478605610000,9.34460986328125,-2.681095838546753,9.080095291137695,2.556165933609009
1772727478615609900,9.35460986328125,-2.682133197784424,9.079793930053711,2.556147336959839
1772727478625610000,9.36460986328125,-2.6824779510498047,9.079791069030762,2.5557966232299805
1772727478635609900,9.37460986328125,-2.681928873062134,9.080229759216309,2.5548131465911865
1772727478645610000,9.38460986328125,-2.6811554431915283,9.080782890319824,2.553659200668335
1772727478655609900,9.39460986328125,-2.6808714866638184,9.080845832824707,2.5537359714508057
1772727478665610000,9.40460986328125,-2.681265115737915,9.08043098449707,2.5547962188720703
1772727478675609900,9.41460986328125,-2.6819863319396973,9.079894065856934,2.555943250656128
1772727478685610000,9.42460986328125,-2.681772470474243,9.079447746276855,2.557755470275879
1772727478695609900,9.43460986328125,-2.681246280670166,9.079012870788574,2.5598514080047607
1772727478705610000,9.44460986328125,-2.6805269718170166,9.078893661499023,2.5610244274139404
1772727478715609900,9.45460986328125,-2.6809182167053223,9.078914642333984,2.560542583465576
1772727478725610000,9.46460986328125,-2.6818535327911377,9.0791654586792,2.55867338180542
1772727478735609900,9.47460986328125,-2.682691812515259,9.079450607299805,2.5567822456359863
1772727478745610000,9.48460986328125,-2.682995080947876,9.079854011535645,2.5550286769866943
1772727478755609900,9.49460986328125,-2.6829445362091064,9.080303192138672,2.553487777709961
1772727478765610000,9.50460986328125,-2.683260440826416,9.080648422241211,2.551923990249634
1772727478775609900,9.51460986328125,-2.683316230773926,9.080906867980957,2.5509490966796875
1772727478785610000,9.52460986328125,-2.682469129562378,9.08121109008789,2.5507543087005615
1772727478795609900,9.53460986328125,-2.681001901626587,9.08163070678711,2.550802707672119
1772727478805610000,9.54460986328125,-2.6800246238708496,9.08180046081543,2.5512261390686035
1772727478815609900,9.55460986328125,-2.679755449295044,9.08165168762207,2.552036762237549
1772727478825610000,9.56460986328125,-2.6802728176116943,9.081324577331543,2.552659749984741
1772727478835609900,9.57460986328125,-2.6808230876922607,9.081082344055176,2.5529425144195557
1772727478845610000,9.58460986328125,-2.681201696395874,9.081141471862793,2.5523345470428467
1772727478855609900,9.59460986328125,-2.68139910697937,9.081350326538086,2.5513830184936523
1772727478865610000,9.60460986328125,-2.6817498207092285,9.08144760131836,2.550670623779297
1772727478875609900,9.61460986328125,-2.6825809478759766,9.081337928771973,2.5501856803894043
1772727478885610000,9.62460986328125,-2.6832571029663086,9.081212997436523,2.549919366836548
1772727478895609900,9.63460986328125,-2.682978630065918,9.081427574157715,2.5494508743286133
1772727478905610000,9.64460986328125,-2.6827380657196045,9.081445693969727,2.5496389865875244
1772727478915609900,9.65460986328125,-2.6828699111938477,9.081515312194824,2.5492470264434814
1772727478925610000,9.66460986328125,-2.683983087539673,9.08147144317627,2.5482335090637207
1772727478935609900,9.67460986328125,-2.684027671813965,9.081571578979492,2.547830104827881
1772727478945610000,9.68460986328125,-2.6832315921783447,9.081705093383789,2.5481975078582764
1772727478955609900,9.69460986328125,-2.6825199127197266,9.081854820251465,2.5484063625335693
1772727478965610000,9.70460986328125,-2.682507276535034,9.082025527954102,2.54781174659729
1772727478975609900,9.71460986328125,-2.6824567317962646,9.082350730895996,2.546710252761841
1772727478985610000,9.72460986328125,-2.6826696395874023,9.082294464111328,2.546682357788086
1772727478995609900,9.73460986328125,-2.6827781200408936,9.082226753234863,2.546809196472168
1772727479005610000,9.74460986328125,-2.6836252212524414,9.082162857055664,2.5461461544036865
1772727479015609900,9.75460986328125,-2.684333562850952,9.082138061523438,2.5454885959625244
1772727479025610000,9.76460986328125,-2.684610605239868,9.082099914550781,2.545332193374634
1772727479035609900,9.77460986328125,-2.684263229370117,9.082124710083008,2.5456082820892334
1772727479045610000,9.78460986328125,-2.683915376663208,9.08228874206543,2.5453877449035645
1772727479055609900,9.79460986328125,-2.6834375858306885,9.082502365112305,2.5451345443725586
1772727479065610000,9.80460986328125,-2.6831042766571045,9.082429885864258,2.5457448959350586
1772727479075609900,9.81460986328125,-2.682893753051758,9.082090377807617,2.5471761226654053
1772727479085610000,9.82460986328125,-2.683431625366211,9.081573486328125,2.5484530925750732
1772727479095609900,9.83460986328125,-2.683835029602051,9.081354141235352,2.5488107204437256
1772727479105610000,9.84460986328125,-2.6837170124053955,9.08127212524414,2.549225330352783
1772727479115609900,9.85460986328125,-2.6829826831817627,9.081530570983887,2.549077272415161
1772727479125610000,9.86460986328125,-2.681938648223877,9.08218002319336,2.5478601455688477
1772727479135609900,9.87460986328125,-2.681257724761963,9.082928657531738,2.545909881591797
1772727479145610000,9.88460986328125,-2.6812222003936768,9.083372116088867,2.544363260269165
1772727479155609900,9.89460986328125,-2.681453227996826,9.083394050598145,2.544041156768799
1772727479165610000,9.90460986328125,-2.6805708408355713,9.083548545837402,2.544417381286621
1772727479175609900,9.91460986328125,-2.6792426109313965,9.083686828613281,2.545323610305786
1772727479185610000,9.92460986328125,-2.6789886951446533,9.083598136901855,2.5459072589874268
1772727479195609900,9.93460986328125,-2.679129123687744,9.08336353302002,2.546600818634033
1772727479205610000,9.94460986328125,-2.6787912845611572,9.083222389221191,2.5474612712860107
1772727479215609900,9.95460986328125,-2.6781351566314697,9.083388328552246,2.5475523471832275
1772727479225610000,9.96460986328125,-2.678178310394287,9.08343505859375,2.5473451614379883
1772727479235609900,9.97460986328125,-2.678473949432373,9.08340835571289,2.5471279621124268
1772727479245610000,9.98460986328125,-2.678229808807373,9.083568572998047,2.54681396484375
1772727479255609900,9.99460986328125,-2.6776273250579834,9.083831787109375,2.5465097427368164
1772727479265610000,10.00460986328125,-2.677283763885498,9.0839262008667,2.546529769897461
1772727479275609900,10.01460986328125,-2.6770243644714355,9.083757400512695,2.547407627105713
1772727479285610000,10.02460986328125,-2.6764938831329346,9.083553314208984,2.5486931800842285
1772727479295609900,10.03460986328125,-2.675867795944214,9.083438873291016,2.549755096435547
1772727479305610000,10.04460986328125,-2.675384998321533,9.083330154418945,2.5506529808044434
1772727479315609900,10.05460986328125,-2.6748664379119873,9.083298683166504,2.551304817199707
1772727479325610000,10.06460986328125,-2.6742889881134033,9.083333969116211,2.551784038543701
1772727479335609900,10.07460986328125,-2.673332452774048,9.0838623046875,2.550907611846924
1772727479345610000,10.08460986328125,-2.6727075576782227,9.08448314666748,2.549349069595337
1772727479355609900,10.09460986328125,-2.671837329864502,9.085267066955566,2.547468900680542
1772727479365610000,10.10460986328125,-2.6712939739227295,9.085901260375977,2.5457763671875
1772727479375609900,10.11460986328125,-2.671372890472412,9.08610725402832,2.544957160949707
1772727479385610000,10.12460986328125,-2.671745538711548,9.085877418518066,2.5453872680664062
1772727479395609900,10.13460986328125,-2.6710057258605957,9.085761070251465,2.5465810298919678
1772727479405610000,10.14460986328125,-2.6695668697357178,9.085945129394531,2.5474328994750977
1772727479415609900,10.15460986328125,-2.6686270236968994,9.086079597473145,2.54793381690979
1772727479425610000,10.16460986328125,-2.6683273315429688,9.086122512817383,2.5480921268463135
1772727479435609900,10.17460986328125,-2.6678414344787598,9.086251258850098,2.5481433868408203
1772727479445610000,10.18460986328125,-2.6670210361480713,9.086627006530762,2.5476670265197754
1772727479455609900,10.19460986328125,-2.6665501594543457,9.087006568908691,2.5468015670776367
1772727479465610000,10.20460986328125,-2.666813373565674,9.087162017822266,2.545970916748047
1772727479475609900,10.21460986328125,-2.6667158603668213,9.087335586547852,2.5454540252685547
1772727479485610000,10.22460986328125,-2.66611647605896,9.087576866149902,2.545222282409668
1772727479495609900,10.23460986328125,-2.6657729148864746,9.0875825881958,2.5455617904663086
1772727479505610000,10.24460986328125,-2.666078567504883,9.087170600891113,2.546710729598999
1772727479515609900,10.25460986328125,-2.6663806438446045,9.086669921875,2.5481786727905273
1772727479525610000,10.26460986328125,-2.6659152507781982,9.086555480957031,2.549077272415161
1772727479535609900,10.27460986328125,-2.6651954650878906,9.086702346801758,2.549309253692627
1772727479545610000,10.28460986328125,-2.6654670238494873,9.08660888671875,2.549355983734131
1772727479555609900,10.29460986328125,-2.6661489009857178,9.086398124694824,2.5493924617767334
1772727479565610000,10.30460986328125,-2.666426658630371,9.086247444152832,2.5496389865875244
1772727479575609900,10.31460986328125,-2.6668622493743896,9.086030006408691,2.549961566925049
1772727479585610000,10.32460986328125,-2.6673085689544678,9.085616111755371,2.550964832305908
1772727479595609900,10.33460986328125,-2.6676251888275146,9.085350036621094,2.5515854358673096
1772727479605610000,10.34460986328125,-2.667497396469116,9.08548355102539,2.5512406826019287
1772727479615609900,10.35460986328125,-2.6671595573425293,9.08585262298584,2.5502803325653076
1772727479625610000,10.36460986328125,-2.6663622856140137,9.086421966552734,2.5490846633911133
1772727479635609900,10.37460986328125,-2.66581392288208,9.087101936340332,2.5472347736358643
1772727479645610000,10.38460986328125,-2.6661412715911865,9.087422370910645,2.545748233795166
1772727479655609900,10.39460986328125,-2.667006254196167,9.087523460388184,2.544480323791504
1772727479665610000,10.40460986328125,-2.667555570602417,9.087442398071289,2.5441954135894775
1772727479675609900,10.41460986328125,-2.6681180000305176,9.087276458740234,2.544198751449585
1772727479685610000,10.42460986328125,-2.6684882640838623,9.087152481079102,2.5442545413970947
1772727479695609900,10.43460986328125,-2.668938159942627,9.086869239807129,2.5447933673858643
1772727479705610000,10.44460986328125,-2.6693241596221924,9.086318016052246,2.5463552474975586
1772727479715609900,10.45460986328125,-2.6697521209716797,9.085840225219727,2.5476081371307373
1772727479725610000,10.46460986328125,-2.6700756549835205,9.085700035095215,2.547767400741577
1772727479735609900,10.47460986328125,-2.6701948642730713,9.085829734802246,2.5471832752227783
1772727479745610000,10.48460986328125,-2.670254707336426,9.086040496826172,2.5463671684265137
1772727479755609900,10.49460986328125,-2.670701026916504,9.086318969726562,2.5449066162109375
1772727479765610000,10.50460986328125,-2.6714205741882324,9.086671829223633,2.542886734008789
1772727479775609900,10.51460986328125,-2.672410726547241,9.086925506591797,2.5409460067749023
1772727479785610000,10.52460986328125,-2.673245668411255,9.086880683898926,2.540227174758911
1772727479795609900,10.53460986328125,-2.6735734939575195,9.086701393127441,2.540525436401367
1772727479805610000,10.54460986328125,-2.67350172996521,9.086540222167969,2.54117488861084
1772727479815609900,10.55460986328125,-2.6737186908721924,9.086159706115723,2.5423073768615723
1772727479825610000,10.56460986328125,-2.6739933490753174,9.085748672485352,2.543485403060913
1772727479835609900,10.57460986328125,-2.6740310192108154,9.085625648498535,2.543883800506592
1772727479845610000,10.58460986328125,-2.6740705966949463,9.085789680480957,2.5432560443878174
1772727479855609900,10.59460986328125,-2.6748340129852295,9.085871696472168,2.542161226272583
1772727479865610000,10.60460986328125,-2.6756832599639893,9.085857391357422,2.5413177013397217
1772727479875609900,10.61460986328125,-2.676257848739624,9.085845947265625,2.5407567024230957
1772727479885610000,10.62460986328125,-2.677192211151123,9.085726737976074,2.5401947498321533
1772727479895609900,10.63460986328125,-2.6778504848480225,9.085829734802246,2.539137363433838
1772727479905610000,10.64460986328125,-2.6780288219451904,9.086119651794434,2.5379104614257812
1772727479915609900,10.65460986328125,-2.6784653663635254,9.086050033569336,2.53769588470459
1772727479925610000,10.66460986328125,-2.6798412799835205,9.08546257019043,2.53834867477417
1772727479935609900,10.67460986328125,-2.681443691253662,9.084698677062988,2.5393917560577393
1772727479945610000,10.68460986328125,-2.6826164722442627,9.08398723602295,2.540695905685425
1772727479955609900,10.69460986328125,-2.6831259727478027,9.08340072631836,2.5422558784484863
1772727479965610000,10.70460986328125,-2.683293581008911,9.08310317993164,2.5431346893310547
1772727479975609900,10.71460986328125,-2.6834909915924072,9.083229064941406,2.542478561401367
1772727479985610000,10.72460986328125,-2.6837377548217773,9.083598136901855,2.5409014225006104
1772727479995609900,10.73460986328125,-2.6845154762268066,9.08385181427002,2.5391733646392822
1772727480005610000,10.74460986328125,-2.6854498386383057,9.083890914916992,2.5380492210388184
1772727480015609900,10.75460986328125,-2.6864187717437744,9.08391284942627,2.536942958831787
1772727480025610000,10.76460986328125,-2.6876630783081055,9.083763122558594,2.5361592769622803
1772727480035609900,10.77460986328125,-2.6884500980377197,9.08350658416748,2.536241054534912
1772727480045610000,10.78460986328125,-2.6879804134368896,9.083513259887695,2.5367186069488525
1772727480055609900,10.79460986328125,-2.687323808670044,9.083839416503906,2.5362462997436523
1772727480065610000,10.80460986328125,-2.6875691413879395,9.083941459655762,2.535618543624878
1772727480075609900,10.81460986328125,-2.688678741455078,9.083757400512695,2.5351033210754395
1772727480085610000,10.82460986328125,-2.6896779537200928,9.083602905273438,2.534597396850586
1772727480095609900,10.83460986328125,-2.690765142440796,9.083484649658203,2.5338683128356934
1772727480105610000,10.84460986328125,-2.691875696182251,9.08321762084961,2.533644437789917
1772727480115609900,10.85460986328125,-2.691861867904663,9.083017349243164,2.5343739986419678
1772727480125610000,10.86460986328125,-2.690845012664795,9.082989692687988,2.5355587005615234
1772727480135609900,10.87460986328125,-2.689591884613037,9.083083152770996,2.5365471839904785
1772727480145610000,10.88460986328125,-2.6886911392211914,9.083390235900879,2.536407232284546
1772727480155609900,10.89460986328125,-2.6885826587677,9.083582878112793,2.5358290672302246
1772727480165610000,10.90460986328125,-2.688783645629883,9.083547592163086,2.535743474960327
1772727480175609900,10.91460986328125,-2.689709186553955,9.083271026611328,2.535749912261963
1772727480185610000,10.92460986328125,-2.690844774246216,9.083077430725098,2.535240888595581
1772727480195609900,10.93460986328125,-2.691293239593506,9.083056449890137,2.534842014312744
1772727480205610000,10.94460986328125,-2.690316915512085,9.083383560180664,2.5347023010253906
1772727480215609900,10.95460986328125,-2.689133882522583,9.083612442016602,2.5351386070251465
1772727480225610000,10.96460986328125,-2.688161611557007,9.083683013916016,2.535917282104492
1772727480235609900,10.97460986328125,-2.687595844268799,9.08360481262207,2.536797523498535
1772727480245610000,10.98460986328125,-2.6865549087524414,9.083776473999023,2.537285804748535
1772727480255609900,10.99460986328125,-2.68473744392395,9.084497451782227,2.5366299152374268
1772727480265610000,11.00460986328125,-2.6828792095184326,9.08548641204834,2.5350520610809326
1772727480275609900,11.01460986328125,-2.6820919513702393,9.08641529083252,2.5325522422790527
1772727480285610000,11.02460986328125,-2.6819214820861816,9.087153434753418,2.53008770942688
1772727480295609900,11.03460986328125,-2.6818833351135254,9.087517738342285,2.528813600540161
1772727480305610000,11.04460986328125,-2.681884765625,9.08760929107666,2.528489828109741
1772727480315609900,11.05460986328125,-2.6826770305633545,9.08714485168457,2.5293166637420654
1772727480325610000,11.06460986328125,-2.683612823486328,9.086435317993164,2.530870199203491
1772727480335609900,11.07460986328125,-2.6836273670196533,9.08574390411377,2.5333330631256104
1772727480345610000,11.08460986328125,-2.6825406551361084,9.085432052612305,2.5356032848358154
1772727480355609900,11.09460986328125,-2.6813695430755615,9.085386276245117,2.5370090007781982
1772727480365610000,11.10460986328125,-2.680604934692383,9.085474967956543,2.5374953746795654
1772727480375609900,11.11460986328125,-2.6804802417755127,9.085674285888672,2.5369186401367188
1772727480385610000,11.12460986328125,-2.680875778198242,9.08603572845459,2.5352020263671875
1772727480395609900,11.13460986328125,-2.6822924613952637,9.086402893066406,2.5323855876922607
1772727480405610000,11.14460986328125,-2.6835575103759766,9.086725234985352,2.5298845767974854
1772727480415609900,11.15460986328125,-2.683788776397705,9.086996078491211,2.528670072555542
1772727480425610000,11.16460986328125,-2.6835553646087646,9.087066650390625,2.5286622047424316
1772727480435609900,11.17460986328125,-2.68335223197937,9.08704948425293,2.5289390087127686
1772727480445610000,11.18460986328125,-2.683462381362915,9.086889266967773,2.5293989181518555
1772727480455609900,11.19460986328125,-2.683661460876465,9.086546897888184,2.530416965484619
1772727480465610000,11.20460986328125,-2.6837613582611084,9.086078643798828,2.531993865966797
1772727480475609900,11.21460986328125,-2.6842422485351562,9.085570335388184,2.533308506011963
1772727480485610000,11.22460986328125,-2.684725522994995,9.085139274597168,2.534339427947998
1772727480495609900,11.23460986328125,-2.6843667030334473,9.085188865661621,2.5345442295074463
1772727480505610000,11.24460986328125,-2.683159112930298,9.085668563842773,2.5341007709503174
1772727480515609900,11.25460986328125,-2.682326078414917,9.086345672607422,2.5325582027435303
1772727480525610000,11.26460986328125,-2.682908296585083,9.086812973022461,2.530261278152466
1772727480535609900,11.27460986328125,-2.6840615272521973,9.086946487426758,2.528557538986206
1772727480545610000,11.28460986328125,-2.6845321655273438,9.08697509765625,2.5279574394226074
1772727480555609900,11.29460986328125,-2.6851115226745605,9.086674690246582,2.5284223556518555
1772727480565610000,11.30460986328125,-2.685370683670044,9.086320877075195,2.529414176940918
1772727480575609900,11.31460986328125,-2.6844584941864014,9.086148262023926,2.531003952026367
1772727480585610000,11.32460986328125,-2.682330846786499,9.086336135864258,2.5325839519500732
1772727480595609900,11.33460986328125,-2.681148052215576,9.08664608001709,2.532723903656006
1772727480605610000,11.34460986328125,-2.6813573837280273,9.08675765991211,2.532104015350342
1772727480615609900,11.35460986328125,-2.6817030906677246,9.086666107177734,2.5320632457733154
1772727480625610000,11.36460986328125,-2.681727886199951,9.086529731750488,2.532529830932617
1772727480635609900,11.37460986328125,-2.6819419860839844,9.086379051208496,2.532839059829712
1772727480645610000,11.38460986328125,-2.6823458671569824,9.086258888244629,2.532846689224243
1772727480655609900,11.39460986328125,-2.6819803714752197,9.086389541625977,2.532762050628662
1772727480665610000,11.40460986328125,-2.680504560470581,9.086869239807129,2.532604455947876
1772727480675609900,11.41460986328125,-2.678779125213623,9.087610244750977,2.531770706176758
1772727480685610000,11.42460986328125,-2.6784067153930664,9.087989807128906,2.530801773071289
1772727480695609900,11.43460986328125,-2.678736686706543,9.087983131408691,2.530477285385132
1772727480705610000,11.44460986328125,-2.6790432929992676,9.087855339050293,2.530613899230957
1772727480715609900,11.45460986328125,-2.6797053813934326,9.087610244750977,2.530789613723755
1772727480725610000,11.46460986328125,-2.6804020404815674,9.087348937988281,2.530992269515991
1772727480735609900,11.47460986328125,-2.680047035217285,9.087366104125977,2.5313076972961426
1772727480745610000,11.48460986328125,-2.678844928741455,9.08763599395752,2.5316097736358643
1772727480755609900,11.49460986328125,-2.678262948989868,9.0877046585083,2.5319786071777344
1772727480765610000,11.50460986328125,-2.678835868835449,9.087301254272461,2.532820463180542
1772727480775609900,11.51460986328125,-2.6792855262756348,9.086872100830078,2.5338857173919678
1772727480785610000,11.52460986328125,-2.6784043312072754,9.086809158325195,2.5350396633148193
1772727480795609900,11.53460986328125,-2.677375555038452,9.087224006652832,2.534637928009033
1772727480805610000,11.54460986328125,-2.6774914264678955,9.087736129760742,2.532682180404663
1772727480815609900,11.55460986328125,-2.6787285804748535,9.087977409362793,2.530503511428833
1772727480825610000,11.56460986328125,-2.6799726486206055,9.087952613830566,2.529278516769409
1772727480835609900,11.57460986328125,-2.6812291145324707,9.087589263916016,2.5292532444000244
1772727480845610000,11.58460986328125,-2.682645797729492,9.086830139160156,2.5304741859436035
1772727480855609900,11.59460986328125,-2.683316469192505,9.086142539978027,2.5322372913360596
1772727480865610000,11.60460986328125,-2.6831841468811035,9.085750579833984,2.533778667449951
1772727480875609900,11.61460986328125,-2.6826231479644775,9.085745811462402,2.5343947410583496
1772727480885610000,11.62460986328125,-2.6815240383148193,9.086139678955078,2.534142017364502
1772727480895609900,11.63460986328125,-2.680351734161377,9.086709976196289,2.5333383083343506
1772727480905610000,11.64460986328125,-2.6796963214874268,9.087247848510742,2.5321030616760254
1772727480915609900,11.65460986328125,-2.680109977722168,9.08764362335205,2.5302462577819824
1772727480925610000,11.66460986328125,-2.681567430496216,9.087679862976074,2.528569459915161
1772727480935609900,11.67460986328125,-2.683054208755493,9.087443351745605,2.527839422225952
1772727480945610000,11.68460986328125,-2.683567523956299,9.087401390075684,2.5274481773376465
1772727480955609900,11.69460986328125,-2.684199094772339,9.087177276611328,2.5275824069976807
1772727480965610000,11.70460986328125,-2.6853768825531006,9.08641242980957,2.529082775115967
1772727480975609900,11.71460986328125,-2.686023235321045,9.085552215576172,2.5314829349517822
1772727480985610000,11.72460986328125,-2.6858863830566406,9.084994316101074,2.533632278442383
1772727480995609900,11.73460986328125,-2.6852803230285645,9.084874153137207,2.534701108932495
1772727481005610000,11.74460986328125,-2.6847915649414062,9.084959983825684,2.534911632537842
1772727481015609900,11.75460986328125,-2.6846046447753906,9.085081100463867,2.534677505493164
1772727481025610000,11.76460986328125,-2.6844847202301025,9.085457801818848,2.5334537029266357
1772727481035609900,11.77460986328125,-2.6846718788146973,9.0859375,2.5315349102020264
1772727481045610000,11.78460986328125,-2.685451030731201,9.086214065551758,2.529716968536377
1772727481055609900,11.79460986328125,-2.6858582496643066,9.086160659790039,2.529472589492798
1772727481065610000,11.80460986328125,-2.6851325035095215,9.086311340332031,2.529700994491577
1772727481075609900,11.81460986328125,-2.6840455532073975,9.086575508117676,2.529907464981079
1772727481085610000,11.82460986328125,-2.682854175567627,9.086738586425781,2.530585289001465
1772727481095609900,11.83460986328125,-2.681356430053711,9.086860656738281,2.5317320823669434
1772727481105610000,11.84460986328125,-2.6806106567382812,9.086845397949219,2.5325803756713867
1772727481115609900,11.85460986328125,-2.6806278228759766,9.086742401123047,2.532932758331299
1772727481125610000,11.86460986328125,-2.6812963485717773,9.086533546447754,2.5329747200012207
1772727481135609900,11.87460986328125,-2.681788921356201,9.086475372314453,2.532656192779541
1772727481145610000,11.88460986328125,-2.682006597518921,9.086673736572266,2.5317187309265137
1772727481155609900,11.89460986328125,-2.6823787689208984,9.086943626403809,2.5303573608398438
1772727481165610000,11.90460986328125,-2.682760238647461,9.087096214294434,2.5293996334075928
1772727481175609900,11.91460986328125,-2.683220624923706,9.086945533752441,2.5294551849365234
1772727481185610000,11.92460986328125,-2.683469295501709,9.086586952209473,2.530475378036499
1772727481195609900,11.93460986328125,-2.6838085651397705,9.08608341217041,2.5319249629974365
1772727481205610000,11.94460986328125,-2.683677911758423,9.085654258728027,2.5336050987243652
1772727481215609900,11.95460986328125,-2.6832993030548096,9.08538818359375,2.534956932067871
1772727481225610000,11.96460986328125,-2.683539628982544,9.085186958312988,2.5354230403900146
1772727481235609900,11.97460986328125,-2.6838581562042236,9.085301399230957,2.5346760749816895
1772727481245610000,11.98460986328125,-2.6838719844818115,9.08570384979248,2.53322172164917
1772727481255609900,11.99460986328125,-2.684323310852051,9.086165428161621,2.53108549118042
1772727481265610000,12.00460986328125,-2.6854937076568604,9.086251258850098,2.5295357704162598
1772727481275609900,12.01460986328125,-2.6861042976379395,9.086191177368164,2.5291056632995605
1772727481285610000,12.02460986328125,-2.6858179569244385,9.086084365844727,2.529789924621582
1772727481295609900,12.03460986328125,-2.684784173965454,9.086077690124512,2.5309128761291504
1772727481305610000,12.04460986328125,-2.683485269546509,9.086339950561523,2.5313494205474854
1772727481315609900,12.05460986328125,-2.6824004650115967,9.086648941040039,2.531388998031616
1772727481325610000,12.06460986328125,-2.681323766708374,9.086905479431152,2.5316100120544434
1772727481335609900,12.07460986328125,-2.680734872817993,9.08720874786377,2.531142234802246
1772727481345610000,12.08460986328125,-2.6811251640319824,9.087311744689941,2.5303573608398438
1772727481355609900,12.09460986328125,-2.6817057132720947,9.087162017822266,2.5302836894989014
1772727481365610000,12.10460986328125,-2.6815459728240967,9.087129592895508,2.5305683612823486
1772727481375609900,12.11460986328125,-2.680816173553467,9.087206840515137,2.531064033508301
1772727481385610000,12.12460986328125,-2.680091619491577,9.087005615234375,2.53255295753479
1772727481395609900,12.13460986328125,-2.6793839931488037,9.086701393127441,2.5343894958496094
1772727481405610000,12.14460986328125,-2.6790707111358643,9.086404800415039,2.53578519821167
1772727481415609900,12.15460986328125,-2.678929090499878,9.086498260498047,2.5355987548828125
1772727481425610000,12.16460986328125,-2.6792333126068115,9.086651802062988,2.5347275733947754
1772727481435609900,12.17460986328125,-2.679299831390381,9.086747169494629,2.5343165397644043
1772727481445610000,12.18460986328125,-2.6789777278900146,9.086968421936035,2.5338642597198486
1772727481455609900,12.19460986328125,-2.679201364517212,9.087081909179688,2.5332207679748535
1772727481465610000,12.20460986328125,-2.679283618927002,9.08720874786377,2.5326740741729736
1772727481475609900,12.21460986328125,-2.678724765777588,9.087496757507324,2.5322349071502686
1772727481485610000,12.22460986328125,-2.678093433380127,9.087902069091797,2.5314507484436035
1772727481495609900,12.23460986328125,-2.6780588626861572,9.087983131408691,2.5311951637268066
1772727481505610000,12.24460986328125,-2.677797555923462,9.087977409362793,2.5314931869506836
1772727481515609900,12.25460986328125,-2.6770830154418945,9.08824634552002,2.531283140182495
1772727481525610000,12.26460986328125,-2.6771371364593506,9.088337898254395,2.5308985710144043
1772727481535609900,12.27460986328125,-2.6782517433166504,9.088041305541992,2.5307817459106445
1772727481545610000,12.28460986328125,-2.6793389320373535,9.087481498718262,2.531639575958252
1772727481555609900,12.29460986328125,-2.679593563079834,9.087151527404785,2.5325565338134766
1772727481565610000,12.30460986328125,-2.6798088550567627,9.086955070495605,2.533033847808838
1772727481575609900,12.31460986328125,-2.6800527572631836,9.086771965026855,2.5334315299987793
1772727481585610000,12.32460986328125,-2.6796462535858154,9.086624145507812,2.534395694732666
1772727481595609900,12.33460986328125,-2.6792380809783936,9.08650016784668,2.5352652072906494
1772727481605610000,12.34460986328125,-2.679455518722534,9.086355209350586,2.535562038421631
1772727481615609900,12.35460986328125,-2.679826021194458,9.086231231689453,2.5356109142303467
1772727481625610000,12.36460986328125,-2.6790366172790527,9.086479187011719,2.5355570316314697
1772727481635609900,12.37460986328125,-2.6780855655670166,9.086990356445312,2.5347282886505127
1772727481645610000,12.38460986328125,-2.6772921085357666,9.08755111694336,2.533557891845703
1772727481655609900,12.39460986328125,-2.677138328552246,9.087874412536621,2.5325589179992676
1772727481665610000,12.40460986328125,-2.6773483753204346,9.08800983428955,2.531852960586548
1772727481675609900,12.41460986328125,-2.678060293197632,9.088003158569336,2.5311264991760254
1772727481685610000,12.42460986328125,-2.678380012512207,9.087849617004395,2.5313377380371094
1772727481695609900,12.43460986328125,-2.678156852722168,9.087794303894043,2.531769275665283
1772727481705610000,12.44460986328125,-2.677145481109619,9.08796501159668,2.5322301387786865
1772727481715609900,12.45460986328125,-2.6764960289001465,9.088136672973633,2.532294511795044
1772727481725610000,12.46460986328125,-2.67539119720459,9.088546752929688,2.5319900512695312
1772727481735609900,12.47460986328125,-2.674266815185547,9.089104652404785,2.5311808586120605
1772727481745610000,12.48460986328125,-2.6736557483673096,9.089568138122559,2.530158519744873
1772727481755609900,12.49460986328125,-2.673577070236206,9.089786529541016,2.5294547080993652
1772727481765610000,12.50460986328125,-2.6739392280578613,9.08973217010498,2.5292704105377197
1772727481775609900,12.51460986328125,-2.674638509750366,9.089548110961914,2.5291922092437744
1772727481785610000,12.52460986328125,-2.6757640838623047,9.089292526245117,2.5289223194122314
1772727481795609900,12.53460986328125,-2.676936388015747,9.0887451171875,2.5296475887298584
1772727481805610000,12.54460986328125,-2.6774022579193115,9.088099479675293,2.53147554397583
1772727481815609900,12.55460986328125,-2.677145481109619,9.087746620178223,2.5330100059509277
1772727481825610000,12.56460986328125,-2.6770482063293457,9.0875883102417,2.533677577972412
1772727481835609900,12.57460986328125,-2.67641544342041,9.087639808654785,2.5341665744781494
1772727481845610000,12.58460986328125,-2.6758077144622803,9.087892532348633,2.5338993072509766
1772727481855609900,12.59460986328125,-2.676449775695801,9.08811092376709,2.5324347019195557
1772727481865610000,12.60460986328125,-2.6786048412323,9.08793830871582,2.530778646469116
1772727481875609900,12.61460986328125,-2.680494546890259,9.087509155273438,2.530318260192871
1772727481885610000,12.62460986328125,-2.681128978729248,9.087237358093262,2.53062105178833
1772727481895609900,12.63460986328125,-2.6812100410461426,9.086993217468262,2.5314149856567383
1772727481905610000,12.64460986328125,-2.680881977081299,9.086865425109863,2.532219171524048
1772727481915609900,12.65460986328125,-2.680388927459717,9.086771011352539,2.5330820083618164
1772727481925610000,12.66460986328125,-2.6801843643188477,9.086689949035645,2.5335874557495117
1772727481935609900,12.67460986328125,-2.6801583766937256,9.086756706237793,2.533372402191162
1772727481945610000,12.68460986328125,-2.679929733276367,9.087075233459473,2.532475471496582
1772727481955609900,12.69460986328125,-2.6795642375946045,9.087462425231934,2.5314724445343018
1772727481965610000,12.70460986328125,-2.6799027919769287,9.087614059448242,2.5305683612823486
1772727481975609900,12.71460986328125,-2.6806907653808594,9.087642669677734,2.529632329940796
1772727481985610000,12.72460986328125,-2.6812355518341064,9.08764934539795,2.52903151512146
1772727481995609900,12.73460986328125,-2.6817078590393066,9.08755111694336,2.528879404067993
1772727482005610000,12.74460986328125,-2.6823863983154297,9.08714485168457,2.5296242237091064
1772727482015609900,12.75460986328125,-2.6830074787139893,9.086580276489258,2.5309927463531494
1772727482025610000,12.76460986328125,-2.683783769607544,9.086041450500488,2.5321044921875
1772727482035609900,12.77460986328125,-2.6849794387817383,9.085460662841797,2.532919406890869
1772727482045610000,12.78460986328125,-2.6858348846435547,9.085000038146973,2.5336601734161377
1772727482055609900,12.79460986328125,-2.6857354640960693,9.084864616394043,2.534255266189575
1772727482065610000,12.80460986328125,-2.685992956161499,9.084933280944824,2.5337374210357666
1772727482075609900,12.81460986328125,-2.6874756813049316,9.084773063659668,2.5327396392822266
1772727482085610000,12.82460986328125,-2.6891062259674072,9.084430694580078,2.5322341918945312
1772727482095609900,12.83460986328125,-2.6897265911102295,9.084230422973633,2.5322983264923096
1772727482105610000,12.84460986328125,-2.6897780895233154,9.084358215332031,2.531778573989868
1772727482115609900,12.85460986328125,-2.690281391143799,9.084385871887207,2.531146287918091
1772727482125610000,12.86460986328125,-2.690870761871338,9.084200859069824,2.5311808586120605
1772727482135609900,12.87460986328125,-2.690629005432129,9.084250450134277,2.531261920928955
1772727482145610000,12.88460986328125,-2.6895663738250732,9.084884643554688,2.530118227005005
1772727482155609900,12.89460986328125,-2.6889755725860596,9.085566520690918,2.5282931327819824
1772727482165610000,12.90460986328125,-2.6898372173309326,9.085676193237305,2.526984214782715
1772727482175609900,12.91460986328125,-2.691343307495117,9.085289001464844,2.5267720222473145
1772727482185610000,12.92460986328125,-2.6925690174102783,9.084884643554688,2.526923894882202
1772727482195609900,12.93460986328125,-2.6929609775543213,9.084691047668457,2.52719783782959
1772727482205610000,12.94460986328125,-2.693434715270996,9.084320068359375,2.5280306339263916
1772727482215609900,12.95460986328125,-2.6942126750946045,9.08363151550293,2.5296688079833984
