time,seconds_elapsed,z,y,x
1772881495953967900,0.0539677734375,5.7858452796936035,5.280959606170654,-4.302295207977295
1772881495971313200,0.071313232421875,5.826523303985596,4.967499732971191,-4.295116424560547
1772881495988658200,0.088658203125,6.2428741455078125,4.919643402099609,-4.505684852600098
1772881496006003500,0.10600341796875,6.144768714904785,4.826323509216309,-4.4721856117248535
1772881496023348500,0.123348388671875,6.209374904632568,4.6372904777526855,-4.335794448852539
1772881496040693800,0.14069384765625,6.671189308166504,3.792623996734619,-4.314259052276611
1772881496058038800,0.158038818359375,7.637889862060547,3.1968109607696533,-4.658825874328613
1772881496075384000,0.175384033203125,7.793423175811768,3.538984775543213,-5.740381717681885
1772881496092729000,0.19272900390625,6.766902446746826,4.1970109939575195,-5.934200286865234
1772881496110074400,0.210074462890625,5.575276851654053,5.32403039932251,-5.391029357910156
1772881496127419600,0.227419677734375,5.216353416442871,5.443671703338623,-4.668396949768066
1772881496144764700,0.2447646484375,5.960521221160889,4.694717884063721,-4.29033088684082
1772881496162110000,0.26210986328125,8.063812255859375,3.2829527854919434,-4.656432628631592
1772881496179455000,0.279455078125,9.265008926391602,2.124826431274414,-5.065605640411377
1772881496196800300,0.29680029296875,8.602197647094727,1.210768222808838,-4.063013076782227
1772881496214145300,0.314145263671875,8.250452041625977,-0.9379864931106567,-3.4408788681030273
1772881496231490600,0.331490478515625,8.396414756774902,-3.359523057937622,-3.019742250442505
1772881496248835600,0.348835693359375,9.253045082092285,-4.986642360687256,-3.294916868209839
1772881496266180900,0.366180908203125,8.310273170471191,-4.783252239227295,-5.134997367858887
1772881496283526000,0.38352587890625,6.226124286651611,-1.3854442834854126,-5.144568920135498
1772881496300871200,0.40087109375,4.46979284286499,-4.941178798675537,-6.262016773223877
1772881496318216200,0.41821630859375,2.6321048736572266,-5.367101192474365,-6.496513366699219
1772881496335561500,0.4355615234375,1.5194423198699951,-3.720839262008667,-6.7621169090271
1772881496352906500,0.452906494140625,0.6604190468788147,-3.321237802505493,-7.434499740600586
1772881496370251800,0.470251708984375,0.882951557636261,-2.9240293502807617,-10.703095436096191
1772881496387597000,0.48759716796875,3.510270833969116,-1.2059825658798218,-13.234702110290527
1772881496404942000,0.504942138671875,5.144568920135498,1.0121639966964722,-15.433706283569336
1772881496422287400,0.522287353515625,6.467799663543701,2.9216363430023193,-15.862021446228027
1772881496439632400,0.53963232421875,5.718846321105957,2.720639228820801,-14.196617126464844
1772881496456977700,0.556977783203125,4.438685894012451,2.0721843242645264,-13.488341331481934
1772881496474322700,0.57432275390625,5.869594097137451,2.043470621109009,-14.684752464294434
1772881496491668000,0.59166796875,6.0610198974609375,1.210768222808838,-14.409578323364258
1772881496509013000,0.609012939453125,4.481756687164307,1.4380863904953003,-13.311272621154785
1772881496526358300,0.626358154296875,2.438286304473877,0.8327022790908813,-11.490334510803223
1772881496543703600,0.64370361328125,0.7513462901115417,2.9838497638702393,-13.325629234313965
1772881496561048600,0.661048583984375,0.5024927258491516,1.9142581224441528,-14.703895568847656
1772881496578393900,0.678393798828125,-2.4023938179016113,-5.632704734802246,-13.320843696594238
1772881496595739000,0.69573876953125,-3.4576287269592285,-8.657232284545898,-11.344371795654297
1772881496613084200,0.713084228515625,0.973878800868988,-5.862415313720703,-8.891729354858398
1772881496630429200,0.73042919921875,-0.9978070259094238,-6.812366008758545,-9.643074989318848
1772881496647774500,0.7477744140625,1.7730815410614014,-6.640082836151123,-8.841479301452637
1772881496665119500,0.765119384765625,2.9168508052825928,-5.85284423828125,-8.896514892578125
1772881496682464800,0.78246484375,4.170690059661865,-5.292923450469971,-9.198010444641113
1772881496699809800,0.799809814453125,5.5034918785095215,-3.1106693744659424,-8.989834785461426
1772881496717155000,0.817155029296875,4.2281174659729,-0.9906286001205444,-9.226723670959473
1772881496734500400,0.834500244140625,2.6943182945251465,0.7322037220001221,-9.047262191772461
1772881496751845400,0.851845458984375,-2.297109842300415,0.6699903607368469,-9.305686950683594
1772881496769190700,0.869190673828125,2.6560330390930176,0.1986042857170105,-8.58784008026123
1772881496786535700,0.88653564453125,-1.7204394340515137,0.6867401003837585,-4.721039295196533
1772881496803881000,0.903880859375,-1.4644074440002441,3.4097721576690674,-4.785645484924316
1772881496821226000,0.92122607421875,2.203789710998535,1.4117653369903564,-11.447263717651367
1772881496838571300,0.9385712890625,3.4121651649475098,-5.082355499267578,-9.678967475891113
1772881496855916300,0.955916259765625,5.443671703338623,-5.989234924316406,-8.446663856506348
1772881496873261600,0.973261474609375,5.7858452796936035,-6.702296257019043,-8.02074146270752
1772881496890606600,0.990606689453125,4.096512317657471,-7.6498541831970215,-6.929614543914795
1772881496907951900,1.007951904296875,-0.2727817893028259,-4.082155227661133,-7.369893550872803
1772881496925297200,1.025297119140625,-1.6175481081008911,-3.8763725757598877,-7.324429988861084
1772881496942642200,1.04264208984375,-4.761716842651367,-3.744767427444458,-1.667797327041626
1772881496959987500,1.059987548828125,-0.6125625967979431,-3.6370904445648193,-7.668996810913086
1772881496977332500,1.07733251953125,13.177274703979492,-3.036491870880127,-15.457633972167969
1772881496994677800,1.094677734375,7.89631462097168,-4.7473602294921875,-8.925228118896484
1772881497012022800,1.112022705078125,7.302894592285156,-3.926621913909912,-12.598211288452148
1772881497029368000,1.1293681640625,4.651647090911865,-2.6871397495269775,-17.517854690551758
1772881497046713300,1.14671337890625,-2.833101987838745,-4.9435715675354,-15.378670692443848
1772881497064058400,1.164058349609375,-1.7012969255447388,-5.058426856994629,-11.416156768798828
1772881497081403600,1.181403564453125,1.7826528549194336,-3.955335855484009,-8.322237014770508
1772881497098748700,1.198748779296875,-0.8877372145652771,-2.344966173171997,-2.806781053543091
1772881497116094000,1.216093994140625,-4.3788652420043945,-3.146561861038208,-1.057627558708191
1772881497133439000,1.23343896484375,-5.84566593170166,-8.93240737915039,-4.235296249389648
1772881497150784000,1.250783935546875,-1.31365966796875,-11.918649673461914,-7.350750923156738
1772881497168129300,1.26812939453125,-0.5048855543136597,-7.377072334289551,-8.999405860900879
1772881497185474600,1.285474609375,-1.0767701864242554,-5.821737289428711,-8.520841598510742
1772881497202819600,1.302819580078125,0.02871387079358101,-6.613761901855469,-7.668996810913086
1772881497220164900,1.320164794921875,-2.4765713214874268,-7.970492362976074,-8.054241180419922
1772881497237510000,1.337510009765625,3.105883836746216,-9.186046600341797,-8.482556343078613
1772881497254855200,1.354855224609375,6.616154670715332,-10.561919212341309,-7.326822757720947
1772881497272200200,1.3722001953125,0.2153540402650833,-6.439085960388184,-6.391229152679443
1772881497289545500,1.38954541015625,2.227717876434326,-9.652647018432617,-6.965506553649902
1772881497306890500,1.406890380859375,4.972285270690918,-7.336394309997559,-6.893722057342529
1772881497324235800,1.42423583984375,3.656233072280884,-2.6967110633850098,-7.032505512237549
1772881497341580800,1.441580810546875,4.577469825744629,-4.405186653137207,-6.57547664642334
1772881497358926000,1.458926025390625,3.3332018852233887,-7.3052873611450195,-6.027520179748535
1772881497376271000,1.47627099609375,1.7012969255447388,-9.016156196594238,-4.984249591827393
1772881497393616400,1.493616455078125,-1.526620864868164,-8.22413158416748,-3.4241292476654053
1772881497410961400,1.51096142578125,-1.7635103464126587,-8.451449394226074,-3.483949661254883
1772881497428306700,1.528306640625,3.6227335929870605,-7.061219692230225,-2.148754835128784
1772881497445652000,1.54565185546875,3.2709884643554688,-5.66620397567749,0.31824541091918945
1772881497462997000,1.5629970703125,2.5770699977874756,-7.36032247543335,0.9260223507881165
1772881497480342300,1.58034228515625,2.9958138465881348,-10.348958015441895,-0.3445664644241333
1772881497497687300,1.597687255859375,-0.016749758273363113,-11.504691123962402,-1.4117653369903564
1772881497515032600,1.615032470703125,-1.7611174583435059,-10.124032974243164,-1.337587833404541
1772881497532377600,1.632377685546875,1.3088740110397339,-8.994620323181152,-1.428515076637268
1772881497549723000,1.649722900390625,3.0388846397399902,-8.496912956237793,-2.3090739250183105
1772881497567068000,1.66706787109375,3.9696927070617676,-8.111668586730957,-2.557927370071411
1772881497584413200,1.6844130859375,5.587240695953369,-7.999206066131592,-2.4646072387695312
1772881497601758200,1.70175830078125,6.044270038604736,-7.960920810699463,-3.074777126312256
1772881497619103500,1.719103515625,5.113461971282959,-7.678567886352539,-2.9048867225646973
1772881497636448500,1.736448486328125,4.716253280639648,-7.829315662384033,-3.469592809677124
1772881497653793800,1.753793701171875,5.099104881286621,-9.645467758178711,-4.843072891235352
1772881497671138800,1.771138916015625,0.7345965504646301,-13.957334518432617,-4.867001056671143
1772881497688484000,1.788484130859375,0.5407779216766357,-15.625131607055664,-4.297509670257568
1772881497705829000,1.8058291015625,-0.4905286431312561,-12.205788612365723,-2.6009981632232666
1772881497723174400,1.82317431640625,1.4644074440002441,-8.374878883361816,-3.3690943717956543
1772881497740519400,1.84051953125,2.469393014907837,-7.077969551086426,-2.8450660705566406
1772881497757864700,1.85786474609375,2.9072794914245605,-6.838686943054199,-2.1583259105682373
1772881497775209700,1.875209716796875,5.020142078399658,-6.872186660766602,-1.7491533756256104
1772881497792555000,1.892554931640625,7.585247993469238,-7.8628153800964355,-4.642076015472412
1772881497809900000,1.909900146484375,5.0943193435668945,-8.315058708190918,-5.029713153839111
1772881497827245300,1.927245361328125,4.371686935424805,-9.095118522644043,-4.230510234832764
1772881497844590600,1.944590576171875,0.7178468108177185,-10.301101684570312,-4.01037073135376
1772881497861935600,1.961935546875,-1.7156537771224976,-7.743174076080322,-6.161518096923828
1772881497879281000,1.979281005859375,3.538984775543213,-7.161718368530273,-5.13021183013916
1772881497896626000,1.9966259765625,3.649054527282715,-11.739188194274902,-1.7587246894836426
1772881497913971200,2.01397119140625,3.8811583518981934,-8.300702095031738,-3.211168050765991
1772881497931316200,2.031316162109375,2.6871397495269775,-7.984848976135254,-2.785245656967163
1772881497948661500,2.04866162109375,3.359523057937622,-8.15234661102295,-3.297309637069702
1772881497966006500,2.066006591796875,3.4097721576690674,-9.265008926391602,-4.223331928253174
1772881497983351800,2.083351806640625,3.87876558303833,-9.324830055236816,-5.077569484710693
1772881498009369600,2.10936962890625,1.703689694404602,-8.812766075134277,-4.852644443511963
1772881498026714600,2.126714599609375,2.2779672145843506,-8.11406135559082,-4.311866283416748
1772881498044060000,2.144059814453125,4.096512317657471,-7.88913631439209,-4.773681163787842
1772881498061405000,2.161405029296875,5.132604598999023,-9.243474006652832,-4.481756687164307
1772881498078750000,2.17875,6.010770320892334,-10.408778190612793,-4.175475597381592
1772881498096095200,2.19609521484375,4.613361835479736,-10.961520195007324,-3.0939197540283203
1772881498113440300,2.213440185546875,7.805387496948242,-14.160724639892578,-4.828716278076172
1772881498130785500,2.23078564453125,3.366701364517212,-14.46461296081543,-6.754938125610352
1772881498148130800,2.248130859375,3.036491870880127,-4.309473514556885,-8.00638484954834
1772881498165475800,2.265475830078125,3.019742250442505,-1.8113667964935303,-2.1343977451324463
1772881498182820900,2.28282080078125,6.417550563812256,-1.1365907192230225,0.4737788736820221
1772881498200166100,2.300166259765625,7.568498134613037,-4.4482574462890625,-2.2372891902923584
1772881498217511400,2.317511474609375,3.218346357345581,-6.2500529289245605,-3.0867412090301514
1772881498234856400,2.3348564453125,-1.6223337650299072,-7.544569969177246,-2.4646072387695312
1772881498252201700,2.35220166015625,-1.4644074440002441,-2.3258235454559326,-3.136990547180176
1772881498269546800,2.369546630859375,-0.12203395366668701,-4.405186653137207,-0.007178467698395252
1772881498286892000,2.38689208984375,0.8039883971214294,-6.123233318328857,-0.7920243144035339
1772881498304237000,2.404237060546875,11.2247314453125,-9.245866775512695,-4.185046672821045
1772881498321582300,2.421582275390625,8.602197647094727,-6.97268533706665,-9.035298347473145
1772881498338927400,2.43892724609375,6.25723123550415,-7.9585280418396,-9.78664493560791
1772881498356272600,2.456272705078125,3.759124279022217,-10.217352867126465,-9.040083885192871
1772881498373617700,2.47361767578125,3.1920254230499268,-11.023734092712402,-10.133604049682617
1772881498390963000,2.490962890625,5.546562671661377,-8.709874153137207,-12.547962188720703
1772881498408308000,2.508307861328125,-5.8337016105651855,-7.197610378265381,-3.4193434715270996
1772881498425653200,2.5256533203125,7.810173034667969,-8.834300994873047,-4.577469825744629
1772881498442998300,2.542998291015625,8.126026153564453,-6.551548480987549,-6.041877269744873
1772881498460343600,2.560343505859375,2.691925525665283,-10.317851066589355,-1.3208380937576294
1772881498477688600,2.5776884765625,2.861815929412842,-12.0933256149292,-0.7848458290100098
1772881498495033900,2.595033935546875,5.084748268127441,-9.384650230407715,-3.5341989994049072
1772881498512379000,2.61237890625,4.046263217926025,-7.843672752380371,-4.474578380584717
1772881498529724200,2.62972412109375,11.279766082763672,-6.439085960388184,-4.742574691772461
1772881498547069200,2.647069091796875,2.328216314315796,-7.867600917816162,-2.3545374870300293
1772881498564414500,2.66441455078125,2.586641311645508,-7.987242221832275,-5.419743061065674
1772881498581759500,2.681759521484375,1.0648061037063599,-6.774080753326416,-4.500899314880371
1772881498599104800,2.699104736328125,5.084748268127441,-7.668996810913086,-1.3280165195465088
1772881498616449800,2.71644970703125,6.367300987243652,-8.018348693847656,-2.069791555404663
1772881498633795000,2.733795166015625,5.989234924316406,-5.98444938659668,-2.100898265838623
1772881498651140000,2.75114013671875,6.826723098754883,-8.219346046447754,-3.486342668533325
1772881498668485400,2.7684853515625,4.922036170959473,-9.879964828491211,-4.122833251953125
1772881498685830400,2.785830322265625,3.792623996734619,-6.984649181365967,-3.627519130706787
1772881498703175700,2.80317578125,4.627718925476074,-6.654439926147461,-3.0556344985961914
1772881498720520700,2.820520751953125,5.402993679046631,-6.771687984466553,-4.405186653137207
1772881498737866000,2.837865966796875,4.47697114944458,-8.061419486999512,-3.5222349166870117
1772881498755211000,2.8552109375,6.484549522399902,-7.221538543701172,-3.6610186100006104
1772881498772556300,2.872556396484375,4.67078971862793,-8.965906143188477,-3.7232320308685303
1772881498789901300,2.8899013671875,3.2446675300598145,-9.604789733886719,-4.833501815795898
1772881498807246600,2.90724658203125,2.940778970718384,-9.281759262084961,-4.548755645751953
1772881498833264400,2.933264404296875,4.108476638793945,-8.635697364807129,-3.28773832321167
1772881498850609400,2.950609375,4.804787635803223,-7.027719974517822,-3.7878382205963135
1772881498867954700,2.96795458984375,3.5820555686950684,-7.211967468261719,-3.5341989994049072
1772881498885299700,2.9852998046875,5.13021183013916,-8.62612533569336,-4.1970109939575195
1772881498902645000,3.00264501953125,4.66361141204834,-8.219346046447754,-3.1992039680480957
1772881498919990000,3.019989990234375,2.8043880462646484,-8.563912391662598,-3.538984775543213
1772881498937335300,3.037335205078125,2.517249345779419,-9.111868858337402,-3.82373046875
1772881498954680300,3.054680419921875,4.204189300537109,-10.358529090881348,-3.809373617172241
1772881498972025600,3.072025634765625,4.170690059661865,-7.8077802658081055,-4.792823791503906
1772881498989370600,3.08937060546875,6.680760860443115,-9.688538551330566,-4.2209391593933105
1772881499006716000,3.1067158203125,3.9625144004821777,-8.965906143188477,-4.9124650955200195
1772881499024061000,3.12406103515625,0.04546362906694412,-10.561919212341309,-5.245067119598389
1772881499041406200,3.14140625,1.4141582250595093,-12.454642295837402,-4.661218643188477
1772881499058751200,3.158751220703125,2.9216363430023193,-15.77109432220459,-3.5294134616851807
1772881499076096500,3.176096435546875,1.5337992906570435,-1.2969099283218384,-4.438685894012451
1772881499093441500,3.193441650390625,3.5676984786987305,-4.098905086517334,-1.2945170402526855
1772881499110786800,3.210786865234375,4.790431022644043,-6.798008918762207,-1.7204394340515137
1772881499128131800,3.2281318359375,6.8482584953308105,-0.9499505758285522,-4.500899314880371
1772881499145477000,3.24547705078125,3.5365917682647705,-3.957728624343872,-3.5222349166870117
1772881499162822100,3.262822265625,2.9312076568603516,-5.4628143310546875,-3.4480574131011963
1772881499180167400,3.28016748046875,2.256431818008423,-8.248059272766113,-4.110869407653809
1772881499197512400,3.297512451171875,1.7682958841323853,-10.96869945526123,-5.3216376304626465
1772881499214857700,3.314857666015625,1.4572290182113647,-27.696922302246094,-11.310873031616211
1772881499232202800,3.33220263671875,-8.195417404174805,-13.366307258605957,-5.498706340789795
1772881499249548000,3.349548095703125,-4.3070807456970215,-5.237888813018799,-3.3068809509277344
1772881499266893000,3.36689306640625,2.809173822402954,-1.1653046607971191,-2.9527430534362793
1772881499284238300,3.38423828125,7.968099594116211,-3.869194269180298,-3.4265220165252686
1772881499301583400,3.401583251953125,6.939185619354248,-5.252245903015137,-3.263810157775879
1772881499318928600,3.4189287109375,3.87876558303833,-4.163511276245117,-2.8211379051208496
1772881499336273700,3.436273681640625,3.4337005615234375,-6.180660724639893,-2.65842604637146
1772881499353619000,3.453618896484375,3.105883836746216,-10.64806079864502,-3.9529430866241455
1772881499370964000,3.4709638671875,1.7635103464126587,-14.55793285369873,-5.886343479156494
1772881499388309200,3.488309326171875,-0.36610186100006104,-13.483555793762207,-7.652246952056885
1772881499405654300,3.505654296875,-0.24167509377002716,-10.913663864135742,-5.826523303985596
1772881499422999600,3.52299951171875,2.1822543144226074,-8.12123966217041,-4.060619831085205
1772881499440344600,3.540344482421875,4.900500774383545,-6.726224422454834,-3.483949661254883
1772881499457689900,3.55768994140625,5.8719868659973145,-6.364908218383789,-4.108476638793945
1772881499475035000,3.575034912109375,5.288137912750244,-7.04925537109375,-4.261617183685303
1772881499492380200,3.592380126953125,4.213760852813721,-8.523234367370605,-4.826323509216309
1772881499509725200,3.60972509765625,3.751945972442627,-9.040083885192871,-4.560719966888428
1772881499527070500,3.627070556640625,3.675375461578369,-8.994620323181152,-4.242474555969238
1772881499544415500,3.64441552734375,3.8979079723358154,-8.50169849395752,-4.177868366241455
1772881499561760800,3.6617607421875,4.342973232269287,-8.00638484954834,-3.8189449310302734
1772881499579105800,3.679105712890625,4.713860511779785,-8.003992080688477,-3.2757742404937744
1772881499596451000,3.696451171875,4.563112735748291,-8.305487632751465,-2.926422119140625
1772881499613796000,3.713796142578125,4.108476638793945,-8.391629219055176,-3.0723843574523926
1772881499631141400,3.731141357421875,3.933800458908081,-8.197810173034668,-3.5820555686950684
1772881499648486400,3.748486328125,4.295116424560547,-7.88913631439209,-4.041477680206299
1772881499665831700,3.765831787109375,4.599005222320557,-7.910671710968018,-4.450650215148926
1772881499683176700,3.7831767578125,4.543970108032227,-7.869993686676025,-4.271188259124756
1772881499700522000,3.80052197265625,4.4721856117248535,-7.812565803527832,-3.8811583518981934
1772881499717867000,3.817866943359375,4.232903480529785,-7.824530124664307,-3.8763725757598877
1772881499735212300,3.83521240234375,4.412364959716797,-7.6498541831970215,-4.024727821350098
1772881499752557300,3.852557373046875,4.735395908355713,-7.2574310302734375,-3.775874137878418
1772881499769902600,3.869902587890625,4.651647090911865,-7.22871732711792,-3.2614171504974365
1772881499787247600,3.88724755859375,4.46979284286499,-7.743174076080322,-3.328416347503662
1772881499804593000,3.904593017578125,4.67078971862793,-8.475378036499023,-3.783052682876587
1772881499821938000,3.92193798828125,4.522434711456299,-8.642875671386719,-4.438685894012451
1772881499839283200,3.939283203125,4.651647090911865,-8.657232284545898,-4.716253280639648
1772881499856628200,3.956628173828125,4.359723091125488,-8.080561637878418,-4.4961137771606445
1772881499873973500,3.973973388671875,4.338187217712402,-7.314858913421631,-4.486542224884033
1772881499891318500,3.991318603515625,4.646861553192139,-6.975078105926514,-4.225724697113037
1772881499908663800,4.008663818359375,4.8191447257995605,-7.195217609405518,-3.957728624343872
1772881499926008800,4.0260087890625,4.599005222320557,-7.743174076080322,-3.4672000408172607
1772881499943354000,4.04335400390625,4.651647090911865,-8.298309326171875,-3.4743785858154297
1772881499960699100,4.06069921875,4.814359188079834,-8.516056060791016,-3.3236305713653564
1772881499978044400,4.07804443359375,5.3312087059021,-8.37009334564209,-3.0963125228881836
1772881499995389400,4.095389404296875,5.7164530754089355,-8.15234661102295,-3.483949661254883
1772881500012734700,4.112734619140625,5.788238048553467,-7.9728851318359375,-3.5581271648406982
1772881500030079700,4.130079833984375,5.651846885681152,-7.980063438415527,-3.4241292476654053
1772881500047424800,4.1474248046875,5.553741455078125,-7.987242221832275,-3.294916868209839
1772881500064770000,4.16477001953125,5.558526992797852,-7.83410120010376,-3.3332018852233887
1772881500082115300,4.182115234375,5.824130535125732,-7.860422611236572,-3.452843189239502
1772881500099460400,4.19946044921875,5.831308841705322,-8.209774017333984,-3.538984775543213
1772881500116805400,4.216805419921875,5.5728840827941895,-8.590232849121094,-3.617947816848755
1772881500134150700,4.234150634765625,5.367101192474365,-8.549555778503418,-3.696911096572876
1772881500151495700,4.25149560546875,5.178068161010742,-8.336593627929688,-3.680161237716675
1772881500168841000,4.268841064453125,5.089533805847168,-8.14516830444336,-3.3690943717956543
1772881500186186000,4.28618603515625,5.173282623291016,-7.932207107543945,-3.187239646911621
1772881500203531300,4.30353125,5.225924491882324,-7.573283672332764,-3.414557933807373
1772881500220876300,4.320876220703125,5.359922885894775,-7.678567886352539,-3.8739798069000244
1772881500238221600,4.3382216796875,5.560919761657715,-7.458428382873535,-4.130012035369873
1772881500255566600,4.355566650390625,5.824130535125732,-7.16650390625,-4.036691665649414
1772881500272912000,4.372911865234375,5.831308841705322,-6.798008918762207,-3.7734813690185547
1772881500290257000,4.3902568359375,5.91505765914917,-6.5491557121276855,-3.672982692718506
1772881500307602200,4.407602294921875,6.185446739196777,-6.484549522399902,-3.728017568588257
1772881500324947200,4.424947265625,6.080162525177002,-6.7621169090271,-3.2279176712036133
1772881500342292500,4.44229248046875,5.630311489105225,-7.401000499725342,-2.7038896083831787
1772881500359637500,4.459637451171875,5.125426292419434,-7.81974458694458,-2.715853691101074
1772881500376982800,4.476982666015625,4.800002098083496,-7.960920810699463,-2.5603201389312744
1772881500394327800,4.494327880859375,4.48414945602417,-8.078168869018555,-2.620140790939331
1772881500411673000,4.511673095703125,4.572684288024902,-7.814958572387695,-2.723032236099243
1772881500429018000,4.52901806640625,5.084748268127441,-7.427321434020996,-2.63449764251709
1772881500446363400,4.54636328125,5.67338228225708,-7.202396392822266,-3.014956474304199
1772881500463708400,4.56370849609375,5.900700569152832,-6.92482852935791,-3.5294134616851807
1772881500481053700,4.5810537109375,5.953342914581299,-6.783652305603027,-3.352344512939453
1772881500498398700,4.598398681640625,5.312066078186035,-6.7070817947387695,-3.1202406883239746
1772881500515744000,4.615743896484375,5.1876397132873535,-7.1162543296813965,-2.9240293502807617
1772881500533089000,4.633089111328125,5.355136871337891,-7.322037220001221,-2.794816732406616
1772881500550434000,4.65043408203125,5.840879917144775,-7.04925537109375,-2.68953275680542
1772881500567779300,4.667779296875,5.828916072845459,-6.309873104095459,-2.7014968395233154
1772881500585124400,4.685124267578125,5.8719868659973145,-6.001199245452881,-3.067598581314087
1772881500602469600,4.7024697265625,5.642275810241699,-6.027520179748535,-3.8189449310302734
1772881500619815000,4.71981494140625,5.737988471984863,-5.764309883117676,-4.275974273681641
1772881500637160000,4.737159912109375,6.020341873168945,-5.290530681610107,-4.517649173736572
1772881500654505200,4.754505126953125,6.403193473815918,-5.328815937042236,-4.247260093688965
1772881500671850200,4.771850341796875,6.3361945152282715,-6.211767673492432,-3.586841106414795
1772881500689195300,4.7891953125,6.010770320892334,-6.735795974731445,-3.510270833969116
1772881500706540500,4.80654052734375,5.553741455078125,-7.2813591957092285,-3.6610186100006104
1772881500723885600,4.823885498046875,5.60399055480957,-7.762316703796387,-3.5222349166870117
1772881500741230800,4.84123095703125,5.79063081741333,-8.432307243347168,-2.730210542678833
1772881500758575900,4.858575927734375,6.434299945831299,-9.066405296325684,-1.8616160154342651
1772881500775921200,4.875921142578125,4.603790760040283,-9.276973724365234,-2.021935224533081
1772881500793266200,4.89326611328125,3.242274761199951,-9.44447135925293,-2.9766714572906494
1772881500810611500,4.910611572265625,3.397808074951172,-9.439684867858887,-3.3643085956573486
1772881500827956500,4.92795654296875,4.5583271980285645,-8.767302513122559,-3.25663161277771
1772881500845301800,4.9453017578125,5.326423168182373,-7.733603000640869,-3.620340585708618
1772881500862646800,4.962646728515625,5.209175109863281,-6.932007312774658,-4.364508628845215
1772881500879992000,4.979991943359375,5.053641319274902,-6.285944938659668,-4.553541660308838
1772881500897337000,4.997337158203125,5.6590256690979,-6.175875186920166,-4.216153621673584
1772881500914682400,5.014682373046875,6.386443614959717,-6.1399827003479,-4.043870449066162
1772881500932027400,5.03202734375,6.329015731811523,-6.238088607788086,-3.7256247997283936
1772881500949372700,5.04937255859375,5.680561065673828,-6.39601469039917,-3.34995174407959
1772881500966717700,5.0667177734375,5.072783946990967,-6.32662296295166,-3.326023578643799
1772881500984063000,5.08406298828125,5.726024627685547,-6.38165807723999,-3.2925238609313965
1772881501001408000,5.101407958984375,6.702296257019043,-6.362515449523926,-3.838087558746338
1772881501018753300,5.118753173828125,7.0995049476623535,-6.254838466644287,-3.900300979614258
1772881501036098300,5.136098388671875,7.219145774841309,-7.046862602233887,-3.359523057937622
1772881501053443300,5.153443359375,7.0755767822265625,-7.635497093200684,-2.8283164501190186
1772881501070788600,5.17078857421875,7.57806921005249,-8.525627136230469,-2.2085752487182617
1772881501088133600,5.188133544921875,7.357929706573486,-8.958727836608887,-1.9932212829589844
1772881501105479000,5.20547900390625,6.721438884735107,-9.013762474060059,-2.56510591506958
1772881501122824000,5.222823974609375,6.790830612182617,-8.702695846557617,-2.4430718421936035
1772881501140169200,5.240169189453125,7.324429988861084,-7.692924976348877,-2.3330020904541016
1772881501157514200,5.25751416015625,7.994420528411865,-6.984649181365967,-2.2947168350219727
1772881501174859500,5.274859619140625,7.645068168640137,-7.159325122833252,-1.887937068939209
1772881501192204500,5.29220458984375,5.003392219543457,-8.061419486999512,-0.5240281820297241
1772881501209549800,5.3095498046875,3.314059257507324,-8.38684368133545,-1.4572290182113647
1772881501226894800,5.326894775390625,4.35254430770874,-8.38684368133545,-2.3952155113220215
1772881501244240000,5.344239990234375,5.1182475090026855,-7.865208148956299,-2.579462766647339
1772881501261585200,5.361585205078125,5.886343479156494,-7.668996810913086,-2.6273193359375
1772881501278930400,5.378930419921875,6.2500529289245605,-7.762316703796387,-2.273181438446045
1772881501296275500,5.396275390625,6.422336101531982,-8.126026153564453,-1.6366907358169556
1772881501313620700,5.413620849609375,6.350551128387451,-8.470592498779297,-0.275174617767334
1772881501330965800,5.4309658203125,6.262016773223877,-8.482556343078613,0.21296121180057526
1772881501348310800,5.448310791015625,5.8719868659973145,-8.068597793579102,0.07417750358581543
1772881501365656000,5.465656005859375,5.883950710296631,-7.458428382873535,-1.0145567655563354
1772881501383001000,5.4830009765625,6.149554252624512,-6.996613502502441,-1.4763715267181396
1772881501400346400,5.500346435546875,6.156732559204102,-6.857829570770264,-1.5194423198699951
1772881501417691400,5.51769140625,6.130411624908447,-6.814758777618408,-1.3423734903335571
1772881501435036700,5.53503662109375,6.080162525177002,-6.896114826202393,-0.9762716293334961
1772881501452381700,5.552381591796875,5.965306758880615,-6.757331371307373,-0.9954141974449158
1772881501469727000,5.56972705078125,5.907878875732422,-6.654439926147461,-1.5984054803848267
1772881501487072000,5.587072021484375,5.599205017089844,-7.314858913421631,-2.045863389968872
1772881501504417000,5.6044169921875,4.613361835479736,-8.367700576782227,-1.9286150932312012
1772881501521762300,5.62176220703125,4.249652862548828,-9.049654960632324,-1.2945170402526855
1772881501539107300,5.639107421875,4.287938117980957,-8.738588333129883,-0.7776673436164856
1772881501556452600,5.65645263671875,4.773681163787842,-7.905886173248291,-1.215553879737854
1772881501573797600,5.673797607421875,6.034698486328125,-7.109076023101807,-2.155933141708374
1772881501591143000,5.691142822265625,5.898307800292969,-7.044469833374023,-2.376072883605957
1772881501608488200,5.70848828125,4.694717884063721,-8.085348129272461,-1.3615161180496216
1772881501625833200,5.725833251953125,3.871587038040161,-9.382257461547852,-0.18424734473228455
1772881501643178200,5.74317822265625,3.304488182067871,-10.028319358825684,0.07657032459974289
1772881501660523500,5.7605234375,2.562713146209717,-8.805587768554688,-1.5050854682922363
1772881501677868500,5.77786865234375,3.2374889850616455,-7.774280548095703,-3.548556089401245
1772881501695213800,5.7952138671875,3.1968109607696533,-8.2695951461792,-4.139583110809326
1772881501712558800,5.812558837890625,2.4885356426239014,-9.265008926391602,-3.6921253204345703
1772881501729904000,5.829904052734375,2.076970100402832,-10.155138969421387,-3.9625144004821777
1772881501747249200,5.847249267578125,2.715853691101074,-10.528419494628906,-4.144368648529053
1772881501764594400,5.864594482421875,4.898108005523682,-9.415757179260254,-4.185046672821045
1772881501781939500,5.881939453125,8.482556343078613,-6.759724140167236,-4.170690059661865
1772881501799284500,5.899284423828125,11.818151473999023,-5.97727108001709,-2.4574289321899414
1772881501816629800,5.916629638671875,14.43350601196289,-8.602197647094727,-0.5407779216766357
1772881501833974800,5.933974853515625,10.01874828338623,-8.894122123718262,0.25363919138908386
1772881501851320000,5.951320068359375,4.828716278076172,-9.609575271606445,-0.3900300860404968
1772881501868665000,5.9686650390625,4.567898273468018,-9.53779125213623,-1.9645073413848877
1772881501886010400,5.98601025390625,5.233103275299072,-8.360522270202637,-2.550748825073242
1772881501903355400,6.00335546875,5.893522262573242,-8.133204460144043,-2.5076780319213867
1772881501920700700,6.02070068359375,5.793023586273193,-7.8795647621154785,-2.234896421432495
1772881501938045700,6.038045654296875,5.599205017089844,-7.566105365753174,-1.4787644147872925
1772881501955391000,6.055390869140625,5.405386447906494,-8.15234661102295,-0.7034898400306702
1772881501972736000,6.072736083984375,4.965106964111328,-9.667003631591797,0.5048855543136597
1772881501990081300,6.090081298828125,6.068198204040527,-11.286944389343262,1.8305093050003052
1772881502007426300,6.10742626953125,5.60399055480957,-11.399407386779785,1.1413763761520386
1772881502024771300,6.124771240234375,4.867001056671143,-10.425528526306152,-0.17706887423992157
1772881502042116600,6.14211669921875,5.07517671585083,-10.162318229675293,-1.1940184831619263
1772881502059461600,6.159461669921875,6.118447303771973,-10.301101684570312,-1.7778671979904175
1772881502076807000,6.176806884765625,6.738188743591309,-10.796415328979492,-1.4261223077774048
1772881502094152000,6.19415185546875,6.209374904632568,-11.576476097106934,-0.14835500717163086
1772881502111497200,6.211497314453125,4.390829563140869,-11.92343521118164,-0.5982056856155396
1772881502128842200,6.22884228515625,4.730610370635986,-12.04786205291748,-2.517249345779419
1772881502146187500,6.2461875,5.132604598999023,-11.95454216003418,-3.744767427444458
1772881502163532500,6.263532470703125,5.527420520782471,-9.628718376159668,-5.704489231109619
1772881502180877800,6.2808779296875,6.111268997192383,-8.051848411560059,-6.673582553863525
1772881502198222800,6.298222900390625,6.056233882904053,-6.477370738983154,-4.369294166564941
1772881502215568100,6.315568115234375,6.288337707519531,-6.300302028656006,-0.5168496966362
1772881502232913200,6.3329130859375,5.608776092529297,-6.896114826202393,1.5385849475860596
1772881502250258200,6.350258056640625,5.127819061279297,-7.759923934936523,2.0338993072509766
1772881502267603500,6.367603515625,4.8813581466674805,-8.429914474487305,1.770688772201538
1772881502284948500,6.384948486328125,5.654240131378174,-7.95134973526001,0.5790630578994751
1772881502302293800,6.402293701171875,4.500899314880371,-7.728816986083984,-0.9930213689804077
1772881502319638800,6.419638671875,4.311866283416748,-7.609176158905029,-0.8757730722427368
1772881502336984000,6.436984130859375,5.582455158233643,-7.489534854888916,-0.8422735929489136
1772881502354329000,6.4543291015625,5.663811206817627,-6.5874409675598145,0.38763725757598877
1772881502371674400,6.47167431640625,5.656632900238037,-5.175675392150879,0.8303094506263733
1772881502389019400,6.489019287109375,4.972285270690918,-5.745167255401611,1.1126625537872314
1772881502406364700,6.50636474609375,4.845465660095215,-6.874579429626465,1.0408778190612793
1772881502423709700,6.523709716796875,4.639683246612549,-5.714060306549072,0.6436693072319031
1772881502441054700,6.5410546875,4.864608287811279,-4.677968502044678,1.3567304611206055
1772881502458400000,6.55839990234375,4.716253280639648,-4.682754039764404,1.0217353105545044
1772881502475745000,6.5757451171875,4.656432628631592,-6.135197162628174,1.337587833404541
1772881502493090300,6.59309033203125,4.721039295196533,-7.106683254241943,1.0648061037063599
1772881502510435300,6.610435302734375,4.974678039550781,-7.240681171417236,0.607776939868927
1772881502527780600,6.627780517578125,6.020341873168945,-6.357729911804199,1.0959128141403198
1772881502545125600,6.645125732421875,5.5968122482299805,-6.704689025878906,1.9932212829589844
1772881502562471000,6.662470947265625,6.183053493499756,-6.838686943054199,1.5936198234558105
1772881502579816000,6.67981591796875,6.4319071769714355,-7.463213920593262,0.9475577473640442
1772881502597161200,6.6971611328125,6.137589931488037,-8.209774017333984,0.6364908218383789
1772881502614506200,6.71450634765625,6.484549522399902,-9.257830619812012,-0.8877372145652771
1772881502631851500,6.7318515625,6.857829570770264,-8.310273170471191,-1.1102696657180786
1772881502649196500,6.749196533203125,6.7621169090271,-7.441678524017334,-0.9332008361816406
1772881502666541600,6.76654150390625,6.362515449523926,-8.398807525634766,-0.42831525206565857
1772881502683886800,6.783886962890625,7.020541667938232,-10.028319358825684,-0.8901300430297852
1772881502701231900,6.80123193359375,5.453242778778076,-10.808380126953125,-0.4426721930503845
1772881502718577200,6.8185771484375,4.115654945373535,-10.336994171142578,0.5647061467170715
1772881502735922200,6.835922119140625,4.9292144775390625,-9.542576789855957,0.1459621787071228
1772881502753267500,6.853267333984375,5.307280540466309,-8.671588897705078,-0.3038884699344635
1772881502770612500,6.870612548828125,6.005984783172607,-8.250452041625977,0.3206382393836975
1772881502787957800,6.887957763671875,7.144968509674072,-8.061419486999512,1.2897313833236694
1772881502805302800,6.905302734375,7.29810905456543,-7.637889862060547,1.9022940397262573
1772881502822648000,6.92264794921875,6.307480335235596,-7.219145774841309,1.588834285736084
1772881502839993000,6.9399931640625,5.113461971282959,-7.719245910644531,0.5551348328590393
1772881502857338000,6.957338134765625,3.950550079345703,-7.101897716522217,-0.5359922647476196
1772881502874683400,6.974683349609375,4.208974838256836,-6.56829833984375,-0.3756731450557709
1772881502892028400,6.9920283203125,4.938786029815674,-6.321837425231934,-0.33738797903060913
1772881502909373700,7.009373779296875,5.570491313934326,-6.305087566375732,-0.275174617767334
1772881502926718700,7.02671875,6.398407936096191,-6.709474563598633,0.2991028428077698
1772881502944064000,7.04406396484375,6.92482852935791,-7.566105365753174,0.46420758962631226
1772881502961409000,7.061408935546875,7.03489875793457,-8.173882484436035,0.09571290761232376
1772881502978754300,7.07875439453125,6.946363925933838,-8.559126853942871,-0.7776673436164856
1772881502996099300,7.096099365234375,6.149554252624512,-8.760123252868652,-1.4859428405761719
1772881503013444600,7.113444580078125,5.355136871337891,-8.906085968017578,-1.7730815410614014
1772881503030789600,7.13078955078125,5.003392219543457,-8.855836868286133,-1.7994025945663452
1772881503048135000,7.148135009765625,5.0703911781311035,-8.650053977966309,-1.5672988891601562
1772881503065480000,7.16547998046875,5.134997367858887,-8.427521705627441,-1.153340458869934
1772881503082825200,7.1828251953125,5.036891460418701,-8.200202941894531,-0.7585247755050659
1772881503100170200,7.200170166015625,5.106283664703369,-7.8077802658081055,-0.6484549641609192
1772881503117515300,7.217515380859375,5.20678186416626,-7.5708909034729,-0.851844847202301
1772881503134860500,7.234860595703125,5.027320384979248,-7.601997375488281,-1.2203395366668701
1772881503152205600,7.25220556640625,4.886143684387207,-7.412964344024658,-1.306481122970581
1772881503169550800,7.26955078125,5.096712112426758,-7.365108013153076,-1.5337992906570435
1772881503186896000,7.286895751953125,5.32403039932251,-7.295716285705566,-1.5026925802230835
1772881503204241200,7.3042412109375,5.548955917358398,-7.7455668449401855,-1.4883357286453247
1772881503221586200,7.321586181640625,5.3312087059021,-7.8628153800964355,-1.4452649354934692
1772881503238931500,7.338931396484375,5.158925533294678,-8.054241180419922,-1.6366907358169556
1772881503256276500,7.3562763671875,5.31685209274292,-8.214560508728027,-1.8999011516571045
1772881503273621800,7.373621826171875,5.357530117034912,-8.068597793579102,-2.342573404312134
1772881503290966800,7.390966796875,5.532206058502197,-8.154739379882812,-2.4670002460479736
1772881503308311800,7.408311767578125,5.606383323669434,-8.248059272766113,-2.641676187515259
1772881503325657000,7.425656982421875,5.539384365081787,-8.154739379882812,-2.6871397495269775
1772881503343002000,7.443002197265625,5.539384365081787,-8.319844245910645,-2.6847469806671143
1772881503360347400,7.460347412109375,5.065605640411377,-8.566305160522461,-2.352144718170166
1772881503377692400,7.4776923828125,4.840680122375488,-8.405985832214355,-2.227717876434326
1772881503395037700,7.49503759765625,4.979464054107666,-8.126026153564453,-2.3401806354522705
1772881503412382700,7.5123828125,5.034498691558838,-8.226524353027344,-2.4095723628997803
1772881503429728000,7.52972802734375,5.154139995574951,-8.11406135559082,-2.7086751461029053
1772881503447073000,7.547072998046875,4.821537494659424,-8.183453559875488,-2.919243574142456
1772881503464418000,7.56441796875,4.4243292808532715,-8.094919204711914,-3.201596736907959
1772881503481763300,7.581763427734375,4.1419758796691895,-8.080561637878418,-3.4169507026672363
1772881503499108600,7.599108642578125,4.005585193634033,-7.953742504119873,-3.6083765029907227
1772881503516453600,7.61645361328125,4.340580463409424,-7.814958572387695,-3.840480327606201
1772881503533798700,7.633798583984375,4.615755081176758,-8.22413158416748,-3.8572301864624023
1772881503551144000,7.65114404296875,4.809573650360107,-8.484949111938477,-4.022335052490234
1772881503568489000,7.668489013671875,4.804787635803223,-8.889336585998535,-4.417150497436523
1772881503585834200,7.685834228515625,5.07517671585083,-9.066405296325684,-4.651647090911865
1772881503603179300,7.70317919921875,5.257031440734863,-9.32722282409668,-4.687539577484131
1772881503620524500,7.720524658203125,4.713860511779785,-9.142974853515625,-4.687539577484131
1772881503637869600,7.73786962890625,4.213760852813721,-8.724231719970703,-4.280759811401367
1772881503655214800,7.75521484375,4.096512317657471,-8.645268440246582,-4.206582069396973
1772881503672559900,7.772559814453125,4.00319242477417,-8.461020469665527,-4.091726779937744
1772881503689905000,7.78990478515625,3.8835511207580566,-8.133204460144043,-4.2831525802612305
1772881503707250200,7.807250244140625,4.335794448852539,-7.936992645263672,-4.326223373413086
1772881503724595200,7.82459521484375,4.591826438903809,-7.88913631439209,-4.206582069396973
1772881503741940500,7.8419404296875,4.534399032592773,-7.956135272979736,-4.256831645965576
1772881503759285500,7.859285400390625,4.357329845428467,-8.039883613586426,-3.91705060005188
1772881503776630800,7.876630859375,4.342973232269287,-8.164310455322266,-3.893122434616089
1772881503793975800,7.893975830078125,4.962714195251465,-8.417949676513672,-4.122833251953125
1772881503811320800,7.91132080078125,5.2354960441589355,-8.334200859069824,-4.321437835693359
1772881503828666000,7.928666015625,4.900500774383545,-8.310273170471191,-4.1730828285217285
1772881503846011100,7.94601123046875,4.254438877105713,-8.044670104980469,-3.9912281036376953
1772881503863356400,7.9633564453125,4.302295207977295,-7.769495010375977,-4.304687976837158
1772881503880701400,7.980701416015625,4.555934429168701,-7.89631462097168,-4.187439441680908
1772881503898046700,7.998046630859375,4.359723091125488,-7.994420528411865,-4.481756687164307
1772881503915391700,8.015391845703125,4.156332969665527,-8.054241180419922,-4.185046672821045
1772881503932737000,8.032737060546875,3.864408493041992,-7.932207107543945,-3.87876558303833
1772881503950082000,8.05008203125,4.000799655914307,-7.8795647621154785,-4.086941242218018
1772881503967427000,8.067427001953124,3.8668015003204346,-7.984848976135254,-3.9529430866241455
1772881503984772400,8.0847724609375,3.9625144004821777,-7.893921852111816,-4.077369689941406
1772881504002117400,8.102117431640625,4.213760852813721,-8.039883613586426,-3.8117663860321045
1772881504019462700,8.119462646484376,4.043870449066162,-7.968099594116211,-3.517449378967285
1772881504036807700,8.1368076171875,3.88594388961792,-7.877171993255615,-3.5222349166870117
1772881504054153000,8.154153076171875,3.8668015003204346,-7.8556365966796875,-3.625126361846924
1772881504071498000,8.171498046875,3.737588882446289,-7.922635555267334,-3.689732551574707
1772881504088843000,8.188843017578124,3.838087558746338,-7.867600917816162,-3.7471601963043213
1772881504106188300,8.206188232421875,3.8979079723358154,-7.680960655212402,-3.8261234760284424
1772881504123533300,8.223533203125,4.077369689941406,-7.724031448364258,-4.1491546630859375
1772881504140878600,8.240878662109376,3.8907296657562256,-7.812565803527832,-4.295116424560547
1772881504158223600,8.2582236328125,3.799802303314209,-8.135597229003906,-3.87876558303833
1772881504175569000,8.27556884765625,3.840480327606201,-8.324629783630371,-3.5533416271209717
1772881504192914000,8.292913818359375,3.88594388961792,-8.109275817871094,-3.6227335929870605
1772881504210259000,8.310259033203126,3.7806596755981445,-7.89631462097168,-4.0079779624938965
1772881504227604200,8.327604248046875,3.783052682876587,-7.7455668449401855,-4.3070807456970215
1772881504244949200,8.34494921875,3.696911096572876,-7.960920810699463,-4.302295207977295
1772881504262294500,8.36229443359375,3.428914785385132,-8.243273735046387,-4.1491546630859375
1772881504279639600,8.3796396484375,3.311666488647461,-8.312665939331055,-3.8261234760284424
1772881504296984800,8.39698486328125,3.5270206928253174,-8.085348129272461,-3.6993038654327393
1772881504314329900,8.414329833984375,3.706482172012329,-8.059026718139648,-3.6538400650024414
1772881504331675000,8.4316748046875,3.641875982284546,-8.15234661102295,-3.4097721576690674
1772881504349020200,8.449020263671875,3.6777684688568115,-8.204988479614258,-3.2829527854919434
1772881504366365200,8.466365234375,3.8883368968963623,-8.075776100158691,-3.4959139823913574
1772881504383710500,8.48371044921875,3.625126361846924,-8.37009334564209,-3.6131622791290283
1772881504401055500,8.501055419921874,3.510270833969116,-8.676374435424805,-3.4791641235351562
1772881504418400500,8.518400390625,3.4648072719573975,-8.578269004821777,-3.5820555686950684
1772881504435745800,8.535745849609375,3.713660717010498,-8.958727836608887,-3.579662561416626
1772881504453090800,8.5530908203125,3.7112679481506348,-9.300901412963867,-3.570091485977173
1772881504470436000,8.57043603515625,3.2350962162017822,-9.377471923828125,-3.5820555686950684
1772881504487781000,8.587781005859375,3.1800613403320312,-9.09272575378418,-3.8811583518981934
1772881504505126400,8.60512646484375,3.2063822746276855,-8.982656478881836,-3.617947816848755
1772881504522471400,8.622471435546874,3.744767427444458,-8.908478736877441,-4.01754903793335
1772881504539816400,8.63981640625,3.8572301864624023,-9.023334503173828,-4.060619831085205
1772881504557161700,8.65716162109375,4.036691665649414,-9.004191398620605,-3.895515203475952
1772881504574506800,8.6745068359375,4.177868366241455,-8.781659126281738,-3.610769271850586
1772881504591852000,8.69185205078125,3.8979079723358154,-8.549555778503418,-3.1417760848999023
1772881504609197000,8.709197021484375,3.8907296657562256,-8.906085968017578,-2.5603201389312744
1772881504626542300,8.726542236328125,4.098905086517334,-8.803194046020508,-3.06999135017395
1772881504643887400,8.743887451171876,4.091726779937744,-8.516056060791016,-3.22552490234375
1772881504661232400,8.761232421875,4.036691665649414,-8.432307243347168,-3.014956474304199
1772881504678577700,8.77857763671875,4.1730828285217285,-8.492127418518066,-3.0723843574523926
1772881504695922700,8.795922607421875,4.1730828285217285,-8.102097511291504,-2.830709218978882
1772881504713268000,8.81326806640625,4.417150497436523,-8.183453559875488,-2.8139593601226807
1772881504730613000,8.830613037109375,4.503292083740234,-8.116454124450684,-2.7326035499572754
1772881504747958300,8.847958251953125,5.230710506439209,-8.267202377319336,-2.667997360229492
1772881504765303300,8.86530322265625,5.266602516174316,-8.188239097595215,-2.4670002460479736
1772881504782648600,8.882648681640624,4.962714195251465,-8.616554260253906,-2.746960401535034
1772881504799993600,8.89999365234375,5.034498691558838,-8.453842163085938,-2.4191436767578125
1772881504817338600,8.917338623046875,5.450850009918213,-8.48016357421875,-2.313859462738037
1772881504834684000,8.934683837890624,5.726024627685547,-8.451449394226074,-2.2372891902923584
1772881504852029000,8.95202880859375,5.91505765914917,-8.738588333129883,-1.8233308792114258
1772881504869374200,8.969374267578125,5.816951751708984,-8.365307807922363,-1.0648061037063599
1772881504886719200,8.98671923828125,5.879165172576904,-7.95134973526001,-0.9379864931106567
1772881504904064300,9.004064208984374,5.623133182525635,-7.8317084312438965,-0.6005984544754028
1772881504921409500,9.021409423828125,5.446064472198486,-7.781459331512451,-0.6652047038078308
1772881504938754600,9.038754638671875,5.166104316711426,-7.853243827819824,-0.5168496966362
1772881504956099800,9.056099853515626,5.556134223937988,-7.688138961791992,-0.38285163044929504
1772881504973444900,9.07344482421875,5.98444938659668,-8.233702659606934,-0.3684946894645691
1772881504990790100,9.0907900390625,6.2668023109436035,-7.910671710968018,-0.2871387302875519
1772881505008135200,9.10813525390625,6.0610198974609375,-7.824530124664307,-0.30149564146995544
1772881505025480400,9.12548046875,5.630311489105225,-7.683353424072266,-0.5599204897880554
1772881505042825500,9.142825439453125,5.407779216766357,-7.791030406951904,-0.39960137009620667
1772881505060170500,9.16017041015625,5.661418437957764,-7.546962738037109,-0.5575276613235474
1772881505077515800,9.177515869140626,5.989234924316406,-7.412964344024658,-0.7010970115661621
1772881505094860800,9.19486083984375,6.276373863220215,-7.424928665161133,-0.7178468108177185
1772881505112206000,9.2122060546875,6.374479293823242,-7.264609336853027,-0.7369893789291382
1772881505129551000,9.229551025390625,6.288337707519531,-7.267002582550049,-0.6628118753433228
1772881505146896400,9.246896484375,6.063412666320801,-7.386643409729004,-0.7082754969596863
1772881505164241400,9.264241455078125,6.0777692794799805,-7.506284713745117,-1.1126625537872314
1772881505181586400,9.28158642578125,5.78345251083374,-7.554141044616699,-1.2323036193847656
1772881505198931700,9.298931640625,5.804987907409668,-7.546962738037109,-1.490728497505188
1772881505216276700,9.31627685546875,5.7786664962768555,-7.534998416900635,-1.679761528968811
1772881505233622000,9.3336220703125,5.723631858825684,-7.200003147125244,-1.4739787578582764
1772881505250967000,9.350967041015625,5.745167255401611,-6.833901405334473,-1.5672988891601562
1772881505268312300,9.368312255859376,5.84566593170166,-7.0061845779418945,-1.6055840253829956
1772881505285657300,9.3856572265625,6.130411624908447,-7.23589563369751,-1.430907964706421
1772881505303002400,9.40300244140625,6.309873104095459,-6.984649181365967,-1.4165509939193726
1772881505320347600,9.42034765625,6.1950178146362305,-6.781259536743164,-1.4859428405761719
1772881505337693000,9.43769287109375,5.970092296600342,-7.037291526794434,-1.6031911373138428
1772881505355038000,9.455037841796875,5.726024627685547,-7.29093074798584,-1.8903298377990723
1772881505372383000,9.472383056640625,5.565705299377441,-7.408178806304932,-2.2133610248565674
1772881505389728300,9.489728271484376,5.812166213989258,-7.003791809082031,-2.486142635345459
1772881505407073300,9.5070732421875,5.769095420837402,-6.580262184143066,-2.407179594039917
1772881505424418600,9.52441845703125,5.639883041381836,-6.642475605010986,-2.1774685382843018
1772881505441763600,9.541763671875,5.718846321105957,-6.666403770446777,-2.227717876434326
1772881505459108900,9.55910888671875,6.025127410888672,-6.850651264190674,-2.5124638080596924
1772881505476454000,9.576453857421875,6.439085960388184,-7.255038261413574,-2.761317253112793
1772881505493799000,9.593798828125,6.850651264190674,-7.582854747772217,-3.1130621433258057
1772881505511144200,9.611144287109376,6.905686378479004,-7.458428382873535,-3.352344512939453
1772881505528489200,9.6284892578125,6.460621356964111,-7.2574310302734375,-3.5341989994049072
1772881505545834500,9.64583447265625,5.802595138549805,-7.04925537109375,-3.601198196411133
1772881505563179500,9.663179443359375,5.163711071014404,-7.027719974517822,-3.4408788681030273
1772881505580524800,9.68052490234375,5.125426292419434,-7.17368221282959,-3.2374889850616455
1772881505597869800,9.697869873046875,5.340780258178711,-7.113861560821533,-3.1752755641937256
1772881505615214800,9.71521484375,5.824130535125732,-7.082755088806152,-3.0628130435943604
1772881505632560000,9.73256005859375,6.781259536743164,-7.156932353973389,-3.2685956954956055
1772881505649905200,9.7499052734375,7.314858913421631,-7.35314416885376,-3.4169507026672363
1772881505667250400,9.76725048828125,7.482356548309326,-7.929814338684082,-3.8572301864624023
1772881505684595500,9.784595458984375,7.269395351409912,-8.315058708190918,-4.125226020812988
1772881505701940500,9.8019404296875,6.7692952156066895,-8.3629150390625,-3.8045880794525146
1772881505719285800,9.81928564453125,6.25723123550415,-7.8388872146606445,-3.656233072280884
1772881505736630800,9.836630859375,6.228517532348633,-7.286144733428955,-3.4408788681030273
1772881505753976000,9.85397607421875,6.6592254638671875,-7.307680130004883,-3.0891339778900146
1772881505771321000,9.871321044921874,6.8243303298950195,-7.197610378265381,-3.115455150604248
1772881505788666400,9.888666259765625,6.106483459472656,-7.046862602233887,-3.407379388809204
1772881505806011400,9.906011474609375,5.422136306762695,-6.819544315338135,-4.137190341949463
1772881505823356400,9.9233564453125,5.529813289642334,-6.807580471038818,-4.610969066619873
1772881505840701700,9.94070166015625,6.486942291259766,-7.348358154296875,-4.381258487701416
1772881505858046700,9.958046630859375,6.7932233810424805,-7.561319351196289,-3.7495529651641846
1772881505875392000,9.97539208984375,6.410371780395508,-7.448856830596924,-3.1250264644622803
1772881505892737000,9.992737060546874,5.493920803070068,-6.97986364364624,-3.2781670093536377
1772881505910082300,10.010082275390625,4.926821708679199,-6.424728870391846,-3.297309637069702
1772881505927427300,10.02742724609375,5.099104881286621,-6.185446739196777,-3.9457645416259766
1772881505944772400,10.0447724609375,5.5034918785095215,-6.281159400939941,-4.278367042541504
1772881505962117600,10.06211767578125,6.295516490936279,-6.580262184143066,-4.101297855377197
1772881505979462700,10.079462646484375,6.345765590667725,-6.786045074462891,-3.5916268825531006
1772881505996807700,10.0968076171875,6.86261510848999,-6.960721015930176,-3.4432718753814697
1772881506014153000,10.114153076171876,6.508477687835693,-7.094718933105469,-3.665804386138916
1772881506031498200,10.131498291015625,5.9916276931762695,-7.362715244293213,-3.9314076900482178
1772881506048843300,10.14884326171875,6.166304111480713,-7.680960655212402,-4.0797624588012695
1772881506066188300,10.166188232421876,6.678368091583252,-7.927421569824219,-3.8572301864624023
1772881506083533600,10.183533447265624,6.915257453918457,-8.075776100158691,-3.751945972442627
1772881506100878600,10.200878662109375,6.453442573547363,-7.429714202880859,-3.3236305713653564
1772881506118224000,10.218223876953125,5.764309883117676,-6.798008918762207,-3.431307554244995
1772881506135569000,10.23556884765625,5.2977094650268555,-6.379265308380127,-4.292723655700684
1772881506152914000,10.252913818359374,5.0225348472595215,-6.649653911590576,-4.47697114944458
1772881506170259200,10.27025927734375,5.170889854431152,-6.888936519622803,-4.208974838256836
1772881506187604200,10.287604248046875,5.249852657318115,-6.776473522186279,-3.541377544403076
1772881506204949200,10.30494921875,5.063212871551514,-6.486942291259766,-3.1106693744659424
1772881506222294500,10.32229443359375,4.993820667266846,-6.180660724639893,-3.1250264644622803
1772881506239639600,10.3396396484375,4.871787071228027,-6.147161483764648,-3.2231321334838867
1772881506256984800,10.35698486328125,5.029713153839111,-6.561119556427002,-3.1561331748962402
1772881506274329900,10.374329833984374,5.383851051330566,-7.054041385650635,-3.0101709365844727
1772881506291675100,10.391675048828125,5.970092296600342,-7.724031448364258,-3.201596736907959
1772881506309020200,10.409020263671875,6.20219612121582,-8.60459041595459,-3.656233072280884
1772881506326365200,10.426365234375,6.63769006729126,-9.425328254699707,-4.137190341949463
1772881506343710500,10.44371044921875,6.876972198486328,-9.592825889587402,-4.429114818572998
1772881506361055500,10.461055419921875,7.039684295654297,-8.920442581176758,-4.29033088684082
1772881506378400800,10.47840087890625,6.802794933319092,-8.264809608459473,-3.957728624343872
1772881506395745800,10.495745849609374,6.474977970123291,-8.068597793579102,-3.510270833969116
1772881506413091000,10.513091064453125,6.317051887512207,-8.621339797973633,-2.8283164501190186
1772881506430436000,10.53043603515625,6.3361945152282715,-8.561519622802734,-2.6249263286590576
1772881506447781000,10.547781005859376,6.3361945152282715,-8.207381248474121,-2.4335005283355713
1772881506465126400,10.56512646484375,6.412764549255371,-7.29093074798584,-2.469393014907837
1772881506482471400,10.582471435546875,6.008377552032471,-6.479763507843018,-2.524427890777588
1772881506499816700,10.599816650390625,5.881557941436768,-6.778866767883301,-2.2540390491485596
1772881506517161700,10.61716162109375,5.66620397567749,-7.324429988861084,-1.8951154947280884
1772881506534506800,10.6345068359375,5.800201892852783,-7.618747234344482,-2.148754835128784
1772881506551852000,10.65185205078125,6.197410583496094,-7.470392227172852,-2.2612173557281494
1772881506569197000,10.669197021484376,5.972485542297363,-7.276573657989502,-2.0817556381225586
1772881506586542300,10.686542236328124,6.192625045776367,-7.594819068908691,-2.045863389968872
1772881506603887400,10.703887451171875,6.628118515014648,-8.12123966217041,-2.2468605041503906
1772881506621232400,10.721232421875,7.130611419677734,-8.434700012207031,-2.1990039348602295
1772881506638577700,10.73857763671875,7.401000499725342,-8.128418922424316,-2.0889341831207275
1772881506655922700,10.755922607421875,7.190432071685791,-7.664210796356201,-1.3878371715545654
1772881506673268000,10.77326806640625,6.616154670715332,-7.152146816253662,-0.6317051649093628
1772881506690613000,10.790613037109376,5.900700569152832,-6.786045074462891,-0.5886343717575073
1772881506707958300,10.807958251953124,5.544169902801514,-7.0755767822265625,-0.8685946464538574
1772881506725303300,10.82530322265625,6.187839508056641,-7.250252723693848,-0.9858429431915283
1772881506742648300,10.8426484375,6.343372821807861,-6.599404811859131,-0.7322037220001221
1772881506759993600,10.85999365234375,6.415157318115234,-6.027520179748535,-0.29431718587875366
1772881506777338600,10.877338623046874,6.065805435180664,-6.070590972900391,-0.07657032459974289
1772881506794684000,10.894683837890625,6.293123722076416,-6.876972198486328,-0.39960137009620667
1772881506812029000,10.91202880859375,6.599404811859131,-6.850651264190674,-0.4713860750198364
1772881506829374200,10.929374267578124,6.510870456695557,-6.544369697570801,-0.46420758962631226
1772881506846719200,10.94671923828125,6.317051887512207,-6.3361945152282715,-0.3206382393836975
1772881506864064300,10.964064208984375,6.252445697784424,-6.606583118438721,-0.23688943684101105
1772881506881409500,10.981409423828126,6.228517532348633,-6.946363925933838,-0.638883650302887
1772881506898754600,10.998754638671874,6.295516490936279,-7.109076023101807,-0.9690931439399719
1772881506916099800,11.016099853515625,6.527620315551758,-7.106683254241943,-1.0336993932724
1772881506933444900,11.03344482421875,6.477370738983154,-6.965506553649902,-1.0336993932724
1772881506950790000,11.050789794921876,6.4319071769714355,-6.975078105926514,-1.0265209674835205
1772881506968135200,11.06813525390625,6.479763507843018,-6.975078105926514,-1.0552347898483276
1772881506985480200,11.085480224609375,6.608976364135742,-6.881757736206055,-0.9954141974449158
1772881507002825500,11.102825439453126,6.561119556427002,-6.573083877563477,-0.8685946464538574
1772881507020170500,11.12017041015625,6.386443614959717,-6.510870456695557,-0.6843472719192505
1772881507037515800,11.137515869140625,6.104090690612793,-6.673582553863525,-0.5814558863639832
1772881507054860800,11.15486083984375,5.955735683441162,-6.647261142730713,-0.8374879360198975
1772881507072205800,11.172205810546876,5.9676995277404785,-6.573083877563477,-1.2179467678070068
1772881507089551000,11.189551025390625,6.022734642028809,-6.551548480987549,-1.4715858697891235
1772881507106896100,11.206896240234375,6.307480335235596,-6.905686378479004,-1.4476577043533325
1772881507124241400,11.224241455078126,6.714260101318359,-7.070790767669678,-1.466800332069397
1772881507141586400,11.24158642578125,6.941578388214111,-7.0995049476623535,-1.7730815410614014
1772881507158931700,11.258931640625,6.6831536293029785,-6.900900363922119,-1.9357935190200806
1772881507176276700,11.27627685546875,6.362515449523926,-7.008577346801758,-2.2157537937164307
1772881507193621800,11.293621826171876,6.147161483764648,-7.022934436798096,-2.062613010406494
1772881507210967000,11.310967041015624,6.144768714904785,-6.867401123046875,-2.012363910675049
1772881507228312000,11.32831201171875,6.128018856048584,-6.872186660766602,-2.038684844970703
1772881507245657300,11.3456572265625,6.223731517791748,-7.051648139953613,-2.335394859313965
1772881507263002400,11.36300244140625,6.5491557121276855,-7.482356548309326,-2.572284460067749
1772881507280347400,11.380347412109375,6.3840508460998535,-7.506284713745117,-2.4837498664855957
1772881507297692700,11.397692626953125,6.192625045776367,-7.410571575164795,-2.746960401535034
1772881507315037700,11.41503759765625,6.348158359527588,-7.506284713745117,-2.919243574142456
1772881507332383000,11.432383056640624,6.508477687835693,-7.585247993469238,-3.232703447341919
1772881507349728000,11.44972802734375,6.472585201263428,-7.4847493171691895,-3.3714871406555176
1772881507367073000,11.467072998046875,6.905686378479004,-7.893921852111816,-3.3954153060913086
1772881507384418300,11.484418212890626,7.0301127433776855,-7.88913631439209,-3.548556089401245
1772881507401763300,11.501763427734375,6.92482852935791,-7.984848976135254,-3.493520975112915
1772881507419108600,11.519108642578125,6.821937561035156,-7.817351341247559,-3.7902309894561768
1772881507436453600,11.53645361328125,6.599404811859131,-7.872386455535889,-3.9696927070617676
1772881507453799000,11.553798828125,6.259624004364014,-7.585247993469238,-3.900300979614258
1772881507471144000,11.57114404296875,5.874379634857178,-7.16650390625,-3.476771354675293
1772881507488489000,11.588489013671875,6.003592014312744,-7.013363361358643,-3.019742250442505
1772881507505834200,11.605834228515626,6.151947021484375,-7.0683979988098145,-2.964707374572754
1772881507523179300,11.62317919921875,6.104090690612793,-7.0301127433776855,-3.397808074951172
1772881507540524500,11.640524658203125,6.285944938659668,-6.8865437507629395,-3.8811583518981934
1772881507557869600,11.65786962890625,6.570691108703613,-6.948757171630859,-4.213760852813721
1772881507575214600,11.675214599609374,6.522834300994873,-7.202396392822266,-4.266402721405029
1772881507592559900,11.692559814453125,6.534798622131348,-7.207181930541992,-3.6681971549987793
1772881507609905000,11.70990478515625,6.510870456695557,-6.872186660766602,-3.208775281906128
1772881507627250000,11.72725,6.606583118438721,-6.434299945831299,-3.242274761199951
1772881507644595200,11.74459521484375,6.130411624908447,-6.400800704956055,-3.4983067512512207
1772881507661940200,11.761940185546875,5.749952793121338,-6.788437843322754,-3.9074792861938477
1772881507679285500,11.779285400390625,5.606383323669434,-7.16650390625,-3.9361932277679443
1772881507696630500,11.796630615234376,5.67338228225708,-7.125825881958008,-3.7663028240203857
1772881507713975600,11.8139755859375,5.881557941436768,-6.764509677886963,-3.500699520111084
1772881507731320800,11.83132080078125,5.773880958557129,-6.486942291259766,-3.376272678375244
1772881507748665900,11.848665771484375,5.4628143310546875,-6.369693756103516,-3.5150563716888428
1772881507766011100,11.86601123046875,5.491528034210205,-6.4079790115356445,-3.6323046684265137
1772881507783356200,11.883356201171875,5.670989513397217,-6.446264266967773,-3.649054527282715
1772881507800701200,11.900701171875,5.788238048553467,-6.5491557121276855,-3.5772697925567627
1772881507818046500,11.91804638671875,5.91505765914917,-6.8004021644592285,-3.603590965270996
1772881507835391500,11.9353916015625,6.214160442352295,-7.159325122833252,-3.8261234760284424
1772881507852736800,11.95273681640625,6.577869415283203,-7.539783954620361,-4.0079779624938965
1772881507870081800,11.970081787109375,6.692724704742432,-7.678567886352539,-4.01754903793335
1772881507887426800,11.9874267578125,6.362515449523926,-7.568498134613037,-3.728017568588257
1772881507904772000,12.004772216796875,5.869594097137451,-7.384250640869141,-3.517449378967285
1772881507922117000,12.0221171875,5.769095420837402,-7.262216567993164,-3.6059837341308594
1772881507939462400,12.03946240234375,6.075376510620117,-7.357929706573486,-3.7160534858703613
1772881507956807400,12.056807373046874,6.649653911590576,-7.558926582336426,-3.94815731048584
1772881507974152400,12.07415234375,6.843472957611084,-7.4847493171691895,-3.9385859966278076
1772881507991497700,12.091497802734375,6.5874409675598145,-7.149754047393799,-3.6945180892944336
1772881508008842800,12.1088427734375,6.293123722076416,-6.970292568206787,-3.352344512939453
1772881508026188000,12.12618798828125,5.989234924316406,-6.960721015930176,-3.2590243816375732
1772881508043533000,12.143532958984375,5.924628734588623,-7.046862602233887,-3.2446675300598145
1772881508060878300,12.16087841796875,6.0610198974609375,-7.178467750549316,-3.0652058124542236
1772881508078223400,12.178223388671874,6.932007312774658,-7.601997375488281,-3.0723843574523926
1772881508095568400,12.195568359375,7.623532772064209,-7.934599876403809,-3.0317063331604004
1772881508112913700,12.21291357421875,7.982456207275391,-8.286344528198242,-2.957528829574585
1772881508130258700,12.2302587890625,7.786244869232178,-8.286344528198242,-2.8450660705566406
1772881508147604000,12.24760400390625,7.22871732711792,-8.023134231567383,-2.933600664138794
1772881508164949000,12.264948974609375,6.948757171630859,-7.582854747772217,-2.926422119140625
1772881508182294000,12.2822939453125,6.56829833984375,-7.125825881958008,-2.7589244842529297
1772881508199639300,12.299639404296874,6.302694797515869,-6.7932233810424805,-2.062613010406494
1772881508216984300,12.316984375,6.008377552032471,-6.348158359527588,-1.2969099283218384
1772881508234329300,12.334329345703125,6.32662296295166,-6.556334018707275,-1.1365907192230225
1772881508251674600,12.351674560546876,6.092126369476318,-6.63769006729126,-1.3615161180496216
1772881508269019600,12.36901953125,5.958128452301025,-6.343372821807861,-1.2658032178878784
1772881508286365000,12.386364990234375,6.1710896492004395,-5.938985824584961,-1.1509476900100708
1772881508303710000,12.4037099609375,6.367300987243652,-5.883950710296631,-1.0767701864242554
1772881508321055000,12.421054931640626,6.618547439575195,-6.467799663543701,-0.7992027401924133
1772881508338400300,12.438400146484375,6.5491557121276855,-6.908079147338867,-0.6915257573127747
1772881508355745300,12.455745361328125,6.829115867614746,-7.192824840545654,-0.6101697683334351
1772881508373090600,12.473090576171876,7.020541667938232,-7.188039302825928,-0.4450650215148926
1772881508390435600,12.490435546875,7.204789161682129,-6.932007312774658,-0.20338992774486542
1772881508407780600,12.507780517578125,6.922435760498047,-6.790830612182617,0.08614161610603333
1772881508425126000,12.5251259765625,6.922435760498047,-6.8482584953308105,0.07417750358581543
1772881508442471000,12.542470947265626,6.6831536293029785,-6.625725746154785,0.10289137065410614
1772881508459816200,12.559816162109374,6.546762943267822,-6.436692714691162,0.17946170270442963
1772881508477161200,12.5771611328125,6.2668023109436035,-6.329015731811523,-0.0023928226437419653
1772881508494506200,12.59450634765625,6.137589931488037,-6.099305152893066,-0.21774685382843018
1772881508511851500,12.6118515625,6.192625045776367,-6.010770320892334,-0.48813581466674805
1772881508529196500,12.629196533203125,6.297909259796143,-6.003592014312744,-0.5096712112426758
1772881508546541800,12.646541748046875,6.393621921539307,-6.065805435180664,-0.4139583110809326
1772881508563886800,12.663886962890626,6.532405853271484,-6.254838466644287,-0.4570291340351105
1772881508581231900,12.68123193359375,6.843472957611084,-6.45822811126709,-0.29431718587875366
1772881508598577200,12.6985771484375,7.1162543296813965,-6.690331935882568,-0.09092725813388824
1772881508615922200,12.715922119140625,7.176074981689453,-6.97268533706665,0.10289137065410614
1772881508633267500,12.733267333984376,7.348358154296875,-7.357929706573486,0.2392822653055191
1772881508650612500,12.750612548828125,7.582854747772217,-7.494320392608643,0.11724831163883209
1772881508667957500,12.76795751953125,7.76470947265625,-7.35314416885376,-0.09810572862625122
1772881508685302800,12.785302734375,7.848458290100098,-7.267002582550049,-0.17946170270442963
1772881508702647800,12.802647705078124,7.812565803527832,-7.09711217880249,-0.2392822653055191
1772881508719993000,12.8199931640625,7.625925540924072,-6.879364967346191,-0.17946170270442963
1772881508737338000,12.837338134765625,7.441678524017334,-6.865008354187012,-0.15553347766399384
1772881508754683100,12.85468310546875,7.479963779449463,-7.032505512237549,-0.3206382393836975
1772881508772028400,12.8720283203125,7.558926582336426,-7.013363361358643,-0.3852444589138031
1772881508789373400,12.88937353515625,7.5326056480407715,-6.920042991638184,-0.26081767678260803
1772881508806718700,12.90671875,7.396214962005615,-6.664011001586914,-0.06939185410737991
1772881508824063700,12.924063720703124,7.04207706451416,-6.508477687835693,0.05503492057323456
1772881508841408800,12.94140869140625,6.757331371307373,-6.393621921539307,0
1772881508858754000,12.958754150390625,6.774080753326416,-6.64486837387085,-0.11006984114646912
1772881508876099000,12.97609912109375,7.037291526794434,-6.723831653594971,-0.11006984114646912
1772881508893444400,12.9934443359375,7.2335028648376465,-6.711867332458496,-0.1339980661869049
1772881508910789400,13.010789306640625,7.195217609405518,-6.903293132781982,-0.24406790733337402
1772881508928134400,13.028134521484375,7.171289443969727,-7.135396957397461,-0.2871387302875519
1772881508945479700,13.045479736328126,7.286144733428955,-7.312466144561768,-0.22492532432079315
1772881508962824700,13.06282470703125,7.3746795654296875,-7.223931789398193,-0.11006984114646912
1772881508980170000,13.080169921875,7.386643409729004,-7.044469833374023,-0.07417750358581543
1772881508997515000,13.097514892578126,7.207181930541992,-6.951149940490723,0.004785645287483931
1772881509014860000,13.114860107421874,7.0301127433776855,-6.98704195022583,-0.04307080805301666
1772881509032205300,13.132205322265625,7.128218650817871,-7.008577346801758,-0.019142581149935722
1772881509049550300,13.14955029296875,7.334001541137695,-6.955935478210449,0.0526420995593071
1772881509066895400,13.166895263671876,7.348358154296875,-6.943971157073975,0.04546362906694412
1772881509084240600,13.18424072265625,7.362715244293213,-6.98704195022583,-0.062213387340307236
1772881509101585700,13.201585693359375,7.312466144561768,-7.070790767669678,-0.2273181527853012
1772881509118931000,13.218930908203125,7.3292155265808105,-7.089933395385742,-0.24646073579788208
1772881509136276000,13.23627587890625,7.314858913421631,-6.91765022277832,-0.20578274130821228
1772881509153621000,13.25362109375,7.271788120269775,-6.920042991638184,-0.17706887423992157
1772881509170966300,13.27096630859375,7.259823799133301,-7.125825881958008,-0.17228323221206665
1772881509188311300,13.288311279296876,7.36032247543335,-7.113861560821533,-0.17228323221206665
1772881509205656600,13.305656494140624,7.36032247543335,-6.759724140167236,-0.10289137065410614
1772881509223001600,13.323001708984375,7.094718933105469,-6.697510719299316,-0.04785645380616188
1772881509240347000,13.340346923828125,6.829115867614746,-6.805187702178955,-0.1746760457754135
1772881509257692000,13.35769189453125,6.838686943054199,-6.881757736206055,-0.2871387302875519
1772881509275037000,13.375036865234375,7.04207706451416,-6.809973239898682,-0.2512463629245758
1772881509292382200,13.39238232421875,7.231110095977783,-6.666403770446777,-0.019142581149935722
1772881509309727200,13.409727294921876,7.300501823425293,-6.592226505279541,0.2967100143432617
1772881509327072300,13.427072265625,7.221538543701172,-6.551548480987549,0.6652047038078308
1772881509344417500,13.44441748046875,7.066005229949951,-6.721438884735107,0.7417750358581543
1772881509361762600,13.461762451171875,7.137789726257324,-6.948757171630859,0.3852444589138031
1772881509379107800,13.47910791015625,7.448856830596924,-6.9344000816345215,0.0933200865983963
1772881509396452900,13.496452880859374,7.683353424072266,-6.714260101318359,0.08374879509210587
1772881509413798000,13.5137978515625,7.64028263092041,-6.632904529571533,0.17228323221206665
1772881509431143200,13.53114306640625,7.472784996032715,-6.690331935882568,0.24167509377002716
1772881509448488200,13.54848828125,7.35314416885376,-6.735795974731445,0.27038896083831787
1772881509465833200,13.565833251953125,7.379465103149414,-6.69990348815918,0.2919243574142456
1772881509483178500,13.583178466796875,7.393822193145752,-6.6113691329956055,0.3756731450557709
1772881509500523500,13.6005234375,7.369893550872803,-6.680760860443115,0.2919243574142456
1772881509517868800,13.617868896484374,7.348358154296875,-6.721438884735107,0.17706887423992157
1772881509535213800,13.6352138671875,7.4225358963012695,-6.728617191314697,0.2225325107574463
1772881509552558800,13.652558837890625,7.331608772277832,-6.754938125610352,0.11724831163883209
1772881509569904000,13.669904052734376,7.269395351409912,-6.702296257019043,-0.01196411345154047
1772881509587249200,13.687249267578125,7.226324558258057,-6.620940208435059,0.16749759018421173
1772881509604594400,13.704594482421875,7.188039302825928,-6.675975322723389,0.3278166949748993
1772881509621939500,13.721939453125,7.245467185974121,-6.814758777618408,0.4139583110809326
1772881509639284500,13.739284423828124,7.5086774826049805,-6.874579429626465,0.5216353535652161
1772881509656629800,13.756629638671875,7.767102241516113,-6.795616149902344,0.6149554252624512
1772881509673974800,13.773974853515625,7.893921852111816,-6.608976364135742,0.7848458290100098
1772881509691320000,13.791320068359376,7.800601959228516,-6.455835342407227,1.074377417564392
1772881509708665000,13.8086650390625,7.592426300048828,-6.415157318115234,1.2203395366668701
1772881509726010000,13.826010009765625,7.477570533752441,-6.482156753540039,1.0959128141403198
1772881509743355400,13.84335546875,7.472784996032715,-6.594619274139404,0.7489534616470337
1772881509760700400,13.860700439453124,7.6474609375,-6.6352972984313965,0.4905286431312561
1772881509778045400,13.87804541015625,7.76470947265625,-6.7692952156066895,0.38285163044929504
1772881509795390700,13.895390625,7.89631462097168,-6.628118515014648,0.5479564070701599
1772881509812735700,13.91273583984375,7.676175117492676,-6.39601469039917,0.6939185857772827
1772881509830080800,13.930080810546874,7.530212879180908,-6.52044153213501,0.6771687865257263
1772881509847426000,13.947426025390625,7.403393268585205,-6.695117950439453,0.6532405614852905
1772881509864771000,13.96477099609375,7.523034572601318,-6.599404811859131,0.47617170214653015
1772881509882116400,13.982116455078126,7.731209754943848,-6.654439926147461,0.35413774847984314
1772881509899461400,13.99946142578125,7.81974458694458,-6.63051176071167,0.576670229434967
1772881509916806400,14.016806396484375,7.700103282928467,-6.7070817947387695,0.7202396392822266
1772881509934151700,14.034151611328125,7.597211837768555,-6.833901405334473,0.6197410821914673
1772881509951496700,14.05149658203125,7.544569969177246,-6.7692952156066895,0.5216353535652161
1772881509968842000,14.068842041015625,7.4464640617370605,-6.56829833984375,0.380458801984787
1772881509986187000,14.08618701171875,7.4464640617370605,-6.278766632080078,0.40677985548973083
1772881510003532000,14.103531982421876,7.472784996032715,-6.187839508056641,0.6484549641609192
1772881510020877300,14.120877197265624,7.396214962005615,-6.206982135772705,0.8279166221618652
1772881510038222300,14.138222412109375,7.264609336853027,-6.2500529289245605,0.8207381963729858
1772881510055567600,14.155567626953125,7.106683254241943,-6.439085960388184,0.5886343717575073
1772881510072912600,14.17291259765625,6.97986364364624,-6.448657035827637,0.3206382393836975
1772881510090257700,14.190257568359375,6.798008918762207,-6.2668023109436035,0.064606212079525
1772881510107603000,14.20760302734375,6.853044033050537,-5.5106706619262695,0.08135596662759781
1772881510124948000,14.224947998046876,6.996613502502441,-5.7164530754089355,0.5359922647476196
1772881510142293000,14.24229296875,7.539783954620361,-6.3529438972473145,0.885344386100769
1772881510159638300,14.25963818359375,8.638090133666992,-7.063612461090088,1.4404792785644531
1772881510176983300,14.2769833984375,9.937392234802246,-7.8795647621154785,2.1367905139923096
1772881510194328300,14.294328369140626,10.52363395690918,-8.429914474487305,2.1774685382843018
1772881510211673600,14.311673583984375,10.435099601745605,-8.614161491394043,1.923829436302185
1772881510229018600,14.3290185546875,10.102497100830078,-7.843672752380371,2.0315065383911133
1772881510246364000,14.346364013671876,8.97787094116211,-6.869793891906738,1.7802600860595703
1772881510263709000,14.363708984375,7.843672752380371,-6.1710896492004395,1.1748759746551514
1772881510281054000,14.381053955078125,6.865008354187012,-5.680561065673828,0.5144568681716919
1772881510298399200,14.398399169921875,6.113661766052246,-5.3216376304626465,-0.15553347766399384
1772881510315744300,14.415744140625,5.520241737365723,-4.993820667266846,-0.3732803463935852
1772881510333089500,14.433089599609374,5.19242525100708,-4.371686935424805,0.038285162299871445
1772881510350434600,14.4504345703125,5.230710506439209,-4.232903480529785,0.6460621356964111
1772881510367779600,14.467779541015625,5.357530117034912,-4.697110652923584,0.9427721500396729
1772881510385124900,14.485124755859376,5.723631858825684,-5.19242525100708,1.0217353105545044
1772881510402470000,14.502469970703125,6.144768714904785,-5.682953834533691,1.1724830865859985
1772881510419815000,14.51981494140625,6.56829833984375,-5.821737289428711,1.3256237506866455
1772881510437160200,14.53716015625,6.812366008758545,-7.29093074798584,0.27756741642951965
1772881510454505200,14.554505126953124,8.82233715057373,-9.446864128112793,-0.8327022790908813
1772881510471850200,14.571850341796875,12.610175132751465,-10.164710998535156,-0.3086741268634796
1772881510489195500,14.589195556640625,14.182259559631348,-7.724031448364258,1.2969099283218384
1772881510506540500,14.60654052734375,11.217552185058594,-7.4847493171691895,1.5002998113632202
1772881510523885800,14.6238857421875,8.293522834777832,-9.475577354431152,0.5048855543136597
1772881510541230800,14.64123095703125,8.475378036499023,-10.15753173828125,-0.16510476171970367
1772881510558575900,14.658575927734375,10.15753173828125,-8.496912956237793,0.6436693072319031
1772881510575921200,14.675921142578124,9.226723670959473,-6.1950178146362305,1.6510475873947144
1772881510593266200,14.69326611328125,7.269395351409912,-4.54636287689209,2.1583259105682373
1772881510610611200,14.710611083984375,5.735595703125,-4.256831645965576,2.1990039348602295
1772881510627956500,14.72795654296875,5.044070243835449,-5.044070243835449,1.5409778356552124
1772881510645301500,14.745301513671874,4.8502516746521,-5.101497650146484,1.1724830865859985
1772881510662646800,14.762646728515625,5.048855781555176,-4.553541660308838,1.0289137363433838
1772881510679991800,14.77999169921875,5.089533805847168,-4.409972190856934,0.5814558863639832
1772881510697336800,14.7973369140625,5.5728840827941895,-5.2115678787231445,-0.26081767678260803
1772881510714682000,14.81468212890625,6.594619274139404,-5.632704734802246,-0.5216353535652161
1772881510732027100,14.832027099609375,7.8795647621154785,-6.123233318328857,-0.0526420995593071
1772881510749372200,14.8493720703125,8.657232284545898,-7.628318786621094,0.16510476171970367
1772881510766717400,14.866717529296874,9.17886734008789,-9.140582084655762,-0.8087740540504456
1772881510784062500,14.8840625,9.767501831054688,-9.999606132507324,-2.062613010406494
1772881510801407500,14.901407470703125,10.17428207397461,-9.410971641540527,-1.5792629718780518
1772881510818752800,14.918752685546876,10.293923377990723,-7.779066562652588,-0.32303106784820557
1772881510836097800,14.936097900390624,9.198010444641113,-6.92482852935791,0.638883650302887
1772881510853443000,14.953443115234375,7.503891944885254,-7.032505512237549,0.7393822073936462
1772881510870788000,14.9707880859375,6.642475605010986,-6.996613502502441,0.6867401003837585
1772881510888133000,14.988133056640624,6.099305152893066,-6.63051176071167,0.9690931439399719
1772881510905478400,15.005478515625,5.414957523345947,-6.324230194091797,0.9547362327575684
1772881510922823400,15.022823486328125,5.0703911781311035,-5.838487148284912,0.6173482537269592
1772881510940168400,15.04016845703125,4.979464054107666,-5.680561065673828,0.004785645287483931
1772881510957513700,15.057513671875,5.383851051330566,-6.2668023109436035,-1.0600204467773438
1772881510974858800,15.074858642578125,6.238088607788086,-6.405586242675781,-1.4213366508483887
1772881510992203800,15.092203857421875,7.343572616577148,-5.955735683441162,-0.6963114142417908
1772881511009549000,15.109549072265626,7.968099594116211,-6.0538411140441895,0.007178467698395252
1772881511026894000,15.12689404296875,7.944170951843262,-6.482156753540039,0.5599204897880554
1772881511044239000,15.144239013671875,8.10688304901123,-6.900900363922119,0.8901300430297852
1772881511061584400,15.16158447265625,8.209774017333984,-6.939185619354248,0.973878800868988
1772881511078929400,15.178929443359374,8.207381248474121,-7.475177764892578,0.5144568681716919
1772881511096274700,15.196274658203125,8.434700012207031,-7.776673793792725,-0.0526420995593071
1772881511113619700,15.21361962890625,8.422736167907715,-7.5326056480407715,-0.08374879509210587
1772881511130964700,15.23096484375,7.850851058959961,-6.6113691329956055,0.2919243574142456
1772881511148310000,15.24831005859375,6.838686943054199,-5.974878311157227,0.5479564070701599
1772881511165655000,15.265655029296875,6.281159400939941,-5.589633464813232,0.8422735929489136
1772881511183000000,15.283,6.38883638381958,-5.685346603393555,0.8374879360198975
1772881511200345300,15.300345458984374,6.908079147338867,-6.31944465637207,0.6436693072319031
1772881511217690400,15.3176904296875,7.9968132972717285,-6.474977970123291,0.8015955686569214
1772881511235035400,15.335035400390625,8.69791030883789,-6.25723123550415,1.1318050622940063
1772881511252380700,15.352380615234376,8.286344528198242,-6.192625045776367,1.246660590171814
1772881511269725700,15.3697255859375,7.628318786621094,-6.372086524963379,1.0767701864242554
1772881511287070700,15.38707080078125,7.312466144561768,-6.001199245452881,1.1365907192230225
1772881511304416000,15.404416015625,6.999006271362305,-5.61116886138916,1.2610175609588623
1772881511321761000,15.421760986328126,6.757331371307373,-5.757131099700928,0.9786644577980042
1772881511339106300,15.439106201171874,6.927221775054932,-6.118447303771973,0.6771687865257263
1772881511356451300,15.456451416015625,7.4464640617370605,-6.123233318328857,0.4570291340351105
1772881511373796400,15.47379638671875,7.448856830596924,-5.8337016105651855,0.8709874153137207
1772881511391141600,15.4911416015625,7.118647575378418,-6.178267955780029,0.8207381963729858
1772881511408486700,15.508486572265625,7.274180889129639,-6.687939167022705,0.4713860750198364
1772881511425831700,15.525831787109375,7.800601959228516,-6.9822564125061035,0.16749759018421173
1772881511443177000,15.543177001953126,8.372486114501953,-7.204789161682129,-0.038285162299871445
1772881511460522000,15.56052197265625,8.719446182250977,-7.125825881958008,-0.18903298676013947
1772881511477867000,15.577866943359375,8.937192916870117,-7.106683254241943,0.040677983313798904
1772881511495212300,15.59521240234375,8.425128936767578,-7.003791809082031,0.31106695532798767
1772881511512557300,15.612557373046876,7.427321434020996,-7.013363361358643,0.2153540402650833
1772881511529902300,15.62990234375,6.829115867614746,-7.11146879196167,-0.064606212079525
1772881511547247600,15.64724755859375,6.8004021644592285,-6.8243303298950195,-0.5168496966362
1772881511564592600,15.664592529296876,6.666403770446777,-6.297909259796143,-0.3445664644241333
1772881511581937700,15.681937744140624,6.221338748931885,-5.850451469421387,-0.2967100143432617
1772881511599283000,15.699282958984375,6.245266914367676,-5.702096462249756,0.1052841991186142
1772881511616628000,15.7166279296875,6.843472957611084,-6.3361945152282715,0.8279166221618652
1772881511633973200,15.73397314453125,7.848458290100098,-6.766902446746826,1.4572290182113647
1772881511651318300,15.751318359375,8.001599311828613,-6.999006271362305,1.0552347898483276
1772881511668663300,15.768663330078125,7.70967435836792,-6.608976364135742,0.2679961323738098
1772881511686008600,15.786008544921875,7.733603000640869,-6.379265308380127,0.2560320198535919
1772881511703353600,15.803353515625,7.022934436798096,-5.962913990020752,0.4618147611618042
1772881511720698600,15.82069873046875,5.934200286865234,-5.747560024261475,0.4450650215148926
1772881511738044000,15.8380439453125,5.201996326446533,-6.465406894683838,-0.4498506486415863
1772881511755389000,15.855388916015626,5.467599868774414,-6.733402729034424,-1.6965112686157227
1772881511772734000,15.87273388671875,6.324230194091797,-6.4319071769714355,-1.4572290182113647
1772881511790079200,15.890079345703125,7.5086774826049805,-6.125626087188721,-0.062213387340307236
1772881511807424300,15.90742431640625,8.025527000427246,-5.891129493713379,0.10289137065410614
1772881511824769300,15.924769287109376,7.707281589508057,-5.989234924316406,-0.48574298620224
1772881511842114600,15.942114501953125,7.477570533752441,-6.616154670715332,-0.7776673436164856
1772881511859459600,15.95945947265625,7.7838521003723145,-7.1234331130981445,-0.6317051649093628
1772881511876804600,15.9768046875,7.82692289352417,-7.137789726257324,-0.5647061467170715
1772881511894150000,15.99414990234375,7.357929706573486,-6.876972198486328,-0.6867401003837585
1772881511911495000,16.011494873046875,6.515655994415283,-6.405586242675781,-1.1820544004440308
1772881511928840000,16.02883984375,5.714060306549072,-5.740381717681885,-1.7874385118484497
1772881511946185200,16.046185302734376,5.2043890953063965,-5.1565327644348145,-1.9980069398880005
1772881511963530200,16.0635302734375,5.161318302154541,-4.831109046936035,-1.6965112686157227
1772881511980875300,16.080875244140625,6.041877269744873,-6.063412666320801,-0.8279166221618652
1772881511998220500,16.098220458984375,7.841279983520508,-7.795815944671631,-0.5862415432929993
1772881512015565600,16.115565673828126,10.13599681854248,-8.250452041625977,-1.1772687435150146
1772881512032910800,16.132910888671876,11.069197654724121,-8.592626571655273,-2.0267207622528076
1772881512050256000,16.150255859375,10.289137840270996,-8.738588333129883,-2.713460922241211
1772881512067601000,16.167600830078126,9.571290969848633,-8.042277336120605,-2.730210542678833
1772881512084946000,16.18494580078125,7.688138961791992,-7.219145774841309,-2.1032910346984863
1772881512102291200,16.202291259765627,6.252445697784424,-6.625725746154785,-1.4620146751403809
1772881512119636200,16.21963623046875,5.931807518005371,-6.309873104095459,-1.4404792785644531
1772881512136981200,16.236981201171876,6.156732559204102,-6.228517532348633,-1.9764715433120728
1772881512154326500,16.254326416015626,6.809973239898682,-6.276373863220215,-2.4813570976257324
1772881512171671600,16.271671630859377,6.56829833984375,-6.465406894683838,-2.2301106452941895
1772881512189016600,16.2890166015625,6.501298904418945,-6.367300987243652,-2.146361827850342
1772881512206361900,16.30636181640625,6.953542709350586,-6.44387149810791,-2.60339093208313
1772881512223707000,16.323706787109376,7.89631462097168,-7.058826923370361,-3.1824541091918945
1772881512241052000,16.341052001953123,8.937192916870117,-8.02791976928711,-3.548556089401245
1772881512258397200,16.358397216796874,8.585447311401367,-8.15234661102295,-3.7974095344543457
1772881512275742200,16.3757421875,6.929614543914795,-8.042277336120605,-3.1920254230499268
1772881512293087200,16.393087158203127,6.355337142944336,-7.9728851318359375,-3.9457645416259766
1772881512310432500,16.4104326171875,7.566105365753174,-8.260024070739746,-4.878965377807617
1772881512327777500,16.427777587890624,8.913264274597168,-8.688339233398438,-4.47697114944458
1772881512345122600,16.44512255859375,8.731410026550293,-8.135597229003906,-3.328416347503662
1772881512362467800,16.4624677734375,7.846065521240234,-7.386643409729004,-3.610769271850586
1772881512379812900,16.479812744140624,7.542177200317383,-6.9822564125061035,-4.4482574462890625
1772881512397158000,16.497157958984374,7.704888820648193,-7.286144733428955,-4.613361835479736
1772881512414503200,16.514503173828125,7.094718933105469,-7.75753116607666,-3.9936211109161377
1772881512431848200,16.53184814453125,6.649653911590576,-7.3986077308654785,-3.352344512939453
1772881512449193200,16.549193115234374,6.577869415283203,-5.855237007141113,-2.950350284576416
1772881512466538500,16.56653857421875,6.209374904632568,-4.718646049499512,-2.8522446155548096
1772881512483883500,16.583883544921875,5.828916072845459,-4.649254322052002,-3.005385160446167
1772881512501228500,16.601228515625,5.642275810241699,-5.44845724105835,-2.6943182945251465
1772881512518573800,16.61857373046875,5.637490272521973,-6.412764549255371,-2.6225335597991943
1772881512535918800,16.6359189453125,5.879165172576904,-6.963113784790039,-3.1489546298980713
1772881512553263900,16.653263916015625,6.367300987243652,-7.054041385650635,-3.3332018852233887
1772881512570609200,16.670609130859376,7.142575740814209,-7.317251682281494,-3.0388846397399902
1772881512587954200,16.6879541015625,7.013363361358643,-7.274180889129639,-3.3403804302215576
1772881512605299200,16.70529931640625,7.17368221282959,-7.176074981689453,-3.5198421478271484
1772881512622644500,16.72264453125,7.331608772277832,-7.044469833374023,-3.431307554244995
1772881512639989500,16.739989501953126,7.601997375488281,-7.04925537109375,-3.9361932277679443
1772881512657334500,16.75733447265625,7.369893550872803,-7.989634990692139,-4.005585193634033
1772881512674679600,16.774679443359375,6.376872539520264,-8.441878318786621,-4.024727821350098
1772881512692024800,16.79202490234375,4.816751956939697,-6.922435760498047,-3.2446675300598145
1772881512709369900,16.809369873046876,5.819344520568848,-4.4482574462890625,-3.067598581314087
1772881512726715000,16.82671484375,8.085348129272461,-6.412764549255371,-2.8283164501190186
1772881512752732700,16.852732666015626,13.24427318572998,-10.695917129516602,-1.428515076637268
1772881512770077700,16.87007763671875,14.019547462463379,-8.970691680908203,-1.1174482107162476
1772881512787423000,16.887423095703124,11.243873596191406,-8.185846328735352,-2.376072883605957
1772881512804768000,16.90476806640625,9.205188751220703,-9.28893756866455,-3.290131092071533
1772881512822113000,16.922113037109376,8.066205024719238,-9.93978500366211,-2.50289249420166
1772881512839458000,16.9394580078125,6.8865437507629395,-9.836894035339355,-1.038485050201416
1772881512856803300,16.95680322265625,6.553941249847412,-8.707481384277344,-1.1629117727279663
1772881512874148400,16.9741484375,7.4847493171691895,-7.341179847717285,-2.093719720840454
1772881512891493400,16.991493408203127,7.927421569824219,-6.03948450088501,-2.1511476039886475
1772881512908838700,17.008838623046874,7.417750358581543,-5.776273727416992,-1.0169496536254883
1772881512926183700,17.02618359375,6.829115867614746,-6.130411624908447,0.038285162299871445
1772881512943528700,17.04352880859375,6.628118515014648,-7.149754047393799,0.05503492057323456
1772881512960874000,17.0608740234375,7.219145774841309,-7.6498541831970215,-0.7393822073936462
1772881512978219000,17.078218994140624,7.635497093200684,-6.860222339630127,-0.5886343717575073
1772881512995564000,17.09556396484375,7.9657063484191895,-4.108476638793945,0.8997012972831726
1772881513012909300,17.112909423828125,3.5605201721191406,-3.4193434715270996,1.5385849475860596
1772881513030254300,17.13025439453125,-1.4739787578582764,-9.272188186645508,-2.6943182945251465
1772881513047599400,17.147599365234374,2.5674986839294434,-16.64208221435547,-7.190432071685791
1772881513064944600,17.164944580078124,25.10549545288086,-16.65643882751465,-5.151747226715088
1772881513082289700,17.18228955078125,19.637895584106445,-2.541177749633789,5.8959150314331055
1772881513099634700,17.199634765625,3.981656789779663,-2.801995277404785,4.5822553634643555
1772881513116979700,17.216979736328124,4.053441524505615,-8.090133666992188,-1.7060825824737549
1772881513134325000,17.234324951171875,5.5106706619262695,-8.85344409942627,-1.2729816436767578
1772881513151670000,17.251669921875,5.441278457641602,-6.640082836151123,0.24885354936122894
1772881513169015300,17.269015380859376,4.0079779624938965,-4.960321426391602,0.7537391185760498
1772881513186360300,17.2863603515625,4.0797624588012695,-3.85483717918396,0.11964113265275955
1772881513203705300,17.303705322265625,4.46979284286499,-4.429114818572998,-0.9954141974449158
1772881513221050600,17.321050537109375,4.161118507385254,-6.400800704956055,-1.612762451171875
1772881513238395600,17.338395751953126,4.323830604553223,-6.850651264190674,-1.7371892929077148
1772881513255740700,17.35574072265625,4.878965377807617,-7.178467750549316,-1.672582983970642
1772881513273086000,17.3730859375,5.864808082580566,-7.403393268585205,-1.6342978477478027
1772881513290431000,17.390430908203125,6.963113784790039,-6.814758777618408,-1.2658032178878784
1772881513307776000,17.40777587890625,7.917850017547607,-6.580262184143066,-0.5120640397071838
1772881513325121000,17.42512109375,8.726624488830566,-6.721438884735107,-0.5335994362831116
1772881513342466300,17.44246630859375,8.274380683898926,-7.544569969177246,-0.9667003750801086
1772881513359811300,17.459811279296876,7.424928665161133,-8.176275253295898,-1.698904037475586
1772881513377156400,17.47715625,6.960721015930176,-8.200202941894531,-1.9956140518188477
1772881513394501600,17.494501708984377,6.6831536293029785,-8.193024635314941,-2.5052852630615234
1772881513411846700,17.5118466796875,5.680561065673828,-7.676175117492676,-1.6917256116867065
1772881513429191700,17.529191650390626,8.609375953674316,-9.415757179260254,1.1030912399291992
1772881513446537000,17.546536865234376,5.056034088134766,-9.121439933776855,-3.5676984786987305
1772881513463882000,17.563882080078123,3.376272678375244,-7.8556365966796875,-6.625725746154785
1772881513481227000,17.58122705078125,3.4552359580993652,-7.877171993255615,-6.6113691329956055
1772881513498572300,17.598572265625,4.488935470581055,-8.358129501342773,-4.347758769989014
1772881513515917300,17.615917236328126,5.776273727416992,-8.726624488830566,-2.7421748638153076
1772881513533262300,17.633262451171873,5.929414749145508,-7.6977105140686035,-4.01037073135376
1772881513550607600,17.650607666015624,6.953542709350586,-7.779066562652588,-4.855037212371826
1772881513567952600,17.66795263671875,5.264209747314453,-6.893722057342529,-5.103890895843506
1772881513585297700,17.685297607421877,2.5459632873535156,-4.984249591827393,-6.051448345184326
1772881513602642700,17.702642578125,0.18903298676013947,-4.78803825378418,-5.424529075622559
1772881513619988000,17.719988037109374,3.8979079723358154,-9.221938133239746,-2.6177480220794678
1772881513637333000,17.7373330078125,4.5391845703125,-6.515655994415283,-5.340780258178711
1772881513654678000,17.754677978515623,2.062613010406494,-0.5240281820297241,-3.4432718753814697
1772881513672023300,17.772023193359374,1.1988041400909424,2.8594231605529785,-3.864408493041992
1772881513689368300,17.789368408203124,5.893522262573242,-7.1856465339660645,-6.032305717468262
1772881513706713300,17.80671337890625,7.872386455535889,-17.67578125,-6.754938125610352
1772881513724058600,17.82405859375,5.793023586273193,-14.041083335876465,-2.2157537937164307
1772881513741403600,17.841403564453124,6.532405853271484,-9.868000984191895,-3.2685956954956055
1772881513758748700,17.858748779296874,4.541577339172363,-10.013962745666504,-6.4941205978393555
1772881513776094000,17.876093994140625,4.244867324829102,-9.738788604736328,-8.190631866455078
1772881513793439000,17.89343896484375,5.910272121429443,-9.588040351867676,-5.814558982849121
1772881513810784000,17.910783935546874,6.814758777618408,-9.523433685302734,-4.053441524505615
1772881513828129300,17.92812939453125,6.135197162628174,-9.860821723937988,-3.8285162448883057
1772881513845474300,17.945474365234375,5.154139995574951,-9.336793899536133,-4.488935470581055
1772881513862819300,17.9628193359375,3.8285162448883057,-8.257631301879883,-5.19960355758667
1772881513880164400,17.980164306640624,3.531806230545044,-7.429714202880859,-5.07517671585083
1772881513897509600,17.997509521484375,4.342973232269287,-6.92482852935791,-4.5822553634643555
1772881513914854700,18.014854736328125,6.173482418060303,-6.206982135772705,-3.1585259437561035
1772881513932199700,18.03219970703125,6.728617191314697,-5.505885124206543,-0.1986042857170105
1772881513949545000,18.049544921875,5.364708423614502,-6.597012042999268,0.41156548261642456
1772881513966890000,18.066889892578125,-0.2512463629245758,-6.238088607788086,-3.129812002182007
1772881513984235000,18.084235107421875,-2.3330020904541016,-6.080162525177002,-5.54177713394165
1772881514001580300,18.101580322265626,0.14117653667926788,-6.008377552032471,-7.499105930328369
1772881514018925300,18.11892529296875,1.301695466041565,-7.2095746994018555,-8.827122688293457
1772881514036270300,18.136270263671875,0.3924229145050049,-11.684152603149414,-8.405985832214355
1772881514053615600,18.15361572265625,0.02871387079358101,-13.107882499694824,-8.188239097595215
1772881514070960600,18.170960693359376,5.735595703125,-3.081955671310425,-6.147161483764648
1772881514088305700,18.1883056640625,-2.9288148880004883,-6.721438884735107,-3.407379388809204
1772881514105650700,18.205650634765625,0.48813581466674805,-7.238288402557373,-0.7585247755050659
1772881514122996000,18.222995849609376,0.5982056856155396,-8.422736167907715,-2.4047868251800537
1772881514140341000,18.240341064453126,3.1034910678863525,-2.6488547325134277,-6.003592014312744
1772881514157686000,18.25768603515625,5.335994720458984,-0.7154539823532104,-6.960721015930176
1772881514175031300,18.27503125,3.751945972442627,-14.136795997619629,-11.2247314453125
1772881514192376300,18.292376220703126,2.8761727809906006,-16.08455467224121,-11.23190975189209
1772881514209721300,18.309721435546876,1.887937068939209,-14.517254829406738,-8.01356315612793
1772881514227066600,18.327066650390623,1.550549030303955,-12.502498626708984,-5.72123908996582
1772881514244411600,18.34441162109375,0.7513462901115417,-10.219745635986328,-4.565505504608154
1772881514261756700,18.361756591796876,0.2153540402650833,-8.915657043457031,-4.697110652923584
1772881514279101700,18.379101806640627,-0.7393822073936462,-9.765109062194824,-4.565505504608154
1772881514296447000,18.396447021484374,1.1940184831619263,-11.066804885864258,-4.268795490264893
1772881514313792000,18.4137919921875,4.642076015472412,-10.301101684570312,-6.096911907196045
1772881514331137000,18.431136962890626,1.576870083808899,-9.781859397888184,-5.3216376304626465
1772881514348482300,18.448482421875,-0.14356936514377594,-9.748359680175781,-1.9357935190200806
1772881514365827300,18.465827392578124,-1.6773686408996582,-7.444071292877197,-5.575276851654053
1772881514383172400,18.48317236328125,-0.2967100143432617,-6.03948450088501,-6.20219612121582
1772881514400517400,18.500517333984376,-0.6173482537269592,-4.575077056884766,-7.16650390625
1772881514417862700,18.517862548828123,-1.062413215637207,-4.3549370765686035,-6.0370917320251465
1772881514435207700,18.535207763671874,-2.2061824798583984,-5.113461971282959,-5.431707382202148
1772881514452552700,18.552552734375,-2.0793628692626953,-7.534998416900635,-4.8191447257995605
1772881514469898000,18.56989794921875,-0.7896314859390259,-9.107083320617676,-4.941178798675537
1772881514487243000,18.587242919921874,-0.9667003750801086,-8.970691680908203,-4.534399032592773
1772881514504588000,18.604588134765624,-1.3280165195465088,-7.393822193145752,-5.039284706115723
1772881514521933000,18.62193310546875,-0.9092726111412048,-7.2574310302734375,-4.859822750091553
1772881514539278300,18.6392783203125,-0.40677985548973083,-8.00638484954834,-4.1347975730896
1772881514556623400,18.656623291015624,-0.8207381963729858,-8.520841598510742,-3.840480327606201
1772881514573968400,18.673968505859374,-0.7728816866874695,-7.293323516845703,-2.792423963546753
1772881514591313700,18.691313720703125,-1.3950155973434448,-7.056434154510498,-4.18983268737793
1772881514608658700,18.70865869140625,-1.4787644147872925,-6.075376510620117,-4.158725738525391
1772881514626003700,18.726003662109374,-1.5290136337280273,-6.943971157073975,-4.07258415222168
1772881514643348700,18.7433486328125,-1.3782658576965332,-7.128218650817871,-3.6705899238586426
1772881514660694000,18.760694091796875,-1.1413763761520386,-7.288537979125977,-4.122833251953125
1772881514678039000,18.7780390625,-0.7058826684951782,-7.027719974517822,-4.1036906242370605
1772881514695384000,18.795384033203124,-0.5647061467170715,-7.089933395385742,-4.357329845428467
1772881514712729300,18.812729248046875,-0.3445664644241333,-7.250252723693848,-4.874179840087891
1772881514730074400,18.830074462890625,-0.23449662327766418,-7.735995769500732,-5.1182475090026855
1772881514747419400,18.84741943359375,0.24885354936122894,-7.5086774826049805,-5.221138954162598
1772881514764764400,18.864764404296874,0.2512463629245758,-7.192824840545654,-5.436492919921875
1772881514782109700,18.882109619140625,0.3086741268634796,-6.752545356750488,-5.412564754486084
1772881514799454700,18.899454833984375,-0.040677983313798904,-7.0755767822265625,-5.465207099914551
1772881514816799700,18.9167998046875,-0.02153540402650833,-6.905686378479004,-5.113461971282959
1772881514834144800,18.934144775390624,0.016749758273363113,-7.302894592285156,-5.051248550415039
1772881514851490000,18.951489990234375,0.2153540402650833,-7.221538543701172,-5.173282623291016
1772881514868835000,18.9688349609375,0.24406790733337402,-7.594819068908691,-5.570491313934326
1772881514886180000,18.98618017578125,0.8350951075553894,-8.085348129272461,-6.173482418060303
1772881514903525400,19.003525390625,1.3902299404144287,-8.252845764160156,-6.3122663497924805
1772881514920870400,19.020870361328125,1.7371892929077148,-8.37009334564209,-6.448657035827637
1772881514938215400,19.03821533203125,1.8999011516571045,-8.669196128845215,-6.551548480987549
1772881514955560400,19.055560546875,1.8113667964935303,-9.030512809753418,-6.671189308166504
1772881514972905700,19.07290576171875,2.6368906497955322,-9.001798629760742,-6.5491557121276855
1772881514990250800,19.090250732421875,3.5676984786987305,-8.819944381713867,-6.166304111480713
1772881515007595800,19.107595703125,4.529613494873047,-8.963513374328613,-5.974878311157227
1772881515024941000,19.124941162109376,5.058426856994629,-9.343972206115723,-5.86002254486084
1772881515042286000,19.1422861328125,5.60399055480957,-10.02592658996582,-5.539384365081787
1772881515059631000,19.159631103515625,5.862415313720703,-9.22433090209961,-5.0943193435668945
1772881515076976000,19.17697607421875,4.73300313949585,-8.82951545715332,-5.209175109863281
1772881515094321400,19.1943212890625,4.268795490264893,-8.640482902526855,-4.721039295196533
1772881515111666400,19.21166650390625,3.184846878051758,-8.798408508300781,-4.8191447257995605
1772881515129011500,19.229011474609376,2.861815929412842,-8.571090698242188,-5.132604598999023
1772881515146356700,19.246356689453126,3.2374889850616455,-8.025527000427246,-5.19242525100708
1772881515163701800,19.26370166015625,3.9314076900482178,-7.037291526794434,-5.343173027038574
1772881515181046800,19.281046875,5.259424209594727,-6.161518096923828,-5.319244861602783
1772881515198391800,19.298391845703126,5.6685967445373535,-5.843272686004639,-4.778466701507568
1772881515215737000,19.315737060546876,6.113661766052246,-6.4701924324035645,-3.1992039680480957
1772881515233082000,19.33308203125,6.4701924324035645,-7.676175117492676,-2.8929226398468018
1772881515250427100,19.35042724609375,6.556334018707275,-8.700303077697754,-2.5986053943634033
1772881515267772200,19.367772216796876,5.9437713623046875,-9.150154113769531,-2.4406790733337402
1772881515285117400,19.385117431640627,5.556134223937988,-9.18843936920166,-2.768495798110962
1772881515302462500,19.40246240234375,5.285745143890381,-8.621339797973633,-3.294916868209839
1772881515319807500,19.419807373046876,4.907679080963135,-7.901100158691406,-3.9936211109161377
1772881515337152800,19.43715283203125,4.589433670043945,-7.130611419677734,-4.687539577484131
1772881515354497800,19.454497802734377,4.675575256347656,-6.967899322509766,-4.319045066833496
1772881515371842800,19.4718427734375,5.089533805847168,-7.022934436798096,-3.6442689895629883
1772881515389187800,19.489187744140626,4.934000492095947,-7.22871732711792,-4.232903480529785
1772881515406533000,19.506533203125,4.974678039550781,-7.247859954833984,-4.589433670043945
1772881515423878100,19.523878173828123,5.335994720458984,-6.999006271362305,-4.498506546020508
1772881515441223200,19.54122314453125,4.491328239440918,-6.623332977294922,-4.01037073135376
1772881515458568200,19.558568115234376,4.453042984008789,-6.922435760498047,-3.7974095344543457
1772881515475913500,19.57591357421875,4.88853645324707,-8.197810173034668,-3.7495529651641846
1772881515493258500,19.593258544921873,4.716253280639648,-9.595218658447266,-3.8811583518981934
1772881515510603500,19.610603515625,4.462614059448242,-10.87298583984375,-3.6299118995666504
1772881515527948500,19.627948486328126,5.185246467590332,-10.310672760009766,-5.101497650146484
1772881515545293800,19.6452939453125,4.804787635803223,-8.097311973571777,-5.106283664703369
1772881515562638800,19.662638916015624,3.7902309894561768,-7.255038261413574,-4.177868366241455
1772881515579984000,19.67998388671875,4.244867324829102,-7.984848976135254,-2.5220351219177246
1772881515597329000,19.697328857421876,5.2977094650268555,-8.161917686462402,-3.524627685546875
1772881515614674200,19.714674072265623,6.281159400939941,-7.944170951843262,-3.9457645416259766
1772881515632019200,19.732019287109374,6.230910301208496,-7.544569969177246,-3.761517286300659
1772881515649364200,19.7493642578125,6.429514408111572,-7.518248558044434,-2.9240293502807617
1772881515666709200,19.766709228515627,5.735595703125,-7.657032489776611,-3.594019651412964
1772881515684054500,19.784054443359373,5.723631858825684,-7.668996810913086,-3.452843189239502
1772881515701399600,19.801399658203124,5.388636589050293,-7.57806921005249,-2.6321048736572266
1772881515718744600,19.81874462890625,4.826323509216309,-7.463213920593262,-2.115255117416382
1772881515736089900,19.83608984375,5.367101192474365,-7.661818027496338,-2.251646041870117
1772881515753435000,19.853434814453124,5.111069202423096,-7.3746795654296875,-1.3184453248977661
1772881515770780000,19.87077978515625,6.1399827003479,-7.470392227172852,-1.5194423198699951
1772881515788125000,19.888125,7.3986077308654785,-7.544569969177246,-2.029113531112671
1772881515805470200,19.90547021484375,7.077969551086426,-7.190432071685791,-1.5194423198699951
1772881515822815200,19.922815185546874,7.310073375701904,-7.125825881958008,-1.8161523342132568
1772881515840160300,19.94016015625,7.219145774841309,-7.573283672332764,-1.7850457429885864
1772881515857505500,19.957505615234375,6.719046115875244,-7.429714202880859,-1.2299108505249023
1772881515874850600,19.9748505859375,6.376872539520264,-6.752545356750488,-0.275174617767334
1772881515892195600,19.992195556640624,6.144768714904785,-6.209374904632568,0.349352091550827
1772881515909540600,20.00954052734375,6.005984783172607,-6.3122663497924805,0.14356936514377594
1772881515926886000,20.026885986328125,6.116054534912109,-6.704689025878906,-0.48095735907554626
1772881515944231000,20.04423095703125,5.98444938659668,-6.7310099601745605,-1.0887342691421509
1772881515961576000,20.061575927734374,5.816951751708984,-7.03489875793457,-1.3639088869094849
1772881515978921200,20.078921142578125,5.749952793121338,-7.154539585113525,-1.4500504732131958
1772881515996266200,20.096266357421875,6.094519138336182,-6.922435760498047,-1.643869161605835
1772881516013611300,20.113611328125,6.175875186920166,-6.372086524963379,-1.246660590171814
1772881516030956300,20.130956298828124,6.072983741760254,-6.558726787567139,-1.031306505203247
1772881516048301600,20.148301513671875,6.0849480628967285,-6.599404811859131,-1.1174482107162476
1772881516065646600,20.165646484375,6.338587284088135,-6.690331935882568,-1.3591232299804688
1772881516082991600,20.18299169921875,6.345765590667725,-6.798008918762207,-1.3663017749786377
1772881516100336600,20.200336669921874,6.072983741760254,-6.745367050170898,-1.6295121908187866
1772881516117682000,20.217681884765625,6.056233882904053,-7.04207706451416,-1.8855443000793457
1772881516135027000,20.23502685546875,6.2189459800720215,-6.503692150115967,-2.0817556381225586
1772881516152372000,20.2523720703125,6.25723123550415,-6.1088762283325195,-2.014756679534912
1772881516169717200,20.26971728515625,6.082555294036865,-5.781059741973877,-2.170290231704712
1772881516187062300,20.287062255859375,5.816951751708984,-6.288337707519531,-2.3808584213256836
1772881516204407300,20.3044072265625,5.819344520568848,-6.594619274139404,-2.861815929412842
1772881516221752300,20.32175244140625,6.120840549468994,-6.553941249847412,-3.06999135017395
1772881516239097600,20.33909765625,6.173482418060303,-6.278766632080078,-3.16331148147583
1772881516256442600,20.356442626953125,6.357729911804199,-6.226124286651611,-3.280559778213501
1772881516273787600,20.37378759765625,6.235695838928223,-6.429514408111572,-3.407379388809204
1772881516291132700,20.391132568359374,6.754938125610352,-6.943971157073975,-3.5437703132629395
1772881516308478000,20.40847802734375,6.912864685058594,-7.334001541137695,-4.153940200805664
1772881516325823000,20.425822998046876,6.740581512451172,-7.671389579772949,-4.776073932647705
1772881516343168000,20.44316796875,6.022734642028809,-7.817351341247559,-4.761716842651367
1772881516360513000,20.460512939453125,5.168497085571289,-7.582854747772217,-4.53200626373291
1772881516377858300,20.4778583984375,5.280959606170654,-7.5708909034729,-4.47697114944458
1772881516395203300,20.495203369140626,6.8171515464782715,-7.9657063484191895,-4.807180881500244
1772881516412548400,20.51254833984375,8.109275817871094,-8.606983184814453,-4.402793884277344
1772881516429893400,20.529893310546875,8.437092781066895,-8.367700576782227,-4.627718925476074
1772881516447238700,20.54723876953125,7.089933395385742,-7.776673793792725,-4.948357105255127
1772881516464583700,20.564583740234376,6.281159400939941,-7.511070251464844,-4.3549370765686035
1772881516481928700,20.5819287109375,6.436692714691162,-7.551748275756836,-3.6323046684265137
1772881516499273700,20.599273681640625,6.745367050170898,-7.341179847717285,-3.3619158267974854
1772881516516619000,20.616618896484376,7.013363361358643,-6.719046115875244,-3.25663161277771
1772881516533964000,20.633964111328126,6.7310099601745605,-6.647261142730713,-2.8737800121307373
1772881516551309000,20.65130908203125,6.2189459800720215,-6.111268997192383,-3.7974095344543457
1772881516568654300,20.668654296875,6.144768714904785,-6.281159400939941,-3.572484254837036
1772881516585999400,20.685999267578126,6.056233882904053,-6.709474563598633,-2.768495798110962
1772881516603344400,20.703344482421876,5.723631858825684,-6.570691108703613,-2.723032236099243
1772881516620689400,20.720689453125,5.843272686004639,-6.3601226806640625,-3.342773199081421
1772881516638034400,20.738034423828125,5.965306758880615,-6.678368091583252,-3.8739798069000244
1772881516655379700,20.755379638671876,6.228517532348633,-6.97268533706665,-3.9529430866241455
1772881516672724700,20.772724853515626,6.412764549255371,-7.195217609405518,-3.8763725757598877
1772881516690069800,20.79006982421875,5.903093338012695,-7.037291526794434,-4.074976921081543
1772881516707414800,20.807414794921876,5.240281581878662,-6.537191390991211,-3.8979079723358154
1772881516724760000,20.824760009765626,4.658825874328613,-6.3529438972473145,-3.9218363761901855
1772881516742105000,20.84210498046875,4.457828521728516,-6.597012042999268,-4.295116424560547
1772881516759450000,20.8594501953125,3.988835334777832,-7.23589563369751,-4.374079704284668
1772881516785468000,20.885468017578123,4.524827480316162,-8.178668022155762,-3.8524444103240967
1772881516802813000,20.90281298828125,5.245067119598389,-8.176275253295898,-3.342773199081421
1772881516820158000,20.920157958984376,6.161518096923828,-7.6474609375,-3.7878382205963135
1772881516837503000,20.9375029296875,7.76470947265625,-8.075776100158691,-4.800002098083496
1772881516854848000,20.954847900390625,8.181060791015625,-9.142974853515625,-5.364708423614502
1772881516872193300,20.972193359375,8.401200294494629,-9.803394317626953,-4.9986066818237305
1772881516889538300,20.989538330078126,7.874779224395752,-9.549755096435547,-4.931607246398926
1772881516906883300,21.00688330078125,5.613562107086182,-8.425128936767578,-4.333401679992676
1772881516924228600,21.024228515625,5.036891460418701,-7.585247993469238,-3.8500516414642334
1772881516941573600,21.04157373046875,5.776273727416992,-6.812366008758545,-3.218346357345581
1772881516958918700,21.058918701171876,6.235695838928223,-6.472585201263428,-1.8999011516571045
1772881516976263700,21.076263671875,5.900700569152832,-6.199803352355957,-1.5337992906570435
1772881516993608700,21.093608642578126,6.130411624908447,-5.678168296813965,-1.5960127115249634
1772881517010954000,21.1109541015625,5.582455158233643,-5.190032482147217,-1.2873386144638062
1772881517028299000,21.128299072265627,4.297509670257568,-6.348158359527588,-1.4644074440002441
1772881517045644000,21.14564404296875,4.266402721405029,-8.506484031677246,-2.306680917739868
1772881517062989000,21.162989013671876,5.912664890289307,-9.841679573059082,-3.445664644241333
1772881517080334300,21.180334228515626,8.812766075134277,-8.166703224182129,-2.7828526496887207
1772881517097679400,21.197679443359377,9.872786521911621,-5.907878875732422,-0.7585247755050659
1772881517115024400,21.2150244140625,7.657032489776611,-6.0610198974609375,-0.36610186100006104
1772881517132369400,21.232369384765626,5.61116886138916,-6.963113784790039,-0.5599204897880554
1772881517149714700,21.249714599609376,5.525027275085449,-6.9344000816345215,-0.30628129839897156
1772881517167059700,21.267059814453123,6.173482418060303,-6.692724704742432,-0.5623133182525635
1772881517184404700,21.28440478515625,6.750152587890625,-6.003592014312744,-0.8781659007072449
1772881517201749800,21.301749755859376,5.529813289642334,-5.498706340789795,-0.7800601720809937
1772881517219095000,21.319094970703127,4.855037212371826,-5.5345988273620605,-0.9978070259094238
1772881517236440000,21.336440185546873,4.735395908355713,-5.730810165405273,-1.466800332069397
1772881517253785000,21.35378515625,4.9531426429748535,-5.7547383308410645,-2.0027925968170166
1772881517271130000,21.371130126953126,5.491528034210205,-5.501099109649658,-1.9286150932312012
1772881517288475400,21.388475341796877,6.104090690612793,-5.905486106872559,-1.5002998113632202
1772881517305820400,21.4058203125,6.735795974731445,-6.116054534912109,-1.3160524368286133
1772881517323165400,21.42316552734375,7.025327205657959,-6.278766632080078,-1.031306505203247
1772881517340510500,21.440510498046876,7.214360237121582,-7.106683254241943,-1.1581261157989502
1772881517357855700,21.457855712890623,7.183253765106201,-7.491927623748779,-1.7012969255447388
1772881517375200800,21.47520068359375,7.025327205657959,-7.460821151733398,-2.1894326210021973
1772881517392545800,21.4925458984375,7.0301127433776855,-7.240681171417236,-2.4574289321899414
1772881517409890800,21.509890869140627,6.97986364364624,-6.745367050170898,-2.581855535507202
1772881517427236000,21.527236083984373,6.781259536743164,-6.0370917320251465,-2.3952155113220215
1772881517444581000,21.5445810546875,6.601797580718994,-5.642275810241699,-2.4909284114837646
1772881517461926100,21.561926025390626,6.044270038604736,-5.388636589050293,-2.746960401535034
1772881517479271200,21.579271240234377,5.520241737365723,-5.493920803070068,-2.9168508052825928
1772881517496616400,21.596616455078124,5.111069202423096,-5.639883041381836,-2.840280532836914
1772881517513961500,21.61396142578125,5.539384365081787,-5.888736724853516,-3.1896326541900635
1772881517531306500,21.631306396484376,6.618547439575195,-7.022934436798096,-4.292723655700684
1772881517548651500,21.648651611328123,7.750352382659912,-8.57348346710205,-5.3694939613342285
1772881517565996800,21.665996826171874,8.8438720703125,-9.564111709594727,-6.128018856048584
1772881517583341800,21.683341796875,9.09272575378418,-10.26042366027832,-6.159125328063965
1772881517600686800,21.700686767578127,8.769695281982422,-10.466206550598145,-5.400600910186768
1772881517618031900,21.718031982421873,7.04207706451416,-9.913464546203613,-4.589433670043945
1772881517635377200,21.735377197265624,6.0466628074646,-8.872586250305176,-3.88594388961792
1772881517652722200,21.75272216796875,5.6207404136657715,-7.712067604064941,-3.4983067512512207
1772881517670067200,21.770067138671877,6.57547664642334,-6.551548480987549,-3.376272678375244
1772881517687412200,21.787412109375,7.109076023101807,-5.625525951385498,-3.5748770236968994
1772881517704757200,21.80475732421875,7.381857872009277,-5.44845724105835,-4.18983268737793
1772881517722102500,21.8221025390625,6.869793891906738,-5.8097734451293945,-4.163511276245117
1772881517739447600,21.839447509765623,5.98444938659668,-6.273981094360352,-3.2590243816375732
1772881517756792600,21.85679248046875,5.989234924316406,-6.020341873168945,-2.3258235454559326
1772881517774137600,21.8741376953125,6.410371780395508,-5.460421085357666,-2.8283164501190186
1772881517791483000,21.89148291015625,6.5419769287109375,-5.730810165405273,-3.3954153060913086
1772881517808828000,21.908827880859373,5.402993679046631,-6.656832695007324,-3.3332018852233887
1772881517826173000,21.9261728515625,5.103890895843506,-6.819544315338135,-2.675175666809082
1772881517843518000,21.94351806640625,5.3312087059021,-6.10169792175293,-2.6847469806671143
1772881517860863200,21.96086328125,4.996213912963867,-5.505885124206543,-3.926621913909912
1772881517878208300,21.978208251953124,5.1876397132873535,-6.049055576324463,-4.869394302368164
1772881517895553300,21.99555322265625,5.364708423614502,-7.085147857666016,-4.716253280639648
1772881517912898300,22.012898193359376,5.580062389373779,-7.64028263092041,-4.357329845428467
1772881517930243300,22.030243408203123,5.594419479370117,-7.891529083251953,-3.9529430866241455
1772881517947588600,22.047588623046874,5.704489231109619,-7.788637638092041,-3.7950167655944824
1772881517964933600,22.06493359375,5.979663848876953,-7.731209754943848,-3.9457645416259766
1772881517982278700,22.082278564453127,5.953342914581299,-7.822137355804443,-4.235296249389648
1772881517999623700,22.099623779296873,6.180660724639893,-8.063812255859375,-4.661218643188477
1772881518016968700,22.11696875,6.221338748931885,-8.693124771118164,-4.618147850036621
1772881518034314000,22.13431396484375,7.0995049476623535,-9.509077072143555,-4.4650068283081055
1772881518051659000,22.151658935546877,7.195217609405518,-10.210174560546875,-3.9385859966278076
