time,seconds_elapsed,z,y,x
1772881495936716000,0.036716064453125,0,0,0
1772881495946716000,0.0467158203125,0.021307945251464844,-0.043335914611816406,0.03420734405517578
1772881495956716000,0.056716064453125,-0.09338855743408203,-0.04589366912841797,0.04429912567138672
1772881495966716000,0.0667158203125,-0.07211685180664062,-0.1777667999267578,0.0449213981628418
1772881495976716000,0.076716064453125,0.1510334014892578,-0.25917720794677734,-0.01696014404296875
1772881495986716000,0.0867158203125,0.3177981376647949,-0.21378135681152344,-0.11070680618286133
1772881495996716000,0.096716064453125,0.2829012870788574,-0.21594619750976562,-0.12502574920654297
1772881496006716000,0.1067158203125,0.16021203994750977,-0.227264404296875,-0.05168294906616211
1772881496016716000,0.116716064453125,0.11774110794067383,-0.24779748916625977,0.006366252899169922
1772881496026716000,0.1267158203125,0.21971988677978516,-0.41300535202026367,0.12746715545654297
1772881496036716000,0.136716064453125,0.41078901290893555,-0.7956323623657227,0.13102149963378906
1772881496046716000,0.1467158203125,0.8024435043334961,-1.187988042831421,0.053014278411865234
1772881496056716000,0.156716064453125,1.2413949966430664,-1.2926912307739258,-0.16229963302612305
1772881496066716000,0.1667158203125,1.250349521636963,-1.0916647911071777,-0.5841641426086426
1772881496076716000,0.176716064453125,1.1686244010925293,-0.7163403034210205,-1.1896257400512695
1772881496086716000,0.1867158203125,0.5695114135742188,-0.4082517623901367,-1.2812175750732422
1772881496096716000,0.196716064453125,-0.23204374313354492,0.40054893493652344,-1.1681408882141113
1772881496106716000,0.2067158203125,-0.9382319450378418,1.0619688034057617,-0.8197526931762695
1772881496116716000,0.216716064453125,-1.3533639907836914,1.253715991973877,-0.31735754013061523
1772881496126716000,0.2267158203125,-1.436655044555664,1.2915444374084473,0.03595161437988281
1772881496136716000,0.236716064453125,-1.1540632247924805,1.0785541534423828,0.32271909713745117
1772881496146716000,0.2467158203125,-0.506892204284668,0.44324159622192383,0.38219308853149414
1772881496156716000,0.256716064453125,0.6210308074951172,-0.3167855739593506,0.18633222579956055
1772881496166716000,0.2667158203125,1.716141700744629,-0.8823823928833008,-0.09477710723876953
1772881496176716000,0.276716064453125,2.189512252807617,-1.434241771697998,-0.32676124572753906
1772881496186716000,0.2867158203125,2.122572898864746,-1.8795485496520996,-0.023695945739746094
1772881496196716000,0.296716064453125,1.3967318534851074,-2.230168342590332,0.5881023406982422
1772881496206716000,0.3067158203125,0.9269156455993652,-3.0737721920013428,0.7166256904602051
1772881496216716000,0.316716064453125,0.9026589393615723,-4.401115894317627,1.3577275276184082
1772881496226716000,0.3267158203125,0.8379950523376465,-5.6117448806762695,1.6885647773742676
1772881496236716000,0.336716064453125,1.311598300933838,-6.449127674102783,1.266016960144043
1772881496246716000,0.3467158203125,1.7868704795837402,-7.153345108032227,1.227522850036621
1772881496256716000,0.356716064453125,1.6442928314208984,-7.346464157104492,0.8970479965209961
1772881496266716000,0.3667158203125,0.922154426574707,-6.734498977661133,-0.4467167854309082
1772881496276716000,0.376716064453125,-0.19639062881469727,-3.9865689277648926,-0.29560375213623047
1772881496286716000,0.3867158203125,-1.2290029525756836,-3.9754695892333984,-0.4250764846801758
1772881496296716000,0.396716064453125,-1.920384407043457,-6.050020217895508,-0.7465682029724121
1772881496306716000,0.4067158203125,-3.032620906829834,-6.667192459106445,-1.1382551193237305
1772881496316716000,0.416716064453125,-3.811579465866089,-6.359771728515625,-0.9574112892150879
1772881496326716000,0.4267158203125,-4.593695163726807,-5.3727827072143555,-0.6690077781677246
1772881496336716000,0.436716064453125,-4.681845664978027,-3.7336061000823975,-0.9634971618652344
1772881496346716000,0.4467158203125,-4.786222457885742,-2.8177592754364014,-1.2228655815124512
1772881496356716000,0.456716064453125,-5.47653865814209,-2.713534355163574,-1.73093843460083
1772881496366716000,0.4667158203125,-5.1274003982543945,-2.034620761871338,-3.6730589866638184
1772881496376716000,0.476716064453125,-3.277637243270874,-0.594946026802063,-5.519390106201172
1772881496386716000,0.4867158203125,-1.7605798244476318,0.8101766109466553,-6.692277431488037
1772881496396716000,0.496716064453125,-0.8388767242431641,2.2102861404418945,-7.680536270141602
1772881496406716000,0.5067158203125,0.3484535217285156,4.21918249130249,-8.973489761352539
1772881496416716000,0.516716064453125,1.1737666130065918,5.655763626098633,-9.36666488647461
1772881496426716000,0.5267158203125,1.557579517364502,6.1195220947265625,-8.703481674194336
1772881496436716000,0.536716064453125,0.8530740737915039,5.978551864624023,-7.641640663146973
1772881496446716000,0.5467158203125,-0.1806168556213379,6.122994422912598,-7.249787330627441
1772881496456716000,0.556716064453125,-0.8073115348815918,5.518379211425781,-6.853836536407471
1772881496466716000,0.5667158203125,-0.020204544067382812,5.425555229187012,-7.449326992034912
1772881496476716000,0.576716064453125,0.5914750099182129,5.47304630279541,-8.05450439453125
1772881496486716000,0.5867158203125,0.7110066413879395,4.935033798217773,-7.927621841430664
1772881496496716000,0.596716064453125,0.43928003311157227,4.587860584259033,-7.059597492218018
1772881496506716000,0.6067158203125,-0.5962100028991699,4.740304946899414,-6.376632213592529
1772881496516716000,0.616716064453125,-1.64646577835083,4.424154281616211,-5.00453519821167
1772881496526716000,0.6267158203125,-2.777104616165161,3.979031562805176,-4.167220115661621
1772881496536716000,0.636716064453125,-3.8188693523406982,4.888199806213379,-4.976385116577148
1772881496546716000,0.6467158203125,-4.020241737365723,6.027975082397461,-5.939888954162598
1772881496556716000,0.656716064453125,-3.925433874130249,5.402968406677246,-6.572051048278809
1772881496566716000,0.6667158203125,-4.235811233520508,2.6114940643310547,-6.1684770584106445
1772881496576716000,0.676716064453125,-6.0348076820373535,-2.3547816276550293,-5.080918312072754
1772881496586716000,0.6867158203125,-8.49400806427002,-7.87199592590332,-4.43572998046875
1772881496596716000,0.696716064453125,-6.35036563873291,-5.373647689819336,-2.3129472732543945
1772881496606716000,0.7067158203125,-1.7891873121261597,-1.8908393383026123,-0.18346500396728516
1772881496616716000,0.716716064453125,-3.5739831924438477,-4.013084411621094,-0.48850154876708984
1772881496626716000,0.7267158203125,-4.578824043273926,-4.058592796325684,-0.8497323989868164
1772881496636716000,0.736716064453125,-2.518962860107422,-3.9828622341156006,-0.3563804626464844
1772881496646716000,0.7467158203125,-0.992363452911377,-4.134033203125,0.17414474487304688
1772881496656716000,0.756716064453125,0.09505987167358398,-3.761946439743042,0.21004390716552734
1772881496666716000,0.7667158203125,0.543778657913208,-3.3754749298095703,0.2638092041015625
1772881496676716000,0.776716064453125,1.2023036479949951,-3.0544755458831787,0.2387990951538086
1772881496686716000,0.7867158203125,2.3491013050079346,-2.3362395763397217,-0.1073904037475586
1772881496696716000,0.796716064453125,3.1637156009674072,-0.9359166622161865,0.13793563842773438
1772881496706716000,0.8067158203125,2.69657039642334,0.1285715103149414,0.12881946563720703
1772881496716716000,0.816716064453125,1.996886968612671,1.389247179031372,0.0026330947875976562
1772881496726716000,0.8267158203125,1.8568205833435059,2.467503309249878,0.015152931213378906
1772881496736716000,0.836716064453125,-0.8209404945373535,2.9804952144622803,0.4444465637207031
1772881496746716000,0.8467158203125,-4.3065996170043945,2.933602809906006,0.9250268936157227
1772881496756716000,0.856716064453125,-2.5724000930786133,2.830892324447632,-0.9399652481079102
1772881496766716000,0.8667158203125,0.37050533294677734,2.3963024616241455,0.4133186340332031
1772881496776716000,0.876716064453125,-0.633735179901123,1.7353179454803467,1.9627666473388672
1772881496786716000,0.8867158203125,-3.5703582763671875,2.586103677749634,4.539820671081543
1772881496796716000,0.896716064453125,-2.9653429985046387,3.8281431198120117,4.0779218673706055
1772881496806716000,0.9067158203125,-3.1631381511688232,5.451488018035889,3.2492284774780273
1772881496816716000,0.916716064453125,-1.602861762046814,4.591342926025391,-0.8216724395751953
1772881496826716000,0.9267158203125,1.493080735206604,0.34506523609161377,-2.796262741088867
1772881496836716000,0.936716064453125,1.5912764072418213,-2.9333913326263428,-0.9553823471069336
1772881496846716000,0.9467158203125,3.021522045135498,-4.1812567710876465,0.1362295150756836
1772881496856716000,0.956716064453125,4.071548938751221,-4.34016752243042,0.9248266220092773
1772881496866716000,0.9667158203125,3.89943528175354,-3.935114860534668,0.7891063690185547
1772881496876716000,0.976716064453125,4.617558479309082,-5.771424770355225,1.65423583984375
1772881496886716000,0.9867158203125,3.449866771697998,-6.136855602264404,2.175312042236328
1772881496896716000,0.996716064453125,2.067173480987549,-5.129518508911133,2.0538291931152344
1772881496906716000,1.0067158203125,-1.3167575597763062,-2.6103200912475586,1.8973388671875
1772881496916716000,1.016716064453125,-2.858548641204834,-1.4248113632202148,1.4252338409423828
1772881496926716000,1.0267158203125,-3.096787214279175,-2.2221622467041016,2.1426143646240234
1772881496936716000,1.036716064453125,-3.3030667304992676,-2.9850215911865234,5.988653182983398
1772881496946716000,1.0467158203125,-7.515137672424316,-0.38942742347717285,5.2897491455078125
1772881496956716000,1.056716064453125,-4.179081916809082,-0.737633466720581,2.590695381164551
1772881496966716000,1.0667158203125,3.7164974212646484,-0.4395558834075928,-2.525050163269043
1772881496976716000,1.076716064453125,10.899069786071777,0.13879656791687012,-6.542971611022949
1772881496986716000,1.0867158203125,6.46408748626709,-0.3954803943634033,-3.778214454650879
1772881496996716000,1.096716064453125,6.500130653381348,-1.2035834789276123,-0.42327308654785156
1772881497006716000,1.1067158203125,6.319762229919434,-0.6972482204437256,-2.3297204971313477
1772881497016716000,1.116716064453125,5.557182312011719,0.3351900577545166,-5.512407302856445
1772881497026716000,1.1267158203125,4.234373569488525,1.170234203338623,-8.372870445251465
1772881497036716000,1.136716064453125,-0.00745844841003418,0.2886333465576172,-8.019007682800293
1772881497046716000,1.1467158203125,-3.357232093811035,-0.5836920738220215,-6.562353134155273
1772881497056716000,1.156716064453125,-2.991446018218994,-0.4981727600097656,-4.758024215698242
1772881497066716000,1.1667158203125,-0.49454331398010254,0.012857913970947266,-2.179598808288574
1772881497076716000,1.176716064453125,2.3227357864379883,0.9902200698852539,-0.7069826126098633
1772881497086716000,1.1867158203125,3.383883476257324,2.4610095024108887,0.9077062606811523
1772881497096716000,1.196716064453125,1.3904846906661987,3.5917091369628906,3.9101085662841797
1772881497106716000,1.2067158203125,-0.7885876893997192,3.8281776905059814,6.147760391235352
1772881497116716000,1.216716064453125,-2.9045703411102295,2.669966220855713,6.3174848556518555
1772881497126716000,1.2267158203125,-4.3040571212768555,-0.09880733489990234,4.5542097091674805
1772881497136716000,1.236716064453125,-4.332228660583496,-4.604124069213867,3.120354175567627
1772881497146716000,1.2467158203125,-1.5472545623779297,-6.593031883239746,1.132716178894043
1772881497156716000,1.256716064453125,0.32488375902175903,-4.449299335479736,-0.40651607513427734
1772881497166716000,1.2667158203125,-0.017265349626541138,-1.645822525024414,-1.2771668434143066
1772881497176716000,1.276716064453125,-0.7019580006599426,-0.04011869430541992,-1.4173202514648438
1772881497186716000,1.2867158203125,-1.2874873876571655,0.4455294609069824,-0.949559211730957
1772881497196716000,1.296716064453125,-1.1374285221099854,0.23945951461791992,-0.45333242416381836
1772881497206716000,1.3067158203125,-0.539222240447998,-0.5643739700317383,-0.282625675201416
1772881497216716000,1.316716064453125,-3.201909303665161,-1.0824980735778809,-0.6154541969299316
1772881497226716000,1.3267158203125,-0.6843805313110352,-1.5584826469421387,-1.3667793273925781
1772881497236716000,1.336716064453125,1.7142959833145142,-2.313551902770996,-1.519953727722168
1772881497246716000,1.3467158203125,1.7543331384658813,-4.462080955505371,-1.1715922355651855
1772881497256716000,1.356716064453125,4.732194423675537,-3.1217379570007324,-0.27386903762817383
1772881497266716000,1.3667158203125,0.23152625560760498,-0.45371484756469727,0.2987394332885742
1772881497276716000,1.376716064453125,-0.6766176223754883,0.6798486709594727,0.2088789939880371
1772881497286716000,1.3867158203125,0.18887090682983398,-1.4805359840393066,-0.2814912796020508
1772881497296716000,1.396716064453125,0.8382172584533691,0.43077516555786133,-0.26518678665161133
1772881497306716000,1.4067158203125,2.9218554496765137,-0.012475967407226562,-0.5243949890136719
1772881497316716000,1.416716064453125,1.5465614795684814,1.363755702972412,-0.932246208190918
1772881497326716000,1.4267158203125,1.6915922164916992,5.0823516845703125,-0.7661638259887695
1772881497336716000,1.436716064453125,1.8990206718444824,4.046078681945801,-0.7048506736755371
1772881497346716000,1.4467158203125,1.9131124019622803,2.0396833419799805,-0.8122429847717285
1772881497356716000,1.456716064453125,1.4166042804718018,0.7434964179992676,-0.6622648239135742
1772881497366716000,1.4667158203125,-0.21090483665466309,-0.3730287551879883,-0.4634571075439453
1772881497376716000,1.476716064453125,-0.8687931299209595,-0.8423871994018555,0.009593009948730469
1772881497386716000,1.4867158203125,-2.8356401920318604,-0.16951847076416016,0.7199559211730957
1772881497396716000,1.496716064453125,-4.490926742553711,0.4268054962158203,0.6734433174133301
1772881497406716000,1.5067158203125,-4.582403182983398,0.3476524353027344,0.1334671974182129
1772881497416716000,1.516716064453125,-2.707387924194336,0.7913608551025391,-0.09362030029296875
1772881497426716000,1.5267158203125,0.9469289779663086,1.818558692932129,0.3443410396575928
1772881497436716000,1.536716064453125,1.9068756103515625,2.808197021484375,1.1693345308303833
1772881497446716000,1.5467158203125,1.0371360778808594,3.554806709289551,2.380801200866699
1772881497456716000,1.556716064453125,0.48594212532043457,2.712864398956299,2.724766731262207
1772881497466716000,1.5667158203125,0.5307481288909912,1.2844295501708984,2.4082303047180176
1772881497476716000,1.576716064453125,0.7999119758605957,-0.48932361602783203,1.570062518119812
1772881497486716000,1.5867158203125,-0.028931140899658203,-1.506967544555664,0.4703240394592285
1772881497496716000,1.596716064453125,-2.2280492782592773,-2.0821456909179688,0.07628798484802246
1772881497506716000,1.6067158203125,-4.300293922424316,-1.7911920547485352,0.13561475276947021
1772881497516716000,1.616716064453125,-3.9063141345977783,-0.6379995346069336,0.19059014320373535
1772881497526716000,1.6267158203125,-2.1431684494018555,0.0750131607055664,0.2915741205215454
1772881497536716000,1.636716064453125,-0.6361850500106812,0.32474422454833984,0.0789111852645874
1772881497546716000,1.6467158203125,0.16219305992126465,0.6131792068481445,-0.41255640983581543
1772881497556716000,1.656716064453125,0.6561739444732666,0.77984619140625,-0.7318704128265381
1772881497566716000,1.6667158203125,0.9849731922149658,0.9416618347167969,-0.6281861066818237
1772881497576716000,1.676716064453125,1.8381597995758057,1.0381050109863281,-0.36824655532836914
1772881497586716000,1.6867158203125,2.437983274459839,0.9117708206176758,-0.39539146423339844
1772881497596716000,1.696716064453125,2.5726206302642822,0.8908190727233887,-0.6960620880126953
1772881497606716000,1.7067158203125,2.580808401107788,0.9005932807922363,-0.6277463436126709
1772881497616716000,1.716716064453125,1.863217830657959,1.0435028076171875,-0.39774632453918457
1772881497626716000,1.7267158203125,1.4554312229156494,1.1974053382873535,-0.47304844856262207
1772881497636716000,1.736716064453125,1.3785481452941895,0.816685676574707,-0.7035596370697021
1772881497646716000,1.7467158203125,2.357208013534546,-0.18802833557128906,-1.4702088832855225
1772881497656716000,1.756716064453125,0.556149959564209,-1.4743499755859375,-1.766829490661621
1772881497666716000,1.7667158203125,-2.497997522354126,-3.841986656188965,-1.3979721069335938
1772881497676716000,1.776716064453125,-2.8521459102630615,-6.485340118408203,-1.858238697052002
1772881497686716000,1.7867158203125,-2.8151869773864746,-6.978292465209961,-1.1649374961853027
1772881497696716000,1.796716064453125,-3.1178064346313477,-6.1519012451171875,0.14652562141418457
1772881497706716000,1.8067158203125,-3.5215682983398438,-3.135298728942871,0.6723072528839111
1772881497716716000,1.816716064453125,-2.1985435485839844,-0.5576333999633789,0.13583135604858398
1772881497726716000,1.8267158203125,-1.399014949798584,0.7911481857299805,0.0030868053436279297
1772881497736716000,1.836716064453125,-1.0260065793991089,1.4650917053222656,0.3322479724884033
1772881497746716000,1.8467158203125,0.44921326637268066,1.7958035469055176,1.102813959121704
1772881497756716000,1.856716064453125,0.0874166488647461,1.863774299621582,1.3315904140472412
1772881497766716000,1.8667158203125,0.4546186923980713,2.065880298614502,1.9476161003112793
1772881497776716000,1.876716064453125,2.1976122856140137,1.6207265853881836,1.6600693464279175
1772881497786716000,1.8867158203125,4.083319187164307,0.9272975921630859,0.14921832084655762
1772881497796716000,1.896716064453125,3.725146532058716,0.48730945587158203,-1.6333308219909668
1772881497806716000,1.9067158203125,1.948972463607788,0.22157955169677734,-1.663959264755249
1772881497816716000,1.916716064453125,1.2786972522735596,-0.1013631820678711,-1.046898603439331
1772881497826716000,1.9267158203125,0.775871753692627,-0.7003870010375977,-0.5625028610229492
1772881497836716000,1.936716064453125,-0.7621364593505859,-1.4928016662597656,-0.27152013778686523
1772881497846716000,1.9467158203125,-3.0127065181732178,-2.0771684646606445,-0.2984786033630371
1772881497856716000,1.956716064453125,-3.5406720638275146,-1.0557928085327148,-1.194777011871338
1772881497866716000,1.9667158203125,-5.166797161102295,0.680511474609375,-2.361069440841675
1772881497876716000,1.976716064453125,-0.8667705059051514,1.0984268188476562,-1.8108317852020264
1772881497886716000,1.9867158203125,-0.38894224166870117,-0.8045158386230469,-0.19043850898742676
1772881497896716000,1.996716064453125,0.16486382484436035,-3.270747184753418,1.8069663047790527
1772881497906716000,2.0067158203125,1.2465248107910156,-1.7192564010620117,0.5855991840362549
1772881497916716000,2.016716064453125,-0.24035215377807617,0.2770404815673828,0.481292724609375
1772881497926716000,2.0267158203125,-1.1679680347442627,0.5370664596557617,0.7231249809265137
1772881497936716000,2.036716064453125,-0.49246716499328613,0.36604785919189453,0.7710273265838623
1772881497946716000,2.0467158203125,-0.25209569931030273,0.273590087890625,0.41979146003723145
1772881497956716000,2.056716064453125,-0.4204745292663574,-0.0881500244140625,0.012620925903320312
1772881497966716000,2.0667158203125,-0.19948172569274902,-0.9686985015869141,-0.5869553089141846
1772881497976716000,2.076716064453125,0.38236451148986816,-1.0150737762451172,-1.2880139350891113
1772881497986716000,2.0867158203125,-0.20919585227966309,-1.0104408264160156,-1.2079033851623535
1772881498006716000,2.1067158203125,-1.9638936519622803,-0.6782073974609375,-1.0241882801055908
1772881498016716000,2.116716064453125,-2.0388290882110596,-0.12900066375732422,-0.8135864734649658
1772881498026716000,2.1267158203125,-1.3950886726379395,0.1540231704711914,-0.42577505111694336
1772881498036716000,2.136716064453125,-0.6044962406158447,0.2798891067504883,-0.5878362655639648
1772881498046716000,2.1467158203125,0.5511515140533447,0.13695049285888672,-0.7505412101745605
1772881498056716000,2.156716064453125,0.9932253360748291,-0.761357307434082,-0.5339734554290771
1772881498066716000,2.1667158203125,1.6802618503570557,-1.4202547073364258,-0.390012264251709
1772881498076716000,2.176716064453125,2.124464750289917,-2.1314496994018555,-0.20007991790771484
1772881498086716000,2.1867158203125,1.7375199794769287,-2.0768775939941406,0.933842658996582
1772881498096716000,2.196716064453125,0.8538041114807129,-2.9758052825927734,0.7969248294830322
1772881498106716000,2.2067158203125,3.3691701889038086,-5.102046966552734,-0.0937490463256836
1772881498116716000,2.216716064453125,2.2299976348876953,-5.427337646484375,-1.1854863166809082
1772881498126716000,2.2267158203125,-1.0842399597167969,-6.247644424438477,-1.9721722602844238
1772881498136716000,2.236716064453125,-0.8213276863098145,-3.708150863647461,-3.691957712173462
1772881498146716000,2.2467158203125,-0.9866561889648438,3.192831516265869,-4.277614593505859
1772881498156716000,2.256716064453125,-1.0435466766357422,6.0896525382995605,-1.351102352142334
1772881498166716000,2.2667158203125,-0.3230118751525879,6.694843292236328,2.100705862045288
1772881498176716000,2.276716064453125,1.8686223030090332,7.355834484100342,4.01591682434082
1772881498186716000,2.2867158203125,4.174050331115723,7.1255598068237305,4.087582588195801
1772881498196716000,2.296716064453125,5.138265609741211,5.0192999839782715,2.3457069396972656
1772881498206716000,2.3067158203125,3.5599920749664307,3.4324231147766113,0.7775745391845703
1772881498216716000,2.316716064453125,0.9571452140808105,2.485130786895752,0.8556058406829834
1772881498226716000,2.3267158203125,-2.4754176139831543,1.6055946350097656,0.933786153793335
1772881498236716000,2.336716064453125,-4.168060779571533,1.2982382774353027,1.549100399017334
1772881498246716000,2.3467158203125,-4.126411437988281,4.286318778991699,0.9661221504211426
1772881498256716000,2.356716064453125,-4.064845085144043,6.761131763458252,1.6548404693603516
1772881498266716000,2.3667158203125,-3.0133190155029297,4.8986616134643555,3.5622777938842773
1772881498276716000,2.376716064453125,-3.183061122894287,2.7808141708374023,4.8940887451171875
1772881498286716000,2.3867158203125,-2.141416311264038,1.8793230056762695,3.7967326641082764
1772881498296716000,2.396716064453125,3.056901454925537,0.2108464241027832,2.2591514587402344
1772881498306716000,2.4067158203125,9.25290298461914,-1.8136258125305176,0.09831571578979492
1772881498316716000,2.416716064453125,7.750486373901367,-0.3290596008300781,-3.0310120582580566
1772881498326716000,2.4267158203125,3.4898035526275635,0.7758064270019531,-4.575705528259277
1772881498336716000,2.436716064453125,2.557873249053955,-0.21222972869873047,-4.626204013824463
1772881498346716000,2.4467158203125,1.4091341495513916,-2.664531707763672,-4.175599098205566
1772881498356716000,2.456716064453125,-0.12195181846618652,-3.023591995239258,-3.580315113067627
1772881498366716000,2.4667158203125,-1.5367803573608398,-3.2699899673461914,-3.3763461112976074
1772881498376716000,2.476716064453125,2.4129018783569336,-4.151341438293457,-5.943075180053711
1772881498386716000,2.4867158203125,5.5363850593566895,-1.7887511253356934,-7.750647068023682
1772881498396716000,2.496716064453125,-4.234292030334473,1.0204296112060547,-4.337475776672363
1772881498406716000,2.5067158203125,-9.876641273498535,0.2606816291809082,0.8444814682006836
1772881498416716000,2.516716064453125,-6.525943756103516,-1.5764145851135254,2.791278839111328
1772881498426716000,2.5267158203125,3.8765735626220703,-1.4187202453613281,-0.0805826187133789
1772881498436716000,2.536716064453125,5.3977227210998535,0.2726712226867676,-2.0880355834960938
1772881498446716000,2.5467158203125,1.8335576057434082,0.3773798942565918,-0.21609210968017578
1772881498456716000,2.556716064453125,-1.7121057510375977,-1.782102108001709,2.3241209983825684
1772881498466716000,2.5667158203125,-1.898451805114746,-3.858426094055176,3.5381052494049072
1772881498476716000,2.576716064453125,-1.7696681022644043,-4.414129734039307,3.41367244720459
1772881498486716000,2.5867158203125,-1.5152099132537842,-3.3401522636413574,1.8863191604614258
1772881498496716000,2.596716064453125,0.667574405670166,-1.4985432624816895,0.47039365768432617
1772881498506716000,2.6067158203125,0.3414015769958496,-0.4921293258666992,-0.1891164779663086
1772881498516716000,2.616716064453125,0.8900165557861328,0.06547021865844727,-0.36959409713745117
1772881498526716000,2.6267158203125,6.606932640075684,1.2221474647521973,-0.8780131340026855
1772881498536716000,2.636716064453125,3.483464241027832,0.5676178932189941,0.326702356338501
1772881498546716000,2.6467158203125,-2.2495079040527344,-0.14468812942504883,1.5698795318603516
1772881498556716000,2.656716064453125,-3.1739139556884766,-0.04262208938598633,0.36341047286987305
1772881498566716000,2.6667158203125,-2.090475082397461,-0.17991924285888672,-1.9892070293426514
1772881498576716000,2.676716064453125,-1.318403720855713,0.2581148147583008,-2.3241095542907715
1772881498586716000,2.6867158203125,-5.868512153625488,2.3115787506103516,1.3365833759307861
1772881498596716000,2.696716064453125,-0.7853593826293945,0.7110481262207031,2.5819578170776367
1772881498606716000,2.7067158203125,0.8299274444580078,0.0767984390258789,1.7236030101776123
1772881498616716000,2.716716064453125,1.7959656715393066,0.1391582489013672,1.592137098312378
1772881498626716000,2.7267158203125,1.53196382522583,3.0813775062561035,1.4509999752044678
1772881498636716000,2.736716064453125,1.4281158447265625,1.58150053024292,1.43955659866333
1772881498646716000,2.7467158203125,2.0271811485290527,0.4232316017150879,0.5585088729858398
1772881498656716000,2.756716064453125,1.8013825416564941,-1.1160764694213867,-0.04408097267150879
1772881498666716000,2.7667158203125,0.5607624053955078,-1.9423103332519531,-0.35605525970458984
1772881498676716000,2.776716064453125,-0.2836289405822754,-0.8819584846496582,-0.43747854232788086
1772881498686716000,2.7867158203125,-0.810081958770752,1.1356172561645508,0.1907038688659668
1772881498696716000,2.796716064453125,-0.7265491485595703,1.5778346061706543,1.0024502277374268
1772881498706716000,2.8067158203125,0.7600774765014648,1.3638324737548828,0.18592405319213867
1772881498716716000,2.816716064453125,1.3331069946289062,1.404975414276123,-0.7717244625091553
1772881498726716000,2.8267158203125,-0.03504037857055664,0.6297121047973633,-0.2567176818847656
1772881498736716000,2.836716064453125,-0.07555055618286133,-0.05085039138793945,0.13726544380187988
1772881498746716000,2.8467158203125,0.6272482872009277,0.13894939422607422,-0.20614290237426758
1772881498756716000,2.856716064453125,1.4451513290405273,0.645754337310791,0.036599159240722656
1772881498766716000,2.8667158203125,-0.46231603622436523,-0.5385236740112305,0.2745070457458496
1772881498776716000,2.876716064453125,0.32440662384033203,-1.11445951461792,-0.4877035617828369
1772881498786716000,2.8867158203125,-0.7934527397155762,-1.5413098335266113,-1.1117651462554932
1772881498796716000,2.896716064453125,-2.1223154067993164,-1.6504969596862793,-1.3168256282806396
1772881498806716000,2.9067158203125,-1.6579365730285645,-1.3191618919372559,-0.9932589530944824
1772881498816716000,2.916716064453125,-0.7337155342102051,-0.8552188873291016,-0.34349870681762695
1772881498826716000,2.9267158203125,-0.5428674221038818,-0.7377538681030273,0.21741652488708496
1772881498836716000,2.936716064453125,-0.09655523300170898,-0.35311317443847656,0.24722719192504883
1772881498846716000,2.9467158203125,0.04674243927001953,0.8602352142333984,-0.03721928596496582
1772881498856716000,2.956716064453125,0.21921539306640625,1.1573705673217773,-0.1358191967010498
1772881498866716000,2.9667158203125,-0.8000307083129883,0.9522786140441895,0.058836936950683594
1772881498876716000,2.976716064453125,-0.34074926376342773,-0.3332843780517578,-0.26854729652404785
1772881498886716000,2.9867158203125,0.6692905426025391,-0.4744405746459961,-0.4593789577484131
1772881498896716000,2.996716064453125,0.1968698501586914,-0.05858898162841797,0.31508564949035645
1772881498906716000,3.0067158203125,0.33734893798828125,-0.17453479766845703,0.28039073944091797
1772881498916716000,3.016716064453125,-1.0155081748962402,-0.4858970642089844,0.1369478702545166
1772881498926716000,3.0267158203125,-1.5611183643341064,-1.198195457458496,0.3881368637084961
1772881498936716000,3.036716064453125,-1.7732610702514648,-1.1453638076782227,0.0033190250396728516
1772881498946716000,3.0467158203125,-1.3690781593322754,-2.0177268981933594,0.012428522109985352
1772881498956716000,3.056716064453125,-0.009698867797851562,-1.8359708786010742,-0.20664453506469727
1772881498966716000,3.0667158203125,0.027271747589111328,-1.146580696105957,-0.7057933807373047
1772881498976716000,3.076716064453125,0.2526063919067383,0.5779790878295898,-0.6727793216705322
1772881498986716000,3.0867158203125,1.9688735008239746,-1.0405807495117188,-0.22582721710205078
1772881498996716000,3.096716064453125,1.9120163917541504,-1.4392614364624023,-0.9121637344360352
1772881499006716000,3.1067158203125,0.23333740234375,-0.8259973526000977,-0.9718382358551025
1772881499016716000,3.116716064453125,-1.1242997646331787,-2.3399505615234375,-0.9107315540313721
1772881499026716000,3.1267158203125,-2.2006897926330566,-2.004755973815918,-1.4804790019989014
1772881499036716000,3.136716064453125,-1.1331515312194824,-1.9302654266357422,-1.2610461711883545
1772881499046716000,3.1467158203125,-0.6361479759216309,-6.154810905456543,-0.8224554061889648
1772881499056716000,3.156716064453125,-0.4090409278869629,-6.09315299987793,-0.5316576957702637
1772881499066716000,3.1667158203125,-1.3364495038986206,-1.0241260528564453,0.32250428199768066
1772881499076716000,3.176716064453125,-0.16965961456298828,7.739582061767578,-0.6550064086914062
1772881499086716000,3.1867158203125,1.0677015781402588,6.931042194366455,0.7537651062011719
1772881499096716000,3.196716064453125,2.7493155002593994,4.426923751831055,2.7639429569244385
1772881499106716000,3.2067158203125,3.6465165615081787,3.129899024963379,2.577371835708618
1772881499116716000,3.216716064453125,4.689882278442383,2.480146884918213,1.5522692203521729
1772881499126716000,3.2267158203125,5.902380466461182,7.337310791015625,-0.2513923645019531
1772881499136716000,3.236716064453125,4.062880516052246,7.694168567657471,0.015838623046875
1772881499146716000,3.2467158203125,2.449126720428467,4.755210876464844,0.6690530776977539
1772881499156716000,3.256716064453125,1.97963285446167,3.832045555114746,0.9920356273651123
1772881499166716000,3.2667158203125,1.901700496673584,2.9430627822875977,0.6956362724304199
1772881499176716000,3.276716064453125,1.1793423891067505,1.1855106353759766,0.28293800354003906
1772881499186716000,3.2867158203125,0.5790435075759888,-0.9635200500488281,-0.5637311935424805
1772881499196716000,3.296716064453125,0.15410995483398438,-2.2388734817504883,-1.0789523124694824
1772881499206716000,3.3067158203125,1.123361587524414,-9.70915412902832,-4.5531182289123535
1772881499216716000,3.316716064453125,-1.8583059310913086,-18.160432815551758,-7.1253533363342285
1772881499226716000,3.3267158203125,-8.273128509521484,-8.764934539794922,-4.933513641357422
1772881499236716000,3.336716064453125,-9.712203979492188,-2.2324676513671875,0.26232433319091797
1772881499246716000,3.3467158203125,-6.926283836364746,2.3800597190856934,0.8448019027709961
1772881499256716000,3.356716064453125,-2.873434543609619,6.219460487365723,0.9513058662414551
1772881499266716000,3.3667158203125,1.422231674194336,7.599235534667969,1.2909376621246338
1772881499276716000,3.376716064453125,5.0694098472595215,6.373713970184326,1.2264668941497803
1772881499286716000,3.3867158203125,6.799485206604004,4.55757999420166,0.8921303749084473
1772881499296716000,3.396716064453125,6.265447616577148,3.5643224716186523,1.0669350624084473
1772881499306716000,3.4067158203125,4.307461261749268,3.5411019325256348,1.233530044555664
1772881499316716000,3.416716064453125,2.331310749053955,4.266092300415039,1.5347113609313965
1772881499326716000,3.4267158203125,1.1716408729553223,4.561765193939209,1.7525854110717773
1772881499336716000,3.436716064453125,1.0080559253692627,2.068100929260254,1.7537152767181396
1772881499346716000,3.4467158203125,0.6135814189910889,-0.8263978958129883,1.1575181484222412
1772881499356716000,3.456716064453125,-0.14638280868530273,-3.3322935104370117,0.08516454696655273
1772881499366716000,3.4667158203125,-1.4185490608215332,-5.710042953491211,-1.068474292755127
1772881499376716000,3.476716064453125,-2.6565704345703125,-6.5377702713012695,-2.531172752380371
1772881499386716000,3.4867158203125,-4.128954887390137,-5.624331951141357,-3.4091506004333496
1772881499396716000,3.496716064453125,-4.688686370849609,-4.5354228019714355,-2.7552409172058105
1772881499406716000,3.5067158203125,-4.109810829162598,-2.748805046081543,-1.5003166198730469
1772881499416716000,3.516716064453125,-2.810556411743164,-1.0715975761413574,-0.4154691696166992
1772881499426716000,3.5267158203125,-1.0305202007293701,0.3477787971496582,0.3358125686645508
1772881499436716000,3.536716064453125,0.5929110050201416,1.1176676750183105,0.6817162036895752
1772881499446716000,3.5467158203125,1.5304489135742188,1.5054035186767578,0.6545672416687012
1772881499456716000,3.556716064453125,1.982992172241211,1.6196002960205078,0.15786218643188477
1772881499466716000,3.5667158203125,1.9575114250183105,1.3743953704833984,-0.04239654541015625
1772881499476716000,3.576716064453125,1.12583589553833,0.8060131072998047,-0.1164851188659668
1772881499486716000,3.5867158203125,0.5848262310028076,-0.20392131805419922,-0.506434440612793
1772881499496716000,3.596716064453125,-0.0644540786743164,-0.7542905807495117,-0.584526538848877
1772881499506716000,3.6067158203125,-0.2823309898376465,-0.9667901992797852,-0.5203609466552734
1772881499516716000,3.616716064453125,-0.43668413162231445,-1.1112327575683594,-0.41069936752319336
1772881499526716000,3.6267158203125,-0.4853496551513672,-1.0174932479858398,-0.2415909767150879
1772881499536716000,3.636716064453125,-0.40145158767700195,-0.8560500144958496,-0.19932889938354492
1772881499546716000,3.6467158203125,-0.2609410285949707,-0.4579453468322754,-0.16892433166503906
1772881499556716000,3.656716064453125,-0.027964115142822266,-0.14777517318725586,0.015327215194702148
1772881499566716000,3.6667158203125,0.17904138565063477,-0.0006842613220214844,0.2376570701599121
1772881499576716000,3.676716064453125,0.35542774200439453,-0.02986621856689453,0.5512962341308594
1772881499586716000,3.6867158203125,0.37343835830688477,-0.2153935432434082,0.8004450798034668
1772881499596716000,3.696716064453125,0.1525568962097168,-0.40250635147094727,0.9440951347351074
1772881499606716000,3.7067158203125,-0.17330408096313477,-0.5352578163146973,0.9427719116210938
1772881499616716000,3.716716064453125,-0.43646955490112305,-0.4771590232849121,0.6208271980285645
1772881499626716000,3.7267158203125,-0.5830686092376709,-0.3809967041015625,0.3293428421020508
1772881499636716000,3.736716064453125,-0.5480117797851562,-0.18439817428588867,0.021860361099243164
1772881499646716000,3.7467158203125,-0.33147716522216797,-0.030427932739257812,-0.25907444953918457
1772881499656716000,3.756716064453125,-0.16822052001953125,0.057256221771240234,-0.619624137878418
1772881499666716000,3.7667158203125,-0.018812179565429688,-0.04600334167480469,-0.7367873191833496
1772881499676716000,3.776716064453125,-0.01497030258178711,-0.061753273010253906,-0.641862154006958
1772881499686716000,3.7867158203125,-0.17593717575073242,-0.000050067901611328125,-0.5875113010406494
1772881499696716000,3.796716064453125,-0.21141910552978516,0.014243602752685547,-0.3082544803619385
1772881499706716000,3.8067158203125,-0.40021276473999023,0.04476785659790039,-0.21813154220581055
1772881499716716000,3.816716064453125,-0.538175106048584,0.0017304420471191406,-0.23526430130004883
1772881499726716000,3.8267158203125,-0.4731936454772949,0.07246732711791992,-0.40630626678466797
1772881499736716000,3.836716064453125,-0.3762526512145996,0.18794822692871094,-0.3823869228363037
1772881499746716000,3.8467158203125,-0.16957902908325195,0.42268896102905273,-0.29129457473754883
1772881499756716000,3.856716064453125,-0.10818290710449219,0.5541982650756836,0.02038884162902832
1772881499766716000,3.8667158203125,-0.18144941329956055,0.5566620826721191,0.307201623916626
1772881499776716000,3.876716064453125,-0.39949560165405273,0.3753952980041504,0.39545559883117676
1772881499786716000,3.8867158203125,-0.4604148864746094,-0.013290882110595703,0.30818939208984375
1772881499796716000,3.896716064453125,-0.40702199935913086,-0.4874720573425293,0.07020211219787598
1772881499806716000,3.9067158203125,-0.29244375228881836,-0.8308300971984863,-0.2729203701019287
1772881499816716000,3.916716064453125,-0.3279414176940918,-0.9796643257141113,-0.5861001014709473
1772881499826716000,3.9267158203125,-0.4813990592956543,-0.9907832145690918,-1.1380319595336914
1772881499836716000,3.936716064453125,-0.3877716064453125,-1.0135245323181152,-1.1270484924316406
1772881499846716000,3.9467158203125,-0.49217653274536133,-0.7618813514709473,-1.0325722694396973
1772881499856716000,3.956716064453125,-0.7021908760070801,-0.41362905502319336,-0.9026858806610107
1772881499866716000,3.9667158203125,-0.783444881439209,-0.012962818145751953,-0.8711991310119629
1772881499876716000,3.976716064453125,-0.7003173828125,0.43799734115600586,-0.8787567615509033
1772881499886716000,3.9867158203125,-0.5389609336853027,0.642308235168457,-0.7370917797088623
1772881499896716000,3.996716064453125,-0.36172056198120117,0.6315374374389648,-0.5722184181213379
1772881499906716000,4.0067158203125,-0.31441259384155273,0.46832704544067383,-0.42786288261413574
1772881499916716000,4.016716064453125,-0.37586355209350586,0.1599259376525879,-0.2304685115814209
1772881499926716000,4.0267158203125,-0.5807948112487793,-0.17406082153320312,0.05522727966308594
1772881499936716000,4.036716064453125,-0.5619969367980957,-0.5477252006530762,-0.021895170211791992
1772881499946716000,4.0467158203125,-0.6183009147644043,-0.7784624099731445,0.09135890007019043
1772881499956716000,4.056716064453125,-0.547062873840332,-0.9036331176757812,0.15153908729553223
1772881499966716000,4.0667158203125,-0.2615947723388672,-0.9485421180725098,0.25794458389282227
1772881499976716000,4.076716064453125,0.004786014556884766,-0.8375272750854492,0.37508702278137207
1772881499986716000,4.0867158203125,0.23130321502685547,-0.6326761245727539,0.09821367263793945
1772881499996716000,4.096716064453125,0.4169950485229492,-0.5819644927978516,-0.024104595184326172
1772881500006716000,4.1067158203125,0.48800230026245117,-0.43965625762939453,-0.10489201545715332
1772881500016716000,4.116716064453125,0.39255475997924805,-0.44493532180786133,-0.11810731887817383
1772881500026716000,4.1267158203125,0.28339719772338867,-0.4428701400756836,-0.053200483322143555
1772881500036716000,4.136716064453125,0.2180495262145996,-0.465848445892334,0.017528533935546875
1772881500046716000,4.1467158203125,0.14349985122680664,-0.45823192596435547,0.07285881042480469
1772881500056716000,4.156716064453125,0.10423517227172852,-0.37445783615112305,0.06683087348937988
1772881500066716000,4.1667158203125,0.15476608276367188,-0.28771543502807617,-0.01320028305053711
1772881500076716000,4.176716064453125,0.31078624725341797,-0.2801346778869629,-0.11046743392944336
1772881500086716000,4.1867158203125,0.43300867080688477,-0.40755653381347656,-0.11855053901672363
1772881500096716000,4.196716064453125,0.4022102355957031,-0.6179237365722656,-0.19671630859375
1772881500106716000,4.2067158203125,0.2611236572265625,-0.8552227020263672,-0.2850050926208496
1772881500116716000,4.216716064453125,0.10424470901489258,-1.046905517578125,-0.325516939163208
1772881500126716000,4.2267158203125,-0.020675182342529297,-1.0446133613586426,-0.4217190742492676
1772881500136716000,4.236716064453125,-0.11791229248046875,-0.9524641036987305,-0.45272278785705566
1772881500146716000,4.2467158203125,-0.25371885299682617,-0.8272113800048828,-0.44231700897216797
1772881500156716000,4.256716064453125,-0.3180408477783203,-0.6898603439331055,-0.38263511657714844
1772881500166716000,4.2667158203125,-0.36562252044677734,-0.578270435333252,-0.1672191619873047
1772881500176716000,4.276716064453125,-0.41271018981933594,-0.4502887725830078,-0.025875091552734375
1772881500186716000,4.2867158203125,-0.2903304100036621,-0.3290252685546875,0.0583341121673584
1772881500196716000,4.296716064453125,-0.3557090759277344,-0.09994220733642578,0.046297311782836914
1772881500206716000,4.3067158203125,-0.2254772186279297,0.04224205017089844,-0.2746412754058838
1772881500216716000,4.316716064453125,-0.12994050979614258,-0.06546783447265625,-0.540229320526123
1772881500226716000,4.3267158203125,-0.0502924919128418,-0.0432133674621582,-0.7777853012084961
1772881500236716000,4.336716064453125,0.07494974136352539,0.10960865020751953,-0.9050424098968506
1772881500246716000,4.3467158203125,0.22465848922729492,0.2656826972961426,-0.8850746154785156
1772881500256716000,4.356716064453125,0.350374698638916,0.4474005699157715,-0.8047182559967041
1772881500266716000,4.3667158203125,0.35924768447875977,0.6447882652282715,-0.6295628547668457
1772881500276716000,4.376716064453125,0.3145875930786133,0.8328647613525391,-0.49649786949157715
1772881500286716000,4.3867158203125,0.3587465286254883,0.9743642807006836,-0.4213740825653076
1772881500296716000,4.396716064453125,0.5358099937438965,1.0072951316833496,-0.46611523628234863
1772881500306716000,4.4067158203125,0.6366829872131348,1.030014991760254,-0.4884371757507324
1772881500316716000,4.416716064453125,0.5898871421813965,0.9855184555053711,-0.31367015838623047
1772881500326716000,4.4267158203125,0.48162412643432617,0.6510777473449707,0.09086132049560547
1772881500336716000,4.436716064453125,0.23366737365722656,0.2661247253417969,0.407639741897583
1772881500346716000,4.4467158203125,-0.14823341369628906,-0.08748340606689453,0.5323247909545898
1772881500356716000,4.456716064453125,-0.44966936111450195,-0.33003711700439453,0.4848661422729492
1772881500366716000,4.4667158203125,-0.6655683517456055,-0.44516992568969727,0.5003740787506104
1772881500376716000,4.476716064453125,-0.8705654144287109,-0.51153564453125,0.5943419933319092
1772881500386716000,4.4867158203125,-1.1098122596740723,-0.6286916732788086,0.6220107078552246
1772881500396716000,4.496716064453125,-1.2463178634643555,-0.6152448654174805,0.4549217224121094
1772881500406716000,4.5067158203125,-1.2849664688110352,-0.45920658111572266,0.3734581470489502
1772881500416716000,4.516716064453125,-0.9782328605651855,-0.22542762756347656,0.31087756156921387
1772881500426716000,4.5267158203125,-0.6876072883605957,-0.011104583740234375,0.4354231357574463
1772881500436716000,4.536716064453125,-0.2658562660217285,0.09160470962524414,0.33928894996643066
1772881500446716000,4.5467158203125,-0.011929512023925781,0.2559037208557129,0.07097673416137695
1772881500456716000,4.556716064453125,0.08598136901855469,0.45044660568237305,-0.3081543445587158
1772881500466716000,4.5667158203125,0.2528691291809082,0.529353141784668,-0.4972097873687744
1772881500476716000,4.576716064453125,0.2889680862426758,0.5828847885131836,-0.42814040184020996
1772881500486716000,4.5867158203125,0.008143424987792969,0.6851186752319336,-0.07299160957336426
1772881500496716000,4.596716064453125,-0.39122724533081055,0.6822171211242676,-0.019081592559814453
1772881500506716000,4.6067158203125,-0.6508855819702148,0.43190813064575195,0.06582903861999512
1772881500516716000,4.616716064453125,-0.6119241714477539,0.21972370147705078,0.16436290740966797
1772881500526716000,4.6267158203125,-0.5554356575012207,0.05566215515136719,0.24109482765197754
1772881500536716000,4.636716064453125,-0.36391448974609375,0.020856857299804688,0.24611854553222656
1772881500546716000,4.6467158203125,-0.1114053726196289,0.17141056060791016,0.31119585037231445
1772881500556716000,4.656716064453125,0.02446126937866211,0.5742497444152832,0.42172718048095703
1772881500566716000,4.6667158203125,-0.02933359146118164,0.9740791320800781,0.3594348430633545
1772881500576716000,4.676716064453125,-0.01869964599609375,1.2987937927246094,0.16254711151123047
1772881500586716000,4.6867158203125,-0.0047206878662109375,1.304553508758545,-0.10666370391845703
1772881500596716000,4.696716064453125,-0.13086462020874023,1.280564308166504,-0.5366084575653076
1772881500606716000,4.7067158203125,-0.2560739517211914,1.344836711883545,-1.0197944641113281
1772881500616716000,4.716716064453125,-0.15932035446166992,1.4920167922973633,-1.2622244358062744
1772881500626716000,4.7267158203125,-0.1289377212524414,1.7278356552124023,-1.4845850467681885
1772881500636716000,4.736716064453125,0.10825109481811523,1.998262882232666,-1.5477204322814941
1772881500646716000,4.7467158203125,0.4054145812988281,2.0644164085388184,-1.4564290046691895
1772881500656716000,4.756716064453125,0.5184526443481445,1.864260196685791,-1.153108835220337
1772881500666716000,4.7667158203125,0.5210490226745605,1.3752107620239258,-0.698554277420044
1772881500676716000,4.776716064453125,0.26731204986572266,0.8576874732971191,-0.6191105842590332
1772881500686716000,4.7867158203125,0.0992121696472168,0.5981717109680176,-0.5424635410308838
1772881500696716000,4.796716064453125,-0.067169189453125,0.26248598098754883,-0.5832703113555908
1772881500706716000,4.8067158203125,-0.40105724334716797,-0.0488433837890625,-0.6789288520812988
1772881500716716000,4.816716064453125,-0.42185544967651367,-0.32846927642822266,-0.7342233657836914
1772881500726716000,4.8267158203125,-0.3215470314025879,-0.6366238594055176,-0.4008152484893799
1772881500736716000,4.836716064453125,-0.21618938446044922,-1.02711820602417,0.13574790954589844
1772881500746716000,4.8467158203125,-0.024865150451660156,-1.5502123832702637,0.6165318489074707
1772881500756716000,4.856716064453125,0.36905813217163086,-1.8516645431518555,1.035005807876587
1772881500766716000,4.8667158203125,-0.5229401588439941,-2.013688564300537,1.0663697719573975
1772881500776716000,4.876716064453125,-1.5976691246032715,-2.121612071990967,0.7944321632385254
1772881500786716000,4.8867158203125,-2.421602725982666,-2.240403652191162,0.22449231147766113
1772881500796716000,4.896716064453125,-3.085643768310547,-2.2745203971862793,-0.33317065238952637
1772881500806716000,4.9067158203125,-3.0172770023345947,-2.280850410461426,-0.5875153541564941
1772881500816716000,4.916716064453125,-2.3303465843200684,-2.1170716285705566,-0.6423945426940918
1772881500826716000,4.9267158203125,-1.6739230155944824,-1.6381430625915527,-0.5593166351318359
1772881500836716000,4.936716064453125,-1.0827312469482422,-0.9853148460388184,-0.6677014827728271
1772881500846716000,4.9467158203125,-0.7841415405273438,-0.4345259666442871,-1.0240199565887451
1772881500856716000,4.956716064453125,-0.7958731651306152,0.031047344207763672,-1.465752124786377
1772881500866716000,4.9667158203125,-1.0127005577087402,0.518916130065918,-1.9336750507354736
1772881500876716000,4.976716064453125,-1.1098508834838867,0.9160523414611816,-2.0432658195495605
1772881500886716000,4.9867158203125,-0.8930888175964355,1.0503106117248535,-1.9039266109466553
1772881500896716000,4.996716064453125,-0.5061049461364746,1.1003656387329102,-1.7386376857757568
1772881500906716000,5.0067158203125,-0.04838752746582031,1.1370530128479004,-1.6342153549194336
1772881500916716000,5.016716064453125,0.2290782928466797,1.1187705993652344,-1.5863773822784424
1772881500926716000,5.0267158203125,0.19983243942260742,1.0557441711425781,-1.456669569015503
1772881500936716000,5.036716064453125,-0.02532672882080078,0.9510126113891602,-1.2478175163269043
1772881500946716000,5.0467158203125,-0.4471755027770996,0.8416781425476074,-1.0741229057312012
1772881500956716000,5.056716064453125,-0.9621171951293945,0.831047534942627,-1.0159111022949219
1772881500966716000,5.0667158203125,-1.2284741401672363,0.874180793762207,-1.0888087749481201
1772881500976716000,5.076716064453125,-0.9770064353942871,0.7741780281066895,-1.0306947231292725
1772881500986716000,5.0867158203125,-0.4448213577270508,0.7999019622802734,-1.3417911529541016
1772881500996716000,5.096716064453125,0.10859346389770508,0.7417511940002441,-1.6204326152801514
1772881501006716000,5.1067158203125,0.4949922561645508,0.8909058570861816,-1.758638620376587
1772881501016716000,5.116716064453125,0.645421028137207,0.9112238883972168,-1.7838153839111328
1772881501026716000,5.1267158203125,0.7785954475402832,0.5138297080993652,-1.6092324256896973
1772881501036716000,5.136716064453125,0.7223601341247559,0.005774497985839844,-1.2649080753326416
1772881501046716000,5.1467158203125,0.5933294296264648,-0.3605842590332031,-0.7583193778991699
1772881501056716000,5.156716064453125,0.6302833557128906,-0.8120999336242676,-0.7530219554901123
1772881501066716000,5.1667158203125,0.9418244361877441,-1.3510589599609375,-0.4411473274230957
1772881501076716000,5.176716064453125,0.9677548408508301,-1.694486141204834,-0.10131394863128662
1772881501086716000,5.1867158203125,0.7411465644836426,-1.9199409484863281,-0.14087402820587158
1772881501096716000,5.196716064453125,0.3356337547302246,-1.9692363739013672,-0.5249959230422974
1772881501106716000,5.2067158203125,-0.0021734237670898438,-1.9986004829406738,-0.832625150680542
1772881501116716000,5.216716064453125,-0.023655414581298828,-1.858466625213623,-0.8479468822479248
1772881501126716000,5.2267158203125,0.17325258255004883,-1.5131077766418457,-0.7115211486816406
1772881501136716000,5.236716064453125,0.5185127258300781,-0.8758783340454102,-0.7339469194412231
1772881501146716000,5.2467158203125,0.9220991134643555,-0.3051891326904297,-0.6755374670028687
1772881501156716000,5.256716064453125,1.2664122581481934,0.0747227668762207,-0.7592278718948364
1772881501166716000,5.2667158203125,1.2586984634399414,0.18422842025756836,-0.7117705345153809
1772881501176716000,5.276716064453125,0.7679986953735352,-0.14319944381713867,-0.3074986934661865
1772881501186716000,5.2867158203125,-0.5746712684631348,-0.7414207458496094,0.5231003761291504
1772881501196716000,5.296716064453125,-2.5473437309265137,-0.9285707473754883,0.7800745964050293
1772881501206716000,5.3067158203125,-3.304429054260254,-1.1460318565368652,0.06728923320770264
1772881501216716000,5.316716064453125,-2.924409866333008,-1.2359795570373535,-0.8325021266937256
1772881501226716000,5.3267158203125,-2.23895263671875,-1.120187759399414,-1.2730107307434082
1772881501236716000,5.336716064453125,-1.679457187652588,-0.8212733268737793,-1.3699572086334229
1772881501246716000,5.3467158203125,-1.2751917839050293,-0.5013666152954102,-1.535091519355774
1772881501256716000,5.356716064453125,-0.809171199798584,-0.32355546951293945,-1.6160228252410889
1772881501266716000,5.3667158203125,-0.42249107360839844,-0.2909860610961914,-1.6232209205627441
1772881501276716000,5.376716064453125,-0.2319502830505371,-0.3359718322753906,-1.406489610671997
1772881501286716000,5.3867158203125,-0.10390138626098633,-0.4748969078063965,-1.106339454650879
1772881501296716000,5.396716064453125,-0.007082462310791016,-0.7077775001525879,-0.7010219693183899
1772881501306716000,5.4067158203125,0.028766155242919922,-0.8772439956665039,0.01343446969985962
1772881501316716000,5.416716064453125,-0.09406566619873047,-1.0849628448486328,0.7258490324020386
1772881501326716000,5.4267158203125,-0.13270092010498047,-1.065554141998291,0.969849705696106
1772881501336716000,5.436716064453125,-0.23031234741210938,-0.90460205078125,1.0303950309753418
1772881501346716000,5.4467158203125,-0.46521520614624023,-0.6073870658874512,0.8464754223823547
1772881501356716000,5.456716064453125,-0.5399532318115234,-0.25714778900146484,0.2462548017501831
1772881501366716000,5.4667158203125,-0.4349985122680664,0.12357807159423828,-0.3906335234642029
1772881501376716000,5.476716064453125,-0.24624109268188477,0.43970251083374023,-0.7246657013893127
1772881501386716000,5.4867158203125,-0.10570240020751953,0.6423063278198242,-0.8619756102561951
1772881501396716000,5.496716064453125,-0.12108564376831055,0.7398076057434082,-0.9227685332298279
1772881501406716000,5.5067158203125,-0.11392354965209961,0.7865285873413086,-0.8923038244247437
1772881501416716000,5.516716064453125,-0.1040186882019043,0.8170361518859863,-0.7783246040344238
1772881501426716000,5.5267158203125,-0.14361810684204102,0.7512598037719727,-0.5331860184669495
1772881501436716000,5.536716064453125,-0.15652990341186523,0.7515645027160645,-0.414356529712677
1772881501446716000,5.5467158203125,-0.23476362228393555,0.841193675994873,-0.4277360439300537
1772881501456716000,5.556716064453125,-0.2245020866394043,0.9065451622009277,-0.5278772115707397
1772881501466716000,5.5667158203125,-0.2571101188659668,0.9766783714294434,-0.9099633097648621
1772881501476716000,5.576716064453125,-0.31835412979125977,0.7868218421936035,-1.2754517793655396
1772881501486716000,5.5867158203125,-0.5832071304321289,0.34435319900512695,-1.4913592338562012
1772881501496716000,5.596716064453125,-1.1426286697387695,-0.2569122314453125,-1.5277910232543945
1772881501506716000,5.6067158203125,-1.6778688430786133,-0.8535776138305664,-1.3085582256317139
1772881501516716000,5.616716064453125,-1.91363525390625,-1.3213262557983398,-0.9369228482246399
1772881501526716000,5.6267158203125,-1.9566822052001953,-1.3541979789733887,-0.5362634062767029
1772881501536716000,5.636716064453125,-1.8773541450500488,-1.1340937614440918,-0.23729807138442993
1772881501546716000,5.6467158203125,-1.682544231414795,-0.7478594779968262,-0.1656985878944397
1772881501556716000,5.656716064453125,-1.3046398162841797,-0.18115901947021484,-0.62059086561203
1772881501566716000,5.6667158203125,-0.5865721702575684,0.36469125747680664,-1.2014141082763672
1772881501576716000,5.676716064453125,0.1136775016784668,0.6765079498291016,-1.5690319538116455
1772881501586716000,5.6867158203125,0.06964111328125,0.7122159004211426,-1.6539676189422607
1772881501596716000,5.696716064453125,-0.5366706848144531,0.4958796501159668,-1.4207322597503662
1772881501606716000,5.7067158203125,-1.2517523765563965,-0.19766998291015625,-0.7308374643325806
1772881501616716000,5.716716064453125,-1.5626096725463867,-0.9975228309631348,0.11792439222335815
1772881501626716000,5.7267158203125,-2.1618027687072754,-1.707451343536377,0.6577232480049133
1772881501636716000,5.736716064453125,-2.469381809234619,-2.3215017318725586,0.9603459239006042
1772881501646716000,5.7467158203125,-2.8445277214050293,-2.0048413276672363,0.5994303822517395
1772881501656716000,5.756716064453125,-3.2767419815063477,-1.202409267425537,-0.34275996685028076
1772881501666716000,5.7667158203125,-3.195246458053589,-0.5810527801513672,-1.4514296054840088
1772881501676716000,5.776716064453125,-2.7296700477600098,-0.01990032196044922,-2.5808115005493164
1772881501686716000,5.7867158203125,-2.5336360931396484,-0.05967569351196289,-3.124466896057129
1772881501696716000,5.796716064453125,-2.7693581581115723,-0.5327348709106445,-3.1572351455688477
1772881501706716000,5.8067158203125,-3.2000913619995117,-1.080322265625,-2.837416172027588
1772881501716716000,5.816716064453125,-3.449153423309326,-1.6907901763916016,-2.5789241790771484
1772881501726716000,5.8267158203125,-3.6622731685638428,-2.2536492347717285,-2.733018159866333
1772881501736716000,5.836716064453125,-3.68988037109375,-2.5466809272766113,-2.9499053955078125
1772881501746716000,5.8467158203125,-3.0395028591156006,-2.6276140213012695,-2.956319808959961
1772881501756716000,5.856716064453125,-1.8795864582061768,-2.139376640319824,-2.8295788764953613
1772881501766716000,5.8667158203125,0.2630901336669922,-1.2111644744873047,-3.0344533920288086
1772881501776716000,5.876716064453125,2.5304160118103027,0.16273880004882812,-2.977675437927246
1772881501786716000,5.8867158203125,3.934833526611328,2.170034408569336,-2.222451686859131
1772881501796716000,5.896716064453125,5.96436882019043,2.30130672454834,-1.1282743215560913
1772881501806716000,5.9067158203125,8.455633163452148,1.2231779098510742,-0.04129683971405029
1772881501816716000,5.916716064453125,9.226146697998047,-0.3177986145019531,0.9810197353363037
1772881501826716000,5.9267158203125,7.290848255157471,-0.6657304763793945,1.4633539915084839
1772881501836716000,5.936716064453125,3.7516942024230957,-0.49112796783447266,1.5819822549819946
1772881501846716000,5.9467158203125,0.5880961418151855,-0.8636255264282227,1.2019742727279663
1772881501856716000,5.956716064453125,-0.7308163642883301,-1.4240055084228516,0.2196216583251953
1772881501866716000,5.9667158203125,-0.5474772453308105,-1.0926475524902344,-0.7429481744766235
1772881501876716000,5.976716064453125,0.03133106231689453,-0.39624786376953125,-1.037295937538147
1772881501886716000,5.9867158203125,0.3635220527648926,0.16121864318847656,-1.3774135112762451
1772881501896716000,5.996716064453125,0.838111400604248,0.3560667037963867,-1.4524762630462646
1772881501906716000,6.0067158203125,1.1761717796325684,0.46116065979003906,-1.3073936700820923
1772881501916716000,6.016716064453125,1.1896014213562012,0.5961456298828125,-1.2357033491134644
1772881501926716000,6.0267158203125,0.9323058128356934,0.9740781784057617,-0.9882653951644897
1772881501936716000,6.036716064453125,0.973721981048584,1.101600170135498,-0.494842529296875
1772881501946716000,6.0467158203125,1.0775079727172852,0.900886058807373,0.019353628158569336
1772881501956716000,6.056716064453125,0.8350591659545898,0.4806652069091797,0.3611564636230469
1772881501966716000,6.0667158203125,0.5752873420715332,-0.39764404296875,1.044496774673462
1772881501976716000,6.076716064453125,0.6710391044616699,-1.4015789031982422,1.7703616619110107
1772881501986716000,6.0867158203125,1.4641761779785156,-2.2055816650390625,2.4665145874023438
1772881501996716000,6.096716064453125,1.4981017112731934,-2.728696823120117,2.6400671005249023
1772881502006716000,6.1067158203125,1.269141674041748,-2.5579605102539062,1.8955140113830566
1772881502016716000,6.116716064453125,1.1074347496032715,-1.9228887557983398,1.0202157497406006
1772881502026716000,6.1267158203125,0.4444255828857422,-1.482187271118164,0.3415624797344208
1772881502036716000,6.136716064453125,0.5437355041503906,-1.3085136413574219,-0.31429362297058105
1772881502046716000,6.1467158203125,0.8545236587524414,-1.328883171081543,-0.6997113823890686
1772881502056716000,6.156716064453125,1.5013351440429688,-1.3914899826049805,-1.079113483428955
1772881502066716000,6.1667158203125,1.8420114517211914,-1.6939506530761719,-1.1379305124282837
1772881502076716000,6.176716064453125,2.201265811920166,-1.9675531387329102,-0.8767483234405518
1772881502086716000,6.1867158203125,2.103085517883301,-2.4974193572998047,-0.1330028772354126
1772881502096716000,6.196716064453125,1.2587528228759766,-2.839876174926758,0.2128305733203888
1772881502106716000,6.2067158203125,0.03586387634277344,-3.011180877685547,-0.14207759499549866
1772881502116716000,6.216716064453125,-0.2839641571044922,-3.0212297439575195,-0.8739831447601318
1772881502126716000,6.2267158203125,0.018471717834472656,-3.064663887023926,-2.212921142578125
1772881502136716000,6.236716064453125,1.0758657455444336,-3.2921524047851562,-3.178875684738159
1772881502146716000,6.2467158203125,0.5262703895568848,-3.0043020248413086,-3.8691799640655518
1772881502156716000,6.256716064453125,0.5129303932189941,-1.6978740692138672,-5.0133442878723145
1772881502166716000,6.2667158203125,1.1550664901733398,-0.37599658966064453,-6.176021575927734
1772881502176716000,6.276716064453125,1.4473800659179688,0.5658473968505859,-6.837599754333496
1772881502186716000,6.2867158203125,1.4757137298583984,1.3585095405578613,-6.240730285644531
1772881502196716000,6.296716064453125,1.394136905670166,2.2883081436157227,-4.557455062866211
1772881502206716000,6.3067158203125,1.4695544242858887,2.9328174591064453,-2.3706865310668945
1772881502216716000,6.316716064453125,1.7084712982177734,2.4581165313720703,0.010865241289138794
1772881502226716000,6.3267158203125,1.3397560119628906,2.0156497955322266,1.4506540298461914
1772881502236716000,6.336716064453125,0.783726692199707,1.7396211624145508,2.1746537685394287
1772881502246716000,6.3467158203125,0.5503602027893066,1.1985392570495605,2.4104509353637695
1772881502256716000,6.356716064453125,0.3021512031555176,0.7307157516479492,2.487222909927368
1772881502266716000,6.3667158203125,0.13242673873901367,0.3430500030517578,2.328108787536621
1772881502276716000,6.376716064453125,0.7859597206115723,0.3604001998901367,1.8044805526733398
1772881502286716000,6.3867158203125,0.6680026054382324,0.6783485412597656,0.9660626649856567
1772881502296716000,6.396716064453125,-0.0726628303527832,0.6101284027099609,-0.0017167925834655762
1772881502306716000,6.4067158203125,-0.7569022178649902,0.8828015327453613,-0.43120843172073364
1772881502316716000,6.416716064453125,-0.8336935043334961,0.922828197479248,-0.3456954061985016
1772881502326716000,6.4267158203125,-0.1525859832763672,1.118016242980957,-0.5806489586830139
1772881502336716000,6.436716064453125,0.5387821197509766,1.108983039855957,-0.49670085310935974
1772881502346716000,6.4467158203125,0.9239306449890137,1.5375118255615234,0.06646138429641724
1772881502356716000,6.456716064453125,0.6043963432312012,2.1476669311523438,0.7045767307281494
1772881502366716000,6.4667158203125,0.5418872833251953,3.197535514831543,0.7125918865203857
1772881502376716000,6.476716064453125,0.3684558868408203,3.4920754432678223,1.0295155048370361
1772881502386716000,6.4867158203125,-0.11681222915649414,2.9459614753723145,1.0793546438217163
1772881502396716000,6.496716064453125,-0.4222588539123535,2.366299629211426,0.7289196252822876
1772881502406716000,6.5067158203125,-0.40413856506347656,1.5208258628845215,0.8421685695648193
1772881502416716000,6.516716064453125,-0.5129585266113281,1.5607175827026367,0.7607777118682861
1772881502426716000,6.5267158203125,-0.4506659507751465,3.3192524909973145,0.21441695094108582
1772881502436716000,6.536716064453125,-0.3540945053100586,4.083222389221191,0.6491006016731262
1772881502446716000,6.5467158203125,-0.6661210060119629,3.5538740158081055,0.7246270179748535
1772881502456716000,6.556716064453125,-0.7564058303833008,3.6291046142578125,0.42743033170700073
1772881502466716000,6.5667158203125,-0.7899770736694336,2.9937667846679688,0.48155319690704346
1772881502476716000,6.576716064453125,-0.818051815032959,1.917287826538086,0.5694297552108765
1772881502486716000,6.5867158203125,-0.7423033714294434,1.1589512825012207,0.34781044721603394
1772881502496716000,6.596716064453125,-0.8197336196899414,0.8683710098266602,0.0720599889755249
1772881502506716000,6.6067158203125,-0.7837214469909668,0.5056552886962891,-0.4278196692466736
1772881502516716000,6.616716064453125,-0.15097475051879883,1.2357454299926758,-0.15863442420959473
1772881502526716000,6.6267158203125,0.37772369384765625,1.639878749847412,-0.01877760887145996
1772881502536716000,6.636716064453125,-0.05749654769897461,1.3846426010131836,0.3334707021713257
1772881502546716000,6.6467158203125,-0.0021820068359375,1.3274102210998535,0.7898052930831909
1772881502556716000,6.656716064453125,0.34786033630371094,1.3184175491333008,0.552702784538269
1772881502566716000,6.6667158203125,0.5984764099121094,0.916008472442627,0.05780661106109619
1772881502576716000,6.676716064453125,0.8766813278198242,0.6858978271484375,-0.34875309467315674
1772881502586716000,6.6867158203125,0.6342277526855469,0.007495880126953125,-0.3977243900299072
1772881502596716000,6.696716064453125,0.341890811920166,-0.3484764099121094,-0.7792891263961792
1772881502606716000,6.7067158203125,0.29074764251708984,-1.024399757385254,-1.6745355129241943
1772881502616716000,6.716716064453125,0.7693843841552734,-1.463414192199707,-2.457444190979004
1772881502626716000,6.7267158203125,0.9046468734741211,-1.0151357650756836,-2.568364143371582
1772881502636716000,6.736716064453125,0.9346857070922852,-0.18048763275146484,-2.6996655464172363
1772881502646716000,6.7467158203125,0.8908982276916504,0.24315738677978516,-2.6125540733337402
1772881502656716000,6.756716064453125,0.25301361083984375,0.1853022575378418,-2.1455814838409424
1772881502666716000,6.7667158203125,0.3607473373413086,-0.7883858680725098,-2.032496213912964
1772881502676716000,6.776716064453125,1.166489601135254,-2.0335521697998047,-2.3751964569091797
1772881502686716000,6.7867158203125,0.49739980697631836,-2.4884514808654785,-2.395076274871826
1772881502696716000,6.796716064453125,-0.30642271041870117,-3.0461812019348145,-2.1903395652770996
1772881502706716000,6.8067158203125,-1.8721790313720703,-3.097813606262207,-1.66913640499115
1772881502716716000,6.816716064453125,-2.0853805541992188,-2.794757843017578,-0.9556514620780945
1772881502726716000,6.8267158203125,-1.537855625152588,-2.309288501739502,-0.9075744152069092
1772881502736716000,6.836716064453125,-1.163041114807129,-1.7991290092468262,-1.13102388381958
1772881502746716000,6.8467158203125,-0.9748640060424805,-1.167497158050537,-1.3732006549835205
1772881502756716000,6.856716064453125,-0.6221976280212402,-0.82720947265625,-1.2934257984161377
1772881502766716000,6.8667158203125,-0.17377185821533203,-0.5456061363220215,-0.8232905268669128
1772881502776716000,6.876716064453125,0.3879432678222656,-0.34209537506103516,-0.15045535564422607
1772881502786716000,6.8867158203125,1.091352939605713,-0.21952104568481445,0.5179951786994934
1772881502796716000,6.896716064453125,1.400343418121338,-0.07375478744506836,1.09297513961792
1772881502806716000,6.9067158203125,1.2795658111572266,0.3044891357421875,1.3307595252990723
1772881502816716000,6.916716064453125,0.789154052734375,0.640040397644043,1.2693750858306885
1772881502826716000,6.9267158203125,0.07184743881225586,0.5780210494995117,0.9761180877685547
1772881502836716000,6.936716064453125,-0.6088781356811523,0.18395709991455078,0.41975951194763184
1772881502846716000,6.9467158203125,-1.526597499847412,0.4897918701171875,-0.36187639832496643
1772881502856716000,6.956716064453125,-1.992293357849121,0.7871999740600586,-0.801880955696106
1772881502866716000,6.9667158203125,-1.8525948524475098,1.1227312088012695,-0.7453113794326782
1772881502876716000,6.976716064453125,-1.5781359672546387,1.4074063301086426,-0.4761390686035156
1772881502886716000,6.9867158203125,-1.0963973999023438,1.6183795928955078,-0.3273455798625946
1772881502896716000,6.996716064453125,-0.8230137825012207,1.5272226333618164,-0.2532504200935364
1772881502906716000,7.0067158203125,-0.37820911407470703,1.6293187141418457,-0.10725037753582001
1772881502916716000,7.016716064453125,0.07481193542480469,1.5859155654907227,0.25169509649276733
1772881502926716000,7.0267158203125,0.580390453338623,1.2444448471069336,0.6619068384170532
1772881502936716000,7.036716064453125,1.0071287155151367,0.8762192726135254,0.9444591999053955
1772881502946716000,7.0467158203125,1.139897346496582,0.2430868148803711,0.905717134475708
1772881502956716000,7.056716064453125,1.2041869163513184,-0.13204193115234375,0.7412523031234741
1772881502966716000,7.0667158203125,1.2080068588256836,-0.35686826705932617,0.4507465064525604
1772881502976716000,7.076716064453125,1.1343941688537598,-0.5715670585632324,-0.062224507331848145
1772881502986716000,7.0867158203125,0.7910571098327637,-0.678586483001709,-0.48264646530151367
1772881502996716000,7.096716064453125,0.25111865997314453,-0.8465180397033691,-0.840430736541748
1772881503006716000,7.1067158203125,-0.24082660675048828,-0.8964176177978516,-1.0071545839309692
1772881503016716000,7.116716064453125,-0.6599197387695312,-1.0406603813171387,-1.049030065536499
1772881503026716000,7.1267158203125,-0.8810086250305176,-1.0216326713562012,-1.0434919595718384
1772881503036716000,7.136716064453125,-0.9173641204833984,-0.906710147857666,-0.881557285785675
1772881503046716000,7.1467158203125,-0.8647441864013672,-0.793755054473877,-0.7263369560241699
1772881503056716000,7.156716064453125,-0.8646817207336426,-0.6517601013183594,-0.5503665208816528
1772881503066716000,7.1667158203125,-0.7792510986328125,-0.5509114265441895,-0.2055913209915161
1772881503076716000,7.176716064453125,-0.8390755653381348,-0.44910144805908203,0.05681765079498291
1772881503086716000,7.1867158203125,-0.8755207061767578,-0.22868013381958008,0.252488911151886
1772881503096716000,7.196716064453125,-0.7886614799499512,0.019992828369140625,0.35742032527923584
1772881503106716000,7.2067158203125,-0.698150634765625,0.16244840621948242,0.4110223054885864
1772881503116716000,7.216716064453125,-0.6517148017883301,0.3015470504760742,0.23025882244110107
1772881503126716000,7.2267158203125,-0.7012906074523926,0.3273439407348633,0.03635752201080322
1772881503136716000,7.236716064453125,-0.822260856628418,0.3027186393737793,-0.13144338130950928
1772881503146716000,7.2467158203125,-0.8651509284973145,0.4631838798522949,-0.14574265480041504
1772881503156716000,7.256716064453125,-0.9502978324890137,0.41762828826904297,-0.16259431838989258
1772881503166716000,7.2667158203125,-0.7514133453369141,0.5002408027648926,-0.3271714448928833
1772881503176716000,7.276716064453125,-0.582280158996582,0.5354375839233398,-0.2641756534576416
1772881503186716000,7.2867158203125,-0.42680835723876953,0.6096024513244629,-0.25695717334747314
1772881503196716000,7.296716064453125,-0.2133479118347168,0.34797000885009766,-0.18474972248077393
1772881503206716000,7.3067158203125,-0.14460182189941406,0.20830392837524414,-0.1678617000579834
1772881503216716000,7.316716064453125,-0.2473745346069336,0.22076797485351562,-0.11262321472167969
1772881503226716000,7.3267158203125,-0.3081545829772949,0.08404016494750977,-0.09457850456237793
1772881503236716000,7.336716064453125,-0.34487390518188477,0.017362594604492188,-0.17341375350952148
1772881503246716000,7.3467158203125,-0.26700878143310547,-0.07768821716308594,-0.3013664484024048
1772881503256716000,7.356716064453125,-0.12432098388671875,-0.1437540054321289,-0.3581012487411499
1772881503266716000,7.3667158203125,-0.015616416931152344,0.012723922729492188,-0.5535310506820679
1772881503276716000,7.376716064453125,0.1551971435546875,-0.10017967224121094,-0.6655367612838745
1772881503286716000,7.3867158203125,0.4271845817565918,-0.15561294555664062,-0.6883506774902344
1772881503296716000,7.396716064453125,0.08186960220336914,0.1108846664428711,-0.6954611539840698
1772881503306716000,7.4067158203125,0.3506655693054199,-0.05013084411621094,-0.7766240835189819
1772881503316716000,7.416716064453125,0.4308748245239258,0.01860523223876953,-0.7850241661071777
1772881503326716000,7.4267158203125,0.41416263580322266,0.02053356170654297,-0.7422785758972168
1772881503336716000,7.436716064453125,0.4229302406311035,-0.09933948516845703,-0.6853533983230591
1772881503346716000,7.4467158203125,0.33385515213012695,-0.13817214965820312,-0.577324628829956
1772881503356716000,7.456716064453125,0.10169506072998047,-0.30199146270751953,-0.33507490158081055
1772881503366716000,7.4667158203125,-0.01225900650024414,-0.31708621978759766,-0.18896913528442383
1772881503376716000,7.476716064453125,-0.11264467239379883,-0.17801570892333984,-0.06608867645263672
1772881503386716000,7.4867158203125,-0.10966825485229492,-0.029859542846679688,0.018044233322143555
1772881503396716000,7.496716064453125,0.11627626419067383,0.12369060516357422,-0.0612940788269043
1772881503406716000,7.5067158203125,0.15258359909057617,0.04853630065917969,-0.009430408477783203
1772881503416716000,7.516716064453125,0.2994394302368164,0.013953208923339844,-0.08369660377502441
1772881503426716000,7.5267158203125,0.40807247161865234,0.10244083404541016,-0.22576403617858887
1772881503436716000,7.536716064453125,0.12998533248901367,0.07199668884277344,-0.18912267684936523
1772881503446716000,7.5467158203125,0.042685508728027344,0.05243873596191406,-0.3134772777557373
1772881503456716000,7.556716064453125,-0.15661144256591797,0.08185768127441406,-0.4191460609436035
1772881503466716000,7.5667158203125,-0.3534708023071289,0.13616657257080078,-0.5334577560424805
1772881503476716000,7.576716064453125,-0.5443334579467773,0.15150070190429688,-0.608922004699707
1772881503486716000,7.5867158203125,-0.5774998664855957,0.14290523529052734,-0.658806324005127
1772881503496716000,7.596716064453125,-0.6514267921447754,0.23572349548339844,-0.7104158401489258
1772881503506716000,7.6067158203125,-0.5577101707458496,0.2761106491088867,-0.7529044151306152
1772881503516716000,7.616716064453125,-0.24644947052001953,0.37862110137939453,-0.8351240158081055
1772881503526716000,7.6267158203125,-0.09086036682128906,0.21866321563720703,-0.8143136501312256
1772881503536716000,7.636716064453125,0.15822887420654297,-0.11050701141357422,-0.7484164237976074
1772881503546716000,7.6467158203125,0.32328224182128906,-0.28775501251220703,-0.8284263610839844
1772881503556716000,7.656716064453125,0.30754899978637695,-0.3202371597290039,-0.9969794750213623
1772881503566716000,7.6667158203125,0.3363833427429199,-0.6389122009277344,-1.2146720886230469
1772881503576716000,7.676716064453125,0.6026172637939453,-0.7192239761352539,-1.4007136821746826
1772881503586716000,7.6867158203125,0.6621661186218262,-0.8706722259521484,-1.4330034255981445
1772881503596716000,7.696716064453125,0.7924261093139648,-1.0766210556030273,-1.4590518474578857
1772881503606716000,7.7067158203125,0.7988591194152832,-1.0531978607177734,-1.359220266342163
1772881503616716000,7.716716064453125,0.4977540969848633,-0.9582624435424805,-1.3408470153808594
1772881503626716000,7.7267158203125,0.14657878875732422,-0.8418731689453125,-1.1758458614349365
1772881503636716000,7.736716064453125,-0.09869670867919922,-0.5517234802246094,-0.8961198329925537
1772881503646716000,7.7467158203125,-0.1660757064819336,-0.4233531951904297,-0.8681092262268066
1772881503656716000,7.756716064453125,-0.2291259765625,-0.4586629867553711,-0.6837599277496338
1772881503666716000,7.7667158203125,-0.24314260482788086,-0.42421436309814453,-0.5383772850036621
1772881503676716000,7.776716064453125,-0.2652549743652344,-0.13234519958496094,-0.5669760704040527
1772881503686716000,7.7867158203125,-0.3128995895385742,0.0602264404296875,-0.686467170715332
1772881503696716000,7.796716064453125,-0.162139892578125,0.1985149383544922,-0.6026504039764404
1772881503706716000,7.8067158203125,0.18814659118652344,0.30097389221191406,-0.7040233612060547
1772881503716716000,7.816716064453125,0.385955810546875,0.33957767486572266,-0.7210030555725098
1772881503726716000,7.8267158203125,0.5592327117919922,0.3688468933105469,-0.5563056468963623
1772881503736716000,7.836716064453125,0.5679945945739746,0.33535099029541016,-0.5593926906585693
1772881503746716000,7.8467158203125,0.466886043548584,0.2696094512939453,-0.5164244174957275
1772881503756716000,7.856716064453125,0.36843347549438477,0.2256479263305664,-0.2189953327178955
1772881503766716000,7.8667158203125,0.37114834785461426,0.1845865249633789,-0.2562394142150879
1772881503776716000,7.876716064453125,0.3938896656036377,0.08557605743408203,-0.12557291984558105
1772881503786716000,7.8867158203125,0.7749991416931152,-0.14801788330078125,-0.2677774429321289
1772881503796716000,7.896716064453125,1.0936992168426514,-0.1588430404663086,-0.3024635314941406
1772881503806716000,7.9067158203125,1.2441174983978271,-0.10961532592773438,-0.46320199966430664
1772881503816716000,7.916716064453125,1.314809799194336,-0.049864768981933594,-0.4486236572265625
1772881503826716000,7.9267158203125,1.0728986263275146,-0.06332206726074219,-0.3140552043914795
1772881503836716000,7.936716064453125,0.6686007976531982,0.08571910858154297,-0.1986675262451172
1772881503846716000,7.9467158203125,0.39903950691223145,0.20352458953857422,-0.06511116027832031
1772881503856716000,7.956716064453125,0.38887929916381836,0.3517627716064453,-0.2018425464630127
1772881503866716000,7.9667158203125,0.5441653728485107,0.4814949035644531,-0.3600742816925049
1772881503876716000,7.976716064453125,0.7295184135437012,0.45395946502685547,-0.3213033676147461
1772881503886716000,7.9867158203125,0.7202386856079102,0.28529834747314453,-0.3185558319091797
1772881503896716000,7.996716064453125,0.6254599094390869,0.26276683807373047,-0.4539365768432617
1772881503906716000,8.0067158203125,0.618217945098877,0.25118398666381836,-0.35473012924194336
1772881503916716000,8.016716064453124,0.43314695358276367,0.20630550384521484,-0.09308481216430664
1772881503926716000,8.0267158203125,0.2781856060028076,0.2836136817932129,0.14173412322998047
1772881503936716000,8.036716064453126,0.2331383228302002,0.38278913497924805,0.14981555938720703
1772881503946716000,8.0467158203125,0.3775932788848877,0.3841705322265625,0.04676342010498047
1772881503956716000,8.056716064453125,0.37868642807006836,0.3647770881652832,-0.07147836685180664
1772881503966716000,8.0667158203125,0.28028106689453125,0.282989501953125,0.13388800621032715
1772881503976716000,8.076716064453125,0.2265939712524414,0.38570499420166016,0.06730175018310547
1772881503986716000,8.0867158203125,0.4430677890777588,0.3498506546020508,0.06430530548095703
1772881503996716000,8.096716064453124,0.6043586730957031,0.2478494644165039,0.24515295028686523
1772881504006716000,8.1067158203125,0.6649677753448486,0.2428436279296875,0.3754568099975586
1772881504016716000,8.116716064453126,0.5545623302459717,0.2830677032470703,0.55029296875
1772881504026716000,8.1267158203125,0.4180164337158203,0.34404563903808594,0.6137609481811523
1772881504036716000,8.136716064453125,0.3702571392059326,0.4059023857116699,0.539985179901123
1772881504046716000,8.1467158203125,0.3903970718383789,0.43614673614501953,0.4580521583557129
1772881504056716000,8.156716064453125,0.3540153503417969,0.4189596176147461,0.4101119041442871
1772881504066716000,8.1667158203125,0.26017189025878906,0.3897066116333008,0.37026405334472656
1772881504076716000,8.176716064453124,0.25694942474365234,0.3520164489746094,0.31706762313842773
1772881504086716000,8.1867158203125,0.3388810157775879,0.404660701751709,0.2590970993041992
1772881504096716000,8.196716064453126,0.3653550148010254,0.49251556396484375,0.3861997127532959
1772881504106716000,8.2067158203125,0.4303600788116455,0.5921497344970703,0.1529836654663086
1772881504116716000,8.216716064453125,0.5691173076629639,0.547907829284668,-0.026879072189331055
1772881504126716000,8.2267158203125,0.5702359676361084,0.5552215576171875,-0.24534869194030762
1772881504136716000,8.236716064453125,0.44598865509033203,0.500185489654541,-0.35710954666137695
1772881504146716000,8.2467158203125,0.2983841896057129,0.3305225372314453,-0.161545991897583
1772881504156716000,8.256716064453125,0.26869821548461914,0.13672924041748047,0.07987427711486816
1772881504166716000,8.2667158203125,0.25884270668029785,-0.057351112365722656,0.33165860176086426
1772881504176716000,8.276716064453124,0.30188655853271484,-0.06966495513916016,0.43065834045410156
1772881504186716000,8.2867158203125,0.33460450172424316,0.05265235900878906,0.3950045108795166
1772881504196716000,8.296716064453125,0.29663991928100586,0.18532848358154297,0.2685587406158447
1772881504206716000,8.3067158203125,0.2221660614013672,0.29770851135253906,0.03280949592590332
1772881504216716000,8.316716064453125,0.22460031509399414,0.3995208740234375,-0.17608928680419922
1772881504226716000,8.3267158203125,0.2006394863128662,0.47408294677734375,-0.3496086597442627
1772881504236716000,8.336716064453125,0.18289685249328613,0.40549325942993164,-0.42435669898986816
1772881504246716000,8.3467158203125,0.033530473709106445,0.21958160400390625,-0.35538339614868164
1772881504256716000,8.356716064453124,-0.16835856437683105,0.05478477478027344,-0.3014545440673828
1772881504266716000,8.3667158203125,-0.21977734565734863,-0.08436870574951172,-0.15247130393981934
1772881504276716000,8.376716064453126,-0.31561946868896484,-0.10674667358398438,0.018177032470703125
1772881504286716000,8.3867158203125,-0.2887580394744873,-0.008297920227050781,0.13089942932128906
1772881504296716000,8.396716064453125,-0.13177013397216797,0.13665485382080078,0.15150785446166992
1772881504306716000,8.4067158203125,0.06559443473815918,0.14220809936523438,0.17655611038208008
1772881504316716000,8.416716064453125,0.026255130767822266,0.17643356323242188,0.1670246124267578
1772881504326716000,8.4267158203125,-0.046581268310546875,0.12493610382080078,0.2994418144226074
1772881504336716000,8.436716064453124,-0.04147815704345703,0.08626747131347656,0.38215208053588867
1772881504346716000,8.4467158203125,-0.031876564025878906,0.05566883087158203,0.412642240524292
1772881504356716000,8.456716064453126,0.09119105339050293,0.20453929901123047,0.2817411422729492
1772881504366716000,8.4667158203125,0.1550440788269043,0.18844127655029297,0.1306302547454834
1772881504376716000,8.476716064453125,0.001705169677734375,0.06470775604248047,-0.002337217330932617
1772881504386716000,8.4867158203125,-0.1353456974029541,-0.15524959564208984,-0.040128231048583984
1772881504396716000,8.496716064453125,-0.20234370231628418,-0.3160438537597656,-0.003362417221069336
1772881504406716000,8.5067158203125,-0.23912310600280762,-0.39778995513916016,0.02967095375061035
1772881504416716000,8.516716064453124,-0.2870347499847412,-0.27051544189453125,-0.11857748031616211
1772881504426716000,8.5267158203125,-0.2045915126800537,-0.3590812683105469,-0.17544031143188477
1772881504436716000,8.536716064453126,-0.06769728660583496,-0.6006813049316406,-0.2180936336517334
1772881504446716000,8.5467158203125,-0.03196144104003906,-0.7186241149902344,-0.30992865562438965
1772881504456716000,8.556716064453125,-0.22878551483154297,-0.9063930511474609,-0.2654910087585449
1772881504466716000,8.5667158203125,-0.4947230815887451,-0.9130830764770508,-0.2531101703643799
1772881504476716000,8.576716064453125,-0.6936235427856445,-0.8682260513305664,-0.5332634449005127
1772881504486716000,8.5867158203125,-0.6661381721496582,-0.6167201995849609,-0.7407712936401367
1772881504496716000,8.596716064453124,-0.7376506328582764,-0.5496940612792969,-0.615875244140625
1772881504506716000,8.6067158203125,-0.5873467922210693,-0.39691734313964844,-0.6551663875579834
1772881504516716000,8.616716064453126,-0.27988576889038086,-0.36441612243652344,-0.9101364612579346
1772881504526716000,8.6267158203125,-0.08223128318786621,-0.3252382278442383,-1.1623401641845703
1772881504536716000,8.636716064453125,-0.08735346794128418,-0.40372371673583984,-1.2070560455322266
1772881504546716000,8.6467158203125,-0.027444839477539062,-0.3697223663330078,-1.166383981704712
1772881504556716000,8.656716064453125,-0.017181873321533203,-0.3911113739013672,-1.1217904090881348
1772881504566716000,8.6667158203125,0.028522968292236328,-0.3069925308227539,-1.0189335346221924
1772881504576716000,8.676716064453124,-0.017468929290771484,-0.15584087371826172,-0.8171734809875488
1772881504586716000,8.6867158203125,-0.2397294044494629,-0.036307334899902344,-0.5632755756378174
1772881504596716000,8.696716064453126,-0.4573335647583008,-0.07336902618408203,-0.27399706840515137
1772881504606716000,8.7067158203125,-0.44634199142456055,-0.32018470764160156,0.06797456741333008
1772881504616716000,8.716716064453125,-0.36795616149902344,-0.3977518081665039,-0.10513949394226074
1772881504626716000,8.7267158203125,-0.34904050827026367,-0.30495738983154297,-0.4598860740661621
1772881504636716000,8.736716064453125,-0.4804530143737793,-0.19452953338623047,-0.6681249141693115
1772881504646716000,8.7467158203125,-0.49576759338378906,-0.0305023193359375,-0.5950732231140137
1772881504656716000,8.756716064453125,-0.5942864418029785,-0.01584148406982422,-0.4873373508453369
1772881504666716000,8.7667158203125,-0.6173839569091797,-0.07621192932128906,-0.48008084297180176
1772881504676716000,8.776716064453124,-0.5970449447631836,-0.13228130340576172,-0.5588574409484863
1772881504686716000,8.7867158203125,-0.6790037155151367,-0.02586078643798828,-0.4802060127258301
1772881504696716000,8.796716064453125,-0.6824727058410645,0.17649364471435547,-0.36218714714050293
1772881504706716000,8.8067158203125,-0.5272040367126465,0.06248188018798828,-0.33617734909057617
1772881504716716000,8.816716064453125,-0.5472326278686523,0.041751861572265625,-0.5066919326782227
1772881504726716000,8.8267158203125,-0.5906953811645508,0.04921245574951172,-0.4639608860015869
1772881504736716000,8.836716064453125,-0.3608574867248535,0.11255836486816406,-0.4271070957183838
1772881504746716000,8.8467158203125,0.017148971557617188,-0.08230972290039062,-0.4522581100463867
1772881504756716000,8.856716064453124,0.09580707550048828,-0.07576370239257812,-0.3435375690460205
1772881504766716000,8.8667158203125,-0.026732444763183594,-0.1294565200805664,-0.35869264602661133
1772881504776716000,8.876716064453126,-0.3135204315185547,-0.49215221405029297,-0.581676721572876
1772881504786716000,8.8867158203125,-0.4157395362854004,-0.551051139831543,-0.6041551828384399
1772881504796716000,8.896716064453125,-0.4026923179626465,-0.4766092300415039,-0.48968517780303955
1772881504806716000,8.9067158203125,-0.3067817687988281,-0.34452056884765625,-0.4662032127380371
1772881504816716000,8.916716064453125,-0.04346466064453125,-0.40049266815185547,-0.5061089992523193
1772881504826716000,8.9267158203125,0.15766334533691406,-0.3809242248535156,-0.5818426609039307
1772881504836716000,8.936716064453124,0.19506454467773438,-0.4353208541870117,-0.5027440786361694
1772881504846716000,8.9467158203125,0.3388957977294922,-0.6538772583007812,-0.2552591562271118
1772881504856716000,8.956716064453126,0.20365428924560547,-0.24379634857177734,-0.19036686420440674
1772881504866716000,8.9667158203125,0.14637041091918945,-0.3126697540283203,0.3697221279144287
1772881504876716000,8.976716064453125,0.2641477584838867,-0.1170806884765625,0.4536426067352295
1772881504886716000,8.9867158203125,0.16412639617919922,0.05876350402832031,0.48338019847869873
1772881504896716000,8.996716064453125,-0.06448745727539062,0.288851261138916,0.7267591953277588
1772881504906716000,9.0067158203125,-0.1711292266845703,0.08795356750488281,0.6668334007263184
1772881504916716000,9.016716064453124,-0.23444890975952148,0.17958927154541016,0.5918333530426025
1772881504926716000,9.0267158203125,-0.4480586051940918,0.1270122528076172,0.5129780769348145
1772881504936716000,9.036716064453126,-0.6657695770263672,0.03612661361694336,0.6553705334663391
1772881504946716000,9.0467158203125,-0.6288261413574219,0.37144899368286133,0.7028943300247192
1772881504956716000,9.056716064453125,-0.30118227005004883,0.2048187255859375,0.7693963050842285
1772881504966716000,9.0667158203125,-0.0823054313659668,-0.2550034523010254,0.6619738340377808
1772881504976716000,9.076716064453125,0.16092586517333984,-0.18668603897094727,0.7623277902603149
1772881504986716000,9.0867158203125,0.33263635635375977,-0.07674837112426758,0.7819287776947021
1772881504996716000,9.096716064453124,0.21072721481323242,0.05194664001464844,0.69672691822052
1772881505006716000,9.1067158203125,0.06197786331176758,0.02093791961669922,0.7262354493141174
1772881505016716000,9.116716064453126,-0.36678075790405273,0.11670589447021484,0.5005514621734619
1772881505026716000,9.1267158203125,-0.48572683334350586,0.09463214874267578,0.5193440914154053
1772881505036716000,9.136716064453125,-0.672701358795166,0.037779808044433594,0.6569607257843018
1772881505046716000,9.1467158203125,-0.7162704467773438,-0.04881858825683594,0.6455443501472473
1772881505056716000,9.156716064453125,-0.5388689041137695,0.03236055374145508,0.5419985055923462
1772881505066716000,9.1667158203125,-0.3711123466491699,0.283602237701416,0.7094426155090332
1772881505076716000,9.176716064453124,-0.1926717758178711,0.24724483489990234,0.6061395406723022
1772881505086716000,9.1867158203125,0.005780220031738281,0.21297931671142578,0.7042210102081299
1772881505096716000,9.196716064453126,0.0622711181640625,0.2093672752380371,0.7196284532546997
1772881505106716000,9.2067158203125,0.11261272430419922,0.22776460647583008,0.7211881875991821
1772881505116716000,9.216716064453125,0.0580754280090332,0.3675265312194824,0.7713028788566589
1772881505126716000,9.2267158203125,-0.0018105506896972656,0.2536191940307617,0.8527024984359741
1772881505136716000,9.236716064453125,-0.09190559387207031,0.14846181869506836,0.9241845607757568
1772881505146716000,9.2467158203125,-0.27527523040771484,0.06053590774536133,0.8977963924407959
1772881505156716000,9.256716064453125,-0.3426985740661621,-0.056105613708496094,0.7151535749435425
1772881505166716000,9.2667158203125,-0.40122461318969727,-0.11679220199584961,0.5178321599960327
1772881505176716000,9.276716064453124,-0.6135129928588867,-0.15600013732910156,0.46514058113098145
1772881505186716000,9.2867158203125,-0.6121687889099121,-0.22932815551757812,0.39617955684661865
1772881505196716000,9.296716064453125,-0.6196150779724121,-0.21476078033447266,0.26423490047454834
1772881505206716000,9.3067158203125,-0.6835756301879883,-0.19059467315673828,0.18113017082214355
1772881505216716000,9.316716064453125,-0.6836280822753906,-0.21134519577026367,0.1158667802810669
1772881505226716000,9.3267158203125,-0.688539981842041,-0.016808509826660156,0.3734477758407593
1772881505236716000,9.336716064453125,-0.7534446716308594,0.14150047302246094,0.3054487705230713
1772881505246716000,9.3467158203125,-0.7348284721374512,0.34930849075317383,0.2720766067504883
1772881505256716000,9.356716064453124,-0.7542285919189453,0.4416661262512207,0.2422950267791748
1772881505266716000,9.3667158203125,-0.6895613670349121,0.2550525665283203,0.24821341037750244
1772881505276716000,9.376716064453126,-0.5528440475463867,0.04015970230102539,0.34575510025024414
1772881505286716000,9.3867158203125,-0.39717721939086914,-0.043561458587646484,0.46272242069244385
1772881505296716000,9.396716064453125,-0.26900625228881836,0.06006288528442383,0.48372066020965576
1772881505306716000,9.4067158203125,-0.2913370132446289,0.22690248489379883,0.5134649276733398
1772881505316716000,9.416716064453125,-0.3418726921081543,0.3535761833190918,0.48899710178375244
1772881505326716000,9.4267158203125,-0.4617605209350586,0.25359106063842773,0.4790074825286865
1772881505336716000,9.436716064453124,-0.6114020347595215,0.070556640625,0.4199695587158203
1772881505346716000,9.4467158203125,-0.7029843330383301,-0.11123037338256836,0.3092614412307739
1772881505356716000,9.456716064453126,-0.8618683815002441,-0.25083255767822266,0.1627732515335083
1772881505366716000,9.4667158203125,-0.9490571022033691,-0.3557615280151367,0.014535188674926758
1772881505376716000,9.476716064453125,-0.9541201591491699,-0.26763343811035156,-0.10760116577148438
1772881505386716000,9.4867158203125,-0.8030529022216797,-0.024240970611572266,-0.19745802879333496
1772881505396716000,9.496716064453125,-0.6902580261230469,0.22171878814697266,-0.20162749290466309
1772881505406716000,9.5067158203125,-0.7403464317321777,0.43927669525146484,-0.038548946380615234
1772881505416716000,9.516716064453124,-0.8504128456115723,0.4766082763671875,0.20798993110656738
1772881505426716000,9.5267158203125,-0.8198299407958984,0.3882942199707031,0.32007741928100586
1772881505436716000,9.536716064453126,-0.7897248268127441,0.31380224227905273,0.3178889751434326
1772881505446716000,9.5467158203125,-0.6547703742980957,0.33449363708496094,0.29678845405578613
1772881505456716000,9.556716064453125,-0.4841632843017578,0.1573939323425293,0.17527484893798828
1772881505466716000,9.5667158203125,-0.20148420333862305,0.10077571868896484,0.0971672534942627
1772881505476716000,9.576716064453125,0.035266876220703125,-0.29033708572387695,-0.04189729690551758
1772881505486716000,9.5867158203125,0.3150477409362793,-0.5085029602050781,-0.26109790802001953
1772881505496716000,9.596716064453124,0.43918943405151367,-0.6675677299499512,-0.3085968494415283
1772881505506716000,9.6067158203125,0.4652891159057617,-0.5638575553894043,-0.4587862491607666
1772881505516716000,9.616716064453126,0.38765430450439453,-0.4730796813964844,-0.5631778240203857
1772881505526716000,9.6267158203125,0.0817255973815918,-0.35749053955078125,-0.6482765674591064
1772881505536716000,9.636716064453125,-0.22407007217407227,-0.21584177017211914,-0.6795806884765625
1772881505546716000,9.6467158203125,-0.644315242767334,-0.1403517723083496,-0.6403775215148926
1772881505556716000,9.656716064453125,-0.9977631568908691,-0.1364755630493164,-0.4739251136779785
1772881505566716000,9.6667158203125,-1.2290058135986328,-0.1512737274169922,-0.3517003059387207
1772881505576716000,9.676716064453124,-1.1878156661987305,-0.20041131973266602,-0.13245606422424316
1772881505586716000,9.6867158203125,-1.1156697273254395,-0.1798100471496582,-0.06587743759155273
1772881505596716000,9.696716064453126,-0.9164481163024902,-0.1785874366760254,0.061579227447509766
1772881505606716000,9.7067158203125,-0.5806760787963867,-0.09608316421508789,0.16167545318603516
1772881505616716000,9.716716064453125,-0.2508821487426758,-0.12603330612182617,0.2493577003479004
1772881505626716000,9.7267158203125,0.30445098876953125,-0.11116790771484375,0.18903684616088867
1772881505636716000,9.736716064453125,0.848177433013916,-0.15651321411132812,0.04666638374328613
1772881505646716000,9.7467158203125,1.1480579376220703,-0.25507688522338867,-0.012135744094848633
1772881505656716000,9.756716064453125,1.4090633392333984,-0.6434550285339355,-0.13840985298156738
1772881505666716000,9.7667158203125,1.4306893348693848,-0.9028568267822266,-0.43433189392089844
1772881505676716000,9.776716064453124,1.2567534446716309,-1.181638240814209,-0.6088712215423584
1772881505686716000,9.7867158203125,1.1714186668395996,-1.3206281661987305,-0.6771724224090576
1772881505696716000,9.796716064453125,0.9078612327575684,-1.401869297027588,-0.4991588592529297
1772881505706716000,9.8067158203125,0.5678305625915527,-1.2052955627441406,-0.30870914459228516
1772881505716716000,9.816716064453125,0.28894519805908203,-0.9038758277893066,-0.20991230010986328
1772881505726716000,9.8267158203125,0.21912670135498047,-0.5117745399475098,-0.07198405265808105
1772881505736716000,9.836716064453125,0.25638675689697266,-0.22822856903076172,0.07986283302307129
1772881505746716000,9.8467158203125,0.522186279296875,-0.18824434280395508,0.3325388431549072
1772881505756716000,9.856716064453124,0.7806282043457031,-0.17108392715454102,0.45136189460754395
1772881505766716000,9.8667158203125,0.8883876800537109,-0.10137510299682617,0.489001989364624
1772881505776716000,9.876716064453126,0.804229736328125,-0.045380592346191406,0.40378856658935547
1772881505786716000,9.8867158203125,0.3481745719909668,0.06465911865234375,0.20851802825927734
1772881505796716000,9.896716064453125,-0.12617778778076172,0.20339012145996094,-0.17322802543640137
1772881505806716000,9.9067158203125,-0.42237234115600586,0.32384443283081055,-0.5665502548217773
1772881505816716000,9.916716064453125,-0.4774332046508789,0.41112756729125977,-0.7599122524261475
1772881505826716000,9.9267158203125,-0.07755756378173828,0.17710351943969727,-1.0386502742767334
1772881505836716000,9.936716064453124,0.45067596435546875,-0.11329507827758789,-0.7958812713623047
1772881505846716000,9.9467158203125,0.8988246917724609,-0.29752063751220703,-0.57131028175354
1772881505856716000,9.956716064453126,1.0020995140075684,-0.38989973068237305,-0.13951325416564941
1772881505866716000,9.9667158203125,0.9003214836120605,-0.4040999412536621,0.3149118423461914
1772881505876716000,9.976716064453125,0.5669646263122559,-0.2435455322265625,0.5304102897644043
1772881505886716000,9.9867158203125,0.06297445297241211,0.057169437408447266,0.4515726566314697
1772881505896716000,9.996716064453125,-0.4327354431152344,0.2839221954345703,0.47601985931396484
1772881505906716000,10.0067158203125,-0.7444462776184082,0.6034278869628906,0.5166881084442139
1772881505916716000,10.016716064453124,-0.8665180206298828,0.8157124519348145,0.23879146575927734
1772881505926716000,10.0267158203125,-0.6040129661560059,0.9769787788391113,-0.15811634063720703
1772881505936716000,10.036716064453126,-0.3826103210449219,1.0205821990966797,-0.31772303581237793
1772881505946716000,10.0467158203125,0.011154651641845703,0.8537507057189941,-0.5005629062652588
1772881505956716000,10.056716064453125,0.5731425285339355,0.6885318756103516,-0.4078834056854248
1772881505966716000,10.0667158203125,0.711482048034668,0.5330748558044434,-0.11393427848815918
1772881505976716000,10.076716064453125,0.7711610794067383,0.4488043785095215,0.18540143966674805
1772881505986716000,10.0867158203125,1.0256800651550293,0.33780717849731445,0.42697858810424805
1772881505996716000,10.096716064453124,1.2714591026306152,0.24052810668945312,0.4080531597137451
1772881506006716000,10.1067158203125,1.1521449089050293,0.12950849533081055,0.38256001472473145
1772881506016716000,10.116716064453126,0.8454451560974121,0.10807561874389648,0.08600902557373047
1772881506026716000,10.1267158203125,0.4944577217102051,-0.038425445556640625,-0.07791328430175781
1772881506036716000,10.136716064453125,0.40514278411865234,-0.24835920333862305,-0.10549712181091309
1772881506046716000,10.1467158203125,0.538818359375,-0.4312734603881836,-0.20176029205322266
1772881506056716000,10.156716064453125,0.807098388671875,-0.5833091735839844,-0.3914945125579834
1772881506066716000,10.1667158203125,1.1049995422363281,-0.6947717666625977,-0.05829930305480957
1772881506076716000,10.176716064453124,1.327458381652832,-0.7784819602966309,-0.15978026390075684
1772881506086716000,10.1867158203125,1.2310175895690918,-0.728600025177002,0.13121390342712402
1772881506096716000,10.196716064453126,0.9949126243591309,-0.29877567291259766,0.337890625
1772881506106716000,10.2067158203125,0.6022887229919434,0.04065990447998047,0.5542817115783691
1772881506116716000,10.216716064453125,0.22056913375854492,0.42079639434814453,0.38109517097473145
1772881506126716000,10.2267158203125,-0.10703086853027344,0.7783637046813965,-0.09830021858215332
1772881506136716000,10.236716064453125,-0.3067893981933594,0.9007387161254883,-0.5870110988616943
1772881506146716000,10.2467158203125,-0.5086154937744141,0.7949309349060059,-0.7865595817565918
1772881506156716000,10.256716064453125,-0.5171871185302734,0.574887752532959,-0.6917698383331299
1772881506166716000,10.2667158203125,-0.4275703430175781,0.4651608467102051,-0.5637872219085693
1772881506176716000,10.276716064453124,-0.33029985427856445,0.46201515197753906,-0.28876638412475586
1772881506186716000,10.2867158203125,-0.26396799087524414,0.578193187713623,0.10703825950622559
1772881506196716000,10.296716064453125,-0.3519277572631836,0.7649860382080078,0.42165708541870117
1772881506206716000,10.3067158203125,-0.41444921493530273,0.9681839942932129,0.5441207885742188
1772881506216716000,10.316716064453125,-0.4198484420776367,1.1773009300231934,0.5369155406951904
1772881506226716000,10.3267158203125,-0.4643740653991699,1.331669807434082,0.4055771827697754
1772881506236716000,10.336716064453125,-0.5210013389587402,1.3549346923828125,0.3065035343170166
1772881506246716000,10.3467158203125,-0.4906444549560547,1.2108864784240723,0.29581403732299805
1772881506256716000,10.356716064453124,-0.3656954765319824,0.9650683403015137,0.3084132671356201
1772881506266716000,10.3667158203125,-0.18545150756835938,0.7267403602600098,0.3546786308288574
1772881506276716000,10.376716064453126,0.10101127624511719,0.41970157623291016,0.36093759536743164
1772881506286716000,10.3867158203125,0.47121095657348633,0.0820913314819336,0.19988799095153809
1772881506296716000,10.396716064453125,0.7365293502807617,-0.3680706024169922,-0.016107797622680664
1772881506306716000,10.4067158203125,0.8144493103027344,-0.8527798652648926,-0.3476893901824951
1772881506316716000,10.416716064453125,1.102567195892334,-1.3698878288269043,-0.6891658306121826
1772881506326716000,10.4267158203125,1.272475242614746,-1.7452735900878906,-0.9955947399139404
1772881506336716000,10.436716064453124,1.3820405006408691,-1.9025754928588867,-1.243394374847412
1772881506346716000,10.4467158203125,1.5189862251281738,-1.7896790504455566,-1.416219711303711
1772881506356716000,10.456716064453126,1.6232123374938965,-1.3771634101867676,-1.3586812019348145
1772881506366716000,10.4667158203125,1.5822854042053223,-0.9161124229431152,-1.2692573070526123
1772881506376716000,10.476716064453125,1.3774466514587402,-0.5525035858154297,-1.105473279953003
1772881506386716000,10.4867158203125,1.2022032737731934,-0.321718692779541,-0.868924617767334
1772881506396716000,10.496716064453125,0.9723796844482422,-0.30596065521240234,-0.6839890480041504
1772881506406716000,10.5067158203125,0.8141837120056152,-0.5960688591003418,-0.32566404342651367
1772881506416716000,10.516716064453124,0.784550666809082,-0.9309000968933105,-0.008883953094482422
1772881506426716000,10.5267158203125,0.7437272071838379,-0.8525443077087402,0.05065584182739258
1772881506436716000,10.536716064453126,0.7395896911621094,-0.7202548980712891,0.17267727851867676
1772881506446716000,10.5467158203125,0.7237133979797363,-0.46944141387939453,0.20726585388183594
1772881506456716000,10.556716064453125,0.7858543395996094,0.06502103805541992,0.1117556095123291
1772881506466716000,10.5667158203125,0.7465691566467285,0.5744466781616211,0.1144099235534668
1772881506476716000,10.576716064453125,0.47000694274902344,1.108424186706543,0.02902817726135254
1772881506486716000,10.5867158203125,0.27025699615478516,1.3317828178405762,0.0018091201782226562
1772881506496716000,10.596716064453124,0.17522096633911133,1.0849308967590332,0.13298773765563965
1772881506506716000,10.6067158203125,0.10073041915893555,0.7213168144226074,0.39585185050964355
1772881506516716000,10.616716064453126,-0.0679178237915039,0.4120941162109375,0.5343650579452515
1772881506526716000,10.6267158203125,-0.20491790771484375,0.17712068557739258,0.3824763298034668
1772881506536716000,10.636716064453125,0.08478355407714844,0.06786251068115234,0.21750569343566895
1772881506546716000,10.6467158203125,0.32724952697753906,0.16681385040283203,0.08696722984313965
1772881506556716000,10.656716064453125,0.33716344833374023,0.34317731857299805,0.034624338150024414
1772881506566716000,10.6667158203125,0.15493202209472656,0.44213438034057617,0.09979653358459473
1772881506576716000,10.676716064453124,0.0807638168334961,0.4100985527038574,0.23174118995666504
1772881506586716000,10.6867158203125,0.26411867141723633,0.06449508666992188,0.08641815185546875
1772881506596716000,10.696716064453126,0.5382704734802246,-0.2569437026977539,-0.1070563793182373
1772881506606716000,10.7067158203125,0.6450557708740234,-0.5994443893432617,-0.24033427238464355
1772881506616716000,10.716716064453125,0.8845334053039551,-0.9083099365234375,-0.2799656391143799
1772881506626716000,10.7267158203125,1.157299518585205,-0.6688394546508789,-0.2831159830093384
1772881506636716000,10.736716064453125,1.2094998359680176,-0.5539846420288086,-0.30416035652160645
1772881506646716000,10.7467158203125,1.079005241394043,-0.5126156806945801,0.06678462028503418
1772881506656716000,10.756716064453125,0.8978796005249023,-0.07934761047363281,0.34303736686706543
1772881506666716000,10.7667158203125,0.5096077919006348,0.1613636016845703,0.815247118473053
1772881506676716000,10.776716064453124,0.17375946044921875,0.5088872909545898,0.9652304649353027
1772881506686716000,10.7867158203125,-0.3391447067260742,0.6429362297058105,0.9980546236038208
1772881506696716000,10.796716064453125,-0.6507091522216797,0.6073670387268066,0.8107503652572632
1772881506706716000,10.8067158203125,-0.8984231948852539,0.35663795471191406,0.6213432550430298
1772881506716716000,10.816716064453125,-0.7107858657836914,0.08719491958618164,0.5762118697166443
1772881506726716000,10.8267158203125,-0.31091737747192383,0.12656831741333008,0.3873710632324219
1772881506736716000,10.836716064453125,-0.2568988800048828,0.4481511116027832,0.4834352135658264
1772881506746716000,10.8467158203125,-0.28766870498657227,0.9162664413452148,0.6636968851089478
1772881506756716000,10.856716064453124,-0.2669353485107422,1.1362295150756836,0.9246014356613159
1772881506766716000,10.8667158203125,-0.5036306381225586,1.284959316253662,1.053830862045288
1772881506776716000,10.876716064453126,-0.6627984046936035,1.1297688484191895,1.1383507251739502
1772881506786716000,10.8867158203125,-0.572690486907959,0.6474313735961914,0.9588398337364197
1772881506796716000,10.896716064453125,-0.46612071990966797,0.22767019271850586,0.7876490950584412
1772881506806716000,10.9067158203125,-0.2941398620605469,0.16623640060424805,0.7491102814674377
1772881506816716000,10.916716064453125,-0.16463184356689453,0.26503467559814453,0.5653477311134338
1772881506826716000,10.9267158203125,-0.29731178283691406,0.43863916397094727,0.6426231861114502
1772881506836716000,10.936716064453124,-0.4523048400878906,0.660301685333252,0.7166547775268555
1772881506846716000,10.9467158203125,-0.5991849899291992,0.6714606285095215,0.8261063098907471
1772881506856716000,10.956716064453126,-0.6459741592407227,0.5810432434082031,0.9498734474182129
1772881506866716000,10.9667158203125,-0.6967692375183105,0.31731081008911133,0.8638226985931396
1772881506876716000,10.976716064453125,-0.7396941184997559,0.0980844497680664,0.6529220342636108
1772881506886716000,10.9867158203125,-0.7414546012878418,-0.06339693069458008,0.40485501289367676
1772881506896716000,10.996716064453125,-0.674464225769043,-0.14107894897460938,0.2292892336845398
1772881506906716000,11.0067158203125,-0.5341482162475586,-0.18746042251586914,0.14783978462219238
1772881506916716000,11.016716064453124,-0.4362320899963379,-0.16457605361938477,0.17390644550323486
1772881506926716000,11.0267158203125,-0.4478311538696289,-0.09379911422729492,0.19886064529418945
1772881506936716000,11.036716064453126,-0.4942808151245117,-0.009723663330078125,0.21894478797912598
1772881506946716000,11.0467158203125,-0.5000805854797363,-0.018834590911865234,0.24509012699127197
1772881506956716000,11.056716064453125,-0.5124874114990234,-0.05459260940551758,0.28623270988464355
1772881506966716000,11.0667158203125,-0.4481363296508789,-0.032471656799316406,0.29056739807128906
1772881506976716000,11.076716064453125,-0.3313932418823242,0.003185749053955078,0.33453571796417236
1772881506986716000,11.0867158203125,-0.27088403701782227,0.10246992111206055,0.41046106815338135
1772881506996716000,11.096716064453124,-0.21382761001586914,0.2904477119445801,0.4668657183647156
1772881507006716000,11.1067158203125,-0.35809803009033203,0.4426608085632324,0.6106399297714233
1772881507016716000,11.116716064453126,-0.4945187568664551,0.415830135345459,0.8191991448402405
1772881507026716000,11.1267158203125,-0.5961008071899414,0.335268497467041,0.9188706874847412
1772881507036716000,11.136716064453125,-0.7622981071472168,0.26532649993896484,0.9870566129684448
1772881507046716000,11.1467158203125,-0.8667783737182617,0.299802303314209,0.9070354104042053
1772881507056716000,11.156716064453125,-0.8865065574645996,0.2859477996826172,0.7540550231933594
1772881507066716000,11.1667158203125,-0.9013209342956543,0.32053279876708984,0.5940272808074951
1772881507076716000,11.176716064453124,-0.8359193801879883,0.39067983627319336,0.4311755895614624
1772881507086716000,11.1867158203125,-0.8081941604614258,0.37946605682373047,0.35404741764068604
1772881507096716000,11.196716064453126,-0.6719245910644531,0.264676570892334,0.35276222229003906
1772881507106716000,11.2067158203125,-0.4525570869445801,0.040065765380859375,0.4591958522796631
1772881507116716000,11.216716064453125,-0.18345260620117188,-0.07351493835449219,0.5571423768997192
1772881507126716000,11.2267158203125,0.060431480407714844,-0.13116693496704102,0.49918925762176514
1772881507136716000,11.236716064453125,0.20402288436889648,-0.13177251815795898,0.3692936897277832
1772881507146716000,11.2467158203125,0.29514646530151367,-0.07488584518432617,0.28339433670043945
1772881507156716000,11.256716064453125,0.12098884582519531,0.08488798141479492,0.2578897476196289
1772881507166716000,11.2667158203125,-0.0943307876586914,0.1161503791809082,0.16488432884216309
1772881507176716000,11.276716064453124,-0.2173142433166504,-0.00012063980102539062,0.06916236877441406
1772881507186716000,11.2867158203125,-0.31178808212280273,-0.022251605987548828,0.20691204071044922
1772881507196716000,11.296716064453125,-0.35843753814697266,0.03519439697265625,0.350269079208374
1772881507206716000,11.3067158203125,-0.2969694137573242,0.15053462982177734,0.4148404598236084
1772881507216716000,11.316716064453125,-0.3094444274902344,0.2214956283569336,0.4894425868988037
1772881507226716000,11.3267158203125,-0.24185562133789062,0.21793794631958008,0.5162632465362549
1772881507236716000,11.336716064453125,-0.24692010879516602,0.1812429428100586,0.3910832405090332
1772881507246716000,11.3467158203125,-0.04604768753051758,0.03397083282470703,0.3171725273132324
1772881507256716000,11.356716064453124,0.1354660987854004,-0.18320226669311523,0.21631169319152832
1772881507266716000,11.3667158203125,0.35198450088500977,-0.39759159088134766,0.1956789493560791
1772881507276716000,11.376716064453126,0.3250603675842285,-0.3447585105895996,0.2784726619720459
1772881507286716000,11.3867158203125,0.09628820419311523,-0.2677779197692871,0.3892660140991211
1772881507296716000,11.396716064453125,0.08726024627685547,-0.23900604248046875,0.1980142593383789
1772881507306716000,11.4067158203125,0.2614278793334961,-0.36145544052124023,0.12008547782897949
1772881507316716000,11.416716064453125,0.30564355850219727,-0.30986833572387695,0.06538796424865723
1772881507326716000,11.4267158203125,0.42166757583618164,-0.38658761978149414,-0.060172319412231445
1772881507336716000,11.436716064453124,0.5140628814697266,-0.3167691230773926,-0.205796480178833
1772881507346716000,11.4467158203125,0.4990224838256836,-0.255190372467041,-0.2826089859008789
1772881507356716000,11.456716064453126,0.649073600769043,-0.41965723037719727,-0.14684772491455078
1772881507366716000,11.4667158203125,0.931912899017334,-0.6880316734313965,-0.19366192817687988
1772881507376716000,11.476716064453125,1.0622248649597168,-0.7506327629089355,-0.2574746608734131
1772881507386716000,11.4867158203125,1.077615737915039,-0.6993851661682129,-0.28587818145751953
1772881507396716000,11.496716064453125,1.0137944221496582,-0.7798714637756348,-0.2085421085357666
1772881507406716000,11.5067158203125,0.9793562889099121,-0.6852717399597168,-0.2618536949157715
1772881507416716000,11.516716064453124,0.9175539016723633,-0.6060891151428223,-0.38934993743896484
1772881507426716000,11.5267158203125,0.8786978721618652,-0.602607250213623,-0.561450719833374
1772881507436716000,11.536716064453126,0.7508468627929688,-0.6619882583618164,-0.5380549430847168
1772881507446716000,11.5467158203125,0.6943511962890625,-0.5491695404052734,-0.5213205814361572
1772881507456716000,11.556716064453125,0.3834409713745117,-0.29822254180908203,-0.34006595611572266
1772881507466716000,11.5667158203125,0.16647577285766602,-0.04969596862792969,-0.04033255577087402
1772881507476716000,11.576716064453125,0.10148048400878906,0.1378006935119629,0.23192048072814941
1772881507486716000,11.5867158203125,0.22182369232177734,0.20297670364379883,0.5196194648742676
1772881507496716000,11.596716064453124,0.46475839614868164,0.14395856857299805,0.6694803237915039
1772881507506716000,11.6067158203125,0.4279012680053711,0.1500711441040039,0.6383512020111084
1772881507516716000,11.616716064453126,0.4604783058166504,0.13701963424682617,0.4705672264099121
1772881507526716000,11.6267158203125,0.36955976486206055,0.2355036735534668,0.15444111824035645
1772881507536716000,11.636716064453125,0.5380949974060059,0.2915520668029785,-0.11549949645996094
1772881507546716000,11.6467158203125,0.5623879432678223,0.3744173049926758,-0.3370850086212158
1772881507556716000,11.656716064453125,0.8145251274108887,0.2661008834838867,-0.5037336349487305
1772881507566716000,11.6667158203125,0.9422669410705566,0.11257123947143555,-0.6091351509094238
1772881507576716000,11.676716064453124,0.80828857421875,-0.03351020812988281,-0.5109543800354004
1772881507586716000,11.6867158203125,0.8568482398986816,-0.07402563095092773,-0.17859983444213867
1772881507596716000,11.696716064453126,0.8155312538146973,0.020064830780029297,0.23773670196533203
1772881507606716000,11.7067158203125,0.7960042953491211,0.22208309173583984,0.5005209445953369
1772881507616716000,11.716716064453125,0.6954822540283203,0.45111083984375,0.6668112277984619
1772881507626716000,11.7267158203125,0.8799104690551758,0.6991219520568848,0.5657105445861816
1772881507636716000,11.736716064453125,0.7017889022827148,0.8055248260498047,0.41737818717956543
1772881507646716000,11.7467158203125,0.3326606750488281,0.6768131256103516,0.259868860244751
1772881507656716000,11.756716064453125,0.06252193450927734,0.45434045791625977,0.017290115356445312
1772881507666716000,11.7667158203125,-0.039473533630371094,0.19752979278564453,-0.13950467109680176
1772881507676716000,11.776716064453124,-0.15003252029418945,-0.015421867370605469,-0.14070701599121094
1772881507686716000,11.7867158203125,-0.11853694915771484,-0.08361434936523438,-0.04223299026489258
1772881507696716000,11.796716064453125,-0.06183147430419922,-0.011940479278564453,0.07022428512573242
1772881507706716000,11.8067158203125,0.05932760238647461,0.18456077575683594,0.2397468090057373
1772881507716716000,11.816716064453125,0.17553472518920898,0.41191864013671875,0.3713243007659912
1772881507726716000,11.8267158203125,0.14507722854614258,0.5942354202270508,0.46068763732910156
1772881507736716000,11.836716064453125,-0.0462794303894043,0.6788678169250488,0.4470362663269043
1772881507746716000,11.8467158203125,-0.21289968490600586,0.7536225318908691,0.34290575981140137
1772881507756716000,11.856716064453124,-0.28885841369628906,0.7389545440673828,0.23171138763427734
1772881507766716000,11.8667158203125,-0.17460393905639648,0.7286386489868164,0.19954681396484375
1772881507776716000,11.876716064453126,-0.044377803802490234,0.7204804420471191,0.17073345184326172
1772881507786716000,11.8867158203125,0.02043914794921875,0.6940708160400391,0.18899083137512207
1772881507796716000,11.896716064453125,0.09255599975585938,0.6346912384033203,0.23511075973510742
1772881507806716000,11.9067158203125,0.19392871856689453,0.5239238739013672,0.2749485969543457
1772881507816716000,11.916716064453125,0.2601022720336914,0.38031768798828125,0.22518610954284668
1772881507826716000,11.9267158203125,0.4007411003112793,0.2022542953491211,0.08532381057739258
1772881507836716000,11.936716064453124,0.5984935760498047,-0.012977123260498047,-0.04358696937561035
1772881507846716000,11.9467158203125,0.8429141044616699,-0.22900676727294922,-0.15560054779052734
1772881507856716000,11.956716064453126,0.9597787857055664,-0.4104795455932617,-0.28913092613220215
1772881507866716000,11.9667158203125,1.0459342002868652,-0.48340511322021484,-0.2792534828186035
1772881507876716000,11.976716064453125,0.9005937576293945,-0.43282175064086914,-0.20109105110168457
1772881507886716000,11.9867158203125,0.708777904510498,-0.3530244827270508,-0.019006013870239258
1772881507896716000,11.996716064453125,0.44847726821899414,-0.23677968978881836,0.1237332820892334
1772881507906716000,12.0067158203125,0.17330360412597656,-0.12111043930053711,0.16419363021850586
1772881507916716000,12.016716064453124,0.0985860824584961,-0.02700662612915039,0.09749531745910645
1772881507926716000,12.0267158203125,0.14530038833618164,0.0032873153686523438,0.002948284149169922
1772881507936716000,12.036716064453126,0.3199315071105957,-0.0674295425415039,-0.05344438552856445
1772881507946716000,12.0467158203125,0.6268701553344727,-0.16228818893432617,-0.1833043098449707
1772881507956716000,12.056716064453125,0.94744873046875,-0.2593822479248047,-0.3513343334197998
1772881507966716000,12.0667158203125,1.1172823905944824,-0.2872786521911621,-0.3796498775482178
1772881507976716000,12.076716064453125,1.0887532234191895,-0.1029515266418457,-0.3929736614227295
1772881507986716000,12.0867158203125,0.9214920997619629,0.1096506118774414,-0.27997517585754395
1772881507996716000,12.096716064453124,0.6878457069396973,0.20859098434448242,-0.1438462734222412
1772881508006716000,12.1067158203125,0.45630455017089844,0.30170202255249023,0.030274629592895508
1772881508016716000,12.116716064453126,0.16264820098876953,0.33473634719848633,0.15825271606445312
1772881508026716000,12.1267158203125,0.053741455078125,0.31928539276123047,0.09911084175109863
1772881508036716000,12.136716064453125,0.037198543548583984,0.30083179473876953,0.04265546798706055
1772881508046716000,12.1467158203125,-0.11029672622680664,0.16356515884399414,0.1179049015045166
1772881508056716000,12.156716064453125,-0.053272247314453125,0.13196039199829102,0.21702122688293457
1772881508066716000,12.1667158203125,0.24244213104248047,-0.13826990127563477,0.2114555835723877
1772881508076716000,12.176716064453124,0.7651147842407227,-0.3670368194580078,0.19682598114013672
1772881508086716000,12.1867158203125,1.2052216529846191,-0.5822114944458008,0.14587688446044922
1772881508096716000,12.196716064453126,1.4645752906799316,-0.8043060302734375,0.1546311378479004
1772881508106716000,12.2067158203125,1.6636385917663574,-1.0194587707519531,0.11505866050720215
1772881508116716000,12.216716064453125,1.6140456199645996,-1.1750411987304688,0.12047195434570312
1772881508126716000,12.2267158203125,1.4051461219787598,-1.179265022277832,0.17329144477844238
1772881508136716000,12.236716064453125,1.1739482879638672,-1.0207080841064453,0.016156911849975586
1772881508146716000,12.2467158203125,0.7741570472717285,-0.9343538284301758,-0.05214667320251465
1772881508156716000,12.256716064453125,0.5541491508483887,-0.6476330757141113,-0.14836835861206055
1772881508166716000,12.2667158203125,0.3335704803466797,-0.5081825256347656,-0.11674094200134277
1772881508176716000,12.276716064453124,0.0737004280090332,-0.2534208297729492,-0.10483837127685547
1772881508186716000,12.2867158203125,-0.1618213653564453,0.001911163330078125,0.11357808113098145
1772881508196716000,12.296716064453125,-0.29957008361816406,0.12748050689697266,0.5012545585632324
1772881508206716000,12.3067158203125,-0.7061252593994141,0.4672360420227051,0.8427631855010986
1772881508216716000,12.316716064453125,-0.750368595123291,0.57781982421875,1.2568585872650146
1772881508226716000,12.3267158203125,-0.6162848472595215,0.4701957702636719,1.2900595664978027
1772881508236716000,12.336716064453125,-0.509223461151123,0.28043222427368164,1.2951905727386475
1772881508246716000,12.3467158203125,-0.7211399078369141,0.20387744903564453,1.0917799472808838
1772881508256716000,12.356716064453124,-0.8747034072875977,0.1994471549987793,0.96518874168396
1772881508266716000,12.3667158203125,-1.0002589225769043,0.4125337600708008,0.9717212915420532
1772881508276716000,12.376716064453126,-1.1408472061157227,0.5738697052001953,0.8811101913452148
1772881508286716000,12.3867158203125,-0.9151110649108887,0.7928667068481445,0.9448146820068359
1772881508296716000,12.396716064453125,-0.7481045722961426,0.9373612403869629,0.9198594093322754
1772881508306716000,12.4067158203125,-0.7603583335876465,0.6696672439575195,0.8760627508163452
1772881508316716000,12.416716064453125,-0.6278929710388184,0.2941408157348633,0.9771116971969604
1772881508326716000,12.4267158203125,-0.6371192932128906,-0.016178131103515625,0.9800682067871094
1772881508336716000,12.436716064453124,-0.751798152923584,-0.2895622253417969,0.9943360090255737
1772881508346716000,12.4467158203125,-0.759422779083252,-0.41290903091430664,0.973325788974762
1772881508356716000,12.456716064453126,-0.5390119552612305,-0.6804523468017578,1.0112464427947998
1772881508366716000,12.4667158203125,-0.4086456298828125,-0.7959413528442383,0.9695020318031311
1772881508376716000,12.476716064453125,-0.3588738441467285,-0.6789164543151855,1.158815860748291
1772881508386716000,12.4867158203125,-0.22753429412841797,-0.5322718620300293,1.2015340328216553
1772881508396716000,12.496716064453125,-0.24567079544067383,-0.5361943244934082,1.4092224836349487
