time,seconds_elapsed,z,y,x
1772881495936716000,0.036716064453125,6.327683925628662,5.791242599487305,-4.753136157989502
1772881495946716000,0.0467158203125,6.374487400054932,5.762922763824463,-4.724936008453369
1772881495956716000,0.056716064453125,6.3650593757629395,5.771753311157227,-4.726866245269775
1772881495966716000,0.0667158203125,6.378705978393555,5.742941856384277,-4.743533134460449
1772881495976716000,0.076716064453125,6.421639919281006,5.67880916595459,-4.762777805328369
1772881495986716000,0.0867158203125,6.463263988494873,5.613890171051025,-4.783391952514648
1772881495996716000,0.096716064453125,6.495927810668945,5.557567119598389,-4.804868221282959
1772881496006716000,0.1067158203125,6.524291038513184,5.510664939880371,-4.820434093475342
1772881496016716000,0.116716064453125,6.557323455810547,5.461724281311035,-4.831301212310791
1772881496026716000,0.1267158203125,6.6131792068481445,5.391734600067139,-4.8337812423706055
1772881496036716000,0.136716064453125,6.69678258895874,5.278281211853027,-4.843887805938721
1772881496046716000,0.1467158203125,6.809018611907959,5.116469383239746,-4.861006259918213
1772881496056716000,0.156716064453125,6.930678844451904,4.930089950561523,-4.881628036499023
1772881496066716000,0.1667158203125,7.025993347167969,4.756402015686035,-4.91756534576416
1772881496076716000,0.176716064453125,7.087643146514893,4.606875896453857,-4.971156120300293
1772881496086716000,0.1867158203125,7.1261305809021,4.493797779083252,-5.019403457641602
1772881496096716000,0.196716064453125,7.136711120605469,4.441606044769287,-5.050729751586914
1772881496106716000,0.2067158203125,7.131011962890625,4.434067249298096,-5.0653839111328125
1772881496116716000,0.216716064453125,7.1267805099487305,4.4405341148376465,-5.065674304962158
1772881496126716000,0.2267158203125,7.126776218414307,4.446271896362305,-5.060644149780273
1772881496136716000,0.236716064453125,7.138572692871094,4.435281276702881,-5.053656101226807
1772881496146716000,0.2467158203125,7.171621322631836,4.383608818054199,-5.0519514083862305
1772881496156716000,0.256716064453125,7.23361349105835,4.27986478805542,-5.052523136138916
1772881496166716000,0.2667158203125,7.319447994232178,4.138291358947754,-5.046842098236084
1772881496176716000,0.276716064453125,7.4186882972717285,3.9739553928375244,-5.033997535705566
1772881496186716000,0.2867158203125,7.531154632568359,3.8034236431121826,-4.998605251312256
1772881496196716000,0.296716064453125,7.646096706390381,3.6383402347564697,-4.946723461151123
1772881496206716000,0.3067158203125,7.755773544311523,3.4555959701538086,-4.906853675842285
1772881496216716000,0.316716064453125,7.872472286224365,3.2415425777435303,-4.866926193237305
1772881496226716000,0.3267158203125,7.976587772369385,3.006270170211792,-4.848377704620361
1772881496236716000,0.336716064453125,8.045951843261719,2.765477418899536,-4.877004623413086
1772881496246716000,0.3467158203125,8.08364486694336,2.534640073776245,-4.939704418182373
1772881496256716000,0.356716064453125,8.080053329467773,2.3311665058135986,-5.044679164886475
1772881496266716000,0.3667158203125,8.017760276794434,2.1702890396118164,-5.213037014007568
1772881496276716000,0.376716064453125,7.91266393661499,2.1062989234924316,-5.396633148193359
1772881496286716000,0.3867158203125,7.7885661125183105,2.0187923908233643,-5.6065239906311035
1772881496296716000,0.396716064453125,7.666475296020508,1.8117146492004395,-5.840653419494629
1772881496306716000,0.4067158203125,7.536438941955566,1.4992318153381348,-6.093011379241943
1772881496316716000,0.416716064453125,7.412026882171631,1.0966113805770874,-6.326902389526367
1772881496326716000,0.4267158203125,7.289987087249756,0.6330206990242004,-6.5288405418396
1772881496336716000,0.436716064453125,7.13911247253418,0.15023359656333923,-6.721673011779785
1772881496346716000,0.4467158203125,6.950041770935059,-0.3488505184650421,-6.909820079803467
1772881496356716000,0.456716064453125,6.720448970794678,-0.8823077082633972,-7.0871357917785645
1772881496366716000,0.4667158203125,6.451823711395264,-1.427314043045044,-7.246181488037109
1772881496376716000,0.476716064453125,6.188631534576416,-1.944011926651001,-7.3547282218933105
1772881496386716000,0.4867158203125,5.963738918304443,-2.4094998836517334,-7.402602195739746
1772881496396716000,0.496716064453125,5.786287307739258,-2.8063173294067383,-7.403637409210205
1772881496406716000,0.5067158203125,5.662956714630127,-3.1023097038269043,-7.380853176116943
1772881496416716000,0.516716064453125,5.598021507263184,-3.3046977519989014,-7.342445373535156
1772881496426716000,0.5267158203125,5.594286918640137,-3.4418280124664307,-7.282044887542725
1772881496436716000,0.536716064453125,5.6201491355896,-3.5455331802368164,-7.212038516998291
1772881496446716000,0.5467158203125,5.643880367279053,-3.614396095275879,-7.1591291427612305
1772881496456716000,0.556716064453125,5.648838996887207,-3.6672792434692383,-7.128258228302002
1772881496466716000,0.5667158203125,5.639796257019043,-3.686476707458496,-7.125515937805176
1772881496476716000,0.576716064453125,5.622003555297852,-3.663285255432129,-7.151489734649658
1772881496486716000,0.5867158203125,5.59567403793335,-3.6118645668029785,-7.198142051696777
1772881496496716000,0.596716064453125,5.564517498016357,-3.54095458984375,-7.257284641265869
1772881496506716000,0.6067158203125,5.512939929962158,-3.4429543018341064,-7.343292713165283
1772881496516716000,0.616716064453125,5.431093692779541,-3.3272175788879395,-7.45675802230835
1772881496526716000,0.6267158203125,5.306528091430664,-3.2051618099212646,-7.598557949066162
1772881496536716000,0.636716064453125,5.125216484069824,-3.0526843070983887,-7.783549785614014
1772881496546716000,0.6467158203125,4.904091835021973,-2.8632619380950928,-7.995123863220215
1772881496556716000,0.656716064453125,4.665835857391357,-2.66212797164917,-8.204476356506348
1772881496566716000,0.6667158203125,4.4231672286987305,-2.491086721420288,-8.390498161315918
1772881496576716000,0.676716064453125,4.155241012573242,-2.4103951454162598,-8.549522399902344
1772881496586716000,0.6867158203125,3.8396120071411133,-2.4619646072387695,-8.681387901306152
1772881496596716000,0.696716064453125,3.5782787799835205,-2.5200815200805664,-8.775847434997559
1772881496606716000,0.7067158203125,3.4186999797821045,-2.533454418182373,-8.835411071777344
1772881496616716000,0.716716064453125,3.242717742919922,-2.546124219894409,-8.89788818359375
1772881496626716000,0.7267158203125,3.05592942237854,-2.5419259071350098,-8.964947700500488
1772881496636716000,0.736716064453125,2.874614953994751,-2.5177438259124756,-9.031497955322266
1772881496646716000,0.7467158203125,2.699050188064575,-2.4805052280426025,-9.095746994018555
1772881496656716000,0.756716064453125,2.5571796894073486,-2.4482383728027344,-9.145345687866211
1772881496666716000,0.7667158203125,2.455613136291504,-2.4414262771606445,-9.174954414367676
1772881496676716000,0.776716064453125,2.3871848583221436,-2.4617598056793213,-9.18757152557373
1772881496686716000,0.7867158203125,2.348717212677002,-2.487243175506592,-9.190622329711914
1772881496696716000,0.796716064453125,2.3338124752044678,-2.493980646133423,-9.19259262084961
1772881496706716000,0.8067158203125,2.311068534851074,-2.4765474796295166,-9.203046798706055
1772881496716716000,0.816716064453125,2.262923240661621,-2.4303102493286133,-9.227304458618164
1772881496726716000,0.8267158203125,2.205441951751709,-2.3573031425476074,-9.260104179382324
1772881496736716000,0.836716064453125,2.126962423324585,-2.273867607116699,-9.299243927001953
1772881496746716000,0.8467158203125,2.0453808307647705,-2.2202229499816895,-9.330455780029297
1772881496756716000,0.856716064453125,1.9917120933532715,-2.1743199825286865,-9.352849960327148
1772881496766716000,0.8667158203125,1.9768269062042236,-2.094447374343872,-9.374210357666016
1772881496776716000,0.876716064453125,1.9618990421295166,-1.9860146045684814,-9.400909423828125
1772881496786716000,0.8867158203125,1.9087857007980347,-1.8717002868652344,-9.435235023498535
1772881496796716000,0.896716064453125,1.831107497215271,-1.7795383930206299,-9.468404769897461
1772881496806716000,0.9067158203125,1.7164853811264038,-1.7027338743209839,-9.503934860229492
1772881496816716000,0.916716064453125,1.5710923671722412,-1.6447093486785889,-9.539234161376953
1772881496826716000,0.9267158203125,1.4565541744232178,-1.6099612712860107,-9.563307762145996
1772881496836716000,0.936716064453125,1.3646941184997559,-1.5905848741531372,-9.580085754394531
1772881496846716000,0.9467158203125,1.3115711212158203,-1.6000173091888428,-9.585932731628418
1772881496856716000,0.956716064453125,1.3181390762329102,-1.6364203691482544,-9.57888412475586
1772881496866716000,0.9667158203125,1.3657358884811401,-1.680527687072754,-9.564568519592285
1772881496876716000,0.976716064453125,1.426110029220581,-1.7331324815750122,-9.546353340148926
1772881496886716000,0.9867158203125,1.4774558544158936,-1.7837949991226196,-9.529196739196777
1772881496896716000,0.996716064453125,1.5386890172958374,-1.827394962310791,-9.51122760772705
1772881496906716000,1.0067158203125,1.620024561882019,-1.8606362342834473,-9.491255760192871
1772881496916716000,1.016716064453125,1.6860276460647583,-1.8998732566833496,-9.471968650817871
1772881496926716000,1.0267158203125,1.7538397312164307,-1.96359384059906,-9.446625709533691
1772881496936716000,1.036716064453125,1.8313921689987183,-2.094548463821411,-9.403682708740234
1772881496946716000,1.0467158203125,1.8832247257232666,-2.3156564235687256,-9.341391563415527
1772881496956716000,1.056716064453125,1.8692327737808228,-2.6619536876678467,-9.251505851745605
1772881496966716000,1.0667158203125,1.8596550226211548,-3.018972158432007,-9.143187522888184
1772881496976716000,1.076716064453125,1.9194926023483276,-3.252713441848755,-9.050182342529297
1772881496986716000,1.0867158203125,1.9462692737579346,-3.396543025970459,-8.991436004638672
1772881496996716000,1.096716064453125,1.9087070226669312,-3.5474114418029785,-8.941089630126953
1772881497006716000,1.1067158203125,1.814296841621399,-3.7077372074127197,-8.895584106445312
1772881497016716000,1.116716064453125,1.638576626777649,-3.8546395301818848,-8.867198944091797
1772881497026716000,1.1267158203125,1.385793685913086,-3.9816768169403076,-8.85416316986084
1772881497036716000,1.136716064453125,1.0368719100952148,-4.127127647399902,-8.83527660369873
1772881497046716000,1.1467158203125,0.5638548731803894,-4.342723846435547,-8.774578094482422
1772881497056716000,1.156716064453125,0.01637759990990162,-4.6446919441223145,-8.63695240020752
1772881497066716000,1.1667158203125,-0.5263242721557617,-5.006808757781982,-8.415773391723633
1772881497076716000,1.176716064453125,-1.0075609683990479,-5.373641490936279,-8.141202926635742
1772881497086716000,1.1867158203125,-1.3949795961380005,-5.696795463562012,-7.859448432922363
1772881497096716000,1.196716064453125,-1.6388767957687378,-5.93058967590332,-7.636267185211182
1772881497106716000,1.2067158203125,-1.7057262659072876,-6.041690826416016,-7.533846855163574
1772881497116716000,1.216716064453125,-1.6027913093566895,-6.023297309875488,-7.5710859298706055
1772881497126716000,1.2267158203125,-1.3994935750961304,-5.923020362854004,-7.689579486846924
1772881497136716000,1.236716064453125,-1.1782666444778442,-5.845252990722656,-7.78557014465332
1772881497146716000,1.2467158203125,-0.9517812132835388,-5.864859580993652,-7.801790237426758
1772881497156716000,1.256716064453125,-0.6900724172592163,-5.966668128967285,-7.7519707679748535
1772881497166716000,1.2667158203125,-0.39623457193374634,-6.099052429199219,-7.6690897941589355
1772881497176716000,1.276716064453125,-0.08582676202058792,-6.219942092895508,-7.581249237060547
1772881497186716000,1.2867158203125,0.2309604436159134,-6.31643533706665,-7.497979164123535
1772881497196716000,1.296716064453125,0.5562384724617004,-6.390699863433838,-7.417542457580566
1772881497206716000,1.3067158203125,0.9066959023475647,-6.460474491119385,-7.32192325592041
1772881497216716000,1.316716064453125,1.2058197259902954,-6.5502610206604,-7.197947978973389
1772881497226716000,1.3267158203125,1.3502111434936523,-6.661567687988281,-7.069005489349365
1772881497236716000,1.336716064453125,1.4271944761276245,-6.769185543060303,-6.950657367706299
1772881497246716000,1.3467158203125,1.4328992366790771,-6.836460590362549,-6.883313179016113
1772881497256716000,1.356716064453125,1.5160232782363892,-6.894293785095215,-6.807405948638916
1772881497266716000,1.3667158203125,1.6768314838409424,-6.979506969451904,-6.681699752807617
1772881497276716000,1.376716064453125,1.7832765579223633,-7.055467128753662,-6.573484897613525
1772881497286716000,1.3867158203125,1.8443238735198975,-7.1116814613342285,-6.495602607727051
1772881497296716000,1.396716064453125,1.8669002056121826,-7.1747050285339355,-6.419400215148926
1772881497306716000,1.4067158203125,1.9088164567947388,-7.25236701965332,-6.31901741027832
1772881497316716000,1.416716064453125,1.9786041975021362,-7.378528118133545,-6.149213790893555
1772881497326716000,1.4267158203125,2.069179058074951,-7.4757561683654785,-6.000162124633789
1772881497336716000,1.436716064453125,2.1781299114227295,-7.54307222366333,-5.87606954574585
1772881497346716000,1.4467158203125,2.2868151664733887,-7.624156475067139,-5.728272914886475
1772881497356716000,1.456716064453125,2.374582290649414,-7.750091075897217,-5.519768238067627
1772881497366716000,1.4667158203125,2.4340028762817383,-7.9189629554748535,-5.2474799156188965
1772881497376716000,1.476716064453125,2.4649040699005127,-8.124872207641602,-4.9072489738464355
1772881497386716000,1.4867158203125,2.4635536670684814,-8.35670280456543,-4.501866817474365
1772881497396716000,1.496716064453125,2.414016008377075,-8.59487533569336,-4.0584540367126465
1772881497406716000,1.5067158203125,2.3223156929016113,-8.821757316589355,-3.5991454124450684
1772881497416716000,1.516716064453125,2.2186365127563477,-9.023470878601074,-3.1344869136810303
1772881497426716000,1.5267158203125,2.1516523361206055,-9.18579387664795,-2.67618465423584
1772881497436716000,1.536716064453125,2.1433327198028564,-9.294207572937012,-2.2790818214416504
1772881497446716000,1.5467158203125,2.1597836017608643,-9.36056137084961,-1.9711977243423462
1772881497456716000,1.556716064453125,2.1901612281799316,-9.395136833190918,-1.762099266052246
1772881497466716000,1.5667158203125,2.241356134414673,-9.405373573303223,-1.6388026475906372
1772881497476716000,1.576716064453125,2.309389114379883,-9.39995002746582,-1.5741801261901855
1772881497486716000,1.5867158203125,2.37638521194458,-9.388925552368164,-1.539886474609375
1772881497496716000,1.596716064453125,2.4224114418029785,-9.380730628967285,-1.5179628133773804
1772881497506716000,1.6067158203125,2.442972421646118,-9.37801742553711,-1.5016851425170898
1772881497516716000,1.616716064453125,2.4680063724517822,-9.370248794555664,-1.5092276334762573
1772881497526716000,1.6267158203125,2.521157741546631,-9.349486351013184,-1.5495988130569458
1772881497536716000,1.636716064453125,2.6070148944854736,-9.314099311828613,-1.6190749406814575
1772881497546716000,1.6467158203125,2.721332311630249,-9.264884948730469,-1.7107492685317993
1772881497556716000,1.656716064453125,2.856680154800415,-9.20272445678711,-1.8219865560531616
1772881497566716000,1.6667158203125,2.999896287918091,-9.130980491638184,-1.9483880996704102
1772881497576716000,1.676716064453125,3.140873670578003,-9.052864074707031,-2.085892915725708
1772881497586716000,1.6867158203125,3.2604033946990967,-8.977923393249512,-2.221947431564331
1772881497596716000,1.696716064453125,3.3385581970214844,-8.916101455688477,-2.3510732650756836
1772881497606716000,1.7067158203125,3.376760244369507,-8.86890983581543,-2.4719057083129883
1772881497616716000,1.716716064453125,3.389885663986206,-8.830705642700195,-2.5879955291748047
1772881497626716000,1.7267158203125,3.3944413661956787,-8.795208930969238,-2.700453519821167
1772881497636716000,1.736716064453125,3.402312755584717,-8.756478309631348,-2.814028024673462
1772881497646716000,1.7467158203125,3.4236252307891846,-8.712379455566406,-2.922948122024536
1772881497656716000,1.756716064453125,3.444265604019165,-8.669111251831055,-3.0255465507507324
1772881497666716000,1.7667158203125,3.4319114685058594,-8.633567810058594,-3.1390867233276367
1772881497676716000,1.776716064453125,3.378880023956299,-8.617952346801758,-3.2379701137542725
1772881497686716000,1.7867158203125,3.2890548706054688,-8.631828308105469,-3.2930309772491455
1772881497696716000,1.796716064453125,3.1737473011016846,-8.667288780212402,-3.312978506088257
1772881497706716000,1.8067158203125,3.0495753288269043,-8.70633602142334,-3.327188730239868
1772881497716716000,1.816716064453125,2.9477763175964355,-8.730957984924316,-3.354308605194092
1772881497726716000,1.8267158203125,2.8880579471588135,-8.739641189575195,-3.3835158348083496
1772881497736716000,1.836716064453125,2.873537302017212,-8.730799674987793,-3.4185245037078857
1772881497746716000,1.8467158203125,2.9077606201171875,-8.705540657043457,-3.45382022857666
1772881497756716000,1.856716064453125,2.971001386642456,-8.671479225158691,-3.4855399131774902
1772881497766716000,1.8667158203125,3.049628973007202,-8.627677917480469,-3.526092290878296
1772881497776716000,1.876716064453125,3.1476924419403076,-8.574874877929688,-3.5684621334075928
1772881497786716000,1.8867158203125,3.265277624130249,-8.516268730163574,-3.60298752784729
1772881497796716000,1.896716064453125,3.383133888244629,-8.457195281982422,-3.6332685947418213
1772881497806716000,1.9067158203125,3.4757583141326904,-8.406413078308105,-3.663567066192627
1772881497816716000,1.916716064453125,3.5441324710845947,-8.367905616760254,-3.6861462593078613
1772881497826716000,1.9267158203125,3.6004371643066406,-8.342066764831543,-3.6901426315307617
1772881497836716000,1.936716064453125,3.648850440979004,-8.328981399536133,-3.672104835510254
1772881497846716000,1.9467158203125,3.6748907566070557,-8.327738761901855,-3.648881435394287
1772881497856716000,1.956716064453125,3.683446168899536,-8.331478118896484,-3.631678581237793
1772881497866716000,1.9667158203125,3.652409076690674,-8.340662002563477,-3.6419296264648438
1772881497876716000,1.976716064453125,3.6102442741394043,-8.353891372680664,-3.653632402420044
1772881497886716000,1.9867158203125,3.568706512451172,-8.370659828186035,-3.6560609340667725
1772881497896716000,1.996716064453125,3.534656286239624,-8.38952350616455,-3.6458852291107178
1772881497906716000,2.0067158203125,3.529909372329712,-8.397418975830078,-3.6322836875915527
1772881497916716000,2.016716064453125,3.540588617324829,-8.396502494812012,-3.623997688293457
1772881497926716000,2.0267158203125,3.5497658252716064,-8.392850875854492,-3.623480796813965
1772881497936716000,2.036716064453125,3.5645761489868164,-8.383523941040039,-3.630523681640625
1772881497946716000,2.0467158203125,3.590496063232422,-8.365884780883789,-3.6456406116485596
1772881497956716000,2.056716064453125,3.622924566268921,-8.34295654296875,-3.666046142578125
1772881497966716000,2.0667158203125,3.6553094387054443,-8.31778621673584,-3.691006898880005
1772881497976716000,2.076716064453125,3.689451217651367,-8.29141902923584,-3.716273546218872
1772881497986716000,2.0867158203125,3.7176592350006104,-8.26842975616455,-3.7393124103546143
1772881497996716000,2.096716064453125,3.7278499603271484,-8.251944541931152,-3.765491008758545
1772881498006716000,2.1067158203125,3.7169203758239746,-8.241294860839844,-3.799467086791992
1772881498016716000,2.116716064453125,3.691143751144409,-8.235200881958008,-3.8376169204711914
1772881498026716000,2.1267158203125,3.6624979972839355,-8.229984283447266,-3.8760623931884766
1772881498036716000,2.136716064453125,3.6420488357543945,-8.220571517944336,-3.9151082038879395
1772881498046716000,2.1467158203125,3.6406352519989014,-8.204806327819824,-3.9493424892425537
1772881498056716000,2.156716064453125,3.658453941345215,-8.185837745666504,-3.9721741676330566
1772881498066716000,2.1667158203125,3.6970629692077637,-8.162684440612793,-3.984055757522583
1772881498076716000,2.176716064453125,3.755964994430542,-8.134398460388184,-3.9868133068084717
1772881498086716000,2.1867158203125,3.8343451023101807,-8.101658821105957,-3.978856325149536
1772881498096716000,2.196716064453125,3.9171814918518066,-8.070062637329102,-3.9623446464538574
1772881498106716000,2.2067158203125,4.0131683349609375,-8.036959648132324,-3.933464765548706
1772881498116716000,2.216716064453125,4.1092529296875,-8.020625114440918,-3.867041826248169
1772881498126716000,2.2267158203125,4.145016670227051,-8.040572166442871,-3.786612033843994
1772881498136716000,2.236716064453125,4.1040215492248535,-8.087857246398926,-3.7301411628723145
1772881498146716000,2.2467158203125,3.9802310466766357,-8.148250579833984,-3.732848644256592
1772881498156716000,2.256716064453125,3.7659192085266113,-8.225055694580078,-3.7863848209381104
1772881498166716000,2.2667158203125,3.4850893020629883,-8.319103240966797,-3.8492960929870605
1772881498176716000,2.276716064453125,3.183427572250366,-8.419144630432129,-3.8928380012512207
1772881498186716000,2.2867158203125,2.9077413082122803,-8.508562088012695,-3.9140541553497314
1772881498196716000,2.296716064453125,2.6902542114257812,-8.572232246398926,-3.9306182861328125
1772881498206716000,2.3067158203125,2.5445785522460938,-8.607878684997559,-3.949676752090454
1772881498216716000,2.316716064453125,2.4735825061798096,-8.621933937072754,-3.96409273147583
1772881498226716000,2.3267158203125,2.4644508361816406,-8.618328094482422,-3.977598190307617
1772881498236716000,2.336716064453125,2.499274492263794,-8.599352836608887,-3.9968924522399902
1772881498246716000,2.3467158203125,2.569051742553711,-8.557106018066406,-4.043056488037109
1772881498256716000,2.356716064453125,2.668163776397705,-8.482778549194336,-4.134457111358643
1772881498266716000,2.3667158203125,2.791527509689331,-8.382674217224121,-4.255413055419922
1772881498276716000,2.376716064453125,2.9206762313842773,-8.257282257080078,-4.411044120788574
1772881498286716000,2.3867158203125,3.0339317321777344,-8.095551490783691,-4.629006385803223
1772881498296716000,2.396716064453125,3.1521859169006348,-7.898428916931152,-4.8835368156433105
1772881498306716000,2.4067158203125,3.298067092895508,-7.704392910003662,-5.09268856048584
1772881498316716000,2.416716064453125,3.465024709701538,-7.56935453414917,-5.183518886566162
1772881498326716000,2.4267158203125,3.589231014251709,-7.482161045074463,-5.225427150726318
1772881498336716000,2.436716064453125,3.6527817249298096,-7.408903121948242,-5.285425662994385
1772881498346716000,2.4467158203125,3.7082080841064453,-7.320789337158203,-5.368950843811035
1772881498356716000,2.456716064453125,3.8091676235198975,-7.201013088226318,-5.45949125289917
1772881498366716000,2.4667158203125,3.9584217071533203,-7.062859058380127,-5.533290863037109
1772881498376716000,2.476716064453125,4.125157356262207,-6.940215110778809,-5.566585540771484
1772881498386716000,2.4867158203125,4.3688788414001465,-6.8976593017578125,-5.431903839111328
1772881498396716000,2.496716064453125,4.562490463256836,-6.993844985961914,-5.142003536224365
1772881498406716000,2.5067158203125,4.60821533203125,-7.107911109924316,-4.940884590148926
1772881498416716000,2.516716064453125,4.546969890594482,-7.188430309295654,-4.880771636962891
1772881498426716000,2.5267158203125,4.515317916870117,-7.241905689239502,-4.830848693847656
1772881498436716000,2.536716064453125,4.573740005493164,-7.302812576293945,-4.681903839111328
1772881498446716000,2.5467158203125,4.658121585845947,-7.3721137046813965,-4.4860029220581055
1772881498456716000,2.556716064453125,4.702713966369629,-7.440222263336182,-4.3241143226623535
1772881498466716000,2.5667158203125,4.6948676109313965,-7.50225305557251,-4.2243123054504395
1772881498476716000,2.576716064453125,4.655771732330322,-7.555166721343994,-4.1729655265808105
1772881498486716000,2.5867158203125,4.609976768493652,-7.58906888961792,-4.162275791168213
1772881498496716000,2.596716064453125,4.589150428771973,-7.599330425262451,-4.166563987731934
1772881498506716000,2.6067158203125,4.585906982421875,-7.605922698974609,-4.15809965133667
1772881498516716000,2.616716064453125,4.572591781616211,-7.619046688079834,-4.148725986480713
1772881498526716000,2.6267158203125,4.599951267242432,-7.626281261444092,-4.10495662689209
1772881498536716000,2.636716064453125,4.661965370178223,-7.633419513702393,-4.020866870880127
1772881498546716000,2.6467158203125,4.701475620269775,-7.64718770980835,-3.948042869567871
1772881498556716000,2.656716064453125,4.710605144500732,-7.665694713592529,-3.900989532470703
1772881498566716000,2.6667158203125,4.705976963043213,-7.693111896514893,-3.8522965908050537
1772881498576716000,2.676716064453125,4.686882495880127,-7.744365215301514,-3.772045373916626
1772881498586716000,2.6867158203125,4.624860763549805,-7.808132171630859,-3.7167351245880127
1772881498596716000,2.696716064453125,4.553613185882568,-7.850915431976318,-3.7145817279815674
1772881498606716000,2.7067158203125,4.509251594543457,-7.882987022399902,-3.700749635696411
1772881498616716000,2.716716064453125,4.506716728210449,-7.887974739074707,-3.693201780319214
1772881498626716000,2.7267158203125,4.524799346923828,-7.874064922332764,-3.7007675170898438
1772881498636716000,2.736716064453125,4.527734756469727,-7.866650104522705,-3.7129242420196533
1772881498646716000,2.7467158203125,4.515945911407471,-7.867887020111084,-3.7246432304382324
1772881498656716000,2.756716064453125,4.510427474975586,-7.872453689575195,-3.7216813564300537
1772881498666716000,2.7667158203125,4.513949394226074,-7.878907680511475,-3.7037110328674316
1772881498676716000,2.776716064453125,4.5169525146484375,-7.888118743896484,-3.680368185043335
1772881498686716000,2.7867158203125,4.513235092163086,-7.895798206329346,-3.6684396266937256
1772881498696716000,2.796716064453125,4.503611087799072,-7.899520397186279,-3.6722540855407715
1772881498706716000,2.8067158203125,4.497917175292969,-7.9001994132995605,-3.677769184112549
1772881498716716000,2.816716064453125,4.495419979095459,-7.904824256896973,-3.6708781719207764
1772881498726716000,2.8267158203125,4.486034870147705,-7.914336204528809,-3.6618523597717285
1772881498736716000,2.836716064453125,4.476325988769531,-7.923120021820068,-3.6547293663024902
1772881498746716000,2.8467158203125,4.47607946395874,-7.927603721618652,-3.645296096801758
1772881498756716000,2.856716064453125,4.496417999267578,-7.9264421463012695,-3.6227242946624756
1772881498766716000,2.8667158203125,4.518906116485596,-7.921217918395996,-3.6061298847198486
1772881498776716000,2.876716064453125,4.539189338684082,-7.918038845062256,-3.5875916481018066
1772881498786716000,2.8867158203125,4.549431324005127,-7.921946048736572,-3.5659263134002686
1772881498796716000,2.896716064453125,4.541676998138428,-7.9318156242370605,-3.553849697113037
1772881498806716000,2.9067158203125,4.522332668304443,-7.943986415863037,-3.5513341426849365
1772881498816716000,2.916716064453125,4.500474452972412,-7.95641565322876,-3.5512776374816895
1772881498826716000,2.9267158203125,4.47721004486084,-7.967851638793945,-3.5550432205200195
1772881498836716000,2.936716064453125,4.454611778259277,-7.975813388824463,-3.565558433532715
1772881498846716000,2.9467158203125,4.436809539794922,-7.978224277496338,-3.582324981689453
1772881498856716000,2.956716064453125,4.424219608306885,-7.977371692657471,-3.5997512340545654
1772881498866716000,2.9667158203125,4.4076128005981445,-7.976047992706299,-3.622983455657959
1772881498876716000,2.976716064453125,4.384883403778076,-7.976853370666504,-3.648698568344116
1772881498886716000,2.9867158203125,4.365663051605225,-7.9794440269470215,-3.6660385131835938
1772881498896716000,2.996716064453125,4.348999500274658,-7.981581211090088,-3.6811609268188477
1772881498906716000,3.0067158203125,4.335119247436523,-7.982417106628418,-3.6956913471221924
1772881498916716000,3.016716064453125,4.318820476531982,-7.983694076538086,-3.7119810581207275
1772881498926716000,3.0267158203125,4.298992156982422,-7.983278751373291,-3.73581600189209
1772881498936716000,3.036716064453125,4.2813401222229,-7.978808403015137,-3.7655181884765625
1772881498946716000,3.0467158203125,4.264498710632324,-7.971133708953857,-3.8007168769836426
1772881498956716000,3.056716064453125,4.2413411140441895,-7.972712516784668,-3.823254108428955
1772881498966716000,3.0667158203125,4.191226482391357,-7.989542484283447,-3.843336343765259
1772881498976716000,3.076716064453125,4.112793445587158,-8.013257026672363,-3.8785336017608643
1772881498986716000,3.0867158203125,4.013574600219727,-8.049389839172363,-3.9075472354888916
1772881498996716000,3.096716064453125,3.892306089401245,-8.109726905822754,-3.9054667949676514
1772881499006716000,3.1067158203125,3.747897148132324,-8.184350967407227,-3.891022205352783
1772881499016716000,3.116716064453125,3.5739171504974365,-8.271673202514648,-3.8700015544891357
1772881499026716000,3.1267158203125,3.364988088607788,-8.363080024719238,-3.860844612121582
1772881499036716000,3.136716064453125,3.1301488876342773,-8.45234203338623,-3.8639962673187256
1772881499046716000,3.1467158203125,2.8590893745422363,-8.552977561950684,-3.8526041507720947
1772881499056716000,3.156716064453125,2.537996530532837,-8.66748332977295,-3.821479320526123
1772881499066716000,3.1667158203125,2.1657135486602783,-8.798417091369629,-3.7507214546203613
1772881499076716000,3.176716064453125,1.791664481163025,-8.888360977172852,-3.7359566688537598
1772881499086716000,3.1867158203125,1.4699382781982422,-8.933586120605469,-3.768380641937256
1772881499096716000,3.196716064453125,1.2460256814956665,-8.9453125,-3.820889711380005
1772881499106716000,3.2067158203125,1.1210732460021973,-8.941642761230469,-3.8678956031799316
1772881499116716000,3.216716064453125,1.0652806758880615,-8.92568588256836,-3.9201645851135254
1772881499126716000,3.2267158203125,1.0364627838134766,-8.902235984802246,-3.980745315551758
1772881499136716000,3.236716064453125,1.007493257522583,-8.873697280883789,-4.051276206970215
1772881499146716000,3.2467158203125,0.9877709746360779,-8.847756385803223,-4.1124067306518555
1772881499156716000,3.256716064453125,1.00514554977417,-8.823234558105469,-4.160602569580078
1772881499166716000,3.2667158203125,1.083130955696106,-8.794795036315918,-4.201048851013184
1772881499176716000,3.276716064453125,1.222496747970581,-8.76313591003418,-4.228871822357178
1772881499186716000,3.2867158203125,1.4081296920776367,-8.732726097106934,-4.234033107757568
1772881499196716000,3.296716064453125,1.628999948501587,-8.703088760375977,-4.215802192687988
1772881499206716000,3.3067158203125,1.8577545881271362,-8.680685997009277,-4.167112350463867
1772881499216716000,3.316716064453125,2.011268138885498,-8.695047378540039,-4.064645290374756
1772881499226716000,3.3267158203125,2.015296697616577,-8.724139213562012,-3.9997966289520264
1772881499236716000,3.336716064453125,1.8807432651519775,-8.745240211486816,-4.019201278686523
1772881499246716000,3.3467158203125,1.6795475482940674,-8.7600736618042,-4.075613498687744
1772881499256716000,3.356716064453125,1.4827561378479004,-8.761531829833984,-4.1481781005859375
1772881499266716000,3.3667158203125,1.3397059440612793,-8.747881889343262,-4.224942207336426
1772881499276716000,3.376716064453125,1.2757774591445923,-8.725098609924316,-4.291321277618408
1772881499286716000,3.3867158203125,1.2999491691589355,-8.696564674377441,-4.341691970825195
1772881499296716000,3.396716064453125,1.4094690084457397,-8.661263465881348,-4.377932548522949
1772881499306716000,3.4067158203125,1.590551733970642,-8.618412971496582,-4.400396823883057
1772881499316716000,3.416716064453125,1.827409267425537,-8.562504768371582,-4.4175190925598145
1772881499326716000,3.4267158203125,2.1109139919281006,-8.48802375793457,-4.434848308563232
1772881499336716000,3.436716064453125,2.4348278045654297,-8.395110130310059,-4.445688247680664
1772881499346716000,3.4467158203125,2.786336898803711,-8.296340942382812,-4.424642086029053
1772881499356716000,3.456716064453125,3.1438136100769043,-8.1963472366333,-4.371120929718018
1772881499366716000,3.4667158203125,3.4719183444976807,-8.099947929382324,-4.301978588104248
1772881499376716000,3.476716064453125,3.7315618991851807,-8.021339416503906,-4.231305122375488
1772881499386716000,3.4867158203125,3.8934671878814697,-7.969381809234619,-4.183330535888672
1772881499396716000,3.496716064453125,3.9575564861297607,-7.947629451751709,-4.164530277252197
1772881499406716000,3.5067158203125,3.9569950103759766,-7.949893474578857,-4.16074275970459
1772881499416716000,3.516716064453125,3.927919626235962,-7.962520122528076,-4.164144515991211
1772881499426716000,3.5267158203125,3.892171859741211,-7.976651668548584,-4.170661926269531
1772881499436716000,3.536716064453125,3.8647713661193848,-7.988175392150879,-4.174084186553955
1772881499446716000,3.5467158203125,3.8524396419525146,-7.995382785797119,-4.171685218811035
1772881499456716000,3.556716064453125,3.8579399585723877,-7.9979729652404785,-4.161625862121582
1772881499466716000,3.5667158203125,3.883162021636963,-7.9953227043151855,-4.143217086791992
1772881499476716000,3.576716064453125,3.9260010719299316,-7.986918926239014,-4.118983745574951
1772881499486716000,3.5867158203125,3.9742226600646973,-7.977109909057617,-4.091659069061279
1772881499496716000,3.596716064453125,4.0210418701171875,-7.967342853546143,-4.06485652923584
1772881499506716000,3.6067158203125,4.065108776092529,-7.957874774932861,-4.039493560791016
1772881499516716000,3.616716064453125,4.106330871582031,-7.949443340301514,-4.014323711395264
1772881499526716000,3.6267158203125,4.142588138580322,-7.942510604858398,-3.99072265625
1772881499536716000,3.636716064453125,4.174341678619385,-7.9363603591918945,-3.9698166847229004
1772881499546716000,3.6467158203125,4.202380180358887,-7.9305291175842285,-3.9518485069274902
1772881499556716000,3.656716064453125,4.229556083679199,-7.923998832702637,-3.9359219074249268
1772881499566716000,3.6667158203125,4.2600202560424805,-7.915472030639648,-3.9201934337615967
1772881499576716000,3.676716064453125,4.295745372772217,-7.9048590660095215,-3.902583360671997
1772881499586716000,3.6867158203125,4.337619781494141,-7.893349647521973,-3.879493474960327
1772881499596716000,3.696716064453125,4.383216381072998,-7.881053924560547,-3.8531525135040283
1772881499606716000,3.7067158203125,4.42830228805542,-7.8693671226501465,-3.825387477874756
1772881499616716000,3.716716064453125,4.469440937042236,-7.859768390655518,-3.797172784805298
1772881499626716000,3.7267158203125,4.50410270690918,-7.852092742919922,-3.772012233734131
1772881499636716000,3.736716064453125,4.532341003417969,-7.84646463394165,-3.749835729598999
1772881499646716000,3.7467158203125,4.557482719421387,-7.841668605804443,-3.7293407917022705
1772881499656716000,3.756716064453125,4.582803726196289,-7.8369832038879395,-3.708099126815796
1772881499666716000,3.7667158203125,4.6090474128723145,-7.830578804016113,-3.6890525817871094
1772881499676716000,3.776716064453125,4.636050701141357,-7.822774410247803,-3.67173171043396
1772881499686716000,3.7867158203125,4.6637725830078125,-7.813715934753418,-3.6558780670166016
1772881499696716000,3.796716064453125,4.692143440246582,-7.803043842315674,-3.6423466205596924
1772881499706716000,3.8067158203125,4.721066951751709,-7.791530609130859,-3.629595994949341
1772881499716716000,3.816716064453125,4.748433589935303,-7.779866695404053,-3.6189005374908447
1772881499726716000,3.8267158203125,4.773130416870117,-7.768168926239014,-3.611534595489502
1772881499736716000,3.836716064453125,4.794986724853516,-7.756076335906982,-3.6085681915283203
1772881499746716000,3.8467158203125,4.815431594848633,-7.743109703063965,-3.6091904640197754
1772881499756716000,3.856716064453125,4.83643913269043,-7.728742599487305,-3.611894369125366
1772881499766716000,3.8667158203125,4.859380722045898,-7.713123798370361,-3.6144886016845703
1772881499776716000,3.876716064453125,4.8837890625,-7.697023868560791,-3.615910768508911
1772881499786716000,3.8867158203125,4.9082465171813965,-7.681471347808838,-3.615868330001831
1772881499796716000,3.896716064453125,4.932024002075195,-7.667473316192627,-3.613222360610962
1772881499806716000,3.9067158203125,4.954915523529053,-7.655501365661621,-3.607283115386963
1772881499816716000,3.916716064453125,4.976084232330322,-7.645554065704346,-3.5992321968078613
1772881499826716000,3.9267158203125,4.993540287017822,-7.63783073425293,-3.5914466381073
1772881499836716000,3.936716064453125,5.007964134216309,-7.630656719207764,-3.5866096019744873
1772881499846716000,3.9467158203125,5.021729946136475,-7.624444007873535,-3.580568790435791
1772881499856716000,3.956716064453125,5.034390926361084,-7.619171142578125,-3.5740060806274414
1772881499866716000,3.9667158203125,5.045365810394287,-7.614892482757568,-3.5676450729370117
1772881499876716000,3.976716064453125,5.055794715881348,-7.6106438636779785,-3.561941146850586
1772881499886716000,3.9867158203125,5.067461967468262,-7.605520725250244,-3.5563015937805176
1772881499896716000,3.996716064453125,5.082764148712158,-7.598026275634766,-3.5504794120788574
1772881499906716000,4.0067158203125,5.102717876434326,-7.587525844573975,-3.5443050861358643
1772881499916716000,4.016716064453125,5.125574588775635,-7.575169563293457,-3.537752151489258
1772881499926716000,4.0267158203125,5.149592876434326,-7.563131809234619,-3.528614044189453
1772881499936716000,4.036716064453125,5.173560619354248,-7.550413131713867,-3.5207836627960205
1772881499946716000,4.0467158203125,5.197147369384766,-7.53822135925293,-3.5121591091156006
1772881499956716000,4.056716064453125,5.2182745933532715,-7.527763843536377,-3.503251552581787
1772881499966716000,4.0667158203125,5.238724231719971,-7.518818378448486,-3.4919211864471436
1772881499976716000,4.076716064453125,5.259492874145508,-7.5112690925598145,-3.476918935775757
1772881499986716000,4.0867158203125,5.280726432800293,-7.504929542541504,-3.4583728313446045
1772881499996716000,4.096716064453125,5.301285266876221,-7.498359203338623,-3.441127061843872
1772881500006716000,4.1067158203125,5.32081413269043,-7.492758750915527,-3.42314076423645
1772881500016716000,4.116716064453125,5.338028430938721,-7.489077568054199,-3.404344320297241
1772881500026716000,4.1267158203125,5.353328704833984,-7.4866623878479,-3.385577917098999
1772881500036716000,4.136716064453125,5.367297649383545,-7.484905242919922,-3.3672993183135986
1772881500046716000,4.1467158203125,5.3796820640563965,-7.48361349105835,-3.350365400314331
1772881500056716000,4.156716064453125,5.390225887298584,-7.482666492462158,-3.335498332977295
1772881500066716000,4.1667158203125,5.398797512054443,-7.481997013092041,-3.323115587234497
1772881500076716000,4.176716064453125,5.4064621925354,-7.4812092781066895,-3.3124115467071533
1772881500086716000,4.1867158203125,5.414179801940918,-7.480242729187012,-3.301971197128296
1772881500096716000,4.196716064453125,5.4212236404418945,-7.479809761047363,-3.2913777828216553
1772881500106716000,4.2067158203125,5.4263715744018555,-7.4806671142578125,-3.280928611755371
1772881500116716000,4.216716064453125,5.428112983703613,-7.483795166015625,-3.270899534225464
1772881500126716000,4.2267158203125,5.426285266876221,-7.489132404327393,-3.2617058753967285
1772881500136716000,4.236716064453125,5.421779155731201,-7.49617338180542,-3.2530105113983154
1772881500146716000,4.2467158203125,5.415663242340088,-7.503949165344238,-3.2452619075775146
1772881500156716000,4.256716064453125,5.409243583679199,-7.511887073516846,-3.237595796585083
1772881500166716000,4.2667158203125,5.404006004333496,-7.51905632019043,-3.229691743850708
1772881500176716000,4.276716064453125,5.401268005371094,-7.524750709533691,-3.2209975719451904
1772881500186716000,4.2867158203125,5.400930881500244,-7.529007911682129,-3.2115981578826904
1772881500196716000,4.296716064453125,5.402050971984863,-7.531589031219482,-3.2036542892456055
1772881500206716000,4.3067158203125,5.406257152557373,-7.5316362380981445,-3.1964409351348877
1772881500216716000,4.316716064453125,5.411823272705078,-7.5300612449646,-3.190727472305298
1772881500226716000,4.3267158203125,5.416255474090576,-7.528667449951172,-3.1864941120147705
1772881500236716000,4.336716064453125,5.419805526733398,-7.526747703552246,-3.184988260269165
1772881500246716000,4.3467158203125,5.4237284660339355,-7.523391246795654,-3.1862411499023438
1772881500256716000,4.356716064453125,5.429571628570557,-7.518062591552734,-3.188865900039673
1772881500266716000,4.3667158203125,5.438243389129639,-7.51068115234375,-3.191483736038208
1772881500276716000,4.376716064453125,5.45039176940918,-7.500545978546143,-3.1945912837982178
1772881500286716000,4.3867158203125,5.464867115020752,-7.488347053527832,-3.1984803676605225
1772881500296716000,4.396716064453125,5.481595039367676,-7.473572731018066,-3.2044053077697754
1772881500306716000,4.4067158203125,5.500533103942871,-7.45643949508667,-3.2118582725524902
1772881500316716000,4.416716064453125,5.520632266998291,-7.438554763793945,-3.218836784362793
1772881500326716000,4.4267158203125,5.541473388671875,-7.422382354736328,-3.22035551071167
1772881500336716000,4.436716064453125,5.563197135925293,-7.409656047821045,-3.2121996879577637
1772881500346716000,4.4467158203125,5.584189414978027,-7.4007768630981445,-3.1962051391601562
1772881500356716000,4.456716064453125,5.602320194244385,-7.3955535888671875,-3.176506757736206
1772881500366716000,4.4667158203125,5.616786479949951,-7.393832683563232,-3.1548900604248047
1772881500376716000,4.476716064453125,5.629506587982178,-7.393767356872559,-3.1322906017303467
1772881500386716000,4.4867158203125,5.641119956970215,-7.394291877746582,-3.110078811645508
1772881500396716000,4.496716064453125,5.649789333343506,-7.39522647857666,-3.0920703411102295
1772881500406716000,4.5067158203125,5.65251350402832,-7.3975043296813965,-3.0816235542297363
1772881500416716000,4.516716064453125,5.650659561157227,-7.400205135345459,-3.0785393714904785
1772881500426716000,4.5267158203125,5.647332191467285,-7.402110576629639,-3.080061197280884
1772881500436716000,4.536716064453125,5.64645528793335,-7.401342391967773,-3.0835120677948
1772881500446716000,4.5467158203125,5.649962902069092,-7.397498607635498,-3.0863120555877686
1772881500456716000,4.556716064453125,5.656546592712402,-7.390834808349609,-3.090214252471924
1772881500466716000,4.5667158203125,5.666093826293945,-7.381938934326172,-3.0939857959747314
1772881500476716000,4.576716064453125,5.680543422698975,-7.370120525360107,-3.095663070678711
1772881500486716000,4.5867158203125,5.700930118560791,-7.35612678527832,-3.0914695262908936
1772881500496716000,4.596716064453125,5.725742340087891,-7.3403825759887695,-3.0830237865448
1772881500506716000,4.6067158203125,5.750507354736328,-7.325233459472656,-3.0729475021362305
1772881500516716000,4.616716064453125,5.772298336029053,-7.312231540679932,-3.0630431175231934
1772881500526716000,4.6267158203125,5.789984703063965,-7.301697731018066,-3.0547797679901123
1772881500536716000,4.636716064453125,5.803203582763672,-7.2938079833984375,-3.0485377311706543
1772881500546716000,4.6467158203125,5.812329292297363,-7.28879451751709,-3.043137788772583
1772881500556716000,4.656716064453125,5.819371223449707,-7.286594390869141,-3.0349392890930176
1772881500566716000,4.6667158203125,5.825675010681152,-7.286008834838867,-3.0242297649383545
1772881500576716000,4.676716064453125,5.833149433135986,-7.285396099090576,-3.011272430419922
1772881500586716000,4.6867158203125,5.842867374420166,-7.28421688079834,-2.9952423572540283
1772881500596716000,4.696716064453125,5.85391902923584,-7.282706260681152,-2.977280616760254
1772881500606716000,4.7067158203125,5.863821029663086,-7.280723571777344,-2.96260929107666
1772881500616716000,4.716716064453125,5.871610641479492,-7.277931213378906,-2.9540300369262695
1772881500626716000,4.7267158203125,5.876644134521484,-7.274373531341553,-2.952785015106201
1772881500636716000,4.736716064453125,5.879552841186523,-7.269626140594482,-2.958681583404541
1772881500646716000,4.7467158203125,5.882579326629639,-7.263462066650391,-2.967790365219116
1772881500656716000,4.756716064453125,5.886902809143066,-7.2566022872924805,-2.9759840965270996
1772881500666716000,4.7667158203125,5.89293909072876,-7.250190734863281,-2.979658842086792
1772881500676716000,4.776716064453125,5.900031566619873,-7.243969917297363,-2.980757474899292
1772881500686716000,4.7867158203125,5.909317493438721,-7.236373424530029,-2.980813503265381
1772881500696716000,4.796716064453125,5.922377586364746,-7.226338863372803,-2.9792368412017822
1772881500706716000,4.8067158203125,5.936940670013428,-7.215097904205322,-2.9774959087371826
1772881500716716000,4.816716064453125,5.950907230377197,-7.203619956970215,-2.9774062633514404
1772881500726716000,4.8267158203125,5.964624881744385,-7.1927080154418945,-2.9763364791870117
1772881500736716000,4.836716064453125,5.9805521965026855,-7.182397842407227,-2.969266891479492
1772881500746716000,4.8467158203125,6.001355171203613,-7.1713643074035645,-2.9539215564727783
1772881500756716000,4.856716064453125,6.032496452331543,-7.156394958496094,-2.9266676902770996
1772881500766716000,4.8667158203125,6.071228981018066,-7.138731956481934,-2.8894731998443604
1772881500776716000,4.876716064453125,6.1065592765808105,-7.1243414878845215,-2.8502776622772217
1772881500786716000,4.8867158203125,6.132517337799072,-7.117071151733398,-2.8124587535858154
1772881500796716000,4.896716064453125,6.145206928253174,-7.119379997253418,-2.7787129878997803
1772881500806716000,4.9067158203125,6.145479679107666,-7.130262851715088,-2.7500576972961426
1772881500816716000,4.916716064453125,6.139011383056641,-7.146543979644775,-2.7221031188964844
1772881500826716000,4.9267158203125,6.1294965744018555,-7.165447235107422,-2.6937012672424316
1772881500836716000,4.936716064453125,6.119840145111084,-7.184523582458496,-2.6646883487701416
1772881500846716000,4.9467158203125,6.1124043464660645,-7.202106475830078,-2.6341164112091064
1772881500856716000,4.956716064453125,6.108661651611328,-7.217140197753906,-2.601449728012085
1772881500866716000,4.9667158203125,6.107961177825928,-7.229220867156982,-2.569348096847534
1772881500876716000,4.976716064453125,6.1090922355651855,-7.239090442657471,-2.5386910438537598
1772881500886716000,4.9867158203125,6.112087726593018,-7.246945858001709,-2.5088937282562256
1772881500896716000,4.996716064453125,6.118718147277832,-7.251439571380615,-2.479576349258423
1772881500906716000,5.0067158203125,6.130746364593506,-7.251401424407959,-2.449800968170166
1772881500916716000,5.016716064453125,6.149472713470459,-7.246301174163818,-2.417746067047119
1772881500926716000,5.0267158203125,6.1749138832092285,-7.236168384552002,-2.383000135421753
1772881500936716000,5.036716064453125,6.20538854598999,-7.222408771514893,-2.3452820777893066
1772881500946716000,5.0467158203125,6.237586975097656,-7.207718372344971,-2.3047080039978027
1772881500956716000,5.056716064453125,6.267539978027344,-7.194575309753418,-2.2641589641571045
1772881500966716000,5.0667158203125,6.2915520668029785,-7.184691429138184,-2.2286717891693115
1772881500976716000,5.076716064453125,6.309973239898682,-7.177968502044678,-2.1980440616607666
1772881500986716000,5.0867158203125,6.327115535736084,-7.171694278717041,-2.1690561771392822
1772881500996716000,5.096716064453125,6.346508502960205,-7.161098480224609,-2.1472980976104736
1772881501006716000,5.1067158203125,6.370676040649414,-7.1448974609375,-2.129629373550415
1772881501016716000,5.116716064453125,6.400885105133057,-7.123662948608398,-2.110093116760254
1772881501026716000,5.1267158203125,6.437245845794678,-7.097397804260254,-2.087867498397827
1772881501036716000,5.136716064453125,6.477111339569092,-7.0700483322143555,-2.057137966156006
1772881501046716000,5.1467158203125,6.516829013824463,-7.045307636260986,-2.0161802768707275
1772881501056716000,5.156716064453125,6.552265644073486,-7.025031566619873,-1.971580982208252
1772881501066716000,5.1667158203125,6.582425117492676,-7.008806228637695,-1.9283937215805054
1772881501076716000,5.176716064453125,6.60982084274292,-6.995683193206787,-1.8817731142044067
1772881501086716000,5.1867158203125,6.636643409729004,-6.984222888946533,-1.8292032480239868
1772881501096716000,5.196716064453125,6.6609320640563965,-6.974584579467773,-1.7769466638565063
1772881501106716000,5.2067158203125,6.679277420043945,-6.969381332397461,-1.727822184562683
1772881501116716000,5.216716064453125,6.689764022827148,-6.971090793609619,-1.679683804512024
1772881501126716000,5.2267158203125,6.692193984985352,-6.979717254638672,-1.6335448026657104
1772881501136716000,5.236716064453125,6.6876397132873535,-6.993617534637451,-1.5922269821166992
1772881501146716000,5.2467158203125,6.677359580993652,-7.0118889808654785,-1.5545670986175537
1772881501156716000,5.256716064453125,6.6652936935424805,-7.031922817230225,-1.5153616666793823
1772881501166716000,5.2667158203125,6.654850482940674,-7.050880432128906,-1.472562551498413
1772881501176716000,5.276716064453125,6.647626876831055,-7.06859016418457,-1.4193263053894043
1772881501186716000,5.2867158203125,6.640119552612305,-7.089125156402588,-1.3503752946853638
1772881501196716000,5.296716064453125,6.625738620758057,-7.116325855255127,-1.2758842706680298
1772881501206716000,5.3067158203125,6.60212516784668,-7.149663925170898,-1.2102285623550415
1772881501216716000,5.316716064453125,6.573920726776123,-7.184637546539307,-1.1553916931152344
1772881501226716000,5.3267158203125,6.543657302856445,-7.219949722290039,-1.1060117483139038
1772881501236716000,5.336716064453125,6.512038707733154,-7.255326747894287,-1.0601755380630493
1772881501246716000,5.3467158203125,6.480175495147705,-7.289175510406494,-1.0225578546524048
1772881501256716000,5.356716064453125,6.451065540313721,-7.319128036499023,-0.9922232627868652
1772881501266716000,5.3667158203125,6.428372859954834,-7.342508792877197,-0.9664254188537598
1772881501276716000,5.376716064453125,6.4123125076293945,-7.359699726104736,-0.9420468211174011
1772881501286716000,5.3867158203125,6.401453018188477,-7.372133731842041,-0.9183793067932129
1772881501296716000,5.396716064453125,6.39339542388916,-7.381989002227783,-0.8950509428977966
1772881501306716000,5.4067158203125,6.385788440704346,-7.3917155265808105,-0.8686972856521606
1772881501316716000,5.416716064453125,6.376811981201172,-7.403249263763428,-0.8357996940612793
1772881501326716000,5.4267158203125,6.365956783294678,-7.416700839996338,-0.7984622120857239
1772881501336716000,5.436716064453125,6.351925849914551,-7.432709693908691,-0.7604334950447083
1772881501346716000,5.4467158203125,6.333608150482178,-7.452027320861816,-0.7232497334480286
1772881501356716000,5.456716064453125,6.311841011047363,-7.473550319671631,-0.6907200217247009
1772881501366716000,5.4667158203125,6.288325309753418,-7.49564790725708,-0.6652841567993164
1772881501376716000,5.476716064453125,6.264896392822266,-7.516995429992676,-0.6451603174209595
1772881501386716000,5.4867158203125,6.24326753616333,-7.536520957946777,-0.626772403717041
1772881501396716000,5.496716064453125,6.22389030456543,-7.553954601287842,-0.6093791127204895
1772881501406716000,5.5067158203125,6.2070159912109375,-7.569121360778809,-0.5930860042572021
1772881501416716000,5.516716064453125,6.192559719085693,-7.582134246826172,-0.5777838826179504
1772881501426716000,5.5267158203125,6.180000305175781,-7.5934834480285645,-0.5630279779434204
1772881501436716000,5.536716064453125,6.169600486755371,-7.602938652038574,-0.5493137240409851
1772881501446716000,5.5467158203125,6.161348342895508,-7.61032772064209,-0.5395156741142273
1772881501456716000,5.556716064453125,6.155541896820068,-7.615396022796631,-0.5342488884925842
1772881501466716000,5.5667158203125,6.153459548950195,-7.617091178894043,-0.5340898036956787
1772881501476716000,5.576716064453125,6.15525484085083,-7.615283489227295,-0.5391506552696228
1772881501486716000,5.5867158203125,6.15922212600708,-7.611617088317871,-0.5455629229545593
1772881501496716000,5.596716064453125,6.1627702713012695,-7.608325004577637,-0.5514076352119446
1772881501506716000,5.6067158203125,6.162830829620361,-7.607849597930908,-0.5572479367256165
1772881501516716000,5.616716064453125,6.156468868255615,-7.612481117248535,-0.564269483089447
1772881501526716000,5.6267158203125,6.143799781799316,-7.622199058532715,-0.5711184144020081
1772881501536716000,5.636716064453125,6.125527858734131,-7.636312007904053,-0.5788254141807556
1772881501546716000,5.6467158203125,6.1019744873046875,-7.654244422912598,-0.59063720703125
1772881501556716000,5.656716064453125,6.075685501098633,-7.6734137535095215,-0.612499475479126
1772881501566716000,5.6667158203125,6.050755023956299,-7.690366744995117,-0.6457711458206177
1772881501576716000,5.676716064453125,6.031948089599609,-7.7018351554870605,-0.6839022040367126
1772881501586716000,5.6867158203125,6.020168781280518,-7.707723140716553,-0.7203962206840515
1772881501596716000,5.696716064453125,6.0129265785217285,-7.710226535797119,-0.7533339262008667
1772881501606716000,5.7067158203125,6.005072116851807,-7.713525295257568,-0.7816829085350037
1772881501616716000,5.716716064453125,5.994183540344238,-7.72060489654541,-0.7952383160591125
1772881501626716000,5.7267158203125,5.980537414550781,-7.731169700622559,-0.7953457832336426
1772881501636716000,5.736716064453125,5.966376781463623,-7.743206977844238,-0.7845247387886047
1772881501646716000,5.7467158203125,5.951021671295166,-7.756382942199707,-0.7708754539489746
1772881501656716000,5.756716064453125,5.935996055603027,-7.767294883728027,-0.7768346667289734
1772881501666716000,5.7667158203125,5.921573162078857,-7.774988174438477,-0.8092612028121948
1772881501676716000,5.776716064453125,5.908613681793213,-7.779735088348389,-0.8569746613502502
1772881501686716000,5.7867158203125,5.89720344543457,-7.782205581665039,-0.911403238773346
1772881501696716000,5.796716064453125,5.884058952331543,-7.785575866699219,-0.9659376740455627
1772881501706716000,5.8067158203125,5.866433620452881,-7.79246711730957,-1.0162677764892578
1772881501716716000,5.816716064453125,5.842362403869629,-7.80510139465332,-1.0571622848510742
1772881501726716000,5.8267158203125,5.809695243835449,-7.824731826782227,-1.0915054082870483
1772881501736716000,5.836716064453125,5.765775680541992,-7.851505756378174,-1.1314036846160889
1772881501746716000,5.8467158203125,5.707694053649902,-7.885953426361084,-1.1850581169128418
1772881501756716000,5.856716064453125,5.636322975158691,-7.926760196685791,-1.2524828910827637
1772881501766716000,5.8667158203125,5.555665969848633,-7.970740795135498,-1.3312597274780273
1772881501776716000,5.876716064453125,5.474418640136719,-8.012715339660645,-1.4133377075195312
1772881501786716000,5.8867158203125,5.38228702545166,-8.062369346618652,-1.4830948114395142
1772881501796716000,5.896716064453125,5.2804484367370605,-8.119977951049805,-1.5340192317962646
1772881501806716000,5.9067158203125,5.183576583862305,-8.179431915283203,-1.5484896898269653
1772881501816716000,5.916716064453125,5.119951248168945,-8.227019309997559,-1.507527232170105
1772881501826716000,5.9267158203125,5.095306873321533,-8.256815910339355,-1.4259108304977417
1772881501836716000,5.936716064453125,5.085531711578369,-8.279083251953125,-1.3283554315567017
1772881501846716000,5.9467158203125,5.063109874725342,-8.304631233215332,-1.2523579597473145
1772881501856716000,5.956716064453125,5.022634983062744,-8.33521842956543,-1.2114728689193726
1772881501866716000,5.9667158203125,4.973282814025879,-8.366869926452637,-1.196797490119934
1772881501876716000,5.976716064453125,4.9197587966918945,-8.400102615356445,-1.1851699352264404
1772881501886716000,5.9867158203125,4.8613505363464355,-8.43601131439209,-1.1710567474365234
1772881501896716000,5.996716064453125,4.798322677612305,-8.474324226379395,-1.1542625427246094
1772881501906716000,6.0067158203125,4.734540939331055,-8.513093948364258,-1.1321430206298828
1772881501916716000,6.016716064453125,4.674910068511963,-8.54989242553711,-1.102250099182129
1772881501926716000,6.0267158203125,4.620573043823242,-8.583407402038574,-1.0704213380813599
1772881501936716000,6.036716064453125,4.56926965713501,-8.614596366882324,-1.0396543741226196
1772881501946716000,6.0467158203125,4.521834850311279,-8.643372535705566,-1.0077292919158936
1772881501956716000,6.056716064453125,4.477648735046387,-8.670112609863281,-0.9747837781906128
1772881501966716000,6.0667158203125,4.432685852050781,-8.697175025939941,-0.9385311007499695
1772881501976716000,6.076716064453125,4.386215686798096,-8.725480079650879,-0.8930280804634094
1772881501986716000,6.0867158203125,4.339354038238525,-8.754918098449707,-0.831742525100708
1772881501996716000,6.096716064453125,4.29787540435791,-8.78173542022705,-0.7614330649375916
1772881502006716000,6.1067158203125,4.274386882781982,-8.79844856262207,-0.698078453540802
1772881502016716000,6.116716064453125,4.273284435272217,-8.802552223205566,-0.6515400409698486
1772881502026716000,6.1267158203125,4.290098190307617,-8.79621696472168,-0.6261059641838074
1772881502036716000,6.136716064453125,4.317501544952393,-8.783248901367188,-0.619750440120697
1772881502046716000,6.1467158203125,4.349937915802002,-8.76724624633789,-0.6195377707481384
1772881502056716000,6.156716064453125,4.386016845703125,-8.749785423278809,-0.6119588613510132
1772881502066716000,6.1667158203125,4.425358772277832,-8.731794357299805,-0.5851157307624817
1772881502076716000,6.176716064453125,4.4674811363220215,-8.713717460632324,-0.5321260690689087
1772881502086716000,6.1867158203125,4.50901985168457,-8.696919441223145,-0.45025089383125305
1772881502096716000,6.196716064453125,4.543430328369141,-8.683734893798828,-0.34694406390190125
1772881502106716000,6.2067158203125,4.562840938568115,-8.677120208740234,-0.24174262583255768
1772881502116716000,6.216716064453125,4.564708709716797,-8.67819595336914,-0.15077351033687592
1772881502126716000,6.2267158203125,4.550902366638184,-8.686427116394043,-0.0752379447221756
1772881502136716000,6.236716064453125,4.5298895835876465,-8.697720527648926,-0.011790276505053043
1772881502146716000,6.2467158203125,4.50849723815918,-8.708724021911621,0.044206395745277405
1772881502156716000,6.256716064453125,4.494629859924316,-8.715646743774414,0.07875564694404602
1772881502166716000,6.2667158203125,4.490248680114746,-8.717875480651855,0.08190791308879852
1772881502176716000,6.276716064453125,4.4928998947143555,-8.716747283935547,0.050613634288311005
1772881502186716000,6.2867158203125,4.498295307159424,-8.714103698730469,-0.010861875489354134
1772881502196716000,6.296716064453125,4.505459308624268,-8.709882736206055,-0.0956481322646141
1772881502206716000,6.3067158203125,4.517521381378174,-8.702030181884766,-0.19247327744960785
1772881502216716000,6.316716064453125,4.532748222351074,-8.691519737243652,-0.2864978611469269
1772881502226716000,6.3267158203125,4.548295021057129,-8.680773735046387,-0.3571544587612152
1772881502236716000,6.336716064453125,4.56716251373291,-8.668546676635742,-0.40953731536865234
1772881502246716000,6.3467158203125,4.596731662750244,-8.650757789611816,-0.4525800347328186
1772881502256716000,6.356716064453125,4.63806676864624,-8.6265287399292,-0.4916542172431946
1772881502266716000,6.3667158203125,4.689337253570557,-8.596513748168945,-0.5295889377593994
1772881502276716000,6.376716064453125,4.748166561126709,-8.562146186828613,-0.5612056255340576
1772881502286716000,6.3867158203125,4.8110198974609375,-8.525951385498047,-0.5767339468002319
1772881502296716000,6.396716064453125,4.8630852699279785,-8.497112274169922,-0.5655755400657654
1772881502306716000,6.4067158203125,4.90151309967041,-8.477177619934082,-0.5319973826408386
1772881502316716000,6.416716064453125,4.926018714904785,-8.46595287322998,-0.4820333421230316
1772881502326716000,6.4267158203125,4.940299987792969,-8.460987091064453,-0.41896742582321167
1772881502336716000,6.436716064453125,4.951536178588867,-8.457867622375488,-0.342276930809021
1772881502346716000,6.4467158203125,4.966761589050293,-8.452132225036621,-0.25125059485435486
1772881502356716000,6.456716064453125,4.989213466644287,-8.441184997558594,-0.15665201842784882
1772881502366716000,6.4667158203125,5.0197038650512695,-8.424262046813965,-0.06903311610221863
1772881502376716000,6.476716064453125,5.059558391571045,-8.400668144226074,0.0065462784841656685
1772881502386716000,6.4867158203125,5.102919578552246,-8.374059677124023,0.0756799727678299
1772881502396716000,6.496716064453125,5.145321846008301,-8.347128868103027,0.14657127857208252
1772881502406716000,6.5067158203125,5.187414169311523,-8.319391250610352,0.22100293636322021
1772881502416716000,6.516716064453125,5.224565029144287,-8.293510437011719,0.30330491065979004
1772881502426716000,6.5267158203125,5.258105754852295,-8.268949508666992,0.3836497664451599
1772881502436716000,6.536716064453125,5.2962517738342285,-8.240799903869629,0.4575335681438446
1772881502446716000,6.5467158203125,5.334991455078125,-8.211206436157227,0.5332353711128235
1772881502456716000,6.556716064453125,5.374816417694092,-8.179891586303711,0.6091872453689575
1772881502466716000,6.5667158203125,5.414628982543945,-8.14755630493164,0.6851961612701416
1772881502476716000,6.576716064453125,5.451416969299316,-8.11613941192627,0.7620581388473511
1772881502486716000,6.5867158203125,5.4833478927612305,-8.087099075317383,0.8379168510437012
1772881502496716000,6.596716064453125,5.511910915374756,-8.060181617736816,0.9070227742195129
1772881502506716000,6.6067158203125,5.532130241394043,-8.038992881774902,0.9698053598403931
1772881502516716000,6.616716064453125,5.549138069152832,-8.020024299621582,1.0279406309127808
1772881502526716000,6.6267158203125,5.56641960144043,-7.999874114990234,1.0896639823913574
1772881502536716000,6.636716064453125,5.586101531982422,-7.977756977081299,1.1494572162628174
1772881502546716000,6.6467158203125,5.608658790588379,-7.9533796310424805,1.2070993185043335
1772881502556716000,6.656716064453125,5.633907318115234,-7.927548885345459,1.25835382938385
1772881502566716000,6.6667158203125,5.664421558380127,-7.898402690887451,1.303821325302124
1772881502576716000,6.676716064453125,5.700151443481445,-7.865543365478516,1.3460663557052612
1772881502586716000,6.6867158203125,5.73525857925415,-7.832800388336182,1.3872437477111816
1772881502596716000,6.696716064453125,5.767854690551758,-7.802138328552246,1.4243876934051514
1772881502606716000,6.7067158203125,5.7977705001831055,-7.774504661560059,1.4537296295166016
1772881502616716000,6.716716064453125,5.8250861167907715,-7.748767852783203,1.4816761016845703
1772881502626716000,6.7267158203125,5.851017475128174,-7.7227959632873535,1.5147267580032349
1772881502636716000,6.736716064453125,5.881496906280518,-7.693736553192139,1.5442801713943481
1772881502646716000,6.7467158203125,5.918074131011963,-7.660669326782227,1.5687323808670044
1772881502656716000,6.756716064453125,5.956975936889648,-7.62736177444458,1.5837206840515137
1772881502666716000,6.7667158203125,5.993326187133789,-7.599052429199219,1.5826671123504639
1772881502676716000,6.776716064453125,6.02739953994751,-7.5736799240112305,1.5748683214187622
1772881502686716000,6.7867158203125,6.059174537658691,-7.548397064208984,1.574320673942566
1772881502696716000,6.796716064453125,6.080479145050049,-7.532723903656006,1.5672378540039062
1772881502706716000,6.8067158203125,6.081315994262695,-7.538331031799316,1.5367326736450195
1772881502716716000,6.816716064453125,6.079553604125977,-7.556460857391357,1.4523459672927856
1772881502726716000,6.8267158203125,6.072046279907227,-7.582974910736084,1.341321587562561
1772881502736716000,6.836716064453125,6.055695056915283,-7.615090847015381,1.2285511493682861
1772881502746716000,6.8467158203125,6.0323309898376465,-7.650552272796631,1.1182194948196411
1772881502756716000,6.856716064453125,6.005844593048096,-7.686891555786133,1.005941390991211
1772881502766716000,6.8667158203125,5.977781295776367,-7.722301959991455,0.8958630561828613
1772881502776716000,6.876716064453125,5.950904369354248,-7.754393577575684,0.7915163636207581
1772881502786716000,6.8867158203125,5.9300055503845215,-7.779384136199951,0.69757080078125
1772881502796716000,6.896716064453125,5.916290760040283,-7.796431064605713,0.619306743144989
1772881502806716000,6.9067158203125,5.9096150398254395,-7.806278228759766,0.5557426810264587
1772881502816716000,6.916716064453125,5.909521579742432,-7.8100199699401855,0.5015201568603516
1772881502826716000,6.9267158203125,5.91318416595459,-7.81032657623291,0.45104750990867615
1772881502836716000,6.936716064453125,5.916493892669678,-7.810521602630615,0.40154024958610535
1772881502846716000,6.9467158203125,5.9145050048828125,-7.814587116241455,0.3482196629047394
1772881502856716000,6.956716064453125,5.90419864654541,-7.824999809265137,0.28320300579071045
1772881502866716000,6.9667158203125,5.886764049530029,-7.840497016906738,0.20735280215740204
1772881502876716000,6.976716064453125,5.865153789520264,-7.858469486236572,0.1217074990272522
1772881502886716000,6.9867158203125,5.843918800354004,-7.875172138214111,0.025500047951936722
1772881502896716000,6.996716064453125,5.825275897979736,-7.88863468170166,-0.07736381888389587
1772881502906716000,7.0067158203125,5.809685230255127,-7.898439407348633,-0.1805487424135208
1772881502916716000,7.016716064453125,5.7972893714904785,-7.904778957366943,-0.2762235701084137
1772881502926716000,7.0267158203125,5.789015293121338,-7.907548904418945,-0.358283668756485
1772881502936716000,7.036716064453125,5.7849907875061035,-7.907211780548096,-0.4245724380016327
1772881502946716000,7.0467158203125,5.784962177276611,-7.904234409332275,-0.47715577483177185
1772881502956716000,7.056716064453125,5.787566661834717,-7.8996686935424805,-0.5193151235580444
1772881502966716000,7.0667158203125,5.791816711425781,-7.894071102142334,-0.55577552318573
1772881502976716000,7.076716064453125,5.799169540405273,-7.886186599731445,-0.5899835824966431
1772881502986716000,7.0867158203125,5.810849666595459,-7.8749260902404785,-0.6244518756866455
1772881502996716000,7.096716064453125,5.824214458465576,-7.862095355987549,-0.6605738997459412
1772881503006716000,7.1067158203125,5.836755275726318,-7.849501609802246,-0.6985735893249512
1772881503016716000,7.116716064453125,5.847792148590088,-7.8377604484558105,-0.7370366454124451
1772881503026716000,7.1267158203125,5.856741428375244,-7.827395915985107,-0.7751349806785583
1772881503036716000,7.136716064453125,5.86289119720459,-7.819040298461914,-0.8120909333229065
1772881503046716000,7.1467158203125,5.865594387054443,-7.81321382522583,-0.8478586673736572
1772881503056716000,7.156716064453125,5.864537239074707,-7.810197830200195,-0.8822678923606873
1772881503066716000,7.1667158203125,5.8602399826049805,-7.809423446655273,-0.9169914722442627
1772881503076716000,7.176716064453125,5.852419853210449,-7.811245441436768,-0.9507955312728882
1772881503086716000,7.1867158203125,5.841914653778076,-7.815360069274902,-0.9811089634895325
1772881503096716000,7.196716064453125,5.831457614898682,-7.819657802581787,-1.0086859464645386
1772881503106716000,7.2067158203125,5.8223114013671875,-7.823270320892334,-1.0332111120224
1772881503116716000,7.216716064453125,5.815084457397461,-7.825724124908447,-1.0550965070724487
1772881503126716000,7.2267158203125,5.8096232414245605,-7.827062606811523,-1.075061559677124
1772881503136716000,7.236716064453125,5.804210662841797,-7.82828950881958,-1.0951727628707886
1772881503146716000,7.2467158203125,5.7971415519714355,-7.83048677444458,-1.1166990995407104
1772881503156716000,7.256716064453125,5.785805702209473,-7.835354804992676,-1.1410778760910034
1772881503166716000,7.2667158203125,5.768835067749023,-7.843717098236084,-1.1692041158676147
1772881503176716000,7.276716064453125,5.746290683746338,-7.855522155761719,-1.200538158416748
1772881503186716000,7.2867158203125,5.718532085418701,-7.870310306549072,-1.2357115745544434
1772881503196716000,7.296716064453125,5.686304092407227,-7.887585163116455,-1.273710012435913
1772881503206716000,7.3067158203125,5.649570465087891,-7.907854080200195,-1.3109462261199951
1772881503216716000,7.316716064453125,5.608957767486572,-7.930417537689209,-1.3485015630722046
1772881503226716000,7.3267158203125,5.565058708190918,-7.954200744628906,-1.3896762132644653
1772881503236716000,7.336716064453125,5.51832389831543,-7.978524208068848,-1.4358400106430054
1772881503246716000,7.3467158203125,5.468899250030518,-8.003101348876953,-1.4872411489486694
1772881503256716000,7.356716064453125,5.417280197143555,-8.027708053588867,-1.5425242185592651
1772881503266716000,7.3667158203125,5.3644280433654785,-8.05181884765625,-1.6004736423492432
1772881503276716000,7.376716064453125,5.3109846115112305,-8.074841499328613,-1.6615536212921143
1772881503286716000,7.3867158203125,5.2574896812438965,-8.097774505615234,-1.7190814018249512
1772881503296716000,7.396716064453125,5.207653522491455,-8.117438316345215,-1.7770589590072632
1772881503306716000,7.4067158203125,5.162820339202881,-8.133038520812988,-1.835579752922058
1772881503316716000,7.416716064453125,5.123884677886963,-8.145294189453125,-1.8895443677902222
1772881503326716000,7.4267158203125,5.0898919105529785,-8.154824256896973,-1.93964421749115
1772881503336716000,7.436716064453125,5.059668064117432,-8.16237735748291,-1.9863888025283813
1772881503346716000,7.4467158203125,5.032203197479248,-8.168447494506836,-2.0307085514068604
1772881503356716000,7.456716064453125,5.00380802154541,-8.17502498626709,-2.0739455223083496
1772881503366716000,7.4667158203125,4.972405433654785,-8.183138847351074,-2.1170260906219482
1772881503376716000,7.476716064453125,4.93734073638916,-8.193203926086426,-2.159735679626465
1772881503386716000,7.4867158203125,4.900557041168213,-8.203394889831543,-2.204371213912964
1772881503396716000,7.496716064453125,4.865972995758057,-8.210511207580566,-2.253929615020752
1772881503406716000,7.5067158203125,4.834959983825684,-8.213435173034668,-2.309338331222534
1772881503416716000,7.516716064453125,4.808055400848389,-8.211004257202148,-2.3732688426971436
1772881503426716000,7.5267158203125,4.785490036010742,-8.204305648803711,-2.44107723236084
1772881503436716000,7.536716064453125,4.765987873077393,-8.194564819335938,-2.5109457969665527
1772881503446716000,7.5467158203125,4.747279167175293,-8.183396339416504,-2.5818121433258057
1772881503456716000,7.556716064453125,4.727753162384033,-8.172727584838867,-2.650519371032715
1772881503466716000,7.5667158203125,4.706963539123535,-8.163483619689941,-2.7152183055877686
1772881503476716000,7.576716064453125,4.6844868659973145,-8.155829429626465,-2.7764065265655518
1772881503486716000,7.5867158203125,4.659392833709717,-8.150439262390137,-2.833864688873291
1772881503496716000,7.596716064453125,4.629836082458496,-8.148338317871094,-2.887835741043091
1772881503506716000,7.6067158203125,4.5955939292907715,-8.149214744567871,-2.939593553543091
1772881503516716000,7.616716064453125,4.560341835021973,-8.150967597961426,-2.989215135574341
1772881503526716000,7.6267158203125,4.525458335876465,-8.153197288513184,-3.0357840061187744
1772881503536716000,7.636716064453125,4.493439197540283,-8.156545639038086,-3.0741114616394043
1772881503546716000,7.6467158203125,4.466651439666748,-8.161786079406738,-3.0991408824920654
1772881503556716000,7.656716064453125,4.444857597351074,-8.166365623474121,-3.1183509826660156
1772881503566716000,7.6667158203125,4.425474166870117,-8.169239044189453,-3.1383278369903564
1772881503576716000,7.676716064453125,4.407118797302246,-8.169160842895508,-3.164252519607544
1772881503586716000,7.6867158203125,4.389586925506592,-8.165775299072266,-3.197190284729004
1772881503596716000,7.696716064453125,4.372735500335693,-8.16015911102295,-3.2344043254852295
1772881503606716000,7.7067158203125,4.357205390930176,-8.15378189086914,-3.271237373352051
1772881503616716000,7.716716064453125,4.341698169708252,-8.14771842956543,-3.3067691326141357
1772881503626716000,7.7267158203125,4.3249921798706055,-8.142498016357422,-3.3413400650024414
1772881503636716000,7.736716064453125,4.3070759773254395,-8.138609886169434,-3.373795986175537
1772881503646716000,7.7467158203125,4.286569118499756,-8.135817527770996,-3.4064905643463135
1772881503656716000,7.756716064453125,4.262618541717529,-8.13413143157959,-3.440404176712036
1772881503666716000,7.7667158203125,4.234787464141846,-8.135721206665039,-3.470881223678589
1772881503676716000,7.776716064453125,4.202419757843018,-8.140982627868652,-3.497779130935669
1772881503686716000,7.7867158203125,4.165919780731201,-8.148409843444824,-3.524048089981079
1772881503696716000,7.796716064453125,4.127529621124268,-8.156584739685059,-3.5502138137817383
1772881503706716000,7.8067158203125,4.090244770050049,-8.16446590423584,-3.5751607418060303
1772881503716716000,7.816716064453125,4.0571160316467285,-8.16976547241211,-3.6007113456726074
1772881503726716000,7.8267158203125,4.028979301452637,-8.172659873962402,-3.625649929046631
1772881503736716000,7.836716064453125,4.004941940307617,-8.173563003540039,-3.650163173675537
1772881503746716000,7.8467158203125,3.982923746109009,-8.173028945922852,-3.6753652095794678
1772881503756716000,7.856716064453125,3.9613046646118164,-8.172348022460938,-3.700160503387451
1772881503766716000,7.8667158203125,3.9397313594818115,-8.172720909118652,-3.722304105758667
1772881503776716000,7.876716064453125,3.9176878929138184,-8.174519538879395,-3.7415692806243896
1772881503786716000,7.8867158203125,3.89607834815979,-8.175651550292969,-3.7616047859191895
1772881503796716000,7.896716064453125,3.878516912460327,-8.174482345581055,-3.782238721847534
1772881503806716000,7.9067158203125,3.86470365524292,-8.171009063720703,-3.803821086883545
1772881503816716000,7.916716064453125,3.853728771209717,-8.165640830993652,-3.8264176845550537
1772881503826716000,7.9267158203125,3.842865467071533,-8.160443305969238,-3.848367929458618
1772881503836716000,7.936716064453125,3.8290317058563232,-8.156811714172363,-3.869797706604004
1772881503846716000,7.9467158203125,3.810767889022827,-8.155160903930664,-3.891245126724243
1772881503856716000,7.956716064453125,3.7887823581695557,-8.154671669006348,-3.9136722087860107
1772881503866716000,7.9667158203125,3.7656021118164062,-8.153942108154297,-3.9374940395355225
1772881503876716000,7.976716064453125,3.744072437286377,-8.153377532958984,-3.959134578704834
1772881503886716000,7.9867158203125,3.7234883308410645,-8.155606269836426,-3.9739272594451904
1772881503896716000,7.996716064453125,3.7007222175598145,-8.159154891967773,-3.987886428833008
1772881503906716000,8.0067158203125,3.678018093109131,-8.162459373474121,-4.002104759216309
1772881503916716000,8.016716064453124,3.6555464267730713,-8.165803909301758,-4.015843391418457
1772881503926716000,8.0267158203125,3.631697177886963,-8.170238494873047,-4.028445243835449
1772881503936716000,8.036716064453126,3.6066040992736816,-8.17566204071045,-4.039968967437744
1772881503946716000,8.0467158203125,3.5894720554351807,-8.178101539611816,-4.050274848937988
1772881503956716000,8.056716064453125,3.5739986896514893,-8.180062294006348,-4.059987545013428
1772881503966716000,8.0667158203125,3.558811664581299,-8.184407234191895,-4.064569473266602
1772881503976716000,8.076716064453125,3.5444743633270264,-8.190333366394043,-4.065159320831299
1772881503986716000,8.0867158203125,3.533358573913574,-8.195069313049316,-4.065290927886963
1772881503996716000,8.096716064453124,3.525217056274414,-8.199990272521973,-4.062435626983643
1772881504006716000,8.1067158203125,3.518650770187378,-8.205324172973633,-4.05735445022583
1772881504016716000,8.116716064453126,3.5116324424743652,-8.212224006652832,-4.049469470977783
1772881504026716000,8.1267158203125,3.502950429916382,-8.220075607299805,-4.041048049926758
1772881504036716000,8.136716064453125,3.493736505508423,-8.227831840515137,-4.033232688903809
1772881504046716000,8.1467158203125,3.4863717555999756,-8.23449420928955,-4.0260009765625
1772881504056716000,8.156716064453125,3.480992555618286,-8.24063777923584,-4.018083095550537
1772881504066716000,8.1667158203125,3.475937843322754,-8.246826171875,-4.0097503662109375
1772881504076716000,8.176716064453124,3.471341848373413,-8.252752304077148,-4.001532554626465
1772881504086716000,8.1867158203125,3.468863010406494,-8.257264137268066,-3.9943671226501465
1772881504096716000,8.196716064453126,3.4690444469451904,-8.261085510253906,-3.986298084259033
1772881504106716000,8.2067158203125,3.4727985858917236,-8.26215934753418,-3.980801582336426
1772881504116716000,8.216716064453125,3.481212854385376,-8.259434700012207,-3.979104995727539
1772881504126716000,8.2267158203125,3.492814302444458,-8.253225326538086,-3.9818222522735596
1772881504136716000,8.236716064453125,3.504572868347168,-8.24524974822998,-3.988008737564087
1772881504146716000,8.2467158203125,3.51465106010437,-8.238869667053223,-3.992321729660034
1772881504156716000,8.256716064453125,3.5237009525299072,-8.234922409057617,-3.9924890995025635
1772881504166716000,8.2667158203125,3.5321905612945557,-8.2339448928833,-3.986999034881592
1772881504176716000,8.276716064453124,3.5410945415496826,-8.234442710876465,-3.9780654907226562
1772881504186716000,8.2867158203125,3.550694227218628,-8.234725952148438,-3.96890926361084
1772881504196716000,8.296716064453125,3.560253381729126,-8.234564781188965,-3.9606711864471436
1772881504206716000,8.3067158203125,3.569477081298828,-8.233336448669434,-3.954918622970581
1772881504216716000,8.316716064453125,3.5799856185913086,-8.230598449707031,-3.951118230819702
1772881504226716000,8.3267158203125,3.5919549465179443,-8.22657585144043,-3.948633909225464
1772881504236716000,8.336716064453125,3.605242967605591,-8.22240924835205,-3.9452011585235596
1772881504246716000,8.3467158203125,3.6172454357147217,-8.220376968383789,-3.9384422302246094
1772881504256716000,8.356716064453124,3.6259820461273193,-8.220610618591309,-3.9299113750457764
1772881504266716000,8.3667158203125,3.635110855102539,-8.222983360290527,-3.9164891242980957
1772881504276716000,8.376716064453126,3.6437857151031494,-8.227975845336914,-3.897899627685547
1772881504286716000,8.3867158203125,3.652057409286499,-8.234264373779297,-3.876821756362915
1772881504296716000,8.396716064453125,3.661863088607788,-8.23997688293457,-3.855374813079834
1772881504306716000,8.4067158203125,3.674395799636841,-8.245311737060547,-3.831976890563965
1772881504316716000,8.416716064453125,3.6868414878845215,-8.251083374023438,-3.8075203895568848
1772881504326716000,8.4267158203125,3.6979050636291504,-8.258968353271484,-3.7795941829681396
1772881504336716000,8.436716064453124,3.7078185081481934,-8.268932342529297,-3.7479634284973145
1772881504346716000,8.4467158203125,3.7159502506256104,-8.280864715576172,-3.7134060859680176
1772881504356716000,8.456716064453126,3.726357936859131,-8.29131031036377,-3.679511547088623
1772881504366716000,8.4667158203125,3.7401068210601807,-8.299882888793945,-3.6460859775543213
1772881504376716000,8.476716064453125,3.753140926361084,-8.308416366577148,-3.613105297088623
1772881504386716000,8.4867158203125,3.7640185356140137,-8.318385124206543,-3.5786890983581543
1772881504396716000,8.496716064453125,3.773334264755249,-8.330436706542969,-3.5406432151794434
1772881504406716000,8.5067158203125,3.7816433906555176,-8.34424877166748,-3.4990103244781494
1772881504416716000,8.516716064453124,3.788954734802246,-8.357782363891602,-3.4585673809051514
1772881504426716000,8.5267158203125,3.7961792945861816,-8.37099838256836,-3.418450117111206
1772881504436716000,8.536716064453126,3.8039968013763428,-8.38539981842041,-3.374178647994995
1772881504446716000,8.5467158203125,3.8127923011779785,-8.400809288024902,-3.325568675994873
1772881504456716000,8.556716064453125,3.8191041946411133,-8.419302940368652,-3.2711117267608643
1772881504466716000,8.5667158203125,3.821542739868164,-8.44046688079834,-3.213212490081787
1772881504476716000,8.576716064453125,3.819565534591675,-8.461743354797363,-3.159148693084717
1772881504486716000,8.5867158203125,3.8191518783569336,-8.48028564453125,-3.1095383167266846
1772881504496716000,8.596716064453124,3.822472333908081,-8.49755859375,-3.0578739643096924
1772881504506716000,8.6067158203125,3.8331029415130615,-8.51251220703125,-3.002472400665283
1772881504516716000,8.616716064453126,3.8530454635620117,-8.523311614990234,-2.945772171020508
1772881504526716000,8.6267158203125,3.8823091983795166,-8.529217720031738,-2.889724016189575
1772881504536716000,8.636716064453125,3.917001247406006,-8.531805038452148,-2.8347485065460205
1772881504546716000,8.6467158203125,3.9583969116210938,-8.529431343078613,-2.78393292427063
1772881504556716000,8.656716064453125,4.004665851593018,-8.522052764892578,-2.740013599395752
1772881504566716000,8.6667158203125,4.055757999420166,-8.509278297424316,-2.7043306827545166
1772881504576716000,8.676716064453124,4.112016677856445,-8.491288185119629,-2.675769567489624
1772881504586716000,8.6867158203125,4.169693946838379,-8.469915390014648,-2.654160499572754
1772881504596716000,8.696716064453126,4.225301265716553,-8.447466850280762,-2.6377084255218506
1772881504606716000,8.7067158203125,4.278792381286621,-8.426288604736328,-2.619157314300537
1772881504616716000,8.716716064453125,4.332123279571533,-8.405233383178711,-2.599065065383911
1772881504626716000,8.7267158203125,4.387222766876221,-8.382439613342285,-2.580186367034912
1772881504636716000,8.736716064453125,4.44328498840332,-8.358119010925293,-2.5630927085876465
1772881504646716000,8.7467158203125,4.50346565246582,-8.331486701965332,-2.5447044372558594
1772881504656716000,8.756716064453125,4.564822673797607,-8.3043794631958,-2.523897647857666
1772881504666716000,8.7667158203125,4.625475883483887,-8.277824401855469,-2.500595808029175
1772881504676716000,8.776716064453124,4.685122966766357,-8.251667976379395,-2.475879192352295
1772881504686716000,8.7867158203125,4.745068073272705,-8.225936889648438,-2.4471802711486816
1772881504696716000,8.796716064453125,4.805877685546875,-8.199697494506836,-2.4163758754730225
1772881504706716000,8.8067158203125,4.87164306640625,-8.172738075256348,-2.3756744861602783
1772881504716716000,8.816716064453125,4.93464994430542,-8.148331642150879,-2.329015016555786
1772881504726716000,8.8267158203125,4.994792938232422,-8.125812530517578,-2.278947114944458
1772881504736716000,8.836716064453125,5.052113056182861,-8.104025840759277,-2.229640007019043
1772881504746716000,8.8467158203125,5.1082024574279785,-8.082544326782227,-2.179255247116089
1772881504756716000,8.856716064453124,5.163985252380371,-8.061461448669434,-2.125201940536499
1772881504766716000,8.8667158203125,5.217536449432373,-8.041430473327637,-2.0695621967315674
1772881504776716000,8.876716064453126,5.266243934631348,-8.02431869506836,-2.011808156967163
1772881504786716000,8.8867158203125,5.310064315795898,-8.009774208068848,-1.9537485837936401
1772881504796716000,8.896716064453125,5.349165439605713,-7.997925758361816,-1.894730567932129
1772881504806716000,8.9067158203125,5.384891510009766,-7.987416744232178,-1.8369808197021484
1772881504816716000,8.916716064453125,5.419283390045166,-7.97691535949707,-1.7806135416030884
1772881504826716000,8.9267158203125,5.453326225280762,-7.966024875640869,-1.7245477437973022
1772881504836716000,8.936716064453124,5.487476348876953,-7.954072952270508,-1.6705400943756104
1772881504846716000,8.9467158203125,5.520027160644531,-7.942747116088867,-1.616307258605957
1772881504856716000,8.956716064453126,5.550962448120117,-7.932600498199463,-1.5591814517974854
1772881504866716000,8.9667158203125,5.5816497802734375,-7.921788215637207,-1.5036119222640991
1772881504876716000,8.976716064453125,5.611905097961426,-7.910943984985352,-1.4470244646072388
1772881504886716000,8.9867158203125,5.642152786254883,-7.8996453285217285,-1.3899965286254883
1772881504896716000,8.996716064453125,5.672203063964844,-7.887614727020264,-1.3349283933639526
1772881504906716000,9.0067158203125,5.699558734893799,-7.876080513000488,-1.2856028079986572
1772881504916716000,9.016716064453124,5.723873615264893,-7.865071773529053,-1.2443060874938965
1772881504926716000,9.0267158203125,5.746623516082764,-7.853610038757324,-1.211411714553833
1772881504936716000,9.036716064453126,5.767198085784912,-7.842578887939453,-1.1848077774047852
1772881504946716000,9.0467158203125,5.786362648010254,-7.832000255584717,-1.161106824874878
1772881504956716000,9.056716064453125,5.807251930236816,-7.819901466369629,-1.1381347179412842
1772881504966716000,9.0667158203125,5.830661296844482,-7.806163311004639,-1.1124664545059204
1772881504976716000,9.076716064453125,5.856935501098633,-7.789886951446533,-1.088280439376831
1772881504986716000,9.0867158203125,5.8871026039123535,-7.769833564758301,-1.0686863660812378
1772881504996716000,9.096716064453124,5.918831825256348,-7.747663497924805,-1.0542865991592407
1772881505006716000,9.1067158203125,5.950606822967529,-7.724151611328125,-1.0479247570037842
1772881505016716000,9.116716064453126,5.980005264282227,-7.700906276702881,-1.0516501665115356
1772881505026716000,9.1267158203125,6.005928993225098,-7.678357124328613,-1.0686644315719604
1772881505036716000,9.136716064453125,6.027662754058838,-7.657544136047363,-1.095300316810608
1772881505046716000,9.1467158203125,6.045773983001709,-7.638054847717285,-1.1309778690338135
1772881505056716000,9.156716064453125,6.0610527992248535,-7.619054794311523,-1.1764451265335083
1772881505066716000,9.1667158203125,6.077519416809082,-7.597721576690674,-1.2283228635787964
1772881505076716000,9.176716064453124,6.095661640167236,-7.574382781982422,-1.2814127206802368
1772881505086716000,9.1867158203125,6.116588115692139,-7.548259258270264,-1.334733247756958
1772881505096716000,9.196716064453126,6.139240741729736,-7.520572662353516,-1.3860387802124023
1772881505106716000,9.2067158203125,6.164571762084961,-7.490198612213135,-1.4371421337127686
1772881505116716000,9.216716064453125,6.192037582397461,-7.458182334899902,-1.4847787618637085
1772881505126716000,9.2267158203125,6.220035552978516,-7.426201820373535,-1.5274381637573242
1772881505136716000,9.236716064453125,6.247647762298584,-7.395533561706543,-1.563126802444458
1772881505146716000,9.2467158203125,6.273764610290527,-7.367367744445801,-1.5912796258926392
1772881505156716000,9.256716064453125,6.298404693603516,-7.340989112854004,-1.6156615018844604
1772881505166716000,9.2667158203125,6.3207292556762695,-7.317055702209473,-1.63690984249115
1772881505176716000,9.276716064453124,6.339746952056885,-7.29590368270874,-1.6576451063156128
1772881505186716000,9.2867158203125,6.3556671142578125,-7.27728271484375,-1.6784013509750366
1772881505196716000,9.296716064453125,6.369511604309082,-7.260426998138428,-1.698797345161438
1772881505206716000,9.3067158203125,6.382381439208984,-7.244332313537598,-1.7190805673599243
1772881505216716000,9.316716064453125,6.3942718505859375,-7.228945732116699,-1.7395473718643188
1772881505226716000,9.3267158203125,6.406106472015381,-7.213595867156982,-1.759607195854187
1772881505236716000,9.336716064453125,6.417130947113037,-7.199147701263428,-1.7785087823867798
1772881505246716000,9.3467158203125,6.428503513336182,-7.184030532836914,-1.7984504699707031
1772881505256716000,9.356716064453124,6.440812110900879,-7.167816162109375,-1.8189918994903564
1772881505266716000,9.3667158203125,6.454054355621338,-7.150852680206299,-1.8387113809585571
1772881505276716000,9.376716064453126,6.467996597290039,-7.133666038513184,-1.8563992977142334
1772881505286716000,9.3867158203125,6.482271671295166,-7.116483211517334,-1.8724887371063232
1772881505296716000,9.396716064453125,6.496359348297119,-7.099346160888672,-1.8886468410491943
1772881505306716000,9.4067158203125,6.5096659660339355,-7.082193851470947,-1.9071362018585205
1772881505316716000,9.416716064453125,6.521718978881836,-7.064662933349609,-1.9308321475982666
1772881505326716000,9.4267158203125,6.531789302825928,-7.047410488128662,-1.9596223831176758
1772881505336716000,9.436716064453124,6.539028644561768,-7.031044006347656,-1.9939699172973633
1772881505346716000,9.4467158203125,6.53677225112915,-7.022678375244141,-2.0305120944976807
1772881505356716000,9.456716064453126,6.527464389801025,-7.018502712249756,-2.074418783187866
1772881505366716000,9.4667158203125,6.521778106689453,-7.009047508239746,-2.123690605163574
1772881505376716000,9.476716064453125,6.511928081512451,-7.001881122589111,-2.1768877506256104
1772881505386716000,9.4867158203125,6.499236583709717,-6.995635509490967,-2.2341463565826416
1772881505396716000,9.496716064453125,6.484514236450195,-6.989708423614502,-2.2946560382843018
1772881505406716000,9.5067158203125,6.468238353729248,-6.984282970428467,-2.356283664703369
1772881505416716000,9.516716064453124,6.451015949249268,-6.979422569274902,-2.4171130657196045
1772881505426716000,9.5267158203125,6.433867931365967,-6.974979400634766,-2.4749553203582764
1772881505436716000,9.536716064453126,6.418160915374756,-6.969986915588379,-2.529202938079834
1772881505446716000,9.5467158203125,6.404592514038086,-6.963629245758057,-2.580592632293701
1772881505456716000,9.556716064453125,6.39227819442749,-6.956654071807861,-2.6294751167297363
1772881505466716000,9.5667158203125,6.383861541748047,-6.946884632110596,-2.675351142883301
1772881505476716000,9.576716064453125,6.379338264465332,-6.9350433349609375,-2.7165427207946777
1772881505486716000,9.5867158203125,6.3780059814453125,-6.92234468460083,-2.751828670501709
1772881505496716000,9.596716064453124,6.379141807556152,-6.909642696380615,-2.7809672355651855
1772881505506716000,9.6067158203125,6.381089210510254,-6.897922039031982,-2.805485248565674
1772881505516716000,9.616716064453126,6.382843017578125,-6.886826992034912,-2.828660011291504
1772881505526716000,9.6267158203125,6.3819146156311035,-6.8767476081848145,-2.8551535606384277
1772881505536716000,9.636716064453125,6.374859809875488,-6.869360446929932,-2.8885018825531006
1772881505546716000,9.6467158203125,6.360505104064941,-6.864471435546875,-2.931448221206665
1772881505556716000,9.656716064453125,6.338127136230469,-6.862608432769775,-2.983812093734741
1772881505566716000,9.6667158203125,6.30768346786499,-6.864528179168701,-3.043314218521118
1772881505576716000,9.676716064453124,6.271329402923584,-6.869489669799805,-3.106593608856201
1772881505586716000,9.6867158203125,6.2313313484191895,-6.8784565925598145,-3.1666600704193115
1772881505596716000,9.696716064453126,6.190112590789795,-6.890077114105225,-3.221759796142578
1772881505606716000,9.7067158203125,6.1506547927856445,-6.903354644775391,-3.268566846847534
1772881505616716000,9.716716064453125,6.113875389099121,-6.9175825119018555,-3.307260513305664
1772881505626716000,9.7267158203125,6.080875873565674,-6.931546688079834,-3.338712453842163
1772881505636716000,9.736716064453125,6.054418087005615,-6.945008754730225,-3.358759641647339
1772881505646716000,9.7467158203125,6.034797191619873,-6.956061363220215,-3.3711740970611572
1772881505656716000,9.756716064453125,6.021196365356445,-6.963770866394043,-3.3795673847198486
1772881505666716000,9.7667158203125,6.012960910797119,-6.968255996704102,-3.384979486465454
1772881505676716000,9.776716064453124,6.008600234985352,-6.96843957901001,-3.392338991165161
1772881505686716000,9.7867158203125,6.005136489868164,-6.965876579284668,-3.403716564178467
1772881505696716000,9.796716064453125,5.9991302490234375,-6.9637980461120605,-3.4185280799865723
1772881505706716000,9.8067158203125,5.9883952140808105,-6.9658050537109375,-3.4332315921783447
1772881505716716000,9.816716064453125,5.971965312957764,-6.972233772277832,-3.448763608932495
1772881505726716000,9.8267158203125,5.950341701507568,-6.982473373413086,-3.4653842449188232
1772881505736716000,9.836716064453125,5.924590587615967,-6.994990348815918,-3.484210252761841
1772881505746716000,9.8467158203125,5.897099018096924,-7.0089545249938965,-3.5027384757995605
1772881505756716000,9.856716064453124,5.870635032653809,-7.02396297454834,-3.5170979499816895
1772881505766716000,9.8667158203125,5.8476481437683105,-7.038272380828857,-3.5267727375030518
1772881505776716000,9.876716064453126,5.829508304595947,-7.0506696701049805,-3.532034397125244
1772881505786716000,9.8867158203125,5.8149094581604,-7.062107086181641,-3.533250570297241
1772881505796716000,9.896716064453125,5.800731182098389,-7.073478698730469,-3.5338082313537598
1772881505806716000,9.9067158203125,5.7857346534729,-7.083960056304932,-3.5373950004577637
1772881505816716000,9.916716064453125,5.7704362869262695,-7.092465877532959,-3.5453333854675293
1772881505826716000,9.9267158203125,5.755765438079834,-7.09627628326416,-3.561518907546997
1772881505836716000,9.936716064453124,5.743716239929199,-7.097311973571777,-3.5788660049438477
1772881505846716000,9.9467158203125,5.736452579498291,-7.094978332519531,-3.5951051712036133
1772881505856716000,9.956716064453126,5.733220100402832,-7.089883804321289,-3.610280752182007
1772881505866716000,9.9667158203125,5.730568885803223,-7.083562850952148,-3.626858949661255
1772881505876716000,9.976716064453125,5.725246429443359,-7.078817367553711,-3.6444857120513916
1772881505886716000,9.9867158203125,5.715154647827148,-7.077047348022461,-3.66371488571167
1772881505896716000,9.996716064453125,5.700079917907715,-7.078760623931885,-3.683833599090576
1772881505906716000,10.0067158203125,5.681728839874268,-7.084122657775879,-3.701829195022583
1772881505916716000,10.016716064453124,5.661171913146973,-7.092107772827148,-3.7180001735687256
1772881505926716000,10.0267158203125,5.639575958251953,-7.100876808166504,-3.734049081802368
1772881505936716000,10.036716064453126,5.618396759033203,-7.110410213470459,-3.7478089332580566
1772881505946716000,10.0467158203125,5.5974040031433105,-7.119199275970459,-3.762507677078247
1772881505956716000,10.056716064453125,5.578616142272949,-7.126204490661621,-3.7771201133728027
1772881505966716000,10.0667158203125,5.5628132820129395,-7.130977630615234,-3.7913901805877686
1772881505976716000,10.076716064453125,5.549776077270508,-7.134372234344482,-3.804091215133667
1772881505986716000,10.0867158203125,5.539624214172363,-7.137054443359375,-3.8138437271118164
1772881505996716000,10.096716064453124,5.53497838973999,-7.138946056365967,-3.8170483112335205
1772881506006716000,10.1067158203125,5.534717559814453,-7.139784812927246,-3.815857172012329
1772881506016716000,10.116716064453126,5.5354838371276855,-7.141504764556885,-3.811521530151367
1772881506026716000,10.1267158203125,5.534266948699951,-7.144497871398926,-3.8076798915863037
1772881506036716000,10.136716064453125,5.531092166900635,-7.149270057678223,-3.803333044052124
1772881506046716000,10.1467158203125,5.528958797454834,-7.154486179351807,-3.7966196537017822
1772881506056716000,10.156716064453125,5.529717922210693,-7.158056735992432,-3.788778066635132
1772881506066716000,10.1667158203125,5.532458782196045,-7.161305904388428,-3.778623342514038
1772881506076716000,10.176716064453124,5.535850524902344,-7.164519309997559,-3.767547607421875
1772881506086716000,10.1867158203125,5.538394451141357,-7.167306423187256,-3.7584965229034424
1772881506096716000,10.196716064453126,5.538179874420166,-7.172363758087158,-3.7491517066955566
1772881506106716000,10.2067158203125,5.535182952880859,-7.180497646331787,-3.737990379333496
1772881506116716000,10.216716064453125,5.52973747253418,-7.190937042236328,-3.7259650230407715
1772881506126716000,10.2267158203125,5.523238182067871,-7.201999664306641,-3.7142186164855957
1772881506136716000,10.236716064453125,5.51637077331543,-7.2125020027160645,-3.7040326595306396
1772881506146716000,10.2467158203125,5.508162498474121,-7.223531723022461,-3.694742441177368
1772881506156716000,10.256716064453125,5.497147560119629,-7.236477375030518,-3.685805082321167
1772881506166716000,10.2667158203125,5.483369827270508,-7.252089023590088,-3.6756279468536377
1772881506176716000,10.276716064453124,5.467682361602783,-7.270267963409424,-3.663064956665039
1772881506186716000,10.2867158203125,5.4502458572387695,-7.291330337524414,-3.647150993347168
1772881506196716000,10.296716064453125,5.431792736053467,-7.315138339996338,-3.6269524097442627
1772881506206716000,10.3067158203125,5.412899017333984,-7.340904235839844,-3.603060483932495
1772881506216716000,10.316716064453125,5.395845413208008,-7.366610050201416,-3.5760726928710938
1772881506226716000,10.3267158203125,5.382153511047363,-7.391454219818115,-3.54530930519104
1772881506236716000,10.336716064453125,5.370993614196777,-7.415341854095459,-3.512197256088257
1772881506246716000,10.3467158203125,5.361513137817383,-7.438993453979492,-3.4764809608459473
1772881506256716000,10.356716064453124,5.352997303009033,-7.462982177734375,-3.437980890274048
1772881506266716000,10.3667158203125,5.34447717666626,-7.487939834594727,-3.3967201709747314
1772881506276716000,10.376716064453126,5.3359246253967285,-7.513839244842529,-3.352687358856201
1772881506286716000,10.3867158203125,5.329052925109863,-7.539163589477539,-3.306448221206665
1772881506296716000,10.396716064453125,5.324933052062988,-7.56263542175293,-3.2591452598571777
1772881506306716000,10.4067158203125,5.322204113006592,-7.584428787231445,-3.2126264572143555
1772881506316716000,10.416716064453125,5.320612907409668,-7.604840278625488,-3.1666812896728516
1772881506326716000,10.4267158203125,5.322131633758545,-7.623868465423584,-3.1180007457733154
1772881506336716000,10.436716064453124,5.327281951904297,-7.640911102294922,-3.0670738220214844
1772881506346716000,10.4467158203125,5.337045669555664,-7.654937744140625,-3.014674425125122
1772881506356716000,10.456716064453126,5.352090835571289,-7.665502071380615,-2.960674524307251
1772881506366716000,10.4667158203125,5.371575355529785,-7.673112392425537,-2.9051547050476074
1772881506376716000,10.476716064453125,5.393278121948242,-7.677948951721191,-2.851670742034912
1772881506386716000,10.4867158203125,5.416538238525391,-7.6790361404418945,-2.8042635917663574
1772881506396716000,10.496716064453125,5.441160678863525,-7.67542839050293,-2.7662177085876465
1772881506406716000,10.5067158203125,5.465349197387695,-7.669061660766602,-2.7360262870788574
1772881506416716000,10.516716064453124,5.486807823181152,-7.664158821105957,-2.7066588401794434
1772881506426716000,10.5267158203125,5.505781173706055,-7.6613335609436035,-2.675954580307007
1772881506436716000,10.536716064453126,5.521936893463135,-7.6604413986206055,-2.6450390815734863
1772881506446716000,10.5467158203125,5.535404682159424,-7.661949634552002,-2.612318277359009
1772881506456716000,10.556716064453125,5.547262191772461,-7.665082931518555,-2.5777463912963867
1772881506466716000,10.5667158203125,5.560335159301758,-7.667442321777344,-2.54231858253479
1772881506476716000,10.576716064453125,5.576984405517578,-7.6664605140686035,-2.5085861682891846
1772881506486716000,10.5867158203125,5.597222805023193,-7.6608123779296875,-2.4806137084960938
1772881506496716000,10.596716064453124,5.6202778816223145,-7.651569843292236,-2.4568986892700195
1772881506506716000,10.6067158203125,5.645537376403809,-7.640597820281982,-2.4330129623413086
1772881506516716000,10.616716064453126,5.671237468719482,-7.629970550537109,-2.4064507484436035
1772881506526716000,10.6267158203125,5.694647789001465,-7.621423721313477,-2.378082036972046
1772881506536716000,10.636716064453125,5.716270923614502,-7.615145683288574,-2.346101760864258
1772881506546716000,10.6467158203125,5.738936901092529,-7.609882831573486,-2.307528018951416
1772881506556716000,10.656716064453125,5.764994144439697,-7.603930473327637,-2.2617385387420654
1772881506566716000,10.6667158203125,5.794833183288574,-7.596006870269775,-2.211552143096924
1772881506576716000,10.676716064453124,5.82891321182251,-7.58447265625,-2.1610031127929688
1772881506586716000,10.6867158203125,5.867541313171387,-7.568749904632568,-2.1110143661499023
1772881506596716000,10.696716064453126,5.909987449645996,-7.550759315490723,-2.056321620941162
1772881506606716000,10.7067158203125,5.955676078796387,-7.5315985679626465,-1.9938256740570068
1772881506616716000,10.716716064453125,6.002578258514404,-7.512526988983154,-1.9238981008529663
1772881506626716000,10.7267158203125,6.047857761383057,-7.49521017074585,-1.848140001296997
1772881506636716000,10.736716064453125,6.088786602020264,-7.479950904846191,-1.7740925550460815
1772881506646716000,10.7467158203125,6.128046989440918,-7.463797092437744,-1.7056258916854858
1772881506656716000,10.756716064453125,6.168087482452393,-7.444763660430908,-1.6433415412902832
1772881506666716000,10.7667158203125,6.20980167388916,-7.422082424163818,-1.5879039764404297
1772881506676716000,10.776716064453124,6.252683162689209,-7.39585542678833,-1.5413188934326172
1772881506686716000,10.7867158203125,6.296397686004639,-7.366695880889893,-1.502516746520996
1772881506696716000,10.796716064453125,6.339489459991455,-7.3362531661987305,-1.469918131828308
1772881506706716000,10.8067158203125,6.3807220458984375,-7.306542873382568,-1.439171314239502
1772881506716716000,10.816716064453125,6.419824123382568,-7.278531074523926,-1.4068528413772583
1772881506726716000,10.8267158203125,6.457651615142822,-7.2523016929626465,-1.3686645030975342
1772881506736716000,10.836716064453125,6.494143009185791,-7.2276129722595215,-1.3259356021881104
1772881506746716000,10.8467158203125,6.529732704162598,-7.202984809875488,-1.2845221757888794
1772881506756716000,10.856716064453124,6.567404747009277,-7.174465656280518,-1.251654028892517
1772881506766716000,10.8667158203125,6.606667995452881,-7.142934799194336,-1.2250725030899048
1772881506776716000,10.876716064453126,6.646032810211182,-7.109592437744141,-1.2059544324874878
1772881506786716000,10.8867158203125,6.683851718902588,-7.076901435852051,-1.1891059875488281
1772881506796716000,10.896716064453125,6.717733860015869,-7.047738552093506,-1.1712472438812256
1772881506806716000,10.9067158203125,6.748014450073242,-7.021511554718018,-1.1545841693878174
1772881506816716000,10.916716064453125,6.775206089019775,-6.9974541664123535,-1.141316533088684
1772881506826716000,10.9267158203125,6.800333499908447,-6.974337577819824,-1.133347988128662
1772881506836716000,10.936716064453124,6.823196887969971,-6.952507972717285,-1.1300513744354248
1772881506846716000,10.9467158203125,6.843492031097412,-6.932605266571045,-1.1295902729034424
1772881506856716000,10.956716064453126,6.861860275268555,-6.91409969329834,-1.1315853595733643
1772881506866716000,10.9667158203125,6.877674102783203,-6.897763729095459,-1.1352753639221191
1772881506876716000,10.976716064453125,6.889874458312988,-6.884756088256836,-1.1402422189712524
1772881506886716000,10.9867158203125,6.8975749015808105,-6.8755412101745605,-1.1492592096328735
1772881506896716000,10.996716064453125,6.900491237640381,-6.870449066162109,-1.1621267795562744
1772881506906716000,11.0067158203125,6.8997578620910645,-6.868443489074707,-1.1782264709472656
1772881506916716000,11.016716064453124,6.896096229553223,-6.868843078613281,-1.197183609008789
1772881506926716000,11.0267158203125,6.890038013458252,-6.87100076675415,-1.2194725275039673
1772881506936716000,11.036716064453126,6.882328987121582,-6.874110221862793,-1.24521005153656
1772881506946716000,11.0467158203125,6.87369966506958,-6.8777265548706055,-1.2725993394851685
1772881506956716000,11.056716064453125,6.8644304275512695,-6.881749629974365,-1.3005805015563965
1772881506966716000,11.0667158203125,6.854807376861572,-6.885794162750244,-1.3295987844467163
1772881506976716000,11.076716064453125,6.845414638519287,-6.889350891113281,-1.3592448234558105
1772881506986716000,11.0867158203125,6.837057590484619,-6.891533374786377,-1.3898926973342896
1772881506996716000,11.096716064453124,6.83083438873291,-6.891177654266357,-1.4218878746032715
1772881507006716000,11.1067158203125,6.8265275955200195,-6.888495922088623,-1.4551745653152466
1772881507016716000,11.116716064453126,6.823027610778809,-6.884830951690674,-1.488552212715149
1772881507026716000,11.1267158203125,6.819437503814697,-6.88115119934082,-1.5216494798660278
1772881507036716000,11.136716064453125,6.81514310836792,-6.878062725067139,-1.5545008182525635
1772881507046716000,11.1467158203125,6.8089752197265625,-6.876194477081299,-1.5894014835357666
1772881507056716000,11.156716064453125,6.800321578979492,-6.875580787658691,-1.6286207437515259
1772881507066716000,11.1667158203125,6.7886128425598145,-6.876454830169678,-1.6731654405593872
1772881507076716000,11.176716064453124,6.773714542388916,-6.878699779510498,-1.7235615253448486
1772881507086716000,11.1867158203125,6.755552768707275,-6.8825154304504395,-1.7787283658981323
1772881507096716000,11.196716064453126,6.734461784362793,-6.8879828453063965,-1.8365997076034546
1772881507106716000,11.2067158203125,6.711335182189941,-6.8949198722839355,-1.894321084022522
1772881507116716000,11.216716064453125,6.687129974365234,-6.903019428253174,-1.9496169090270996
1772881507126716000,11.2267158203125,6.662051677703857,-6.912129878997803,-2.0024759769439697
1772881507136716000,11.236716064453125,6.638210773468018,-6.921214580535889,-2.0497145652770996
1772881507146716000,11.2467158203125,6.615451335906982,-6.927865982055664,-2.1002066135406494
1772881507156716000,11.256716064453125,6.591466426849365,-6.934630870819092,-2.152635335922241
1772881507166716000,11.2667158203125,6.562396049499512,-6.944627285003662,-2.2085070610046387
1772881507176716000,11.276716064453124,6.528040885925293,-6.958388328552246,-2.266249179840088
1772881507186716000,11.2867158203125,6.490530014038086,-6.975345134735107,-2.321199655532837
1772881507196716000,11.296716064453125,6.452764987945557,-6.991952896118164,-2.3758790493011475
1772881507206716000,11.3067158203125,6.413248538970947,-7.010087966918945,-2.428849697113037
1772881507216716000,11.316716064453125,6.373361110687256,-7.027912616729736,-2.4817543029785156
1772881507226716000,11.3267158203125,6.332484245300293,-7.04543924331665,-2.536101818084717
1772881507236716000,11.336716064453125,6.290670394897461,-7.06184720993042,-2.593867778778076
1772881507246716000,11.3467158203125,6.248679161071777,-7.076474666595459,-2.6547861099243164
1772881507256716000,11.356716064453124,6.207886219024658,-7.089334011077881,-2.715489387512207
1772881507266716000,11.3667158203125,6.17002534866333,-7.10065221786499,-2.771627187728882
1772881507276716000,11.376716064453126,6.1359453201293945,-7.110661506652832,-2.821180582046509
1772881507286716000,11.3867158203125,6.103311538696289,-7.121791362762451,-2.863577127456665
1772881507296716000,11.396716064453125,6.072681427001953,-7.131398677825928,-2.9044947624206543
1772881507306716000,11.4067158203125,6.04397439956665,-7.139613151550293,-2.943922519683838
1772881507316716000,11.416716064453125,6.0170745849609375,-7.1469645500183105,-2.980957508087158
1772881507326716000,11.4267158203125,5.993279457092285,-7.151796340942383,-3.017083168029785
1772881507336716000,11.436716064453124,5.973095893859863,-7.15447473526001,-3.050575017929077
1772881507346716000,11.4467158203125,5.956290245056152,-7.153096675872803,-3.0864531993865967
1772881507356716000,11.456716064453126,5.939370155334473,-7.148919105529785,-3.128453493118286
1772881507366716000,11.4667158203125,5.921755313873291,-7.1442084312438965,-3.1723015308380127
1772881507376716000,11.476716064453125,5.905558109283447,-7.140955448150635,-3.2095978260040283
1772881507386716000,11.4867158203125,5.89089822769165,-7.138774871826172,-3.241234302520752
1772881507396716000,11.496716064453125,5.876345634460449,-7.1374053955078125,-3.270533561706543
1772881507406716000,11.5067158203125,5.860265731811523,-7.137814521789551,-3.2983763217926025
1772881507416716000,11.516716064453124,5.841546535491943,-7.138456344604492,-3.3300411701202393
1772881507426716000,11.5267158203125,5.819952011108398,-7.139286518096924,-3.3658790588378906
1772881507436716000,11.536716064453126,5.797033309936523,-7.141346454620361,-3.400878429412842
1772881507446716000,11.5467158203125,5.775822162628174,-7.1440253257751465,-3.431206226348877
1772881507456716000,11.556716064453125,5.757521152496338,-7.145580291748047,-3.45861554145813
1772881507466716000,11.5667158203125,5.741157054901123,-7.146053791046143,-3.484740972518921
1772881507476716000,11.576716064453125,5.724860191345215,-7.146235466003418,-3.511077642440796
1772881507486716000,11.5867158203125,5.7087507247924805,-7.146247386932373,-3.53719162940979
1772881507496716000,11.596716064453124,5.695193290710449,-7.145872116088867,-3.559727191925049
1772881507506716000,11.6067158203125,5.6856913566589355,-7.144771575927734,-3.5770862102508545
1772881507516716000,11.616716064453126,5.680131912231445,-7.142409324645996,-3.5906097888946533
1772881507526716000,11.6267158203125,5.676186561584473,-7.1389384269714355,-3.603729009628296
1772881507536716000,11.636716064453125,5.672097206115723,-7.134805679321289,-3.618321657180786
1772881507546716000,11.6467158203125,5.668290138244629,-7.130380630493164,-3.6329803466796875
1772881507556716000,11.656716064453125,5.66515588760376,-7.125453948974609,-3.647505521774292
1772881507566716000,11.6667158203125,5.664259910583496,-7.118722438812256,-3.662010908126831
1772881507576716000,11.676716064453124,5.66386604309082,-7.1099772453308105,-3.679569721221924
1772881507586716000,11.6867158203125,5.6624579429626465,-7.100880146026611,-3.699251413345337
1772881507596716000,11.696716064453126,5.661259174346924,-7.092477321624756,-3.717161178588867
1772881507606716000,11.7067158203125,5.66085958480835,-7.084070682525635,-3.733762741088867
1772881507616716000,11.716716064453125,5.6607489585876465,-7.075963020324707,-3.7492733001708984
1772881507626716000,11.7267158203125,5.66287088394165,-7.067808151245117,-3.761432647705078
1772881507636716000,11.736716064453125,5.6692891120910645,-7.058797836303711,-3.7686755657196045
1772881507646716000,11.7467158203125,5.676957607269287,-7.050217628479004,-3.7731921672821045
1772881507656716000,11.756716064453125,5.683205604553223,-7.043186187744141,-3.7769157886505127
1772881507666716000,11.7667158203125,5.686992168426514,-7.038092613220215,-3.7807111740112305
1772881507676716000,11.776716064453124,5.687335968017578,-7.035606384277344,-3.784815788269043
1772881507686716000,11.7867158203125,5.684214115142822,-7.035844802856445,-3.7890632152557373
1772881507696716000,11.796716064453125,5.678389072418213,-7.038354873657227,-3.7931325435638428
1772881507706716000,11.8067158203125,5.67115592956543,-7.042189121246338,-3.7968339920043945
1772881507716716000,11.816716064453125,5.663656711578369,-7.046789646148682,-3.799492835998535
1772881507726716000,11.8267158203125,5.656384468078613,-7.05198860168457,-3.8006796836853027
1772881507736716000,11.836716064453125,5.649331092834473,-7.057495594024658,-3.800948143005371
1772881507746716000,11.8467158203125,5.642683982849121,-7.062923431396484,-3.8007400035858154
1772881507756716000,11.856716064453124,5.635921478271484,-7.068190574645996,-3.800980806350708
1772881507766716000,11.8667158203125,5.628965377807617,-7.073516845703125,-3.8013806343078613
1772881507776716000,11.876716064453126,5.622430801391602,-7.078804969787598,-3.801205635070801
1772881507786716000,11.8867158203125,5.616358757019043,-7.084164619445801,-3.8002004623413086
1772881507796716000,11.896716064453125,5.610639572143555,-7.089919567108154,-3.7979142665863037
1772881507806716000,11.9067158203125,5.605681419372559,-7.096104621887207,-3.793684244155884
1772881507816716000,11.916716064453125,5.601919651031494,-7.10257625579834,-3.787122964859009
1772881507826716000,11.9267158203125,5.599423885345459,-7.109196186065674,-3.7783825397491455
1772881507836716000,11.936716064453124,5.598576068878174,-7.115579128265381,-3.767606258392334
1772881507846716000,11.9467158203125,5.59944486618042,-7.122090816497803,-3.7539892196655273
1772881507856716000,11.956716064453126,5.60168981552124,-7.128843307495117,-3.737785816192627
1772881507866716000,11.9667158203125,5.604164123535156,-7.136061668395996,-3.720264196395874
1772881507876716000,11.976716064453125,5.605700969696045,-7.144107341766357,-3.7024619579315186
1772881507886716000,11.9867158203125,5.605136394500732,-7.153524875640869,-3.685093641281128
1772881507896716000,11.996716064453125,5.603603363037109,-7.163630485534668,-3.667752742767334
1772881507906716000,12.0067158203125,5.603280067443848,-7.173781871795654,-3.648355484008789
1772881507916716000,12.016716064453124,5.603210926055908,-7.182536602020264,-3.6311960220336914
1772881507926716000,12.0267158203125,5.604228496551514,-7.1904473304748535,-3.613929033279419
1772881507936716000,12.036716064453126,5.6072540283203125,-7.197657108306885,-3.594832181930542
1772881507946716000,12.0467158203125,5.614443778991699,-7.202502727508545,-3.5738446712493896
1772881507956716000,12.056716064453125,5.627612113952637,-7.2042694091796875,-3.549487352371216
1772881507966716000,12.0667158203125,5.647661209106445,-7.203649044036865,-3.5187721252441406
1772881507976716000,12.076716064453125,5.673848628997803,-7.200263977050781,-3.4833943843841553
1772881507986716000,12.0867158203125,5.705082893371582,-7.193767070770264,-3.445596694946289
1772881507996716000,12.096716064453124,5.738366603851318,-7.185573577880859,-3.407210111618042
1772881508006716000,12.1067158203125,5.772890567779541,-7.176186561584473,-3.3684542179107666
1772881508016716000,12.116716064453126,5.805832386016846,-7.167006492614746,-3.331172227859497
1772881508026716000,12.1267158203125,5.835526943206787,-7.156772613525391,-3.301151990890503
1772881508036716000,12.136716064453125,5.863607406616211,-7.14365816116333,-3.2797322273254395
1772881508046716000,12.1467158203125,5.890030384063721,-7.128986835479736,-3.2642722129821777
1772881508056716000,12.156716064453125,5.9173102378845215,-7.111711502075195,-3.252595901489258
1772881508066716000,12.1667158203125,5.947354316711426,-7.093013286590576,-3.238600254058838
1772881508076716000,12.176716064453124,5.985888957977295,-7.071258068084717,-3.2150936126708984
1772881508086716000,12.1867158203125,6.034434795379639,-7.047233581542969,-3.176868200302124
1772881508096716000,12.196716064453126,6.082943916320801,-7.025548934936523,-3.1320691108703613
1772881508106716000,12.2067158203125,6.136325836181641,-7.004358291625977,-3.0748746395111084
1772881508116716000,12.216716064453125,6.19136381149292,-6.98457670211792,-3.0088343620300293
1772881508126716000,12.2267158203125,6.243896007537842,-6.966629505157471,-2.9411277770996094
1772881508136716000,12.236716064453125,6.292243957519531,-6.949731349945068,-2.877377510070801
1772881508146716000,12.2467158203125,6.33612060546875,-6.93233585357666,-2.8225326538085938
1772881508156716000,12.256716064453125,6.376725196838379,-6.913299083709717,-2.777418375015259
1772881508166716000,12.2667158203125,6.415421485900879,-6.892560005187988,-2.739591360092163
1772881508176716000,12.276716064453124,6.453188419342041,-6.870661735534668,-2.7056896686553955
1772881508186716000,12.2867158203125,6.492013931274414,-6.847808837890625,-2.6705162525177
1772881508196716000,12.296716064453125,6.533380508422852,-6.825491905212402,-2.62640118598938
1772881508206716000,12.3067158203125,6.576789379119873,-6.804447650909424,-2.5721054077148438
1772881508216716000,12.316716064453125,6.620511054992676,-6.7829155921936035,-2.5162012577056885
1772881508226716000,12.3267158203125,6.665553569793701,-6.758900165557861,-2.4613101482391357
1772881508236716000,12.336716064453125,6.714097499847412,-6.730630874633789,-2.406219959259033
1772881508246716000,12.3467158203125,6.7652482986450195,-6.699558734893799,-2.3489835262298584
1772881508256716000,12.356716064453124,6.8171234130859375,-6.669086933135986,-2.2848410606384277
1772881508266716000,12.3667158203125,6.8690667152404785,-6.641087055206299,-2.209584951400757
1772881508276716000,12.376716064453126,6.918702602386475,-6.615603446960449,-2.1297266483306885
1772881508286716000,12.3867158203125,6.966102123260498,-6.59041690826416,-2.051880121231079
1772881508296716000,12.396716064453125,7.012921333312988,-6.564717769622803,-1.9732714891433716
1772881508306716000,12.4067158203125,7.057591438293457,-6.539290904998779,-1.8969602584838867
1772881508316716000,12.416716064453125,7.100595474243164,-6.512343883514404,-1.8279242515563965
1772881508326716000,12.4267158203125,7.141761779785156,-6.48557710647583,-1.7615108489990234
1772881508336716000,12.436716064453124,7.179922580718994,-6.460309982299805,-1.6980867385864258
1772881508346716000,12.4467158203125,7.213834285736084,-6.438155174255371,-1.6374194622039795
1772881508356716000,12.456716064453126,7.2441020011901855,-6.418068885803223,-1.5816930532455444
1772881508366716000,12.4667158203125,7.270906925201416,-6.400645732879639,-1.528411865234375
1772881508376716000,12.476716064453125,7.295125484466553,-6.3840765953063965,-1.4815857410430908
1772881508386716000,12.4867158203125,7.317115783691406,-6.368168830871582,-1.4410556554794312
1772881508396716000,12.496716064453125,7.338862419128418,-6.350627422332764,-1.4074866771697998
1772881508406716000,12.5067158203125,7.361729145050049,-6.330770492553711,-1.3771945238113403
1772881508416716000,12.516716064453124,7.386270046234131,-6.3076863288879395,-1.351473093032837
1772881508426716000,12.5267158203125,7.413054466247559,-6.280653476715088,-1.3305625915527344
1772881508436716000,12.536716064453126,7.441079139709473,-6.251265048980713,-1.3124111890792847
1772881508446716000,12.5467158203125,7.469015121459961,-6.22094202041626,-1.2977184057235718
1772881508456716000,12.556716064453125,7.496224880218506,-6.190584182739258,-1.2859454154968262
1772881508466716000,12.5667158203125,7.522254467010498,-6.160762310028076,-1.2771408557891846
1772881508476716000,12.576716064453125,7.545901298522949,-6.132964134216309,-1.2714207172393799
1772881508486716000,12.5867158203125,7.567720890045166,-6.107027530670166,-1.266568660736084
1772881508496716000,12.596716064453124,7.588526248931885,-6.0815510749816895,-1.2646758556365967
1772881508506716000,12.6067158203125,7.609025001525879,-6.056085109710693,-1.2637128829956055
1772881508516716000,12.616716064453126,7.629796028137207,-6.030508995056152,-1.2607779502868652
1772881508526716000,12.6267158203125,7.650834083557129,-6.004709720611572,-1.2564212083816528
1772881508536716000,12.636716064453125,7.671539306640625,-5.979851245880127,-1.2487000226974487
1772881508546716000,12.6467158203125,7.691295623779297,-5.956167221069336,-1.2403349876403809
1772881508556716000,12.656716064453125,7.708863735198975,-5.935390949249268,-1.230832576751709
1772881508566716000,12.6667158203125,7.722970962524414,-5.918941974639893,-1.2215709686279297
1772881508576716000,12.676716064453124,7.733616352081299,-5.906668186187744,-1.2136039733886719
1772881508586716000,12.6867158203125,7.741357803344727,-5.897653579711914,-1.2080726623535156
1772881508596716000,12.696716064453126,7.746828556060791,-5.890984058380127,-1.205550193786621
1772881508606716000,12.7067158203125,7.751376152038574,-5.884912014007568,-1.205971598625183
1772881508616716000,12.716716064453125,7.755429267883301,-5.878814220428467,-1.2096526622772217
1772881508626716000,12.7267158203125,7.758948802947998,-5.872708320617676,-1.216711163520813
1772881508636716000,12.736716064453125,7.761570453643799,-5.867119312286377,-1.2269128561019897
1772881508646716000,12.7467158203125,7.762848854064941,-5.862483501434326,-1.2409124374389648
1772881508656716000,12.756716064453125,7.7626214027404785,-5.859010219573975,-1.2586082220077515
1772881508666716000,12.7667158203125,7.761327743530273,-5.856130123138428,-1.2798177003860474
1772881508676716000,12.776716064453124,7.759456157684326,-5.8534393310546875,-1.3032540082931519
1772881508686716000,12.7867158203125,7.758014678955078,-5.850066184997559,-1.3267735242843628
1772881508696716000,12.796716064453125,7.758350849151611,-5.844812393188477,-1.3477895259857178
1772881508706716000,12.8067158203125,7.761041641235352,-5.837172508239746,-1.365301251411438
