time,seconds_elapsed,z,y,x
1773146503861261000,0.079260986328125,0,0,0
1773146503869937000,0.08793701171875,-0.29746437072753906,0.10656070709228516,-0.11442792415618896
1773146503878608100,0.096608154296875,-0.49889087677001953,0.3210940361022949,-0.24422070384025574
1773146503887282000,0.105281982421875,-0.5657815933227539,0.42829084396362305,-0.36231765151023865
1773146503895955500,0.11395556640625,-0.8316974639892578,0.42043399810791016,-0.340141236782074
1773146503904628700,0.122628662109375,-1.1038427352905273,0.548825740814209,-0.36308518052101135
1773146503913302500,0.131302490234375,-1.1563892364501953,0.6300997734069824,-0.3260363042354584
1773146503921975800,0.139975830078125,-0.9823617935180664,0.5949935913085938,-0.2526576817035675
1773146503930649300,0.1486494140625,-0.687530517578125,0.5116920471191406,-0.17057278752326965
1773146503939323000,0.157322998046875,-0.4660778045654297,0.3623843193054199,-0.1514817178249359
1773146503947996400,0.165996337890625,-0.28923559188842773,0.18917417526245117,-0.17583763599395752
1773146503956670000,0.174669921875,-0.1336231231689453,0.09084033966064453,-0.12321177124977112
1773146503965343500,0.183343505859375,0.036834716796875,0.038942813873291016,0.06052723526954651
1773146503974017000,0.19201708984375,0.07291650772094727,0.0017771720886230469,0.171497642993927
1773146503982690600,0.200690673828125,0.0022711753845214844,-0.06302976608276367,0.22203391790390015
1773146503991364000,0.209364013671875,-0.03448486328125,-0.11855411529541016,0.2754213809967041
1773146504000037600,0.21803759765625,-0.07581520080566406,-0.17899084091186523,0.26798462867736816
1773146504008711200,0.226711181640625,-0.16277360916137695,-0.2416062355041504,0.15000230073928833
1773146504017384700,0.235384765625,-0.29186487197875977,-0.3125929832458496,0.10375237464904785
1773146504026058200,0.244058349609375,-0.37781715393066406,-0.35976505279541016,0.10369646549224854
1773146504034731800,0.252731689453125,-0.47535085678100586,-0.3869495391845703,0.1034134030342102
1773146504043405300,0.2614052734375,-0.9158506393432617,-0.4521636962890625,-0.23096325993537903
1773146504052078800,0.270078857421875,-0.5085158348083496,-0.4451565742492676,0.07489120960235596
1773146504060752400,0.27875244140625,-0.5512385368347168,-0.2584977149963379,0.4099946618080139
1773146504069426000,0.287426025390625,-0.7060093879699707,-0.19370412826538086,0.14294981956481934
1773146504078099500,0.296099365234375,-0.6929197311401367,-0.309755802154541,0.13589829206466675
1773146504086773000,0.30477294921875,-0.691981315612793,-0.42110633850097656,0.09957194328308105
1773146504095446500,0.313446533203125,-0.6393222808837891,-0.44331789016723633,-0.06434795260429382
1773146504104120000,0.3221201171875,-0.5302777290344238,-0.3274116516113281,-0.3063787519931793
1773146504112793600,0.330793701171875,-0.3535037040710449,-0.090179443359375,-0.7447037696838379
1773146504121467100,0.339467041015625,-0.11353874206542969,0.15016651153564453,-1.0774470567703247
1773146504130140700,0.348140625,0.11531829833984375,0.3375515937805176,-1.1962440013885498
1773146504138814200,0.356814208984375,0.2798476219177246,0.3774843215942383,-1.1813987493515015
1773146504147487700,0.36548779296875,0.4621458053588867,0.33892297744750977,-1.1433485746383667
1773146504156161300,0.374161376953125,2.788241386413574,0.3157773017883301,-2.135117292404175
1773146504164834800,0.382834716796875,3.1783018112182617,-0.28049612045288086,-2.3996238708496094
1773146504173508400,0.39150830078125,1.4717488288879395,-0.047451019287109375,-1.2615519762039185
1773146504182181600,0.400181640625,0.44467830657958984,1.0037331581115723,0.1998327076435089
1773146504190855200,0.408855224609375,-0.1680903434753418,1.1682963371276855,0.7541759610176086
1773146504199528700,0.41752880859375,-0.5672273635864258,0.8522911071777344,0.29961827397346497
1773146504208202200,0.4262021484375,-0.4461817741394043,0.40581703186035156,0.09702008962631226
1773146504216875800,0.434875732421875,-0.34354591369628906,0.05131816864013672,0.2982303202152252
1773146504225549300,0.44354931640625,-0.11403274536132812,0.10661029815673828,0.32313770055770874
1773146504234222800,0.452222900390625,0.4749007225036621,0.055835723876953125,0.3009323179721832
1773146504242896400,0.460896484375,0.6744732856750488,-0.09422779083251953,0.31908392906188965
1773146504251570000,0.46956982421875,0.7082891464233398,-0.27559375762939453,0.1648809015750885
1773146504260243500,0.478243408203125,0.6581206321716309,-0.41176366806030273,0.13237741589546204
1773146504268917000,0.4869169921875,0.5148320198059082,-0.38776731491088867,0.25511375069618225
1773146504277590500,0.495590576171875,0.3201165199279785,-0.284299373626709,0.44388359785079956
1773146504286264000,0.50426416015625,0.297147274017334,-0.21709346771240234,0.7652466297149658
1773146504294937600,0.5129375,-0.1002345085144043,-0.22830820083618164,0.9236372113227844
1773146504303611100,0.521611083984375,-0.4454011917114258,-0.32930517196655273,1.0036263465881348
1773146504312284700,0.53028466796875,-0.47972965240478516,0.5767102241516113,1.3805184364318848
1773146504320958200,0.538958251953125,-0.643496036529541,0.6970949172973633,1.3809115886688232
1773146504329631700,0.5476318359375,-0.8064227104187012,1.2062439918518066,1.0051167011260986
1773146504338305300,0.55630517578125,-1.1504454612731934,1.0948843955993652,0.5771585702896118
1773146504346978800,0.564978759765625,-1.3816814422607422,0.8865008354187012,0.401064395904541
1773146504355652400,0.57365234375,-1.6075167655944824,0.7410063743591309,0.5007897019386292
1773146504364326000,0.582325927734375,-1.843864917755127,0.5170931816101074,0.7856332659721375
1773146504372999400,0.59099951171875,-1.9294204711914062,0.4314708709716797,0.8013451099395752
1773146504381673000,0.5996728515625,-1.6184577941894531,0.5163908004760742,1.1805081367492676
1773146504390346500,0.608346435546875,-1.186722755432129,0.4494290351867676,1.141689658164978
1773146504399020000,0.61702001953125,-0.4354867935180664,0.43888139724731445,0.9831156730651855
1773146504407693600,0.625693603515625,0.05707073211669922,0.38553905487060547,0.7603726387023926
1773146504416367000,0.6343671875,0.05047321319580078,0.19141817092895508,0.686266303062439
1773146504425040600,0.64304052734375,-0.19008636474609375,0.3217744827270508,0.7510054111480713
1773146504433714200,0.651714111328125,0.29646921157836914,1.2389030456542969,0.665579080581665
1773146504442387700,0.6603876953125,0.5794105529785156,1.8214216232299805,0.46538758277893066
1773146504451061200,0.669061279296875,0.4646339416503906,1.7103900909423828,0.3740861415863037
1773146504459734800,0.67773486328125,0.13855361938476562,1.3144187927246094,0.34923243522644043
1773146504468408300,0.686408203125,-0.16416311264038086,0.9496397972106934,0.2395939826965332
1773146504477081900,0.695081787109375,-0.6251907348632812,0.5203690528869629,0.18528366088867188
1773146504485755100,0.703755126953125,-0.9000577926635742,0.10857105255126953,0.23169445991516113
1773146504494428700,0.7124287109375,-0.705467700958252,-0.1678013801574707,0.2841057777404785
1773146504503102200,0.721102294921875,-0.8108906745910645,-0.03511667251586914,0.09017348289489746
1773146504511775700,0.729775634765625,-2.1855483055114746,0.12842798233032227,-0.2422492504119873
1773146504520449300,0.73844921875,-2.716487407684326,0.8760676383972168,-0.7269690036773682
1773146504529122800,0.747122802734375,-2.0936765670776367,1.6429219245910645,-1.4547905921936035
1773146504537796400,0.75579638671875,-0.48314762115478516,1.536147117614746,-1.445098876953125
1773146504546470000,0.764469970703125,0.515902042388916,0.35053157806396484,-0.43074965476989746
1773146504555143400,0.773143310546875,0.9452381134033203,-0.7565293312072754,0.5633900165557861
1773146504563817000,0.78181689453125,1.0506911277770996,-0.872307300567627,0.5967707633972168
1773146504572490500,0.790490478515625,0.7396092414855957,-0.31812477111816406,-0.0811305046081543
1773146504581164000,0.7991640625,0.6752438545227051,-0.05397653579711914,-0.47766971588134766
1773146504589837600,0.807837646484375,0.8251557350158691,-0.23190641403198242,-0.3024723529815674
1773146504598511000,0.816510986328125,0.8848581314086914,-0.6311368942260742,-0.025763511657714844
1773146504607184600,0.8251845703125,0.8293237686157227,-0.9231510162353516,-0.1350644826889038
1773146504615858200,0.833858154296875,0.5971059799194336,-0.9805002212524414,-0.43456804752349854
1773146504624531700,0.84253173828125,0.3440055847167969,-0.8048629760742188,-0.6651917695999146
1773146504633205200,0.851205322265625,0.17984771728515625,-0.665257453918457,-0.3816620111465454
1773146504641878800,0.859878662109375,0.12851381301879883,-0.7423739433288574,-0.023933053016662598
1773146504650552300,0.86855224609375,-0.22639894485473633,-0.8257584571838379,0.2352612018585205
1773146504659225900,0.877225830078125,0.021690845489501953,-0.8445520401000977,0.14259302616119385
1773146504667899400,0.8858994140625,0.40584278106689453,-0.4617605209350586,0.01559913158416748
1773146504676573000,0.894572998046875,0.18353033065795898,-0.7383518218994141,0.4002150297164917
1773146504685246500,0.90324658203125,0.5739736557006836,-1.2210464477539062,0.7711765766143799
1773146504693920000,0.911919921875,0.45749855041503906,-1.185718059539795,0.8732604384422302
1773146504702593500,0.920593505859375,0.32784175872802734,-1.1688294410705566,0.7284026741981506
1773146504711267000,0.92926708984375,0.05056476593017578,-1.0304231643676758,0.28029847145080566
1773146504719940600,0.937940673828125,-0.20086956024169922,-1.0403170585632324,-0.11526897549629211
1773146504728614100,0.9466142578125,-0.30239391326904297,-1.44185209274292,0.016936510801315308
1773146504737287700,0.95528759765625,-0.20723581314086914,-1.4919261932373047,0.20280131697654724
1773146504745961200,0.963961181640625,-0.2389659881591797,-1.118605136871338,0.1989799439907074
1773146504754634800,0.972634765625,-0.3791990280151367,-0.7550358772277832,0.06970098614692688
1773146504763308300,0.981308349609375,-0.7005033493041992,-0.6225423812866211,0.020220667123794556
1773146504771981800,0.98998193359375,-0.9779777526855469,-0.7153754234313965,-0.06411176919937134
1773146504780655000,0.998655029296875,-1.0819745063781738,-0.9837770462036133,-0.5788721442222595
1773146504789329000,1.007328857421875,-1.0032129287719727,-0.7605247497558594,-1.413447380065918
1773146504798002400,1.01600244140625,0.023688316345214844,-0.16037321090698242,-1.1077609062194824
1773146504806676000,1.024676025390625,1.2485313415527344,-0.39720869064331055,-0.8295807242393494
1773146504815349500,1.033349609375,1.9549798965454102,-0.234619140625,-0.646381139755249
1773146504824023000,1.04202294921875,2.612804412841797,0.31424570083618164,-0.1764991283416748
1773146504832696300,1.0506962890625,2.839681625366211,0.33673715591430664,0.10761499404907227
1773146504841369900,1.059369873046875,2.731156349182129,0.1923670768737793,0.29414689540863037
1773146504850043400,1.06804345703125,2.6454687118530273,0.27504777908325195,0.3048970699310303
1773146504858717000,1.076717041015625,2.337710380554199,0.42511463165283203,-0.018894553184509277
1773146504867390500,1.085390380859375,1.9966564178466797,0.45556163787841797,-0.3186023235321045
1773146504876064000,1.09406396484375,1.774679183959961,0.5179905891418457,-0.6192165613174438
1773146504884737500,1.102737548828125,1.6125001907348633,0.6174840927124023,-0.7997350692749023
1773146504893411000,1.1114111328125,1.573704719543457,0.7327909469604492,-0.9436783790588379
1773146504902084600,1.120084716796875,1.6776371002197266,0.8715991973876953,-1.0967369079589844
1773146504910758100,1.128758056640625,1.7561063766479492,1.0224833488464355,-1.1712617874145508
1773146504919431700,1.137431640625,1.8554105758666992,1.1438326835632324,-1.1554126739501953
1773146504928105200,1.146105224609375,2.002298355102539,1.170830249786377,-1.0844733715057373
1773146504936778800,1.15477880859375,2.2924976348876953,1.1239032745361328,-0.9269931316375732
1773146504945452300,1.163452392578125,2.6577320098876953,1.1115405559539795,-0.8759777545928955
1773146504954125800,1.172125732421875,2.7328176498413086,1.1315016746520996,-0.9476742744445801
1773146504962799400,1.18079931640625,3.2032546997070312,1.1308741569519043,-1.0150809288024902
1773146504971473000,1.189472900390625,3.302915573120117,0.7877323627471924,-0.976026177406311
1773146504980146400,1.198146484375,3.457965850830078,0.7179713249206543,-1.1688108444213867
1773146504988820000,1.206820068359375,3.613842010498047,0.6084764003753662,-1.2670631408691406
1773146504997493500,1.215493408203125,3.429673194885254,0.5537135601043701,-1.2227354049682617
1773146505006167000,1.2241669921875,3.0922698974609375,0.5565056800842285,-1.108370065689087
1773146505014840600,1.232840576171875,2.718189239501953,0.5108709335327148,-0.9484338760375977
1773146505023514000,1.24151416015625,2.393697738647461,0.427854061126709,-0.9022469520568848
1773146505032187600,1.250187744140625,2.0439348220825195,0.4000816345214844,-0.9508719444274902
1773146505040861200,1.258861083984375,1.8068370819091797,0.3976120948791504,-0.948528528213501
1773146505049534700,1.26753466796875,1.5865240097045898,0.2872762680053711,-0.9338476657867432
1773146505058208300,1.276208251953125,1.382948875427246,0.24770879745483398,-0.973496675491333
1773146505066881800,1.2848818359375,1.2008857727050781,0.1578207015991211,-0.9900336265563965
1773146505075555300,1.293555419921875,1.069443702697754,0.03518962860107422,-1.0459105968475342
1773146505084228900,1.302228759765625,0.972447395324707,-0.008615493774414062,-1.1211919784545898
1773146505092902400,1.31090234375,0.8294754028320312,-0.053198814392089844,-1.0809705257415771
1773146505101576000,1.319575927734375,0.6966381072998047,-0.08573722839355469,-0.9862115383148193
1773146505110249500,1.32824951171875,0.5345163345336914,-0.09766197204589844,-0.8860149383544922
1773146505118923000,1.336923095703125,0.3843555450439453,-0.16245460510253906,-0.8059351444244385
1773146505127596500,1.345596435546875,0.21257877349853516,-0.1458115577697754,-0.7865946292877197
1773146505136270000,1.35427001953125,0.015961647033691406,-0.08752298355102539,-0.7243669033050537
1773146505144943600,1.362943603515625,-0.2146153450012207,-0.10715675354003906,-0.6931028366088867
1773146505153617200,1.3716171875,-0.5037679672241211,-0.16161155700683594,-0.6854391098022461
1773146505162290700,1.380290771484375,-0.7544569969177246,-0.20311355590820312,-0.7192442417144775
1773146505170964000,1.3889638671875,-0.8946323394775391,-0.26114988327026367,-0.7274434566497803
1773146505179637500,1.397637451171875,-0.9106049537658691,-0.29724740982055664,-0.7854070663452148
1773146505188311300,1.406311279296875,-0.8687810897827148,-0.2976264953613281,-0.8189501762390137
1773146505196984800,1.41498486328125,-0.7873625755310059,-0.31090211868286133,-0.7634537220001221
1773146505205658400,1.423658447265625,-0.5481066703796387,-0.33620691299438477,-0.6551203727722168
1773146505214332000,1.432331787109375,-0.292025089263916,-0.3453969955444336,-0.5340278148651123
1773146505223005200,1.441005126953125,-0.09728813171386719,-0.29413795471191406,-0.3921518325805664
1773146505231678700,1.4496787109375,-0.016286849975585938,-0.26334047317504883,-0.2615056037902832
1773146505240352300,1.458352294921875,-0.06934547424316406,-0.27707433700561523,-0.14911890029907227
1773146505249025800,1.46702587890625,-0.25934648513793945,-0.30087709426879883,-0.14102554321289062
1773146505257699300,1.47569921875,-0.4810657501220703,-0.35408830642700195,-0.255079984664917
1773146505266372900,1.484372802734375,-0.6962857246398926,-0.30775880813598633,-0.4634521007537842
1773146505275046400,1.49304638671875,-0.7685880661010742,-0.3004269599914551,-0.6356050968170166
1773146505283720000,1.501719970703125,-0.718592643737793,-0.3376655578613281,-0.7488455772399902
1773146505292393500,1.5103935546875,-0.6081814765930176,-0.31050872802734375,-0.74228835105896
1773146505301067000,1.51906689453125,-0.4218425750732422,-0.26170969009399414,-0.6242353916168213
1773146505309740500,1.527740478515625,-0.2652616500854492,-0.2740440368652344,-0.4344944953918457
1773146505318414000,1.5364140625,-0.10355567932128906,-0.30571842193603516,-0.2599222660064697
1773146505327087600,1.545087646484375,-0.009366512298583984,-0.3271961212158203,-0.12884044647216797
1773146505335761200,1.55376123046875,0.025749683380126953,-0.3918900489807129,-0.08161783218383789
1773146505344434700,1.5624345703125,-0.045281410217285156,-0.46875572204589844,-0.10348844528198242
1773146505353108200,1.571108154296875,-0.2250504493713379,-0.4828333854675293,-0.12037229537963867
1773146505361781800,1.57978173828125,-0.43359994888305664,-0.5182662010192871,-0.09399867057800293
1773146505370455300,1.588455322265625,-0.6061086654663086,-0.5898466110229492,-0.0685422420501709
1773146505379128800,1.59712890625,-0.717674732208252,-0.5657691955566406,-0.05255770683288574
1773146505387802400,1.60580224609375,-0.8001832962036133,-0.5486922264099121,0.002519845962524414
1773146505396476000,1.614475830078125,-0.8394489288330078,-0.562863826751709,0.07094430923461914
1773146505405149400,1.6231494140625,-0.8946695327758789,-0.5896024703979492,0.1071310043334961
1773146505413823000,1.631822998046875,-1.0082025527954102,-0.6198430061340332,0.12558412551879883
1773146505422496500,1.64049658203125,-1.1169891357421875,-0.637359619140625,0.0871579647064209
1773146505431170000,1.649170166015625,-1.2441706657409668,-0.663637638092041,-0.01418304443359375
1773146505439843600,1.657843505859375,-1.4345922470092773,-0.6932187080383301,-0.1633598804473877
1773146505448517000,1.66651708984375,-1.6553139686584473,-0.6984362602233887,-0.30903029441833496
1773146505457190700,1.675190673828125,-1.8407049179077148,-0.770843505859375,-0.3799612522125244
1773146505465864200,1.6838642578125,-2.0323219299316406,-0.9139504432678223,-0.41677308082580566
1773146505474537700,1.692537841796875,-2.1783671379089355,-1.0456976890563965,-0.45792651176452637
1773146505483211300,1.701211181640625,-2.3124842643737793,-1.1868610382080078,-0.535498857498169
1773146505491884800,1.709884765625,-2.4583468437194824,-1.3536362648010254,-0.609926700592041
1773146505500558300,1.718558349609375,-2.570158004760742,-1.4833908081054688,-0.6808352470397949
1773146505509231900,1.72723193359375,-2.730555534362793,-1.6233420372009277,-0.7149510383605957
1773146505517905400,1.735905517578125,-2.9509220123291016,-1.8132405281066895,-0.7682344913482666
1773146505526579000,1.744578857421875,-3.241170644760132,-2.0110344886779785,-0.8595457077026367
1773146505535252500,1.75325244140625,-3.5278573036193848,-2.2130417823791504,-0.8834784030914307
1773146505543926000,1.761926025390625,-3.8561084270477295,-2.4853897094726562,-0.866194486618042
1773146505552599600,1.770599609375,-4.072399616241455,-2.919900894165039,-0.851912260055542
1773146505561273000,1.779273193359375,-4.228083610534668,-3.372537136077881,-0.9372546672821045
1773146505569946600,1.787946533203125,-4.321652889251709,-3.8548343181610107,-1.0776498317718506
1773146505578620200,1.7966201171875,-4.468575477600098,-4.368675708770752,-1.330200433731079
1773146505587293400,1.80529345703125,-4.582406997680664,-4.807478904724121,-1.6869924068450928
1773146505595967200,1.81396728515625,-4.715244293212891,-5.2295331954956055,-1.9371724128723145
1773146505604640800,1.822640869140625,-4.8600382804870605,-5.788332939147949,-2.1097490787506104
1773146505613314300,1.831314208984375,-4.899993419647217,-6.333581924438477,-2.320063352584839
1773146505621987800,1.83998779296875,-4.842342376708984,-6.770018577575684,-2.6285784244537354
1773146505630661000,1.8486611328125,-4.832137107849121,-7.132780075073242,-2.841759443283081
1773146505639334700,1.857334716796875,-4.795238971710205,-7.445193290710449,-2.901641845703125
1773146505648008200,1.86600830078125,-4.760195255279541,-7.690411567687988,-2.9027442932128906
1773146505656681700,1.874681640625,-4.760618686676025,-7.8783440589904785,-2.7432336807250977
1773146505665355300,1.883355224609375,-4.842956066131592,-7.979835033416748,-2.301196575164795
1773146505674028800,1.89202880859375,-4.786172866821289,-8.123735427856445,-1.8683652877807617
1773146505682702300,1.900702392578125,-4.564213752746582,-8.389266967773438,-1.6565947532653809
1773146505691375900,1.9093759765625,-4.279482841491699,-8.573736190795898,-1.7342848777770996
1773146505700049400,1.91804931640625,-3.844599723815918,-8.637197494506836,-1.8346858024597168
1773146505708723000,1.926722900390625,-3.4313220977783203,-8.807417869567871,-1.8597917556762695
1773146505717396500,1.935396484375,-2.860239267349243,-9.067283630371094,-1.7734403610229492
1773146505726070000,1.944070068359375,-2.0043725967407227,-9.217576026916504,-1.8995866775512695
1773146505734743600,1.95274365234375,-1.6507396697998047,-9.566540718078613,-4.085690975189209
1773146505743417000,1.9614169921875,-1.1421518325805664,-8.86059856414795,-3.2454988956451416
1773146505752090600,1.970090576171875,-0.7337303161621094,-11.861085891723633,-1.1606478691101074
1773146505760764200,1.97876416015625,0.46856212615966797,-11.485909461975098,0.6751503944396973
1773146505769437700,1.987437744140625,3.215310573577881,-11.22413158416748,1.457390308380127
1773146505778111200,1.996111328125,5.661663055419922,-10.614885330200195,2.471881866455078
1773146505786784800,2.00478466796875,7.6047749519348145,-10.32911491394043,3.213639259338379
1773146505795458300,2.013458251953125,8.384405136108398,-9.93017578125,3.7223119735717773
1773146505804131800,2.0221318359375,8.483863830566406,-9.254646301269531,4.28462553024292
1773146505812805400,2.030805419921875,8.152671813964844,-8.558784484863281,4.777646064758301
1773146505821479000,2.03947900390625,7.5859222412109375,-8.060222625732422,5.247453689575195
1773146505830152400,2.04815234375,7.224193572998047,-7.467160701751709,5.391227722167969
1773146505838826000,2.056825927734375,7.330814361572266,-7.1822896003723145,5.4461669921875
1773146505847499500,2.06549951171875,7.903622627258301,-7.123352527618408,5.475193500518799
1773146505856173000,2.074173095703125,9.145628929138184,-7.02404260635376,5.553744792938232
1773146505864846600,2.0828466796875,10.83225154876709,-6.992161750793457,5.907913684844971
1773146505873520000,2.09152001953125,12.574260711669922,-6.678924560546875,6.380023002624512
1773146505882193700,2.100193603515625,13.4005708694458,-6.286538124084473,6.9883575439453125
1773146505890867200,2.1088671875,14.141079902648926,-5.678808212280273,7.503988742828369
1773146505899540700,2.117540771484375,13.889923095703125,-5.439164161682129,8.14107894897461
1773146505908214300,2.12621435546875,13.701684951782227,-5.142092704772949,8.758490562438965
1773146505916887800,2.1348876953125,13.29949951171875,-4.389652252197266,8.954416275024414
1773146505925561300,2.143561279296875,12.270212173461914,-3.8997230529785156,9.289590835571289
1773146505934235000,2.15223486328125,10.910443305969238,-2.832744598388672,9.417703628540039
1773146505942908400,2.160908447265625,9.470022201538086,-1.9048099517822266,9.402505874633789
1773146505951582000,2.16958203125,8.293388366699219,-1.2550487518310547,9.240350723266602
1773146505960255500,2.17825537109375,7.305479049682617,-0.37722206115722656,8.952736854553223
1773146505968929000,2.186928955078125,6.584893703460693,0.14237022399902344,8.890310287475586
1773146505977602600,2.1956025390625,6.262106895446777,0.6831235885620117,8.730497360229492
1773146505986276000,2.204276123046875,5.913627624511719,1.178337574005127,8.513237953186035
1773146505994949600,2.21294970703125,5.325179100036621,1.7854070663452148,8.506839752197266
1773146506003623200,2.221623046875,4.463943004608154,2.2139134407043457,8.458874702453613
1773146506012296700,2.230296630859375,3.4275155067443848,2.717388153076172,8.431324005126953
1773146506020970200,2.23897021484375,2.2213525772094727,3.293346405029297,8.250064849853516
1773146506029643800,2.247643798828125,0.9547286033630371,4.047258377075195,8.239154815673828
1773146506038317300,2.2563173828125,-0.5977702140808105,4.516607284545898,8.078775405883789
1773146506046990800,2.264990966796875,-2.008676528930664,4.819450855255127,8.281002044677734
1773146506055664400,2.273664306640625,-3.2485885620117188,5.189918518066406,8.248104095458984
1773146506064337700,2.282337646484375,-4.316749572753906,5.235547065734863,7.685421943664551
1773146506073011200,2.29101123046875,-4.846672058105469,4.194427490234375,7.166309356689453
1773146506081685000,2.29968505859375,-4.309010028839111,2.939427375793457,6.282492637634277
1773146506090358500,2.308358642578125,-3.3310012817382812,1.921518325805664,5.036479949951172
1773146506099032000,2.317031982421875,-1.4945778846740723,1.86476469039917,3.701875925064087
1773146506107705600,2.32570556640625,-0.18184947967529297,1.690904140472412,3.0643672943115234
1773146506116379100,2.334379150390625,0.7962551116943359,1.2494935989379883,3.0206797122955322
1773146506125052400,2.343052490234375,1.466081142425537,0.9480385780334473,2.95906400680542
1773146506133726000,2.351725830078125,1.5377779006958008,1.2240047454833984,2.5391921997070312
1773146506142399500,2.3603994140625,0.9494533538818359,1.5242137908935547,2.4250833988189697
1773146506151073000,2.369072998046875,0.06904363632202148,1.1129813194274902,2.629809856414795
1773146506159746800,2.377746826171875,-0.39506053924560547,0.6316409111022949,2.6074411869049072
1773146506168420000,2.386420166015625,-0.48530125617980957,0.7301225662231445,2.270742416381836
1773146506177093600,2.39509375,-0.5550205707550049,0.6110172271728516,2.392620325088501
1773146506185767200,2.40376708984375,-0.4967832565307617,0.5769977569580078,2.727315902709961
1773146506194440700,2.412440673828125,-1.0474879741668701,0.18374347686767578,2.534430503845215
1773146506203114200,2.4211142578125,-1.1094307899475098,0.23095321655273438,1.6173182725906372
1773146506211787800,2.429787841796875,-1.6053552627563477,0.07843494415283203,0.9708185195922852
1773146506220461300,2.43846142578125,-2.5272276401519775,-0.3277454376220703,-0.06641173362731934
1773146506229134800,2.447134765625,-2.2441906929016113,-0.5260162353515625,-0.8364884853363037
1773146506237808400,2.455808349609375,-1.7637078762054443,-0.7175493240356445,-0.9518129825592041
1773146506246482000,2.46448193359375,-1.3984909057617188,-0.6871366500854492,-0.7983198165893555
1773146506255155500,2.473155517578125,-1.376999855041504,-0.748377799987793,-0.826103925704956
1773146506263829000,2.4818291015625,-1.1991031169891357,-1.0787649154663086,-1.3468778133392334
1773146506272502500,2.49050244140625,-0.7644956111907959,-1.1603622436523438,-2.0505731105804443
1773146506281176000,2.499176025390625,-0.48302412033081055,-1.0533504486083984,-2.1742360591888428
1773146506289849600,2.507849609375,-0.4406464099884033,-0.7391853332519531,-1.9842588901519775
1773146506298523100,2.516523193359375,-0.46671032905578613,-0.2992734909057617,-1.4294123649597168
1773146506307196700,2.52519677734375,-0.4841423034667969,-0.056639671325683594,-0.554100751876831
1773146506315870200,2.5338701171875,-0.8874611854553223,0.5023698806762695,0.34421277046203613
1773146506324543700,2.542543701171875,-1.2087509632110596,0.6146917343139648,1.0122849941253662
1773146506333217300,2.55121728515625,-0.6526167392730713,0.23569869995117188,0.7083275318145752
1773146506341890800,2.559890869140625,0.8505764007568359,0.12165069580078125,0.003818988800048828
1773146506350564400,2.568564453125,0.49156641960144043,0.2412118911743164,-0.04375100135803223
1773146506359238000,2.57723779296875,-0.0888662338256836,0.07960987091064453,-0.07207465171813965
1773146506367911400,2.585911376953125,-0.5477743148803711,-0.04706001281738281,-0.18716096878051758
1773146506376585000,2.5945849609375,-0.4846823215484619,-0.3275918960571289,-1.0663881301879883
1773146506385258500,2.603258544921875,0.3399355411529541,0.2777681350708008,-0.6655983924865723
1773146506393932000,2.61193212890625,1.9842350482940674,0.7182035446166992,0.8527644872665405
1773146506402605600,2.62060546875,1.7054247856140137,0.3021821975708008,1.9025328159332275
1773146506411279000,2.629279052734375,1.4510102272033691,0.22225666046142578,2.5142464637756348
1773146506419952600,2.63795263671875,0.8008561134338379,-1.5432147979736328,1.5216950178146362
1773146506428626200,2.646626220703125,4.614886283874512,-3.4027576446533203,0.3264296054840088
1773146506437299700,2.6552998046875,1.9884493350982666,0.47069454193115234,0.8970869779586792
1773146506445973200,2.66397314453125,-1.9199597835540771,0.23401832580566406,1.764029622077942
1773146506454646800,2.672646728515625,-4.551030158996582,-0.16555213928222656,2.5044946670532227
1773146506463320300,2.6813203125,-2.1057729721069336,-1.3812274932861328,1.2492189407348633
1773146506471993900,2.689993896484375,0.8575419187545776,-3.44747257232666,-0.9065592288970947
1773146506480667400,2.69866748046875,2.2243127822875977,-4.398092269897461,-4.044056415557861
1773146506489341000,2.7073408203125,0.07438921928405762,-1.6220827102661133,-0.11340141296386719
1773146506498014500,2.716014404296875,-1.4015123844146729,-2.4904279708862305,1.2603509426116943
1773146506506688000,2.72468798828125,-0.9926486015319824,-2.026278495788574,0.48441076278686523
1773146506515361500,2.733361572265625,-0.10260605812072754,-2.3955564498901367,-0.5165741443634033
1773146506524035000,2.74203515625,-0.1200096607208252,-2.431309700012207,-1.093841552734375
1773146506532708600,2.75070849609375,-0.0729072093963623,-1.6863088607788086,-0.8399612903594971
1773146506541382100,2.759382080078125,-0.3631795644760132,-0.7517204284667969,0.0628352165222168
1773146506550055700,2.7680556640625,-0.14990663528442383,0.03925323486328125,1.041473150253296
1773146506558729200,2.776729248046875,0.2782309055328369,0.6507282257080078,0.9371883869171143
1773146506567402800,2.78540283203125,0.7098994255065918,1.0906362533569336,1.4582327604293823
1773146506576076300,2.794076171875,1.1148557662963867,1.0336647033691406,2.085529088973999
1773146506584749800,2.802749755859375,1.5880109071731567,0.8873281478881836,2.396911382675171
1773146506593423400,2.81142333984375,1.0594141483306885,0.776576042175293,2.767177104949951
1773146506602097000,2.820096923828125,1.1378670930862427,1.0702390670776367,1.393051266670227
1773146506610770400,2.8287705078125,0.3729574680328369,0.3479042053222656,2.1354856491088867
1773146506619443700,2.837443603515625,0.5882284641265869,0.40557003021240234,3.633697032928467
1773146506628117200,2.8461171875,0.7649412155151367,1.3083219528198242,0.42906808853149414
1773146506636791000,2.854791015625,1.407117247581482,1.083913803100586,3.340658187866211
1773146506645464600,2.863464599609375,0.3840494155883789,3.375969886779785,5.629305839538574
1773146506654138000,2.87213818359375,-2.321469306945801,2.8918256759643555,7.216724395751953
1773146506662811600,2.880811767578125,-0.017778515815734863,1.5383110046386719,4.112481117248535
1773146506671485200,2.889485107421875,2.4734249114990234,2.005282402038574,-0.28990375995635986
1773146506680158500,2.898158447265625,1.7556991577148438,2.9967994689941406,-2.350208282470703
1773146506688832000,2.90683203125,2.1145572662353516,1.8796677589416504,0.3416227698326111
1773146506697505500,2.915505615234375,0.2301642894744873,2.5232162475585938,-1.4757485389709473
1773146506706179000,2.924178955078125,-0.12935709953308105,2.065232276916504,-2.719635486602783
1773146506714852600,2.9328525390625,-0.044359803199768066,0.5246763229370117,-7.379706382751465
1773146506723526100,2.941526123046875,0.38244807720184326,-1.3315153121948242,-6.022501468658447
1773146506732199700,2.95019970703125,-0.8312361240386963,2.848971366882324,-4.588369846343994
1773146506740873200,2.958873291015625,-1.241830825805664,2.2016468048095703,-1.4949724674224854
1773146506749546800,2.967546630859375,0.6498491764068604,-0.30050086975097656,1.285888433456421
1773146506758220300,2.97622021484375,0.9311952590942383,1.0660829544067383,-1.9455225467681885
1773146506766893800,2.984893798828125,1.1979084014892578,-1.1072092056274414,-3.2903237342834473
1773146506775567400,2.9935673828125,0.3803997039794922,-1.5071086883544922,-2.9156763553619385
1773146506784241000,3.002240966796875,0.5044002532958984,-1.0384578704833984,-1.327459454536438
1773146506792914400,3.01091455078125,1.6790176630020142,0.06923580169677734,0.5597662329673767
1773146506801588000,3.019587890625,1.2244625091552734,-1.9391870498657227,3.7548155784606934
1773146506810261500,3.028261474609375,1.2092100381851196,-3.5404558181762695,4.794162273406982
1773146506818935000,3.03693505859375,0.01222240924835205,-0.3793478012084961,-0.9453751444816589
1773146506827608600,3.045608642578125,-0.6489053964614868,-0.8509864807128906,-1.415905475616455
1773146506836282000,3.0542822265625,-0.21509873867034912,-2.955585479736328,1.240719199180603
1773146506844955600,3.06295556640625,0.2193918228149414,-2.4544553756713867,1.8631818294525146
1773146506853629200,3.071629150390625,-2.602843999862671,2.0166749954223633,0.4616698622703552
1773146506862302700,3.080302734375,-1.0873289108276367,-0.40207767486572266,1.0589771270751953
1773146506870976300,3.088976318359375,-1.3012080192565918,-1.0181999206542969,-0.3729442358016968
1773146506879649800,3.09764990234375,-2.1314010620117188,2.6943655014038086,-1.6672219038009644
1773146506888323300,3.1063232421875,1.0050320625305176,-2.169126510620117,1.3831000328063965
1773146506896996900,3.114996826171875,-0.1283864974975586,1.7382097244262695,-0.15790480375289917
1773146506905670400,3.12367041015625,1.9779077768325806,0.6790876388549805,-0.37556320428848267
1773146506914344000,3.132343994140625,2.1151492595672607,0.8250598907470703,0.3441162109375
1773146506923017500,3.141017578125,1.3419485092163086,0.6040182113647461,0.36059272289276123
1773146506931691000,3.14969091796875,0.1402268409729004,1.3234834671020508,0.3350292444229126
1773146506940364500,3.158364501953125,-0.12943899631500244,1.1671409606933594,0.7120269536972046
1773146506949038000,3.1670380859375,-0.3543589115142822,0.826472282409668,0.9599944949150085
1773146506957711600,3.175711669921875,-0.6326072812080383,1.3920469284057617,0.17642927169799805
1773146506966385200,3.18438525390625,-0.5768391489982605,0.8323202133178711,0.5500164031982422
1773146506975058700,3.19305859375,-0.34239137172698975,0.5167169570922852,0.4601898491382599
1773146506983732200,3.201732177734375,0.7525633573532104,-0.894627571105957,0.19328245520591736
1773146506992405800,3.21040576171875,1.0493086576461792,-1.5757722854614258,-0.28424930572509766
1773146507001079300,3.219079345703125,0.47634172439575195,-2.929788589477539,0.25905781984329224
1773146507009752800,3.2277529296875,0.6209092736244202,-4.224454879760742,-0.5113097429275513
1773146507018426400,3.23642626953125,0.3237159848213196,-3.4932174682617188,-0.22235587239265442
1773146507027100000,3.245099853515625,0.3326748013496399,-4.5453386306762695,0.04888877272605896
1773146507035773400,3.2537734375,2.2654340267181396,-3.4294233322143555,-0.8630321025848389
1773146507044447000,3.262447021484375,-1.3521536588668823,-3.552915573120117,-1.2031333446502686
1773146507053120500,3.27112060546875,0.07998549938201904,-3.264293670654297,0.39148807525634766
1773146507061794000,3.2797939453125,-0.5255833864212036,-3.120375633239746,0.5229700207710266
1773146507070467600,3.288467529296875,0.037918299436569214,-1.7196760177612305,0.608420193195343
1773146507079141000,3.29714111328125,0.18110519647598267,-0.8406438827514648,0.32206806540489197
1773146507087814700,3.305814697265625,0.7883576154708862,-0.25039005279541016,0.6929872035980225
1773146507096488200,3.31448828125,0.8389554023742676,-0.03650951385498047,0.6417354345321655
1773146507105161700,3.32316162109375,0.7320541143417358,0.038100242614746094,0.48953646421432495
1773146507113835300,3.331835205078125,0.9387620091438293,0.15017986297607422,0.4815022051334381
1773146507122508500,3.340508544921875,0.1839037835597992,0.2922697067260742,0.6636754274368286
1773146507131182300,3.349182373046875,-0.9387139081954956,-0.22254180908203125,1.0427416563034058
1773146507139856000,3.35785595703125,0.002017401158809662,0.1066884994506836,0.708429217338562
1773146507148529400,3.366529296875,0.8789577484130859,0.5902872085571289,0.0665661096572876
1773146507157202700,3.37520263671875,0.9120211005210876,0.5620517730712891,-0.009581238031387329
1773146507165876200,3.383876220703125,0.6233224272727966,-0.16530132293701172,0.02489030361175537
1773146507174549800,3.3925498046875,0.7532283067703247,-1.0672292709350586,0.25253117084503174
1773146507183223300,3.401223388671875,0.1567709892988205,-1.267481803894043,0.4725111126899719
1773146507191896800,3.409896728515625,-0.027616068720817566,-0.6916933059692383,0.5045618414878845
1773146507200570400,3.4185703125,-0.380108505487442,-0.7764396667480469,0.556358814239502
1773146507209244200,3.427244140625,0.5544373989105225,-0.8853073120117188,0.053807273507118225
1773146507217917400,3.43591748046875,1.6218243837356567,-0.8416557312011719,-0.7137740850448608
1773146507226591000,3.444591064453125,1.5779979228973389,-0.10627937316894531,0.1646457314491272
1773146507235264500,3.453264404296875,0.9755470752716064,0.9922170639038086,0.09065383672714233
1773146507243938000,3.46193798828125,0.8025611639022827,0.9490737915039062,0.08558861911296844
1773146507252611600,3.470611572265625,0.7115401029586792,0.7840471267700195,0.30157551169395447
1773146507261285000,3.47928515625,0.7571495771408081,0.5881795883178711,0.5050486326217651
1773146507269958700,3.487958740234375,0.9703707098960876,0.5574064254760742,0.6213556528091431
1773146507278632200,3.496632080078125,1.0212290287017822,0.47179508209228516,0.7262929081916809
1773146507287305700,3.5053056640625,0.9447014331817627,0.32906436920166016,0.781262993812561
1773146507295979300,3.513979248046875,0.9173892736434937,0.15309906005859375,0.7121371030807495
1773146507304652800,3.52265283203125,0.9480290412902832,0.00110626220703125,0.5626490712165833
1773146507313326300,3.531326416015625,1.0181121826171875,-0.13427352905273438,0.4724297523498535
1773146507322000000,3.539999755859375,1.0895628929138184,-0.21021556854248047,0.45639437437057495
1773146507330673400,3.54867333984375,1.2121939659118652,-0.2698974609375,0.5485849380493164
1773146507339347000,3.557346923828125,1.3001869916915894,-0.27767181396484375,0.6873883008956909
1773146507348020500,3.5660205078125,1.3770803213119507,-0.2862205505371094,0.8110363483428955
1773146507356694000,3.574694091796875,1.4690560102462769,-0.2669820785522461,0.9225038886070251
1773146507365367600,3.583367431640625,1.5400738716125488,-0.2057647705078125,1.0388054847717285
1773146507374041000,3.592041015625,1.5706629753112793,-0.06450653076171875,1.1193264722824097
1773146507382714600,3.600714599609375,1.58878493309021,0.10890579223632812,1.1255946159362793
1773146507391388200,3.60938818359375,1.577392578125,0.28817081451416016,1.0474600791931152
1773146507400061700,3.618061767578125,1.5240286588668823,0.4829254150390625,0.9221199154853821
1773146507408735200,3.6267353515625,1.5427628755569458,0.6813287734985352,0.7962174415588379
1773146507417408800,3.63540869140625,1.5400141477584839,0.9025745391845703,0.5015406608581543
1773146507426082300,3.644082275390625,1.6078523397445679,1.120619773864746,0.12313485145568848
1773146507434755800,3.652755859375,1.7771921157836914,1.1617584228515625,-0.2876889705657959
1773146507443429400,3.661429443359375,1.6712634563446045,1.1300878524780273,-0.8721057176589966
1773146507452103000,3.67010302734375,1.2792789936065674,0.9882192611694336,-0.8962192535400391
1773146507460776400,3.6787763671875,2.062744140625,1.2524375915527344,-0.4101681113243103
1773146507469450000,3.687449951171875,1.9903565645217896,1.9311842918395996,-0.6450149416923523
1773146507478123500,3.69612353515625,1.2754398584365845,1.3415098190307617,-0.11500507593154907
1773146507486797000,3.704797119140625,0.7046743631362915,0.5900993347167969,0.8014697432518005
1773146507495470600,3.713470703125,0.2924635410308838,0.2924003601074219,1.1445634365081787
1773146507504144100,3.72214404296875,-0.03747844696044922,-0.2155590057373047,1.1465141773223877
1773146507512817700,3.730817626953125,-0.09706544876098633,-0.9185152053833008,0.9850128889083862
1773146507521491200,3.7394912109375,-0.13544201850891113,-1.686020851135254,0.7557556629180908
1773146507530164700,3.748164794921875,-0.5007455348968506,-2.432400703430176,0.5379104018211365
1773146507538838300,3.75683837890625,-0.3036975860595703,-3.4255638122558594,0.5542685985565186
1773146507547511800,3.76551171875,-1.280916690826416,-4.349469184875488,0.026366829872131348
1773146507556185300,3.774185302734375,-1.7485324144363403,-4.950860977172852,-0.3105369806289673
1773146507564859000,3.78285888671875,-2.045633554458618,-5.077253341674805,-0.7254948616027832
1773146507573532400,3.791532470703125,-2.005303382873535,-4.624024391174316,-1.0861629247665405
1773146507582206000,3.8002060546875,-1.6329302787780762,-3.687387466430664,-1.216733455657959
1773146507590879500,3.80887939453125,-1.1296201944351196,-2.595155715942383,-1.1667743921279907
1773146507599553000,3.817552978515625,-0.6404054164886475,-1.473952293395996,-1.016895055770874
1773146507608226600,3.8262265625,-0.15849721431732178,-0.30464649200439453,-0.7877671718597412
1773146507616900000,3.834900146484375,0.2349255084991455,0.7813663482666016,-0.5497010946273804
1773146507625573600,3.84357373046875,0.4412649869918823,1.674210548400879,-0.3154454231262207
1773146507634247200,3.8522470703125,0.45826518535614014,2.3287606239318848,-0.04648184776306152
1773146507642920400,3.86092041015625,0.4025777578353882,2.7337021827697754,0.19596260786056519
1773146507651594200,3.86959423828125,0.2668318748474121,2.9136667251586914,0.32758498191833496
1773146507660267800,3.878267822265625,0.15559399127960205,2.910092353820801,0.31350064277648926
1773146507668941000,3.886941162109375,0.06174004077911377,2.721454620361328,0.26013386249542236
1773146507677614600,3.895614501953125,0.04010629653930664,2.4417152404785156,0.09502577781677246
1773146507686288100,3.9042880859375,0.04780471324920654,2.131077766418457,-0.07685267925262451
1773146507694962000,3.9129619140625,0.09395289421081543,1.7828197479248047,-0.20044362545013428
1773146507703635200,3.92163525390625,0.10929596424102783,1.6404352188110352,-0.39708566665649414
1773146507712309000,3.93030908203125,0.037163734436035156,1.1355218887329102,-0.49079954624176025
1773146507720982500,3.938982421875,0.09029269218444824,1.0635623931884766,-0.773563027381897
1773146507729655800,3.94765576171875,0.11083996295928955,0.9909276962280273,-1.0174188613891602
1773146507738329300,3.956329345703125,0.22079336643218994,0.9670877456665039,-1.2064518928527832
1773146507747003000,3.9650029296875,0.0528789758682251,0.6763372421264648,-1.2601430416107178
1773146507755676400,3.973676513671875,-0.019367337226867676,0.4461956024169922,-1.1764492988586426
1773146507764350000,3.982349853515625,-0.01324605941772461,0.5891017913818359,-0.9568130970001221
1773146507773023700,3.991023681640625,-0.17943215370178223,0.3637199401855469,-0.6234545707702637
1773146507781697000,3.999697021484375,-0.18269693851470947,0.10973548889160156,-0.2747209072113037
1773146507790370600,4.00837060546875,-0.2394115924835205,-0.053671836853027344,0.08213818073272705
1773146507799044000,4.017044189453125,-0.31188011169433594,-0.2819032669067383,0.5307403802871704
1773146507807717600,4.025717529296875,-0.5468111038208008,-0.2045001983642578,0.9743167161941528
1773146507816391200,4.03439111328125,-0.6706575155258179,-0.2564411163330078,1.3432204723358154
1773146507825064700,4.043064697265625,-0.7704887390136719,-0.38239192962646484,1.6711527109146118
1773146507833738200,4.05173828125,-0.7945709228515625,-0.6443243026733398,1.8334702253341675
1773146507842411800,4.060411865234375,-0.8007922172546387,-0.9919986724853516,1.7738580703735352
1773146507851085300,4.069085205078125,-0.8238584399223328,-1.301222801208496,1.6252641677856445
1773146507859758800,4.0777587890625,-0.8351579904556274,-1.4957599639892578,1.4634534120559692
1773146507868432400,4.086432373046875,-0.7830508351325989,-1.6690025329589844,1.3185980319976807
1773146507877106000,4.09510595703125,-0.7294201850891113,-1.9567947387695312,1.5070375204086304
1773146507885779500,4.103779541015625,-0.7544835805892944,-2.2178306579589844,1.6066590547561646
1773146507894453000,4.112452880859375,-0.9077516198158264,-2.385373115539551,1.6127572059631348
1773146507903126500,4.12112646484375,-1.1128534078598022,-1.521662712097168,1.1826543807983398
1773146507911800000,4.129800048828125,-0.8514809608459473,-0.6055822372436523,1.0116602182388306
1773146507920473600,4.1384736328125,-0.6136419773101807,0.07637882232666016,0.9162241816520691
1773146507929147100,4.147147216796875,-0.38974276185035706,0.658482551574707,0.8909841179847717
1773146507937820700,4.155820556640625,0.02537629008293152,1.119516372680664,0.8602216839790344
1773146507946494200,4.164494140625,0.3911420404911041,1.4216480255126953,0.8031517267227173
1773146507955167700,4.173167724609375,0.6237009763717651,1.5223417282104492,0.7815884351730347
1773146507963841300,4.18184130859375,0.8595696687698364,1.3456897735595703,0.933260440826416
1773146507972514800,4.190514892578125,1.0149188041687012,1.5178184509277344,1.3816542625427246
1773146507981188400,4.199188232421875,0.3891286253929138,0.9920434951782227,0.9955403804779053
1773146507989862000,4.20786181640625,0.2565375566482544,0.653019905090332,0.9330615997314453
1773146507998535400,4.216535400390625,0.05734695494174957,0.5027847290039062,1.1179876327514648
1773146508007209000,4.225208984375,-0.12428413331508636,0.46697521209716797,1.1967132091522217
1773146508015882500,4.233882568359375,-0.3062218129634857,0.4427347183227539,1.2466707229614258
1773146508024556000,4.24255615234375,-0.4194113612174988,0.37996482849121094,1.2990963459014893
1773146508033229600,4.2512294921875,-0.5340561270713806,0.32898426055908203,1.33717942237854
1773146508041903000,4.259903076171875,-0.5543822050094604,0.41164493560791016,1.3916939496994019
1773146508050576600,4.26857666015625,-0.49785685539245605,0.5202922821044922,1.362134337425232
1773146508059250200,4.277250244140625,-0.36340272426605225,0.518829345703125,1.2891011238098145
1773146508067923700,4.285923828125,-0.197760209441185,0.5269126892089844,1.2270797491073608
1773146508076597200,4.29459716796875,-0.01876857504248619,0.5517139434814453,1.1399153470993042
1773146508085270800,4.303270751953125,0.14882908761501312,0.6576852798461914,1.053666114807129
1773146508093944300,4.3119443359375,0.31833702325820923,0.7801942825317383,0.9944390654563904
1773146508102617900,4.320617919921875,0.4006589651107788,0.8762359619140625,0.9666391611099243
1773146508111291400,4.32929150390625,0.5198890566825867,1.0222854614257812,0.9107621908187866
1773146508119965000,4.33796484375,0.6377894282341003,1.039149284362793,0.9006750583648682
1773146508128638500,4.346638427734375,0.7382174134254456,1.0488824844360352,0.8623515367507935
1773146508137312000,4.35531201171875,0.7574005126953125,0.9798688888549805,0.9010043144226074
1773146508145985500,4.363985595703125,0.719287097454071,0.8776359558105469,0.9589439034461975
1773146508154659000,4.3726591796875,0.6095371842384338,0.7135944366455078,1.117256760597229
1773146508163332600,4.38133251953125,0.4981842339038849,0.6000995635986328,1.2563918828964233
1773146508172006100,4.390006103515625,0.364639014005661,0.4773569107055664,1.3573421239852905
1773146508180679700,4.3986796875,0.2459796667098999,0.33821964263916016,1.3579052686691284
1773146508189353200,4.407353271484375,0.1140470951795578,0.18032455444335938,1.353463888168335
1773146508198026800,4.41602685546875,-0.02155964821577072,0.046677589416503906,1.3556792736053467
1773146508206700300,4.4247001953125,-0.16131556034088135,-0.03414630889892578,1.309116005897522
1773146508215373800,4.433373779296875,-0.2651849687099457,-0.007354736328125,1.3880412578582764
1773146508224047400,4.44204736328125,-0.2897343933582306,-0.05467033386230469,1.5517578125
1773146508232721000,4.450720947265625,-0.3960793912410736,0.029402732849121094,1.4562498331069946
1773146508241394400,4.45939453125,-0.4270043969154358,0.12518692016601562,1.328646183013916
1773146508250068000,4.46806787109375,-0.3348509669303894,0.19205474853515625,1.4627060890197754
1773146508258741500,4.476741455078125,-0.29102396965026855,0.15126323699951172,1.5778244733810425
1773146508267415000,4.4854150390625,-0.18979856371879578,0.02930164337158203,1.5228840112686157
1773146508276088600,4.494088623046875,-0.028078718110919,-0.18082427978515625,1.2645564079284668
1773146508284762000,4.50276220703125,0.2708956301212311,-0.3786430358886719,0.9448280334472656
1773146508293435600,4.511435546875,0.7090188264846802,-0.5832862854003906,0.869886577129364
1773146508302109200,4.520109130859375,1.0916857719421387,-0.7804222106933594,1.127365231513977
1773146508310782700,4.52878271484375,1.21768319606781,-0.8912534713745117,1.6221482753753662
1773146508319456300,4.537456298828125,1.0284086465835571,-0.9326496124267578,2.121033191680908
1773146508328129800,4.5461298828125,0.17371606826782227,-1.124434471130371,2.423398733139038
1773146508336803300,4.55480322265625,-1.384190320968628,-2.266188621520996,2.502187490463257
1773146508345476900,4.563476806640625,-2.677686929702759,-3.766047477722168,1.9436556100845337
1773146508354150400,4.572150390625,-3.359025716781616,-6.081655502319336,0.6940606832504272
1773146508362824000,4.580823974609375,-3.709177017211914,-6.4007568359375,-0.857277512550354
1773146508371497500,4.58949755859375,-3.4041552543640137,-7.459369659423828,-2.8445799350738525
1773146508380171000,4.5981708984375,-2.2352404594421387,-8.009778022766113,-4.535985946655273
1773146508388844500,4.606844482421875,-1.3554083108901978,-8.055818557739258,-5.441600799560547
1773146508397518000,4.61551806640625,-0.8815036416053772,-3.3820104598999023,-5.154773235321045
1773146508406191600,4.624191650390625,-0.4251180589199066,0.679102897644043,-3.8732542991638184
1773146508414865200,4.632865234375,0.07582587003707886,1.9273991584777832,-1.9859029054641724
1773146508423538700,4.64153857421875,0.5129470825195312,2.551814079284668,-0.25006142258644104
1773146508432212200,4.650212158203125,0.9150099754333496,3.2015600204467773,0.8447785973548889
1773146508440885800,4.6588857421875,1.1973071098327637,3.569289207458496,1.4940074682235718
1773146508449559300,4.667559326171875,1.1795189380645752,3.574644088745117,1.8840762376785278
1773146508458232800,4.67623291015625,1.036379098892212,3.4617719650268555,2.0067138671875
1773146508466906400,4.68490625,0.6879565715789795,3.259215831756592,2.178420305252075
1773146508475580000,4.693579833984375,0.18634545803070068,3.0311994552612305,2.1088578701019287
1773146508484253400,4.70225341796875,-0.42880064249038696,2.631718635559082,1.752252221107483
1773146508492927000,4.710927001953125,-1.1018140316009521,2.015420913696289,1.0355982780456543
1773146508501600500,4.7196005859375,-1.7890112400054932,1.2874689102172852,0.11947647482156754
1773146508510274000,4.728274169921875,-2.4047036170959473,0.20900440216064453,-0.5054741501808167
1773146508518947600,4.736947509765625,-2.4453439712524414,-0.3000059127807617,-1.2037721872329712
1773146508527621000,4.74562109375,-1.939447045326233,-1.0619068145751953,-1.6965274810791016
1773146508536294700,4.754294677734375,-0.9716607332229614,-1.5956859588623047,-1.8284329175949097
1773146508544968200,4.76296826171875,-0.4651910662651062,-1.4335460662841797,-2.0369977951049805
1773146508553641700,4.771641845703125,-0.45156705379486084,-0.5937290191650391,-2.013791084289551
1773146508562315300,4.780315185546875,-0.4707443118095398,0.5497608184814453,-1.6749831438064575
1773146508570988800,4.78898876953125,-0.39185357093811035,1.4709739685058594,-1.2060041427612305
1773146508579662300,4.797662353515625,-0.3262009620666504,2.0558252334594727,-0.8633178472518921
1773146508588335900,4.8063359375,-0.2840636968612671,2.307408332824707,-0.7523564100265503
1773146508597009400,4.815009521484375,-0.23779296875,2.288585662841797,-0.904610276222229
1773146508605683000,4.823682861328125,-0.24074900150299072,2.054990768432617,-1.3338329792022705
1773146508614356500,4.8323564453125,-0.4711263179779053,1.611863136291504,-1.7214447259902954
1773146508623030000,4.841030029296875,-0.80631422996521,1.136418342590332,-2.2043206691741943
1773146508631703600,4.84970361328125,-0.9888023138046265,0.5715780258178711,-2.5886850357055664
1773146508640377000,4.858377197265625,-1.0577374696731567,0.0036382675170898438,-2.9803600311279297
1773146508649050600,4.867050537109375,-1.158068299293518,-0.06599712371826172,-3.6793622970581055
1773146508657724200,4.87572412109375,-0.9705640077590942,-0.4265117645263672,-3.8560380935668945
1773146508666397700,4.884397705078125,-0.5531550645828247,-0.6666984558105469,-3.915698289871216
1773146508675071200,4.8930712890625,0.04127347469329834,-0.3495645523071289,-4.035233497619629
1773146508683744800,4.901744873046875,0.5376704931259155,0.2566261291503906,-3.871556520462036
1773146508692418300,4.910418212890625,1.0092005729675293,0.6691102981567383,-3.739368438720703
1773146508701091800,4.919091796875,1.387258768081665,0.8094034194946289,-3.2854628562927246
1773146508709765400,4.927765380859375,1.494983196258545,0.758967399597168,-2.7661170959472656
1773146508718439000,4.93643896484375,1.326337456703186,0.634800910949707,-2.2336227893829346
1773146508727112400,4.945112548828125,1.0469365119934082,0.4534282684326172,-1.7160509824752808
1773146508735786000,4.953785888671875,0.715740442276001,0.23390483856201172,-1.265188455581665
1773146508744459500,4.96245947265625,0.4497874975204468,-0.06423568725585938,-0.8698297739028931
1773146508753133000,4.971133056640625,0.22177934646606445,-0.37382030487060547,-0.5690679550170898
1773146508761806600,4.979806640625,0.16666698455810547,-0.6564693450927734,-0.3236992657184601
1773146508770480000,4.988480224609375,0.22192740440368652,-0.8835849761962891,-0.1981002539396286
1773146508779153700,4.997153564453125,0.34016263484954834,-0.9336004257202148,-0.14195217192173004
1773146508787827200,5.0058271484375,0.4784091114997864,-0.8427515029907227,-0.10780401527881622
1773146508796500700,5.014500732421875,0.6276601552963257,-0.6448774337768555,-0.07074996083974838
1773146508805174300,5.02317431640625,0.7527390122413635,-0.4215059280395508,0.0203348770737648
1773146508813847800,5.031847900390625,0.7846882343292236,-0.18946075439453125,0.07966519892215729
1773146508822521300,5.040521240234375,0.7617829442024231,0.0011119842529296875,0.16070109605789185
1773146508831195000,5.04919482421875,0.6957961916923523,0.1264638900756836,0.2165907919406891
1773146508839868400,5.057868408203125,0.6388108730316162,0.20114517211914062,0.3231438994407654
1773146508848542000,5.0665419921875,0.5544450283050537,0.23490047454833984,0.3653794825077057
1773146508857215500,5.075215576171875,0.35863685607910156,0.32579803466796875,0.3009079694747925
1773146508865889000,5.083888916015625,0.5790904760360718,0.2851095199584961,0.4515627324581146
1773146508874562600,5.0925625,0.5080108642578125,0.27072620391845703,0.4665502607822418
1773146508883236000,5.101236083984375,0.4897366762161255,0.22052383422851562,0.5543767809867859
1773146508891909600,5.10990966796875,0.41725993156433105,0.14882564544677734,0.663013219833374
1773146508900583200,5.118583251953125,0.38926267623901367,0.07945060729980469,0.676807701587677
1773146508909256700,5.127256591796875,0.4789089560508728,0.04353523254394531,0.735302209854126
1773146508917930200,5.13593017578125,0.6737040877342224,-0.02103900909423828,0.9444018602371216
1773146508926603800,5.144603759765625,0.6296008825302124,-0.021089553833007812,1.0349440574645996
1773146508935277300,5.15327734375,0.6240407824516296,-0.0236053466796875,1.1503212451934814
1773146508943950800,5.161950927734375,0.5883174538612366,-0.01673126220703125,1.2348729372024536
1773146508952624400,5.170624267578125,0.6491994261741638,0.009036064147949219,1.2955697774887085
1773146508961298000,5.1792978515625,0.7329622507095337,0.04641151428222656,1.3898966312408447
1773146508969971500,5.187971435546875,0.829735517501831,0.10733985900878906,1.5107351541519165
1773146508978645000,5.19664501953125,0.8670209646224976,0.17517948150634766,1.6366246938705444
1773146508987318500,5.205318603515625,0.8495087623596191,0.2642669677734375,1.7846519947052002
1773146508995992000,5.213991943359375,0.8175452947616577,0.2886476516723633,1.9285095930099487
1773146509004665600,5.22266552734375,0.7639398574829102,0.3129310607910156,2.039947509765625
1773146509013339100,5.231339111328125,0.6672948598861694,0.2821826934814453,2.045276641845703
1773146509022012700,5.2400126953125,0.47635412216186523,0.17960643768310547,1.9608241319656372
1773146509030686200,5.248686279296875,0.2830241918563843,0.012364387512207031,1.7280526161193848
1773146509039359500,5.257359375,0.4202538728713989,-0.284088134765625,1.4197118282318115
1773146509048033000,5.266032958984375,0.1594991683959961,-0.5591211318969727,0.8697227835655212
1773146509056706800,5.274706787109375,0.11286163330078125,-0.7053699493408203,0.34882035851478577
1773146509065380400,5.28338037109375,0.13861095905303955,-0.8448457717895508,-0.0019946545362472534
1773146509074054000,5.292053955078125,0.20993447303771973,-0.9679775238037109,-0.31427037715911865
1773146509082727200,5.30072705078125,0.29011356830596924,-1.0316972732543945,-0.5164445638656616
1773146509091401000,5.30940087890625,0.3428140878677368,-1.0336618423461914,-0.5515262484550476
1773146509100074500,5.318074462890625,0.38914382457733154,-0.9763107299804688,-0.44393548369407654
1773146509108747800,5.326747802734375,0.4021761417388916,-0.814265251159668,-0.27534782886505127
1773146509117421300,5.33542138671875,0.40526020526885986,-0.614471435546875,-0.1534624695777893
1773146509126094800,5.3440947265625,0.5645911693572998,-0.4269542694091797,-0.1038648784160614
1773146509134768600,5.3527685546875,0.7191853523254395,-0.2061758041381836,-0.18303465843200684
1773146509143442200,5.361442138671875,0.989823579788208,0.0026750564575195312,-0.3046773672103882
1773146509152115700,5.37011572265625,1.2467553615570068,0.049384117126464844,-0.45038047432899475
1773146509160789000,5.3787890625,1.5425043106079102,0.08717155456542969,-0.589287519454956
1773146509169462500,5.387462646484375,1.8102242946624756,0.17816829681396484,-0.6954228281974792
1773146509178136000,5.396135986328125,1.8062598705291748,0.34450817108154297,-0.6476927399635315
1773146509186809600,5.4048095703125,2.4032437801361084,0.8270740509033203,-0.1274091899394989
1773146509195483100,5.413483154296875,3.093852996826172,1.2020025253295898,0.12755674123764038
1773146509204156700,5.42215673828125,1.8651589155197144,-0.022507667541503906,0.7434889674186707
1773146509212830200,5.430830322265625,0.5692206621170044,-0.9022808074951172,1.5630061626434326
1773146509221503700,5.439503662109375,0.21330857276916504,-1.0719451904296875,1.9969877004623413
1773146509230177300,5.44817724609375,0.4579613208770752,-1.448495864868164,1.6595081090927124
1773146509238850800,5.456850830078125,0.8846306800842285,-1.5603361129760742,1.0933341979980469
1773146509247524400,5.4655244140625,1.2598955631256104,-1.2725658416748047,0.7920836210250854
1773146509256198000,5.474197998046875,1.1425069570541382,-0.8198137283325195,0.4436781704425812
1773146509264871400,5.482871337890625,0.3694896697998047,-0.4699115753173828,-0.17005473375320435
1773146509273545000,5.491544921875,0.23394417762756348,-0.1873035430908203,-0.6736510396003723
1773146509282218500,5.500218505859375,-0.4602820873260498,-0.05333709716796875,-1.462803840637207
1773146509290892000,5.50889208984375,-0.8654440641403198,0.0038852691650390625,-2.143911361694336
1773146509299565600,5.517565673828125,-1.0428752899169922,0.21150970458984375,-2.6139416694641113
1773146509308239000,5.526239013671875,-1.0398037433624268,0.5385980606079102,-2.8234360218048096
1773146509316912600,5.53491259765625,-0.968698263168335,1.0139474868774414,-2.844482660293579
1773146509325586200,5.543586181640625,-0.8283257484436035,1.6371841430664062,-2.843043804168701
1773146509334259700,5.552259765625,-0.6931768655776978,2.3239784240722656,-2.9059231281280518
1773146509342933200,5.560933349609375,-0.5374753475189209,3.0163321495056152,-2.996593475341797
1773146509351606800,5.569606689453125,-0.35440635681152344,3.606234550476074,-2.9663429260253906
1773146509360280300,5.5782802734375,-0.17289197444915771,4.009914398193359,-2.6464297771453857
1773146509368953900,5.586953857421875,-0.018967747688293457,4.205866813659668,-2.2175183296203613
1773146509377627400,5.59562744140625,0.08645874261856079,3.9244418144226074,-1.474921703338623
1773146509386301000,5.604301025390625,0.19432443380355835,3.040132522583008,-0.5289135575294495
1773146509394974500,5.612974365234375,0.28865304589271545,1.8410301208496094,0.6054659485816956
1773146509403648000,5.62164794921875,0.1152167022228241,0.5693235397338867,1.4876114130020142
1773146509412321500,5.630321533203125,-0.2476707398891449,-0.977391242980957,2.5671355724334717
1773146509420995000,5.6389951171875,-1.0551881790161133,-2.2206602096557617,3.1032187938690186
1773146509429668600,5.647668701171875,-1.4897637367248535,-3.9945945739746094,3.8780064582824707
1773146509438342100,5.656342041015625,-1.820678472518921,-5.488751411437988,4.53628396987915
1773146509447015700,5.665015625,-2.323298454284668,-6.238254547119141,4.680274486541748
1773146509455689200,5.673689208984375,-3.105193614959717,-6.096406936645508,4.525502681732178
1773146509464362800,5.68236279296875,-3.801481008529663,-4.801581382751465,4.402453422546387
1773146509473036300,5.691036376953125,-3.689077854156494,-3.3176307678222656,4.28203821182251
1773146509481709800,5.699709716796875,-3.5088999271392822,-2.153435707092285,3.801504373550415
1773146509490383400,5.70838330078125,-2.8506686687469482,-1.1056976318359375,3.204634189605713
1773146509499057000,5.717056884765625,-2.0902671813964844,-0.3560962677001953,2.6882667541503906
1773146509507730400,5.72573046875,-1.4590860605239868,0.09327030181884766,2.3956801891326904
1773146509516404000,5.734404052734375,-0.8863913416862488,0.30959510803222656,2.0680618286132812
1773146509525077500,5.743077392578125,-0.37220385670661926,0.38862037658691406,1.7055015563964844
1773146509533751000,5.7517509765625,-0.027278989553451538,0.29938697814941406,1.43743896484375
1773146509542424600,5.760424560546875,0.09565815329551697,0.11615276336669922,0.6240741610527039
1773146509551098000,5.76909814453125,0.25884637236595154,-0.08214092254638672,0.33937931060791016
1773146509559771600,5.777771728515625,0.28248482942581177,0.0028581619262695312,0.4475909173488617
1773146509568445200,5.786445068359375,-0.2443130612373352,-0.3527565002441406,-0.45727014541625977
1773146509577118700,5.79511865234375,-0.2091583013534546,-0.4146738052368164,-0.5093015432357788
1773146509585792300,5.803792236328125,-0.32496440410614014,-0.28119659423828125,-0.5369845628738403
1773146509594465800,5.8124658203125,-0.6147143840789795,-0.031202316284179688,-0.6212059259414673
1773146509603139300,5.821139404296875,-0.6260918378829956,0.6718120574951172,-0.22459015250205994
1773146509611812900,5.829812744140625,-1.2559657096862793,0.2754354476928711,-0.8798502683639526
1773146509620486400,5.838486328125,-1.0506938695907593,0.3414773941040039,-0.5739238858222961
1773146509629160000,5.847159912109375,-0.9828575849533081,0.49399566650390625,-0.39458757638931274
1773146509637833500,5.85583349609375,-0.7027889490127563,0.6730289459228516,-0.2872479557991028
1773146509646507000,5.864507080078125,-0.3743656277656555,0.8044424057006836,-0.16144049167633057
1773146509655180500,5.8731806640625,-0.015286505222320557,0.9503116607666016,-0.0014905333518981934
1773146509663854000,5.88185400390625,0.30183571577072144,1.0914058685302734,0.12985074520111084
1773146509672527600,5.890527587890625,0.48629099130630493,1.074894905090332,0.21548432111740112
1773146509681201200,5.899201171875,0.5981089472770691,1.0181303024291992,0.30794471502304077
1773146509689874700,5.907874755859375,0.6633589863777161,0.8853187561035156,0.4019799828529358
1773146509698548200,5.91654833984375,0.7342942953109741,0.7482404708862305,0.4069690704345703
1773146509707221800,5.9252216796875,0.7654218077659607,0.5901784896850586,0.3826887607574463
1773146509715895300,5.933895263671875,0.7790446281433105,0.43752098083496094,0.33395135402679443
1773146509724568800,5.94256884765625,0.7853005528450012,0.3714790344238281,0.26294052600860596
1773146509733242400,5.951242431640625,0.8228150606155396,0.37044715881347656,0.1795114278793335
1773146509741916000,5.959916015625,0.891708254814148,0.4033241271972656,0.13446933031082153
1773146509750589400,5.96858935546875,0.9377517104148865,0.4009437561035156,0.11902207136154175
1773146509759263000,5.977262939453125,0.9256106615066528,0.40165138244628906,0.16220718622207642
1773146509767936500,5.9859365234375,0.9246703386306763,0.3457355499267578,0.2902119755744934
1773146509776610000,5.994610107421875,0.8414379954338074,0.2952871322631836,0.4688555598258972
1773146509785283600,6.00328369140625,0.7854486703872681,0.2047891616821289,0.6901198625564575
1773146509793957000,6.01195703125,0.746858537197113,0.12672138214111328,0.9123873114585876
1773146509802630700,6.020630615234375,0.7394295334815979,0.0823984146118164,1.1347084045410156
1773146509811304200,6.02930419921875,0.7058591842651367,0.06930732727050781,1.31842041015625
1773146509819977700,6.037977783203125,0.6939638257026672,0.08966636657714844,1.4721957445144653
1773146509828651300,6.0466513671875,0.6457235813140869,0.1266183853149414,1.541138768196106
1773146509837324800,6.05532470703125,0.5610100626945496,0.07023811340332031,1.6207318305969238
1773146509845998300,6.063998291015625,0.49904894828796387,-0.13190650939941406,1.693638563156128
1773146509854672000,6.072671875,0.3900490999221802,-0.40797996520996094,1.6659822463989258
1773146509863345400,6.081345458984375,0.2990148067474365,-0.6289901733398438,1.478360652923584
1773146509872019000,6.09001904296875,0.2596280574798584,-0.7497615814208984,1.2029199600219727
1773146509880692500,6.0986923828125,0.3106844127178192,-0.7418966293334961,0.9186404943466187
1773146509889366000,6.107365966796875,0.5256167650222778,-0.6510000228881836,0.7138950824737549
1773146509898039600,6.11603955078125,0.8526450991630554,-0.5105600357055664,0.6151524782180786
1773146509906713000,6.124713134765625,1.2450002431869507,-0.34203243255615234,0.6491633653640747
1773146509915386600,6.13338671875,1.5087398290634155,-0.195404052734375,0.8338095545768738
1773146509924060200,6.14206005859375,1.4676469564437866,-0.06556129455566406,1.1638050079345703
1773146509932733700,6.150733642578125,1.0897785425186157,-0.3389892578125,1.5301733016967773
1773146509941407200,6.1594072265625,0.49242088198661804,-1.905874252319336,1.9162191152572632
1773146509950080800,6.168080810546875,-0.5629292726516724,-4.49454402923584,1.6930088996887207
1773146509958754300,6.17675439453125,-1.3575530052185059,-6.970887184143066,-0.002332329750061035
1773146509967427800,6.185427734375,-1.864851713180542,-6.980281829833984,-2.034952402114868
1773146509976101400,6.194101318359375,-2.209578037261963,-4.862409591674805,-3.0545272827148438
1773146509984775000,6.20277490234375,-2.1584177017211914,-2.7708864212036133,-2.9915008544921875
1773146509993448400,6.211448486328125,-1.7628021240234375,-1.2143707275390625,-2.530385732650757
1773146510002122000,6.2201220703125,-1.34224271774292,-0.39002227783203125,-1.9728834629058838
1773146510010795500,6.22879541015625,-0.8365562558174133,-0.4327735900878906,-1.4357224702835083
1773146510019469300,6.23746923828125,-0.3774605095386505,-0.38330936431884766,-1.0315330028533936
1773146510028142800,6.246142822265625,0.09174865484237671,0.33646392822265625,-0.6109717488288879
1773146510036816100,6.254816162109375,0.48855170607566833,1.3100414276123047,-0.18768662214279175
1773146510045489700,6.26348974609375,0.6956726312637329,2.293729782104492,0.027121126651763916
1773146510054163500,6.27216357421875,0.7097208499908447,3.1781253814697266,-0.0799517035484314
1773146510062836700,6.280836669921875,0.5913015007972717,3.868330478668213,-0.43471860885620117
1773146510071510300,6.28951025390625,0.4415367543697357,4.109379768371582,-0.891220211982727
1773146510080183800,6.298183837890625,0.19713866710662842,3.7230076789855957,-1.2947748899459839
1773146510088857300,6.306857421875,-0.05090475082397461,2.8247852325439453,-1.4389225244522095
1773146510097531100,6.31553125,-0.20978325605392456,1.7855157852172852,-1.436448574066162
1773146510106204700,6.32420458984375,-0.41442012786865234,0.6767311096191406,-1.4296908378601074
1773146510114878200,6.332878173828125,-0.6995478272438049,-0.42551231384277344,-1.3995305299758911
1773146510123551700,6.3415517578125,-0.8758155107498169,-1.237391471862793,-1.286620020866394
1773146510132225000,6.35022509765625,-0.89287930727005,-1.4538049697875977,-1.2877256870269775
1773146510140898800,6.35889892578125,-0.6539394855499268,-1.3767623901367188,-1.0989503860473633
1773146510149572000,6.367572021484375,-0.34721213579177856,-0.7990503311157227,-0.9411447048187256
1773146510158246000,6.376245849609375,-0.41263896226882935,0.14220237731933594,-0.8000442981719971
1773146510166919200,6.384919189453125,-0.7006863355636597,0.6554746627807617,-0.4805510342121124
1773146510175593000,6.393593017578125,-1.010223627090454,0.898859977722168,-0.26801151037216187
1773146510184266500,6.4022666015625,-1.3274915218353271,1.006302833557129,-0.12408113479614258
1773146510192940000,6.41093994140625,-1.6215736865997314,1.1068811416625977,-0.048352837562561035
1773146510201613600,6.419613525390625,-1.7373965978622437,1.2413177490234375,-0.12160909175872803
1773146510210287000,6.428287109375,-1.673441767692566,1.3404970169067383,-0.14775943756103516
1773146510218960600,6.436960693359375,-1.5057915449142456,1.3616113662719727,-0.10547041893005371
1773146510227634200,6.44563427734375,-1.3556755781173706,1.4125757217407227,-0.3419935703277588
1773146510236307700,6.4543076171875,-0.9436525106430054,1.2575159072875977,-0.6562427282333374
1773146510244981000,6.46298095703125,-0.5173320770263672,0.9667091369628906,-1.1117103099822998
1773146510253654800,6.47165478515625,-0.11802148818969727,0.5698528289794922,-1.775303602218628
1773146510262328300,6.480328369140625,0.15276169776916504,0.027547836303710938,-2.6133408546447754
1773146510271001900,6.489001953125,0.353674054145813,-0.5850200653076172,-3.3570985794067383
1773146510279675400,6.49767529296875,0.14953553676605225,-1.1960210800170898,-3.8934903144836426
1773146510288349000,6.506348876953125,-0.024583101272583008,-1.813314437866211,-4.120864391326904
1773146510297022500,6.5150224609375,0.017455339431762695,-2.105438232421875,-4.082016944885254
1773146510305696000,6.523696044921875,0.34807682037353516,-1.913233757019043,-3.55853271484375
1773146510314369500,6.53236962890625,0.566535234451294,-1.1994314193725586,-2.95451021194458
1773146510323043000,6.54104296875,0.7853133678436279,-0.3186159133911133,-2.292689800262451
1773146510331716600,6.549716552734375,1.142728328704834,0.3491039276123047,-1.7154990434646606
1773146510340390100,6.55839013671875,1.4694762229919434,0.8135929107666016,-1.1945431232452393
1773146510349063700,6.567063720703125,1.556241750717163,1.0727472305297852,-0.7416017055511475
1773146510357737200,6.5757373046875,1.4048898220062256,1.124307632446289,-0.42360103130340576
1773146510366410800,6.58441064453125,1.0960161685943604,0.95648193359375,-0.23565268516540527
1773146510375084300,6.593084228515625,0.7889013290405273,0.7533864974975586,-0.12417584657669067
1773146510383757800,6.6017578125,0.5130187273025513,0.46723079681396484,-0.009512364864349365
1773146510392431400,6.610431396484375,0.14970147609710693,0.16009140014648438,-0.011210620403289795
1773146510401105000,6.61910498046875,0.16568291187286377,-0.24204444885253906,0.14036589860916138
1773146510409778400,6.6277783203125,-0.01285398006439209,-0.5862016677856445,0.15821820497512817
1773146510418452000,6.636451904296875,-0.031797170639038086,-0.7556209564208984,0.22119855880737305
1773146510427125500,6.64512548828125,0.07012677192687988,-0.7649650573730469,0.25780194997787476
1773146510435799000,6.653799072265625,0.07568240165710449,-0.600468635559082,0.17271363735198975
1773146510444472600,6.66247265625,0.25277161598205566,-0.33426666259765625,0.10808175802230835
1773146510453146000,6.67114599609375,0.1455451250076294,-0.12920665740966797,-0.1372053623199463
1773146510461819600,6.679819580078125,0.8954253196716309,0.11289691925048828,-0.0038361549377441406
1773146510470493200,6.6884931640625,1.126849889755249,0.25850582122802734,-0.0571669340133667
1773146510479166700,6.697166748046875,1.336564302444458,0.3199634552001953,-0.060743242502212524
1773146510487840300,6.70584033203125,1.4148218631744385,0.29981422424316406,-0.034491389989852905
1773146510496513800,6.714513671875,1.4997611045837402,0.3034629821777344,0.07704734802246094
1773146510505187300,6.723187255859375,1.2138720750808716,0.07063961029052734,-0.0633116364479065
1773146510513860900,6.73186083984375,1.4718300104141235,0.1363687515258789,0.3495326042175293
1773146510522534400,6.740534423828125,1.6668155193328857,0.10901165008544922,0.5591680407524109
1773146510531208000,6.7492080078125,1.37615966796875,-0.05898475646972656,0.6876022815704346
1773146510539881500,6.757881591796875,1.1155740022659302,-0.20769500732421875,0.7950118780136108
1773146510548555000,6.766554931640625,1.05082368850708,-0.26814842224121094,0.8953647613525391
1773146510557228500,6.775228515625,1.0363397598266602,-0.28839683532714844,0.9693354368209839
1773146510565902000,6.783902099609375,1.0745875835418701,-0.25902843475341797,0.9641096591949463
1773146510574575600,6.79257568359375,1.0631182193756104,-0.23755168914794922,0.938969612121582
1773146510583249200,6.801249267578125,1.0825908184051514,-0.16654586791992188,0.914545476436615
1773146510591922700,6.809922607421875,1.0842009782791138,-0.08653640747070312,0.8491247892379761
1773146510600596200,6.81859619140625,1.2094979286193848,-0.040162086486816406,0.7401221990585327
1773146510609269800,6.827269775390625,1.2406563758850098,0.03717803955078125,0.630145788192749
1773146510617943300,6.835943359375,1.1858264207839966,0.14764022827148438,0.4782562255859375
1773146510626616600,6.844616455078125,1.2104642391204834,0.2241992950439453,0.2445734143257141
1773146510635290400,6.853290283203125,1.269289493560791,0.25255393981933594,0.032405972480773926
1773146510643964000,6.8619638671875,1.3427181243896484,0.26156044006347656,-0.2003934681415558
1773146510652637400,6.870637451171875,1.456394910812378,0.25620555877685547,-0.4928600788116455
1773146510661311000,6.87931103515625,1.5005284547805786,0.19831371307373047,-0.796084463596344
1773146510669984500,6.887984619140625,1.5372227430343628,0.1763916015625,-1.0712288618087769
1773146510678658000,6.896657958984375,1.5279183387756348,0.12122726440429688,-1.2984858751296997
1773146510687331600,6.90533154296875,1.5127589702606201,-0.014718055725097656,-1.4699891805648804
1773146510696004900,6.9140048828125,1.4361099004745483,-0.18096256256103516,-1.6171722412109375
1773146510704678400,6.922678466796875,1.360006332397461,-0.34875965118408203,-1.6737372875213623
1773146510713352000,6.93135205078125,1.358137845993042,-0.5013198852539062,-1.7025293111801147
1773146510722025500,6.940025390625,1.3891173601150513,-0.6051149368286133,-1.6781737804412842
1773146510730699300,6.94869921875,1.4954142570495605,-0.7222394943237305,-1.6901447772979736
1773146510739372800,6.957372802734375,1.359602451324463,-0.7286272048950195,-1.4566904306411743
1773146510748046300,6.96604638671875,1.9021971225738525,-0.5690689086914062,-1.064094066619873
1773146510756719900,6.974719970703125,1.690608263015747,-0.41014862060546875,-0.7916405200958252
1773146510765393200,6.98339306640625,1.1422336101531982,-0.5890798568725586,-0.6739406585693359
1773146510774066700,6.992066650390625,-0.021180152893066406,-1.357309341430664,-0.23882687091827393
1773146510782740200,7.000740234375,-0.8151068687438965,-1.7698144912719727,0.1618008017539978
1773146510791413800,7.009413818359375,-0.9712121486663818,-1.9758224487304688,0.28569495677948
1773146510800087300,7.01808740234375,-0.6867043972015381,-2.090940475463867,0.061284080147743225
1773146510808761000,7.026760986328125,-0.2375938892364502,-2.1726036071777344,0.051740583032369614
1773146510817434400,7.035434326171875,-0.08216047286987305,-2.1030073165893555,0.2990001142024994
1773146510826108000,7.04410791015625,-0.738677978515625,-1.822096824645996,0.35571926832199097
1773146510834781400,7.052781494140625,-0.05486726760864258,-1.38031005859375,0.5032331347465515
1773146510843455000,7.061455078125,-0.46465086936950684,-0.8972759246826172,0.07654238492250443
1773146510852128500,7.07012841796875,-0.7481822967529297,-0.5864667892456055,-0.4144497215747833
1773146510860802000,7.078802001953125,-0.7746529579162598,-0.3074789047241211,-0.9579060077667236
1773146510869475600,7.0874755859375,-0.7550516128540039,-0.02712249755859375,-1.3395274877548218
1773146510878149000,7.096149169921875,-0.6868126392364502,0.39307498931884766,-1.5340907573699951
1773146510886823000,7.104822998046875,-0.6228609085083008,0.8740453720092773,-1.562843918800354
1773146510895496400,7.113496337890625,-0.5017991065979004,1.3870677947998047,-1.4442834854125977
1773146510904169700,7.122169677734375,-0.3431999683380127,1.8986363410949707,-1.2330491542816162
1773146510912843500,7.130843505859375,-0.1961207389831543,2.3802809715270996,-0.9765750169754028
1773146510921516800,7.139516845703125,-0.04958844184875488,2.6961116790771484,-0.6606345176696777
1773146510930190300,7.1481904296875,0.09763026237487793,2.8084774017333984,-0.31245145201683044
1773146510938863900,7.15686376953125,0.2167726755142212,2.780313014984131,-0.05746220052242279
1773146510947537400,7.165537353515625,0.17718780040740967,2.619436740875244,0.1703403890132904
1773146510956211000,7.1742109375,0.25534868240356445,2.5029449462890625,0.45902952551841736
1773146510964884500,7.182884521484375,0.1907597780227661,2.4072232246398926,0.6919097900390625
1773146510973558000,7.19155810546875,0.07084989547729492,2.2082114219665527,0.8549392223358154
1773146510982231800,7.200231689453125,-0.15181076526641846,2.022989273071289,0.9048944115638733
1773146510990905000,7.208905029296875,-0.3578864336013794,1.9064178466796875,0.927093505859375
1773146510999578600,7.21757861328125,-0.5094177722930908,1.8153314590454102,0.8776264190673828
1773146511008252200,7.226252197265625,-0.7088207006454468,1.77813720703125,0.7136399745941162
1773146511016925700,7.23492578125,-0.8876955509185791,1.717869758605957,0.477804571390152
1773146511025599200,7.24359912109375,-1.0587595701217651,1.6746501922607422,0.16425523161888123
1773146511034272800,7.252272705078125,-1.1730132102966309,1.5930585861206055,-0.19600409269332886
1773146511042946300,7.2609462890625,-1.243836522102356,1.4560918807983398,-0.46077993512153625
1773146511051620000,7.2696201171875,-1.2512470483779907,1.273092269897461,-0.6095387935638428
1773146511060293600,7.278293701171875,-1.232546329498291,0.9436178207397461,-0.5344369411468506
1773146511068967200,7.28696728515625,-1.2440054416656494,0.5155220031738281,-0.3402305841445923
1773146511077640700,7.295640625,-1.2007955312728882,-0.11620140075683594,-0.0004868805408477783
1773146511086314200,7.304314208984375,-1.166074275970459,-1.022841453552246,0.47480034828186035
1773146511094987800,7.31298779296875,-1.1642265319824219,-2.0701284408569336,0.9918266534805298
1773146511103661300,7.321661376953125,-1.2569665908813477,-3.1812477111816406,1.6579949855804443
1773146511112334800,7.3303349609375,-1.4335780143737793,-4.214987754821777,2.162607192993164
1773146511121008400,7.33900830078125,-1.6887426376342773,-4.815497398376465,2.525320291519165
1773146511129682000,7.347681884765625,-2.06809663772583,-4.921343803405762,2.6552367210388184
1773146511138355500,7.35635546875,-2.3452422618865967,-4.73148250579834,2.645789861679077
1773146511147029000,7.365029052734375,-2.531094551086426,-4.27492618560791,2.428037643432617
1773146511155702500,7.37370263671875,-2.494302272796631,-3.762101173400879,2.4480104446411133
1773146511164376000,7.3823759765625,-2.3542346954345703,-3.0233983993530273,2.5924227237701416
1773146511173049600,7.391049560546875,-2.280226469039917,-2.111809730529785,2.5425941944122314
1773146511181723100,7.39972314453125,-2.0251753330230713,-1.2594413757324219,2.351607322692871
1773146511190396700,7.408396728515625,-1.6239359378814697,-0.4639434814453125,2.08498477935791
1773146511199070200,7.4170703125,-1.2239445447921753,0.16004276275634766,1.5940898656845093
1773146511207743700,7.42574365234375,-0.7135872840881348,0.636688232421875,1.1447700262069702
1773146511216417300,7.434417236328125,0.07455706596374512,1.0498590469360352,0.8889918327331543
1773146511225090800,7.4430908203125,0.8731573820114136,1.457000732421875,0.7269709706306458
1773146511233764400,7.451764404296875,0.9348552823066711,1.7005119323730469,0.32642024755477905
1773146511242438000,7.46043798828125,0.9728739857673645,1.8476009368896484,-0.055218279361724854
1773146511251111400,7.469111328125,1.1449337005615234,1.8626999855041504,-0.3223080039024353
1773146511259785000,7.477784912109375,0.9045042991638184,1.6004247665405273,-0.5129296183586121
1773146511268458500,7.48645849609375,0.5884370803833008,1.2237443923950195,-0.6658509373664856
1773146511277132000,7.495132080078125,0.3924255073070526,0.8285331726074219,-0.9780216217041016
1773146511285805600,7.5038056640625,0.1882440447807312,0.4556617736816406,-1.189495325088501
1773146511294479000,7.51247900390625,0.07409867644309998,0.24138164520263672,-1.2120863199234009
1773146511303152600,7.521152587890625,-0.09821146726608276,0.08039474487304688,-1.1147489547729492
1773146511311826200,7.529826171875,-0.1628398895263672,-0.008273124694824219,-0.9926239252090454
1773146511320499700,7.538499755859375,-0.13237440586090088,-0.03193473815917969,-0.8562688231468201
1773146511329173200,7.54717333984375,-0.06819289922714233,-0.017038345336914062,-0.6895893216133118
1773146511337846800,7.5558466796875,0.002266228199005127,0.04823112487792969,-0.4882321059703827
1773146511346520300,7.564520263671875,0.09280824661254883,0.11119651794433594,-0.32687386870384216
1773146511355193900,7.57319384765625,0.19117748737335205,0.18616008758544922,-0.19388490915298462
1773146511363867400,7.581867431640625,0.39025139808654785,0.2850532531738281,-0.04601985216140747
1773146511372541000,7.590541015625,0.5751136541366577,0.3027639389038086,0.08803963661193848
1773146511381214500,7.59921435546875,0.8254635334014893,0.39455699920654297,0.3009326457977295
1773146511389888000,7.607887939453125,0.6365922689437866,0.21896076202392578,0.14665967226028442
1773146511398561500,7.6165615234375,0.9670668244361877,0.23033523559570312,0.3484427332878113
1773146511407235000,7.625235107421875,1.0238921642303467,0.2419271469116211,0.3846888542175293
1773146511415908600,7.63390869140625,1.036041259765625,0.2608823776245117,0.3611663579940796
1773146511424582100,7.64258203125,1.0008927583694458,0.25614452362060547,0.30935752391815186
1773146511433255700,7.651255615234375,0.9451406598091125,0.25643444061279297,0.2818843126296997
1773146511441929200,7.65992919921875,0.8578717112541199,0.2522392272949219,0.2763074040412903
1773146511450602800,7.668602783203125,0.7641760110855103,0.2531900405883789,0.3167175054550171
1773146511459276300,7.6772763671875,0.6933894753456116,0.27838706970214844,0.40055084228515625
1773146511467949800,7.68594970703125,0.6910569071769714,0.2823810577392578,0.5179555416107178
1773146511476623400,7.694623291015625,0.6949263215065002,0.2938117980957031,0.6279096603393555
1773146511485297000,7.703296875,0.7499935626983643,0.3555755615234375,0.7445722818374634
1773146511493970400,7.711970458984375,0.8435332775115967,0.4555521011352539,0.8534259796142578
1773146511502644000,7.72064404296875,0.924781322479248,0.553009033203125,0.9688564538955688
1773146511511317500,7.7293173828125,1.0125012397766113,0.6144800186157227,1.0933046340942383
1773146511519991000,7.737990966796875,1.0467766523361206,0.6304435729980469,1.2315250635147095
1773146511528664600,7.74666455078125,1.0083544254302979,0.5889949798583984,1.3997174501419067
1773146511537338000,7.755338134765625,0.9085625410079956,0.4901704788208008,1.5422711372375488
1773146511546011600,7.76401171875,0.7798914313316345,0.2838554382324219,1.6557912826538086
1773146511554685200,7.772685302734375,0.6878265738487244,0.06811141967773438,1.6915788650512695
1773146511563358700,7.781358642578125,0.6359837651252747,-0.07587528228759766,1.7397780418395996
1773146511572032300,7.7900322265625,0.5807694792747498,-0.14347076416015625,1.6301013231277466
1773146511580705800,7.798705810546875,0.5779035687446594,-0.15150737762451172,1.4413094520568848
1773146511589379300,7.80737939453125,0.7028532028198242,-0.16213035583496094,1.419492244720459
1773146511598052900,7.816052978515625,0.8615856170654297,-0.10842609405517578,1.519305944442749
1773146511606726400,7.824726318359375,0.9161828756332397,0.03095722198486328,1.4795092344284058
1773146511615400000,7.83339990234375,0.9166590571403503,0.26537227630615234,1.254235863685608
1773146511624073500,7.842073486328125,0.9169412851333618,0.40124034881591797,1.0622220039367676
1773146511632747000,7.8507470703125,0.7637890577316284,0.10449409484863281,1.0592741966247559
1773146511641420500,7.859420654296875,0.3545738458633423,-0.8723230361938477,1.2939833402633667
1773146511650094000,7.868093994140625,-0.3852943181991577,-2.6616315841674805,1.4811508655548096
1773146511658767600,7.876767578125,-1.1938583850860596,-5.331103324890137,0.8571457862854004
1773146511667441200,7.885441162109375,-1.7328875064849854,-8.22221565246582,-0.7637521028518677
1773146511676114700,7.89411474609375,-2.005833148956299,-9.495845794677734,-2.2437832355499268
1773146511684788200,7.902788330078125,-1.5074331760406494,-7.92818546295166,-3.664518356323242
1773146511693461800,7.911461669921875,-1.0772764682769775,-4.430325508117676,-4.354059219360352
1773146511702135600,7.920135498046875,-0.7009341716766357,-1.3466176986694336,-3.958878993988037
1773146511710808800,7.928808837890625,-0.2825765609741211,0.4999113082885742,-3.3190886974334717
1773146511719482400,7.937482421875,0.5412378311157227,1.2051639556884766,-2.3818066120147705
1773146511728156000,7.946156005859375,1.153680682182312,1.8369741439819336,-1.1706759929656982
1773146511736829400,7.954829345703125,1.0119524002075195,2.6252784729003906,0.039028823375701904
1773146511745503000,7.9635029296875,0.7671379446983337,3.405543327331543,0.9819996356964111
1773146511754176500,7.972176513671875,0.6722840666770935,3.700655937194824,1.785473108291626
1773146511762850300,7.980850341796875,0.48183220624923706,3.6406517028808594,2.262446403503418
1773146511771523800,7.98952392578125,0.026230156421661377,3.529294013977051,2.2003657817840576
1773146511780197400,7.998197265625,-0.40701448917388916,3.084506034851074,1.817887544631958
1773146511788871000,8.006870849609374,-0.6518031358718872,2.2111411094665527,1.1286720037460327
1773146511797544400,8.01554443359375,-0.7821096181869507,1.136836051940918,0.3379376530647278
1773146511806218000,8.024218017578125,-0.9352882504463196,0.005234718322753906,-0.39036357402801514
1773146511814891500,8.0328916015625,-1.1077356338500977,-1.0498361587524414,-1.0930085182189941
1773146511823565000,8.04156494140625,-1.3058881759643555,-1.758988380432129,-1.6007885932922363
1773146511832238600,8.050238525390625,-1.3640365600585938,-1.8605241775512695,-2.052495002746582
1773146511840912100,8.058912109375,-1.2407267093658447,-1.6330089569091797,-2.0909924507141113
1773146511849585700,8.067585693359375,-1.0759955644607544,-0.924677848815918,-1.9102201461791992
1773146511858259200,8.07625927734375,-1.0003045797348022,0.3205909729003906,-1.5001126527786255
1773146511866932700,8.0849326171875,-0.8753589987754822,1.2706050872802734,-0.6619648933410645
1773146511875606300,8.093606201171875,-0.8336682319641113,1.7706594467163086,-0.08856889605522156
1773146511884279800,8.10227978515625,-0.9062753915786743,1.9434528350830078,0.11755490303039551
1773146511892953300,8.110953369140624,-1.169148564338684,1.9926872253417969,-0.012439608573913574
1773146511901627000,8.119626953125,-1.4685853719711304,1.8114256858825684,-0.34818458557128906
1773146511910300400,8.128300537109375,-1.4924629926681519,1.3813238143920898,-0.5883874893188477
1773146511918974000,8.136973876953125,-1.1452579498291016,0.8230209350585938,-1.1840484142303467
1773146511927647500,8.1456474609375,-0.6134846210479736,0.18294525146484375,-1.9306492805480957
1773146511936321000,8.154321044921875,-0.2744210958480835,-0.29717445373535156,-2.621647834777832
1773146511944994600,8.16299462890625,-0.07744204998016357,-0.5934286117553711,-3.2569496631622314
1773146511953668000,8.171668212890625,-0.03357672691345215,-0.7300195693969727,-3.778963088989258
1773146511962341600,8.180341552734374,-0.010545134544372559,-0.6978015899658203,-4.217045783996582
1773146511971015200,8.18901513671875,0.010403275489807129,-0.607090950012207,-4.377920627593994
1773146511979688700,8.197688720703125,-0.016878485679626465,-0.47010040283203125,-4.296677112579346
1773146511988362200,8.2063623046875,-0.10897612571716309,-0.3135061264038086,-3.968545913696289
1773146511997035800,8.215035888671874,-0.16737115383148193,-0.07552623748779297,-3.650125741958618
1773146512005709300,8.223709228515625,-0.03512430191040039,0.11718082427978516,-3.2948498725891113
1773146512014382800,8.2323828125,0.27233684062957764,0.3221397399902344,-2.9129204750061035
1773146512023056400,8.241056396484375,0.5299323797225952,0.548945426940918,-2.533184051513672
1773146512031730000,8.24972998046875,0.6957172155380249,0.7353658676147461,-2.2004377841949463
1773146512040403500,8.258403564453126,0.7764990925788879,0.7952442169189453,-1.852020502090454
1773146512049077000,8.267076904296875,0.7597025632858276,0.7549123764038086,-1.5059823989868164
1773146512057750500,8.27575048828125,0.6233144998550415,0.5475263595581055,-1.2158323526382446
1773146512066424000,8.284424072265624,0.4955883026123047,0.19957256317138672,-0.9556613564491272
1773146512075097600,8.29309765625,0.42503035068511963,-0.24083805084228516,-0.6983397603034973
1773146512083771100,8.301771240234375,0.26126837730407715,-0.6755580902099609,-0.5305215716362
1773146512092444700,8.310444580078125,0.1690070629119873,-1.0687141418457031,-0.4223092198371887
1773146512101118200,8.3191181640625,-0.047380685806274414,-1.279709815979004,-0.46620598435401917
1773146512109791700,8.327791748046875,-0.10502088069915771,-1.2757644653320312,-0.6086617112159729
1773146512118465300,8.33646533203125,-0.0823599100112915,-1.0718774795532227,-0.8272655010223389
1773146512127138800,8.345138916015625,0.04212498664855957,-0.7688884735107422,-1.0423853397369385
1773146512135812400,8.353812255859374,0.2919950485229492,-0.46973419189453125,-1.176697015762329
1773146512144486000,8.36248583984375,0.6063560247421265,-0.21726703643798828,-1.2193386554718018
1773146512153159400,8.371159423828125,0.9382126331329346,-0.02309131622314453,-1.183067798614502
1773146512161833000,8.3798330078125,1.226741909980774,0.11549663543701172,-1.0851266384124756
1773146512170506500,8.388506591796874,1.4014307260513306,0.22037124633789062,-0.882100522518158
1773146512179180000,8.397179931640625,1.4212068319320679,0.29413700103759766,-0.5720605850219727
1773146512187853600,8.405853515625,1.3912804126739502,0.3416748046875,-0.20626576244831085
1773146512196527000,8.414527099609375,1.3287475109100342,0.3940572738647461,0.1214253306388855
1773146512205200600,8.42320068359375,1.095445990562439,0.36765193939208984,0.32564419507980347
1773146512222547700,8.440547607421875,1.557164192199707,0.35764503479003906,1.0435489416122437
1773146512231221200,8.44922119140625,1.4463204145431519,0.22347354888916016,1.2633916139602661
1773146512239894800,8.457894775390624,1.54301118850708,0.0700531005859375,1.4372884035110474
1773146512248568300,8.466568359375,1.7475336790084839,0.0070552825927734375,1.4934393167495728
1773146512257241900,8.475241943359375,2.0333430767059326,-0.05407428741455078,1.4346708059310913
1773146512265915400,8.483915283203125,2.411081075668335,-0.1250772476196289,1.3967535495758057
1773146512274589000,8.4925888671875,2.6932406425476074,-0.18662166595458984,1.3266024589538574
1773146512283262500,8.501262451171876,2.7619705200195312,-0.11910152435302734,1.2429264783859253
1773146512291936000,8.50993603515625,2.7072763442993164,-0.04191112518310547,1.1568266153335571
1773146512300609500,8.518609619140625,2.6190812587738037,0.0929422378540039,0.9595323801040649
1773146512309283000,8.527282958984374,2.621267795562744,0.17560577392578125,0.8976587057113647
1773146512317956600,8.53595654296875,2.6544203758239746,0.3040628433227539,1.0057399272918701
1773146512326630100,8.544630126953125,2.605532169342041,0.24438095092773438,1.2266407012939453
1773146512335303700,8.5533037109375,2.362321376800537,0.09006786346435547,1.4123101234436035
1773146512343977200,8.561977294921874,1.5720412731170654,0.010676383972167969,1.6158058643341064
1773146512352650800,8.570650634765625,1.9018518924713135,0.20447540283203125,2.1388907432556152
1773146512361324300,8.57932421875,1.4144225120544434,0.5235385894775391,2.3102147579193115
1773146512369997800,8.587997802734375,0.9692581295967102,0.8699779510498047,2.222352981567383
1773146512378671400,8.59667138671875,0.7676148414611816,1.0052614212036133,1.9669944047927856
1773146512387345000,8.605344970703126,0.37612342834472656,0.9800014495849609,1.572646141052246
1773146512396018700,8.614018798828125,0.15737903118133545,0.9993801116943359,1.2304933071136475
1773146512404692200,8.622692138671875,0.07215964794158936,1.0961847305297852,0.7390908002853394
1773146512413365500,8.631365478515624,0.01395106315612793,1.183833122253418,0.049726277589797974
1773146512422039000,8.6400390625,0.16001951694488525,1.312150001525879,-0.5440158843994141
1773146512430712600,8.648712646484375,0.22779321670532227,1.4354982376098633,-0.9836554527282715
1773146512439386000,8.65738623046875,0.04102516174316406,1.4772138595581055,-1.4369159936904907
1773146512448059600,8.6660595703125,-0.3513302803039551,1.5017147064208984,-1.9361940622329712
1773146512456733200,8.674733154296876,-0.7272472381591797,1.5422086715698242,-2.398993492126465
1773146512465406700,8.68340673828125,-1.0179352760314941,1.553131103515625,-2.7316877841949463
1773146512474080500,8.69208056640625,-1.2821519374847412,1.3148565292358398,-3.045210361480713
1773146512482754000,8.700754150390624,-1.6026041507720947,0.7491617202758789,-3.3214821815490723
1773146512491427600,8.709427490234376,-1.8902544975280762,-0.13840866088867188,-3.515350580215454
1773146512500101000,8.71810107421875,-2.206481456756592,-1.2826852798461914,-3.6693687438964844
1773146512508774700,8.726774658203125,-2.4813246726989746,-2.6258316040039062,-3.8272743225097656
1773146512517448200,8.7354482421875,-2.6223936080932617,-3.9525556564331055,-3.870941638946533
1773146512526121700,8.744121826171876,-2.6391823291778564,-4.883293151855469,-3.645402193069458
1773146512534795300,8.752795166015625,-2.6467833518981934,-5.204045295715332,-3.0712318420410156
1773146512543468800,8.76146875,-2.638719320297241,-4.789617538452148,-2.048623561859131
1773146512552142300,8.770142333984374,-2.7744767665863037,-3.660628318786621,-0.7756116390228271
1773146512560815900,8.77881591796875,-3.0850136280059814,-2.1215429306030273,0.3230288326740265
1773146512569489400,8.787489501953125,-3.3242852687835693,-0.6098537445068359,0.9548247456550598
1773146512578163000,8.796162841796875,-3.410086154937744,0.7958564758300781,1.2241435050964355
1773146512586836500,8.80483642578125,-3.179399013519287,1.8619699478149414,1.5602598190307617
1773146512595510000,8.813510009765626,-2.684523582458496,2.553542137145996,2.115877389907837
1773146512604183600,8.82218359375,-1.93252694606781,2.8189773559570312,3.09676194190979
1773146512612857000,8.830857177734375,-1.2412878274917603,2.907467842102051,3.9358131885528564
1773146512621530600,8.839530517578124,-0.361688494682312,2.9218034744262695,4.511353969573975
1773146512630204200,8.8482041015625,0.3561989367008209,2.3366336822509766,5.258703231811523
1773146512638877700,8.856877685546875,0.20766988396644592,1.0215673446655273,5.088101863861084
1773146512647551200,8.86555126953125,-0.4435374438762665,-0.38957691192626953,4.2617011070251465
1773146512656224800,8.874224853515624,-1.3111897706985474,-2.190554618835449,3.2192060947418213
1773146512664898300,8.882898193359376,-1.8259035348892212,-3.6164979934692383,2.0183157920837402
1773146512673571800,8.89157177734375,-2.2996060848236084,-4.579668045043945,0.6854705810546875
1773146512682245400,8.900245361328125,-2.673518419265747,-5.087750434875488,-0.5613085627555847
1773146512690919000,8.9089189453125,-2.8437817096710205,-5.124402046203613,-1.8641551733016968
1773146512699592400,8.917592529296876,-2.7767043113708496,-4.5944623947143555,-3.0858829021453857
1773146512708266000,8.926265869140625,-2.2778236865997314,-3.293376922607422,-3.534804105758667
1773146512716939500,8.934939453125,-1.7110533714294434,-1.6406307220458984,-3.2382218837738037
1773146512725613000,8.943613037109374,-1.8387001752853394,-0.3892660140991211,-2.9188108444213867
1773146512734286600,8.95228662109375,-1.7442941665649414,0.4925079345703125,-2.312290906906128
1773146512742960000,8.960960205078125,-1.4388885498046875,0.9572935104370117,-1.5189001560211182
1773146512751633700,8.969633544921875,-1.274045467376709,1.0341014862060547,-0.8760350942611694
1773146512760307200,8.97830712890625,-0.5432085394859314,1.2583065032958984,-0.22547908127307892
1773146512768980700,8.986980712890626,-0.8540074229240417,1.3408193588256836,-0.23221060633659363
1773146512777654300,8.995654296875,-0.8428794145584106,1.2302742004394531,-0.010389626026153564
1773146512786327800,9.004327880859375,-0.6613205075263977,0.8223876953125,0.3880625069141388
1773146512795001300,9.01300146484375,-0.4862169027328491,0.3491783142089844,0.5479764938354492
1773146512803675000,9.0216748046875,-0.3399704098701477,0.039661407470703125,0.6101827621459961
1773146512812348400,9.030348388671875,-0.14546644687652588,-0.054225921630859375,0.963426947593689
1773146512821022000,9.03902197265625,-0.8159267902374268,-0.39157867431640625,0.7541118264198303
1773146512829695500,9.047695556640624,-1.0608197450637817,-0.5536136627197266,0.4265598654747009
1773146512838369000,9.056369140625,-0.4728473722934723,-0.2851886749267578,0.4104402959346771
1773146512847042600,9.06504248046875,-0.21421097218990326,0.06165790557861328,0.3264364004135132
1773146512855716000,9.073716064453125,-0.0008966326713562012,0.46050453186035156,0.2637284994125366
1773146512864389600,9.0823896484375,0.15558534860610962,0.8061008453369141,0.2710646986961365
1773146512873063400,9.0910634765625,0.20282647013664246,0.9980497360229492,0.3364724814891815
1773146512881736700,9.09973681640625,0.15016713738441467,1.0651445388793945,0.3428370952606201
1773146512890410200,9.10841015625,0.16793714463710785,1.0409564971923828,0.2898674011230469
1773146512899083800,9.117083740234374,0.2522869110107422,0.9661903381347656,0.15510404109954834
1773146512907757300,9.12575732421875,0.29593828320503235,0.9125471115112305,0.001943841576576233
1773146512916431000,9.13443115234375,0.268472284078598,0.8489799499511719,0.036787912249565125
1773146512925104600,9.143104736328125,0.3912782073020935,0.8759469985961914,0.12608782947063446
1773146512933778200,9.151778076171874,0.3229851722717285,0.8287038803100586,0.18812532722949982
1773146512942451700,9.16045166015625,-0.3814241290092468,0.5451574325561523,0.20872198045253754
1773146512951125200,9.169125244140625,-1.3529925346374512,0.28369617462158203,0.24735164642333984
1773146512959798800,9.177798828125,-1.996199369430542,-0.005916595458984375,0.38604333996772766
1773146512968472300,9.186472412109374,-1.5242005586624146,-0.15887069702148438,0.2774926424026489
1773146512977145900,9.195145751953126,-0.807486355304718,-0.0751962661743164,-0.06837549805641174
1773146512985819400,9.2038193359375,-0.7509163618087769,-0.08740806579589844,-0.27150020003318787
1773146512994493000,9.212492919921875,-0.714821994304657,-0.3768310546875,-0.14957192540168762
1773146513003166500,9.22116650390625,0.04598689451813698,-0.6277198791503906,0.32416918873786926
1773146513011840000,9.229840087890626,0.45562589168548584,-0.5870838165283203,0.7182102203369141
1773146513020513500,9.238513427734375,0.8358968496322632,-0.5084705352783203,0.9063682556152344
1773146513029187000,9.24718701171875,1.3069660663604736,-0.5349531173706055,1.1699178218841553
1773146513037860600,9.255860595703124,1.6033838987350464,-0.4464540481567383,1.5078388452529907
1773146513046534100,9.2645341796875,1.7843599319458008,-0.12856006622314453,1.724703311920166
1773146513055207700,9.273207763671875,1.5514458417892456,0.2820301055908203,1.7104777097702026
1773146513063881200,9.281881103515625,1.264819622039795,0.648808479309082,1.5311394929885864
1773146513072554800,9.2905546875,1.0357288122177124,0.8977422714233398,1.3246278762817383
1773146513081228300,9.299228271484376,0.7388105988502502,0.9812421798706055,1.1914187669754028
1773146513089901800,9.30790185546875,0.38027021288871765,0.925868034362793,1.2604577541351318
1773146513098575400,9.316575439453125,-0.01756453514099121,0.8632612228393555,1.371279001235962
1773146513107249000,9.325248779296874,-0.25760921835899353,0.7170734405517578,1.4247347116470337
1773146513115922400,9.33392236328125,-0.23806242644786835,0.3657798767089844,1.3922417163848877
1773146513124596000,9.342595947265625,-0.0988147109746933,-0.027795791625976562,1.3371585607528687
1773146513133269500,9.35126953125,-0.030878089368343353,-0.38239574432373047,1.2285469770431519
1773146513141943000,9.359943115234374,-0.04285139590501785,-0.5858430862426758,1.0741477012634277
1773146513150616600,9.368616455078126,-0.20455296337604523,-0.6288089752197266,0.7869977355003357
1773146513159290000,9.3772900390625,-0.3889666199684143,-0.4757404327392578,0.4709802269935608
1773146513167963600,9.385963623046875,-0.6272361278533936,-0.16998863220214844,0.1457342505455017
1773146513176637200,9.39463720703125,-0.9175242185592651,0.10188102722167969,-0.1912408471107483
1773146513185310700,9.403310791015626,-1.1239795684814453,0.32557010650634766,-0.48567140102386475
1773146513193984300,9.411984375,-1.2799773216247559,0.43902015686035156,-0.7171685099601746
1773146513202657800,9.42065771484375,-1.3211431503295898,0.4280538558959961,-0.8988355398178101
1773146513211331300,9.429331298828124,-1.3026313781738281,0.40268898010253906,-1.086904525756836
1773146513220004900,9.4380048828125,-1.1912140846252441,0.36055660247802734,-1.2481213808059692
1773146513228678400,9.446678466796875,-1.0135644674301147,0.3255729675292969,-1.3970026969909668
1773146513237352000,9.45535205078125,-0.87256920337677,0.24523544311523438,-1.4303330183029175
1773146513246025500,9.464025390625,-0.8895919919013977,0.1530141830444336,-1.3967080116271973
1773146513254699300,9.47269921875,-0.6055746674537659,0.08716011047363281,-1.2026242017745972
1773146513263372800,9.481372802734375,-0.5641720294952393,0.0023345947265625,-1.003152847290039
1773146513272046300,9.49004638671875,-0.6832100749015808,-0.09676265716552734,-0.783119797706604
1773146513280720000,9.498719970703124,-0.4357374310493469,-0.08837127685546875,-0.5158023834228516
1773146513289393400,9.507393310546876,-0.3295707106590271,-0.046555519104003906,-0.3398146331310272
1773146513298067000,9.51606689453125,-0.32704389095306396,0.052585601806640625,-0.19448059797286987
1773146513306740500,9.524740478515625,-0.3146126866340637,0.18517589569091797,0.014046728610992432
1773146513315414000,9.5334140625,-0.45063793659210205,0.279571533203125,0.23562821745872498
1773146513324087600,9.542087646484376,-0.6942147016525269,0.33578968048095703,0.5359722971916199
1773146513332761000,9.550760986328125,-0.8298554420471191,0.38247203826904297,0.7916432619094849
1773146513341434600,9.5594345703125,-0.961826741695404,0.3478813171386719,1.0591230392456055
1773146513350108200,9.568108154296874,-1.1832199096679688,0.3131132125854492,1.3033623695373535
1773146513358781700,9.57678173828125,-1.4291033744812012,0.3352022171020508,1.3895697593688965
1773146513367455200,9.585455322265625,-1.5954283475875854,0.3733024597167969,1.3037915229797363
1773146513376128800,9.594128662109375,-1.722832441329956,0.4321327209472656,1.1091557741165161
1773146513384802300,9.60280224609375,-1.8283309936523438,0.46628284454345703,0.7591484189033508
1773146513393475800,9.611475830078126,-1.7796838283538818,0.42339038848876953,0.40065455436706543
1773146513402149400,9.6201494140625,-1.384459376335144,0.3946514129638672,0.12519359588623047
1773146513410823000,9.628822998046875,-0.8287807703018188,0.35904979705810547,-0.10296526551246643
1773146513419496400,9.637496337890624,-0.5169719457626343,0.20233440399169922,-0.06432397663593292
1773146513428170000,9.646169921875,-0.37099504470825195,0.1183309555053711,-0.002161175012588501
1773146513436843500,9.654843505859375,-0.29630494117736816,0.09961986541748047,0.08008807897567749
1773146513445517000,9.66351708984375,-0.330843448638916,0.05742168426513672,0.31736665964126587
1773146513454190600,9.672190673828124,-0.29986274242401123,0.15384769439697266,0.7106776237487793
1773146513462864100,9.680864013671876,-0.27789056301116943,0.3071784973144531,1.1183198690414429
1773146513471537700,9.68953759765625,-0.3451251983642578,0.45032787322998047,1.5567837953567505
1773146513480211200,9.698211181640625,-0.3920072317123413,0.5332393646240234,1.9210866689682007
1773146513488884700,9.706884765625,-0.38714098930358887,0.594512939453125,2.152338981628418
1773146513497558300,9.715558349609376,-0.2784522771835327,0.7539634704589844,2.371250629425049
1773146513506231800,9.724231689453125,-0.25680088996887207,0.980626106262207,2.564281463623047
1773146513514905300,9.7329052734375,-0.3681375980377197,1.1956663131713867,2.719858407974243
1773146513523579000,9.741578857421874,-0.42847490310668945,1.3728647232055664,2.911444902420044
1773146513532252400,9.75025244140625,-0.5089623928070068,1.5528287887573242,3.2178239822387695
1773146513540926000,9.758926025390625,-0.3366525173187256,1.8786773681640625,2.954745292663574
1773146513549599500,9.767599609375,-0.4099823236465454,1.7290716171264648,2.926009178161621
1773146513558273000,9.77627294921875,-0.6132276058197021,1.2837553024291992,2.9785077571868896
1773146513566946800,9.78494677734375,-0.619458794593811,0.44739723205566406,3.2077150344848633
1773146513575620000,9.7936201171875,-0.7754263877868652,-0.7744874954223633,3.5246188640594482
1773146513584293600,9.802293701171875,-1.0848654508590698,-2.6676759719848633,3.1829419136047363
1773146513592967400,9.810967529296875,-0.8547993898391724,-4.435026168823242,2.7081985473632812
1773146513601641000,9.819640869140626,-0.6753138303756714,-5.448019981384277,0.8456306457519531
1773146513610314500,9.828314453125,-1.0153443813323975,-6.116698265075684,-0.817581057548523
1773146513618987800,9.83698779296875,-1.5852742195129395,-6.032007217407227,-1.53631591796875
1773146513627661600,9.84566162109375,-1.9006472826004028,-4.781115531921387,-1.2766658067703247
1773146513636334800,9.8543349609375,-1.876842737197876,-2.9737558364868164,-0.7456179261207581
1773146513645008600,9.863008544921875,-1.4194382429122925,-1.0794124603271484,-0.44817906618118286
1773146513653682200,9.87168212890625,-0.6718382835388184,0.6917028427124023,-0.09540681540966034
1773146513662355700,9.880355712890625,-0.025663018226623535,2.1731042861938477,0.36875119805336
1773146513671029200,9.889029296875,0.4178057312965393,3.409106731414795,0.8124005794525146
1773146513679702800,9.897702880859375,0.7150309085845947,4.358155250549316,1.1305208206176758
1773146513688376300,9.906376220703125,0.7745482921600342,4.823314666748047,1.2625668048858643
1773146513697049900,9.9150498046875,0.5739325881004333,4.488309860229492,1.334519386291504
1773146513705723400,9.923723388671876,0.3522014617919922,3.2687625885009766,1.2686247825622559
1773146513714397000,9.93239697265625,0.3804631233215332,1.9661674499511719,0.829156756401062
1773146513723070500,9.941070556640625,0.10691225528717041,0.783177375793457,0.22503447532653809
1773146513731744000,9.949743896484375,-0.05835378170013428,-0.20873451232910156,-0.6292906999588013
1773146513740417500,9.95841748046875,-0.0335392951965332,-1.1122217178344727,-1.42399263381958
1773146513749091000,9.967091064453125,0.129341721534729,-1.6978416442871094,-2.203721046447754
1773146513757764600,9.9757646484375,0.3084148168563843,-1.863368034362793,-2.897733211517334
1773146513766438100,9.984438232421875,0.6317553520202637,-1.647918701171875,-3.433405637741089
1773146513775111700,9.993111572265626,1.0072901248931885,-1.1981134414672852,-3.7635648250579834
1773146513783785200,10.00178515625,1.4135624170303345,-0.8058900833129883,-3.88278865814209
1773146513792458800,10.010458740234375,1.8565740585327148,-0.4353456497192383,-3.9177348613739014
1773146513801132300,10.01913232421875,2.316945791244507,-0.19846153259277344,-3.908644437789917
1773146513809805800,10.027805908203124,2.6105761528015137,-0.056496620178222656,-3.9141883850097656
1773146513818479400,10.036479248046875,2.574474573135376,-0.006717681884765625,-4.003373622894287
1773146513827153000,10.04515283203125,2.3664684295654297,0.08717536926269531,-4.064122200012207
1773146513835826400,10.053826416015625,2.1119070053100586,0.21538352966308594,-4.0437912940979
1773146513844500000,10.0625,1.7380192279815674,0.348968505859375,-3.9233458042144775
1773146513853173500,10.071173583984375,1.4538662433624268,0.3587636947631836,-3.6385622024536133
1773146513861847000,10.079846923828125,1.2170982360839844,0.18516159057617188,-3.239989757537842
1773146513870520600,10.0885205078125,1.1711549758911133,-0.03783702850341797,-2.754301071166992
1773146513879194000,10.097194091796876,1.2889817953109741,-0.20740413665771484,-2.2097294330596924
1773146513887867600,10.10586767578125,1.4391998052597046,-0.3308858871459961,-1.7373666763305664
1773146513896541200,10.114541259765625,1.4842718839645386,-0.4634380340576172,-1.3388015031814575
1773146513905214700,10.123214599609375,1.4333977699279785,-0.548008918762207,-1.009305477142334
1773146513913888300,10.13188818359375,1.2905664443969727,-0.5753517150878906,-0.8016491532325745
1773146513922561800,10.140561767578125,1.138213038444519,-0.5743885040283203,-0.692147970199585
1773146513931235300,10.1492353515625,0.9794083833694458,-0.5309648513793945,-0.6242308020591736
1773146513939908900,10.157908935546875,0.8263252377510071,-0.5144901275634766,-0.5751726627349854
1773146513948582400,10.16658251953125,0.6292136907577515,-0.515437126159668,-0.47248440980911255
1773146513957256000,10.175255859375,0.3911319971084595,-0.536250114440918,-0.3397522568702698
1773146513965929500,10.183929443359375,0.22755271196365356,-0.5387296676635742,-0.19515445828437805
1773146513974603000,10.19260302734375,0.07225120067596436,-0.49187374114990234,-0.04636356234550476
1773146513983276800,10.20127685546875,0.03300505876541138,-0.4100618362426758,0.11851578950881958
1773146513991950000,10.2099501953125,0.011178672313690186,-0.3625030517578125,0.2640109360218048
1773146514000623900,10.218623779296875,-0.010681748390197754,-0.32512664794921875,0.3098224699497223
1773146514009297200,10.227297119140625,0.05006873607635498,-0.32404422760009766,0.25482723116874695
1773146514017970700,10.235970703125,0.18957865238189697,-0.3112459182739258,0.17279794812202454
1773146514026644200,10.244644287109375,0.3012246787548065,-0.31285953521728516,0.08927673101425171
1773146514035318000,10.253318115234375,0.4316769242286682,-0.2905302047729492,-0.030588418245315552
1773146514043991600,10.261991455078125,0.5682195425033569,-0.24662399291992188,-0.15982744097709656
1773146514052665000,10.2706650390625,0.6558045148849487,-0.20745086669921875,-0.26494157314300537
1773146514061338600,10.279338623046876,0.7921783328056335,-0.1515064239501953,-0.29124465584754944
1773146514070012200,10.28801220703125,0.8459389209747314,-0.05257701873779297,-0.2174222618341446
1773146514078685700,10.296685791015625,0.8221355080604553,0.01758098602294922,-0.08005186915397644
1773146514087359200,10.305359130859374,0.7597262859344482,0.051787376403808594,0.10327291488647461
1773146514096032800,10.31403271484375,0.6732432842254639,0.10501480102539062,0.31532812118530273
1773146514104706300,10.322706298828125,0.581745445728302,0.117523193359375,0.5294172167778015
1773146514113379800,10.3313798828125,0.5140467882156372,0.08221149444580078,0.6494131684303284
1773146514122053400,10.340053466796874,0.43479081988334656,0.02301788330078125,0.7491350769996643
1773146514130727000,10.348726806640625,0.3593007028102875,-0.06963062286376953,0.8233804106712341
1773146514139400400,10.357400390625,0.3334425985813141,-0.1670398712158203,0.8549264073371887
1773146514148074000,10.366073974609375,0.7054668664932251,-0.5414133071899414,0.6964990496635437
1773146514156747500,10.37474755859375,0.6474734544754028,-0.5354337692260742,0.6928613781929016
1773146514165421000,10.383421142578126,0.9055159091949463,-0.477020263671875,0.6798602938652039
1773146514174094600,10.392094482421875,-0.7544198632240295,-0.2544879913330078,0.9187619090080261
1773146514182768000,10.40076806640625,1.0694301128387451,-0.07346916198730469,1.1271730661392212
1773146514191441700,10.409441650390624,0.018390893936157227,0.052109718322753906,0.8253693580627441
1773146514200115200,10.418115234375,0.7369580268859863,0.19389057159423828,0.9195491075515747
1773146514208788700,10.426788818359375,0.5910729765892029,0.2924337387084961,0.9441779255867004
1773146514217462300,10.435462158203125,0.505733847618103,0.2953643798828125,0.7580497860908508
1773146514226135800,10.4441357421875,0.33293473720550537,0.22656822204589844,0.7795571088790894
1773146514234809300,10.452809326171876,0.3008888363838196,0.2269735336303711,0.7457250356674194
1773146514243483000,10.46148291015625,0.3310106694698334,0.050441741943359375,0.6284472942352295
1773146514252156400,10.470156494140625,0.3607747554779053,-0.11878013610839844,0.4879363477230072
1773146514260830000,10.478829833984374,0.3846217393875122,-0.2854290008544922,0.4841095805168152
1773146514269503500,10.48750341796875,0.47377485036849976,-0.40650367736816406,0.45386630296707153
1773146514278177000,10.496177001953125,0.6589378714561462,-0.4009103775024414,0.3607310950756073
1773146514286850600,10.5048505859375,0.781341016292572,-0.26882171630859375,0.3288494944572449
1773146514295524000,10.513524169921874,0.7547799348831177,-0.06060791015625,0.36766692996025085
1773146514304197600,10.52219775390625,0.6940125226974487,0.13285541534423828,0.4029013216495514
1773146514312871200,10.53087109375,0.6343956589698792,0.24002456665039062,0.38699305057525635
1773146514321544700,10.539544677734375,0.6165598630905151,0.32317447662353516,0.31342804431915283
1773146514330218200,10.54821826171875,0.6035306453704834,0.36816978454589844,0.26251325011253357
1773146514338891800,10.556891845703126,0.681795597076416,0.3320636749267578,0.1362219750881195
1773146514347565600,10.565565673828125,0.9506316184997559,0.3154296875,0.010096386075019836
1773146514356239000,10.574239013671875,1.0163946151733398,0.22025585174560547,-0.03269515186548233
1773146514364912600,10.58291259765625,1.165526270866394,0.21152877807617188,-0.09471245110034943
1773146514373586200,10.591586181640626,1.121374249458313,0.02634906768798828,-0.20995120704174042
1773146514382259700,10.600259765625,1.0924463272094727,-0.05558300018310547,-0.28310930728912354
1773146514390933200,10.608933349609375,1.0941580533981323,-0.1731119155883789,-0.37196528911590576
1773146514399606800,10.617606689453124,1.1482834815979004,-0.16890335083007812,-0.4329604506492615
1773146514408280300,10.6262802734375,1.0807117223739624,-0.2165985107421875,-0.4568201005458832
1773146514416953900,10.634953857421875,1.1010329723358154,-0.11966705322265625,-0.39729833602905273
1773146514425627400,10.64362744140625,1.133805513381958,-0.028917312622070312,-0.30083316564559937
1773146514434301000,10.652301025390624,1.3258291482925415,-0.1331024169921875,-0.2363767921924591
1773146514442974500,10.660974365234376,1.435661792755127,-0.004685401916503906,-0.1622631698846817
1773146514451648000,10.66964794921875,1.1652915477752686,0.08405590057373047,0.03713134303689003
1773146514460321500,10.678321533203125,1.1682249307632446,0.10069847106933594,0.46542656421661377
1773146514468995000,10.6869951171875,0.891487181186676,0.011040687561035156,0.5945619344711304
1773146514477668600,10.695668701171876,0.8530077338218689,0.2675132751464844,0.9608914256095886
1773146514486342100,10.704342041015625,0.9094939827919006,-0.8576059341430664,1.227379322052002
1773146514495015700,10.713015625,1.3015532493591309,-0.6956510543823242,0.401863157749176
1773146514503689200,10.721689208984374,1.2714393138885498,-0.47707176208496094,0.43484100699424744
1773146514512362800,10.73036279296875,1.0770210027694702,-0.5657339096069336,0.5683466196060181
1773146514521036300,10.739036376953125,0.8970707058906555,-0.44788265228271484,0.5528032779693604
1773146514529709800,10.747709716796875,0.754452645778656,-0.1994638442993164,0.5940349102020264
1773146514538383400,10.75638330078125,0.6644349098205566,-0.08176231384277344,0.7807139158248901
1773146514547057000,10.765056884765626,0.7946003079414368,0.09103202819824219,0.6540834903717041
1773146514555730400,10.77373046875,0.8366166353225708,0.6553878784179688,0.6093337535858154
1773146514564404000,10.782404052734375,0.8877325057983398,0.739741325378418,0.7317510843276978
1773146514573077500,10.791077392578124,0.8901047110557556,0.5443496704101562,0.8239122629165649
1773146514581751000,10.7997509765625,0.5527833700180054,0.011659622192382812,0.8501226902008057
1773146514590424600,10.808424560546875,0.5022345781326294,-0.5137729644775391,0.7987289428710938
1773146514599098000,10.81709814453125,0.42727261781692505,-0.9326801300048828,0.7311644554138184
1773146514607771600,10.825771728515624,0.2663593292236328,-1.1495161056518555,0.6252434253692627
1773146514616445200,10.834445068359376,0.04834175109863281,-1.4218673706054688,0.5478603839874268
1773146514625118700,10.84311865234375,-0.4707624316215515,-1.4635238647460938,0.3756859302520752
1773146514633792300,10.851792236328125,-0.7118548154830933,-1.5917482376098633,0.2526423931121826
1773146514642465800,10.8604658203125,-0.8293467164039612,-0.31804943084716797,-0.08332733809947968
1773146514651139300,10.869139404296876,-0.6776959300041199,0.5349912643432617,0.7495731115341187
1773146514659812900,10.877812744140625,-0.4741296172142029,0.12493515014648438,0.49716150760650635
1773146514668486700,10.886486572265625,0.016500890254974365,0.5655727386474609,0.2251465916633606
1773146514677160200,10.89516015625,0.2850475311279297,0.13156986236572266,0.2021026313304901
1773146514685833700,10.903833740234376,0.4928593635559082,0.4414644241333008,0.11043012142181396
1773146514694507300,10.91250732421875,0.45200014114379883,0.5721845626831055,0.0240144282579422
1773146514703180800,10.921180908203125,0.5227924585342407,0.9706735610961914,-0.19203601777553558
1773146514711854300,10.929854248046874,0.7368643879890442,1.3735980987548828,-0.37698423862457275
1773146514720528000,10.93852783203125,0.7294179201126099,1.5515995025634766,-0.5064835548400879
1773146514729201400,10.947201416015625,0.7602486610412598,1.6267480850219727,-0.5059760808944702
1773146514737875000,10.955875,0.6197913885116577,1.5490264892578125,-0.544859766960144
