time,seconds_elapsed,z,y,x
1773075334210110500,0.1221103515625,6.850651264190674,4.235296249389648,1.2131611108779907
1773075334228874000,0.1408740234375,6.836294174194336,3.8189449310302734,1.3184453248977661
1773075334247636500,0.159636474609375,7.456035137176514,4.977071285247803,1.2035897970199585
1773075334266398700,0.178398681640625,8.159524917602539,6.166304111480713,-0.10049854964017868
1773075334285161200,0.1971611328125,6.6592254638671875,6.3840508460998535,-1.466800332069397
1773075334303923700,0.215923828125,7.061219692230225,4.651647090911865,-2.0650060176849365
1773075334322686000,0.23468603515625,7.956135272979736,5.209175109863281,-1.7874385118484497
1773075334341448200,0.2534482421875,9.068798065185547,6.52044153213501,-1.373480200767517
1773075334360210700,0.272210693359375,6.9583282470703125,5.302495002746582,0.3613162338733673
1773075334378973200,0.29097314453125,4.587040901184082,5.352744102478027,2.251646041870117
1773075334397735400,0.3097353515625,3.9744784832000732,6.151947021484375,0.07896314561367035
1773075334416498000,0.328497802734375,4.070191383361816,5.627918720245361,0.24406790733337402
1773075334435260200,0.34726025390625,5.395814895629883,6.070590972900391,0.34217363595962524
1773075334454022700,0.366022705078125,7.085147857666016,6.685546398162842,-0.038285162299871445
1773075334472785200,0.38478515625,7.668996810913086,6.467799663543701,0.30628129839897156
1773075334491547400,0.40354736328125,7.989634990692139,6.245266914367676,0.014356935396790504
1773075334510310000,0.422309814453125,8.140382766723633,6.013163089752197,-1.2897313833236694
1773075334529072400,0.441072265625,8.475378036499023,5.804987907409668,-2.2947168350219727
1773075334547835000,0.4598349609375,8.520841598510742,6.0466628074646,0.39960137009620667
1773075334566597000,0.47859716796875,7.724031448364258,6.479763507843018,1.5290136337280273
1773075334585359600,0.497359619140625,6.766902446746826,6.16391134262085,1.1676974296569824
1773075334604121900,0.516121826171875,7.319644451141357,5.687739372253418,-0.11006984114646912
1773075334622884400,0.53488427734375,8.475378036499023,5.37906551361084,-0.16031911969184875
1773075334641646800,0.553646728515625,9.164510726928711,5.781059741973877,0.672383189201355
1773075334660409300,0.572409423828125,8.475378036499023,5.776273727416992,0.8757730722427368
1773075334679171800,0.591171875,8.343772888183594,5.304887771606445,0.24406790733337402
1773075334697934000,0.60993408203125,8.176275253295898,5.125426292419434,0.09571290761232376
1773075334716696600,0.628696533203125,8.58784008026123,4.893322467803955,0.09810572862625122
1773075334735459000,0.647458984375,9.028120040893555,4.697110652923584,0.17706887423992157
1773075334754221300,0.66622119140625,8.819944381713867,4.890929698944092,0.4043870270252228
1773075334772983800,0.68498388671875,8.350951194763184,4.613361835479736,-0.007178467698395252
1773075334791746300,0.703746337890625,8.15234661102295,4.364508628845215,-0.3278166949748993
1773075334810508800,0.7225087890625,8.082955360412598,4.275974273681641,-0.3326023519039154
1773075334829271300,0.741271240234375,7.850851058959961,4.122833251953125,-0.3756731450557709
1773075334848033500,0.760033447265625,7.752745151519775,4.122833251953125,-0.17228323221206665
1773075334866796000,0.778796142578125,8.02791976928711,3.7710886001586914,-0.2919243574142456
1773075334885558500,0.79755859375,7.183253765106201,3.2135608196258545,-0.44745782017707825
1773075334904321000,0.816321044921875,8.169096946716309,3.7160534858703613,-0.275174617767334
1773075334923083500,0.83508349609375,8.48734188079834,4.409972190856934,0.7848458290100098
1773075334941846000,0.853845947265625,8.86780071258545,4.567898273468018,1.0145567655563354
1773075334960608500,0.8726083984375,9.109476089477539,4.012763500213623,0.7896314859390259
1773075334979371000,0.89137109375,9.241081237792969,3.376272678375244,0.46899324655532837
1773075334998133200,0.91013330078125,9.528220176696777,3.359523057937622,0.7417750358581543
1773075335016895700,0.928895751953125,7.975277900695801,3.704089403152466,0.7369893789291382
1773075335035658200,0.947658203125,8.037490844726562,4.01037073135376,1.4428720474243164
1773075335054420700,0.966420654296875,7.51585578918457,4.3788652420043945,1.6103696823120117
1773075335073183200,0.985183349609375,7.0755767822265625,4.180261135101318,1.435693621635437
1773075335091945700,1.00394580078125,7.5637125968933105,3.8572301864624023,1.4069796800613403
1773075335110708200,1.022708251953125,8.030312538146973,3.5150563716888428,0.9284151792526245
1773075335129470500,1.041470458984375,8.104490280151367,3.728017568588257,1.2490534782409668
1773075335148233200,1.060233154296875,7.910671710968018,3.9984066486358643,1.6869399547576904
1773075335166995700,1.07899560546875,7.444071292877197,3.926621913909912,1.5481562614440918
1773075335185758200,1.09775830078125,7.898707389831543,3.507878065109253,1.1389836072921753
1773075335204520700,1.116520751953125,8.638090133666992,3.2997024059295654,1.074377417564392
1773075335223283200,1.135283203125,9.241081237792969,2.998206853866577,1.007378339767456
1773075335242045700,1.154045654296875,9.614361763000488,2.6488547325134277,0.7728816866874695
1773075335260808200,1.17280810546875,9.753145217895508,3.046063184738159,1.2275179624557495
1773075335279570700,1.19157080078125,9.181260108947754,3.218346357345581,1.3423734903335571
1773075335298333200,1.210333251953125,9.037691116333008,2.940778970718384,1.2299108505249023
1773075335317095700,1.229095703125,8.877371788024902,2.715853691101074,1.4428720474243164
1773075335335858200,1.247858154296875,9.236295700073242,2.6727828979492188,1.923829436302185
1773075335354620700,1.26662060546875,8.915657043457031,3.2829527854919434,2.469393014907837
1773075335373383200,1.285383056640625,9.387042999267578,2.6009981632232666,1.97407865524292
1773075335392145700,1.304145751953125,9.20997428894043,1.7371892929077148,1.3663017749786377
1773075335410908200,1.322908203125,8.688339233398438,1.588834285736084,1.3615161180496216
1773075335429670700,1.341670654296875,8.927620887756348,1.4979069232940674,1.856830358505249
1773075335448433200,1.36043310546875,10.590633392333984,1.950150489807129,2.7517459392547607
1773075335467196000,1.37919580078125,10.770094871520996,2.0745773315429688,3.4025938510894775
1773075335485958400,1.39795849609375,9.805787086486816,2.201396942138672,2.837887763977051
1773075335504721000,1.416720947265625,9.4660062789917,1.521835207939148,2.148754835128784
1773075335523483400,1.4354833984375,9.619147300720215,1.337587833404541,2.029113531112671
1773075335542246000,1.454245849609375,9.396614074707031,1.306481122970581,1.7778671979904175
1773075335561008400,1.47300830078125,8.987442016601562,1.1581261157989502,2.4981069564819336
1773075335579771000,1.49177099609375,9.738788604736328,1.1126625537872314,3.8285162448883057
1773075335598533400,1.510533447265625,10.549955368041992,0.7058826684951782,3.603590965270996
1773075335617296100,1.529296142578125,10.358529090881348,0.16271193325519562,3.3882367610931396
1773075335636058600,1.54805859375,9.044869422912598,0.4426721930503845,3.1034910678863525
1773075335654821000,1.566821044921875,8.240880966186523,0.5024927258491516,2.2540390491485596
1773075335673583600,1.58558349609375,8.695517539978027,0.2392822653055191,3.139383316040039
1773075335692346000,1.60434619140625,7.872386455535889,1.0097711086273193,3.6610186100006104
1773075335711108600,1.623108642578125,7.288537979125977,1.275374412536621,4.153940200805664
1773075335729871400,1.641871337890625,6.39601469039917,1.2921242713928223,4.826323509216309
1773075335748633900,1.6606337890625,5.7547383308410645,1.222732424736023,5.422136306762695
1773075335767396400,1.679396240234375,6.623332977294922,1.7060825824737549,6.898507595062256
1773075335786158800,1.698158935546875,7.817351341247559,1.4739787578582764,7.489534854888916
1773075335804921600,1.716921630859375,6.7692952156066895,0.7561319470405579,6.556334018707275
1773075335823684000,1.73568408203125,6.137589931488037,-0.28235307335853577,5.699703693389893
1773075335842446600,1.754446533203125,6.130411624908447,-1.2658032178878784,5.328815937042236
1773075335861209000,1.773208984375,6.558726787567139,-1.4404792785644531,6.307480335235596
1773075335879971800,1.791971923828125,7.3675007820129395,-0.8255237936973572,7.963313579559326
1773075335898734300,1.810734375,6.496513366699219,-0.6029912829399109,8.738588333129883
1773075335917496800,1.829496826171875,5.690132141113281,-1.0480563640594482,8.566305160522461
1773075335936259300,1.84825927734375,3.538984775543213,-0.5670989751815796,8.906085968017578
1773075335955022000,1.86702197265625,2.5603201389312744,-1.129412293434143,10.119247436523438
1773075335973784600,1.88578466796875,3.084348440170288,1.4811571836471558,12.729816436767578
1773075335992547000,1.904547119140625,2.746960401535034,0.7776673436164856,11.483156204223633
1773075336011309800,1.923309814453125,2.1032910346984863,-0.007178467698395252,11.425727844238281
1773075336030072300,1.942072265625,0.6819544434547424,0.15314064919948578,11.265409469604492
1773075336048834800,1.960834716796875,-0.7010970115661621,-0.5982056856155396,10.372885704040527
1773075336067597600,1.97959765625,-0.397208571434021,-1.612762451171875,9.21715259552002
1773075336086360000,1.998360107421875,-0.13639089465141296,-2.5387847423553467,8.70508861541748
1773075336105122600,2.01712255859375,-1.2705888748168945,-1.9070796966552734,9.600004196166992
1773075336123885000,2.035885009765625,-2.2707886695861816,-1.832902193069458,9.480362892150879
1773075336142647800,2.054647705078125,-1.8089739084243774,-3.2709884643554688,7.582854747772217
1773075336161410300,2.073410400390625,-3.005385160446167,-5.003392219543457,5.632704734802246
1773075336180173000,2.092173095703125,-3.1824541091918945,-6.379265308380127,4.515256404876709
1773075336198935600,2.110935546875,-5.032105922698975,-4.701896667480469,11.12901782989502
1773075336217698300,2.1296982421875,-1.7994025945663452,-3.6083765029907227,14.452649116516113
1773075336236460800,2.148460693359375,-2.4741785526275635,-2.431107759475708,11.373085975646973
1773075336255223300,2.167223388671875,-3.5605201721191406,-8.02074146270752,6.338587284088135
1773075336273985800,2.18598583984375,-3.335594654083252,-9.578469276428223,-1.00259268283844
1773075336292748500,2.20474853515625,-3.3547372817993164,-5.771488189697266,7.044469833374023
1773075336333970200,2.24597021484375,-2.383251428604126,-6.168696880340576,8.408378601074219
1773075336352733000,2.26473291015625,-1.4165509939193726,-4.431507587432861,7.17368221282959
1773075336371495400,2.283495361328125,-0.38763725757598877,-5.800201892852783,6.417550563812256
1773075336390258000,2.3022578125,-1.0432707071304321,-6.556334018707275,8.997013092041016
1773075336409020700,2.321020751953125,-2.3162522315979004,-8.298309326171875,10.456634521484375
1773075336427783200,2.339783203125,-1.5122638940811157,-7.293323516845703,10.365707397460938
1773075336446546000,2.3585458984375,-2.7086751461029053,-16.692331314086914,-7.144968509674072
1773075336465308400,2.377308349609375,-2.163111686706543,-9.001798629760742,3.345165967941284
1773075336484071200,2.3960712890625,-0.550349235534668,-8.93958568572998,5.1876397132873535
1773075336502833700,2.414833740234375,-1.8664016723632812,-9.432506561279297,4.996213912963867
1773075336521596400,2.433596435546875,-2.526820659637451,-11.676974296569824,0.12442677468061447
1773075336540359000,2.45235888671875,-1.9094724655151367,-10.04985523223877,4.910071849822998
1773075336559121400,2.471121337890625,-1.9621145725250244,-10.02592658996582,6.5180487632751465
1773075336577884200,2.48988427734375,-1.0336993932724,-8.283951759338379,1.2011969089508057
1773075336596646700,2.508646728515625,-1.4787644147872925,-9.035298347473145,1.9908283948898315
1773075336615409400,2.527409423828125,-1.9046868085861206,-8.762516975402832,1.6654045581817627
1773075336634172200,2.546172119140625,-1.2346965074539185,-9.456435203552246,2.196611166000366
1773075336652934700,2.5649345703125,-0.24406790733337402,4.417150497436523,-2.2923240661621094
1773075336671697400,2.583697509765625,0.641276478767395,0.550349235534668,1.454836130142212
1773075336690460000,2.6024599609375,-0.7992027401924133,-8.140382766723633,-2.3018953800201416
1773075336709222400,2.621222412109375,-0.397208571434021,-9.17886734008789,-0.20099709928035736
1773075336737366500,2.649366455078125,-0.5168496966362,-10.322636604309082,0.20099709928035736
1773075336756129000,2.66812890625,0.7896314859390259,-9.418149948120117,0.727418065071106
1773075336774891800,2.686891845703125,0.7417750358581543,-8.082955360412598,0.5790630578994751
1773075336793654300,2.705654296875,-2.713460922241211,-7.853243827819824,0.641276478767395
1773075336812417000,2.7244169921875,-0.4259224236011505,-9.963713645935059,0.32542386651039124
1773075336831179800,2.7431796875,-7.121040344238281,-59.873207092285156,-5.675775527954102
1773075336849942300,2.7619423828125,1.0432707071304321,-10.097711563110352,15.921841621398926
1773075336887467500,2.799467529296875,-2.847458839416504,-11.140982627868652,-2.5603201389312744
1773075336906230300,2.818230224609375,-1.1389836072921753,-11.873186111450195,-2.100898265838623
1773075336924992800,2.83699267578125,-1.306481122970581,-11.117053985595703,-2.287538528442383
1773075336943755500,2.855755615234375,-1.3256237506866455,-10.231709480285645,-1.1868400573730469
1773075336962518000,2.87451806640625,-1.5792629718780518,-8.96829891204834,-1.1437692642211914
1773075336981280800,2.89328076171875,-2.6608188152313232,-7.747959613800049,-0.46899324655532837
1773075337000043500,2.91204345703125,-2.4502503871917725,-11.538190841674805,-1.0719845294952393
1773075337018806000,2.930805908203125,-1.7324036359786987,-11.016555786132812,-1.0097711086273193
1773075337037568800,2.94956884765625,-2.7517459392547607,-10.628918647766113,-1.2729816436767578
1773075337056331500,2.96833154296875,-2.6703901290893555,-10.06421184539795,-1.6366907358169556
1773075337075094000,2.987093994140625,-2.1104695796966553,-9.78664493560791,-1.9621145725250244
1773075337093856800,3.005856689453125,-1.191625714302063,-9.743574142456055,-1.8185452222824097
1773075337112619300,3.024619384765625,-0.9762716293334961,-9.681360244750977,-1.4787644147872925
1773075337131382000,3.043382080078125,-1.7371892929077148,-9.322437286376953,-0.6317051649093628
1773075337150144800,3.062144775390625,-2.5986053943634033,-9.28893756866455,-0.08135596662759781
1773075337168907300,3.0809072265625,-2.8761727809906006,-9.131011009216309,-0.4546363055706024
1773075337187670000,3.099669921875,-2.6847469806671143,-8.82951545715332,-0.8614161610603333
1773075337206432800,3.118432861328125,-2.6847469806671143,-8.623732566833496,-0.6891329288482666
1773075337225195300,3.1371953125,-2.7517459392547607,-8.623732566833496,-0.5024927258491516
1773075337243958000,3.1559580078125,-2.799602508544922,-8.561519622802734,-0.22971096634864807
1773075337262720800,3.174720703125,-2.933600664138794,-8.46580696105957,-0.04785645380616188
1773075337281483300,3.193483154296875,-2.967100143432617,-8.365307807922363,-0.1052841991186142
1773075337300246000,3.21224609375,-3.0340991020202637,-8.164310455322266,-0.14356936514377594
1773075337319008800,3.2310087890625,-3.249453067779541,-8.135597229003906,-0.22492532432079315
1773075337337771300,3.249771240234375,-3.493520975112915,-8.13081169128418,-0.22013968229293823
1773075337356534000,3.268533935546875,-3.838087558746338,-8.240880966186523,-0.17228323221206665
1773075337375296800,3.287296875,-4.201796531677246,-8.437092781066895,-0.1579262912273407
1773075337394059300,3.306059326171875,-4.321437835693359,-8.671588897705078,-0.2679961323738098
1773075337412822000,3.324822021484375,-4.240081787109375,-8.944371223449707,-0.4785645306110382
1773075337431584800,3.343584716796875,-4.603790760040283,-9.379864692687988,-0.3684946894645691
1773075337450347500,3.362347412109375,-4.847858905792236,-9.7005033493042,-0.12442677468061447
1773075337469110000,3.381110107421875,-4.618147850036621,-9.671789169311523,-0.062213387340307236
1773075337487872800,3.399872802734375,-4.4650068283081055,-9.533005714416504,-0.14835500717163086
1773075337506635500,3.418635498046875,-4.316651821136475,-9.379864692687988,-0.4163511395454407
1773075337525398000,3.43739794921875,-4.192225456237793,-9.116654396057129,-0.43549370765686035
1773075337544160800,3.456160888671875,-4.187439441680908,-8.997013092041016,-0.6508477330207825
1773075337562923500,3.474923583984375,-3.924229145050049,-8.915657043457031,-0.6364908218383789
1773075337581686300,3.493686279296875,-3.996013879776001,-9.580862045288086,-0.8901300430297852
1773075337600449000,3.512448974609375,-4.182653903961182,-10.585846900939941,-1.2681959867477417
1773075337619211500,3.53121142578125,-4.398007869720459,-12.04068374633789,-1.545763373374939
1773075337637974300,3.549974365234375,-3.8907296657562256,-13.11266803741455,-1.3591232299804688
1773075337656737000,3.568737060546875,-2.8426733016967773,-10.581061363220215,-0.49292147159576416
1773075337675499800,3.587499755859375,-2.124826431274414,-8.303094863891602,-0.02392822690308094
1773075337694262500,3.606262451171875,-0.37806597352027893,-6.1399827003479,-0.20099709928035736
1773075337713025000,3.62502490234375,0.17228323221206665,-4.981856822967529,-2.392822742462158
1773075337731787800,3.643787841796875,-1.0719845294952393,-6.996613502502441,-4.8574299812316895
1773075337750550500,3.662550537109375,-2.3784656524658203,-9.509077072143555,-4.59421968460083
1773075337769313300,3.681313232421875,-1.856830358505249,-11.418549537658691,-1.191625714302063
1773075337788075800,3.70007568359375,0.04785645380616188,-11.887542724609375,1.3543375730514526
1773075337806838500,3.718838623046875,0.03349951654672623,-10.777273178100586,2.392822742462158
1773075337825601300,3.737601318359375,-0.550349235534668,-9.384650230407715,1.794616937637329
1773075337844364000,3.756364013671875,-0.8470591902732849,-8.973084449768066,0.5790630578994751
1773075337863126800,3.775126708984375,-1.0001999139785767,-9.260223388671875,0.5886343717575073
1773075337881889500,3.7938896484375,-0.31106695532798767,-9.81535816192627,1.0145567655563354
1773075337900652300,3.81265234375,0.08614161610603333,-10.188638687133789,0.9858429431915283
1773075337919414800,3.831414794921875,-0.2727817893028259,-10.351350784301758,0.6508477330207825
1773075337938177500,3.850177490234375,-0.38285163044929504,-10.269994735717773,-0.2679961323738098
1773075337956940300,3.868940185546875,-0.2153540402650833,-9.93978500366211,-0.8039883971214294
1773075337975703000,3.887703125,-0.06699903309345245,-9.561718940734863,-1.0145567655563354
1773075337994465800,3.9064658203125,0.27756741642951965,-9.040083885192871,-0.5599204897880554
1773075338013228500,3.925228515625,0.5934200286865234,-9.255437850952148,-0.30628129839897156
1773075338031991300,3.9439912109375,0.5934200286865234,-9.77707290649414,0.08135596662759781
1773075338050754000,3.962754150390625,0.6029912829399109,-9.91107177734375,0.22013968229293823
1773075338069516800,3.981516845703125,0.4977070987224579,-9.633503913879395,0.2919243574142456
1773075338088279600,4.000279541015625,0.2679961323738098,-9.973284721374512,0.3206382393836975
1773075338107042000,4.0190419921875,0.19621145725250244,-9.863214492797852,0.31106695532798767
1773075338125804800,4.0378046875,-0.22013968229293823,-9.829715728759766,0.11964113265275955
1773075338144567600,4.056567626953125,0.04785645380616188,-9.853643417358398,-0.45942193269729614
1773075338163330300,4.075330322265625,0.2919243574142456,-9.260223388671875,-0.4498506486415863
1773075338182093000,4.094093017578125,0.397208571434021,-9.949356079101562,-0.04785645380616188
1773075338200855800,4.112855712890625,0.6508477330207825,-9.762716293334961,-0.05742774158716202
1773075338219618600,4.13161865234375,0.5886343717575073,-9.810572624206543,0.009571290574967861
1773075338238381300,4.15038134765625,0.4737788736820221,-10.006784439086914,0.08135596662759781
1773075338257144000,4.16914404296875,0.37806597352027893,-10.159924507141113,0.06699903309345245
1773075338275906800,4.18790673828125,0.8949156403541565,-10.418350219726562,0.19142581522464752
1773075338294669600,4.206669677734375,0.8901300430297852,-10.490134239196777,0.4019941985607147
1773075338313432300,4.225432373046875,0.7417750358581543,-10.571490287780762,0.2679961323738098
1773075338332195000,4.244195068359375,0.4977070987224579,-10.628918647766113,-0.08614161610603333
1773075338350957800,4.262957763671875,0.4546363055706024,-10.595418930053711,0.24406790733337402
1773075338369720600,4.281720458984375,0.25363919138908386,-10.490134239196777,0.8470591902732849
1773075338388483300,4.3004833984375,0.33499518036842346,-10.50927734375,1.301695466041565
1773075338407246000,4.31924609375,0,-11.184053421020508,1.6223337650299072
1773075338426008800,4.3380087890625,0.3732803463935852,-11.906685829162598,1.1868400573730469
1773075338444771600,4.356771484375,0.02871387079358101,-11.906685829162598,0.3397808074951172
1773075338463534300,4.375534423828125,-0.5599204897880554,-11.801401138305664,-0.19142581522464752
1773075338482297000,4.394297119140625,-0.8709874153137207,-12.112467765808105,-0.33499518036842346
1773075338501059800,4.413059814453125,-0.8183453679084778,-11.58126163482666,-0.45942193269729614
1773075338519822600,4.431822509765625,-0.9523434042930603,-10.423135757446289,-0.7082754969596863
1773075338538585300,4.45058544921875,-0.8087740540504456,-9.312865257263184,-0.9332008361816406
1773075338557348000,4.46934814453125,-0.7322037220001221,-8.303094863891602,-1.4979069232940674
1773075338576110600,4.488110595703125,-1.0719845294952393,-7.9250288009643555,-1.856830358505249
1773075338594873600,4.50687353515625,-0.7417750358581543,-9.67657470703125,-2.6225335597991943
1773075338613636400,4.52563623046875,0.8183453679084778,-12.452248573303223,-3.0963125228881836
1773075338632399400,4.5443994140625,1.6606189012527466,-13.418949127197266,-2.7661030292510986
1773075338651162000,4.563162109375,0.8709874153137207,-11.69133186340332,-0.8901300430297852
1773075338669924900,4.5819248046875,-0.32542386651039124,-10.442277908325195,-0.43549370765686035
1773075338688687600,4.6006875,-1.6319050788879395,-9.844072341918945,0.004785645287483931
1773075338707450400,4.619450439453125,-1.459621787071228,-9.284152030944824,-0.004785645287483931
1773075338726213000,4.638213134765625,-1.6654045581817627,-8.748159408569336,0.8135597109794617
1773075338744976000,4.656975830078125,-1.3543375730514526,-8.551948547363281,1.0863415002822876
1773075338763738600,4.675738525390625,-0.9858429431915283,-8.475378036499023,0.7082754969596863
1773075338782501400,4.69450146484375,-0.9044869542121887,-8.111668586730957,0.8662018179893494
1773075338801264000,4.71326416015625,-1.1198409795761108,-7.853243827819824,0.5599204897880554
1773075338820027100,4.732027099609375,-1.2681959867477417,-7.365108013153076,0.04307080805301666
1773075338838790000,4.750789794921875,-1.3639088869094849,-7.039684295654297,-0.641276478767395
1773075338857552600,4.769552734375,-1.306481122970581,-6.872186660766602,-1.1772687435150146
1773075338876315400,4.7883154296875,-1.397408366203308,-6.939185619354248,-1.435693621635437
1773075338895078100,4.807078125,-1.919043779373169,-7.3746795654296875,-1.1389836072921753
1773075338913841000,4.8258408203125,-2.7517459392547607,-7.968099594116211,-0.27756741642951965
1773075338932603600,4.844603759765625,-3.6083765029907227,-8.70508861541748,0.8183453679084778
1773075338951366400,4.863366455078125,-4.302295207977295,-9.236295700073242,1.4117653369903564
1773075338970129400,4.88212939453125,-5.484349727630615,-9.633503913879395,1.2873386144638062
1773075338988892200,4.90089208984375,-7.03489875793457,-10.418350219726562,0.5886343717575073
1773075339007655000,4.919655029296875,-7.307680130004883,-11.112268447875977,1.215553879737854
1773075339026417700,4.938417724609375,-6.240481376647949,-11.164910316467285,2.234896421432495
1773075339045180400,4.957180419921875,-5.20678186416626,-10.63370418548584,2.0865414142608643
1773075339063943200,4.975943115234375,-4.436293125152588,-9.585647583007812,0.9236295223236084
1773075339082706200,4.9947060546875,-3.5988051891326904,-9.28893756866455,0.009571290574967861
1773075339101469000,5.013468994140625,-2.7804598808288574,-9.494720458984375,-0.5216353535652161
1773075339120231700,5.032231689453125,-2.2301106452941895,-11.672188758850098,-0.2153540402650833
1773075339138994400,5.050994384765625,-0.6699903607368469,-14.467005729675293,1.1772687435150146
1773075339157757200,5.069757080078125,-1.2490534782409668,-12.457035064697266,1.7467604875564575
1773075339176520200,5.088520263671875,-1.3160524368286133,-7.546962738037109,-0.9762716293334961
1773075339195283000,5.107282958984375,-0.9571290612220764,-5.469992637634277,-3.594019651412964
1773075339214045700,5.126045654296875,-0.5216353535652161,-6.269195556640625,-5.446064472198486
1773075339232808400,5.144808349609375,0.7369893789291382,-7.432106971740723,-4.871787071228027
1773075339251571200,5.1635712890625,1.5984054803848267,-8.863015174865723,-2.3545374870300293
1773075339270334000,5.182333984375,1.3591232299804688,-11.576476097106934,1.3256237506866455
1773075339289097000,5.201096923828125,0.5599204897880554,-13.328022003173828,3.871587038040161
1773075339307859700,5.219859619140625,-0.07178468257188797,-11.073983192443848,3.2781670093536377
1773075339326622500,5.23862255859375,-0.2967100143432617,-9.17886734008789,1.521835207939148
1773075339345385200,5.25738525390625,-0.397208571434021,-9.135796546936035,-0.3445664644241333
1773075339364148200,5.276148193359375,0.19621145725250244,-9.274580955505371,-1.4117653369903564
1773075339382911000,5.294910888671875,0.6317051649093628,-9.422935485839844,-1.5026925802230835
1773075339401673700,5.313673828125,0.8135597109794617,-9.533005714416504,-1.1150553226470947
1773075339420436500,5.3324365234375,0.8614161610603333,-9.643074989318848,-0.550349235534668
1773075339439199500,5.351199462890625,0.9523434042930603,-9.695717811584473,-0.37806597352027893
1773075339457962200,5.369962158203125,1.3256237506866455,-9.475577354431152,-0.40677985548973083
1773075339476725000,5.38872509765625,1.129412293434143,-9.657432556152344,-0.3445664644241333
1773075339495487700,5.40748779296875,0.9044869542121887,-9.652647018432617,-0.20099709928035736
1773075339514250800,5.426250732421875,0.8327022790908813,-9.719645500183105,-0.1579262912273407
1773075339533013500,5.445013427734375,0.7800601720809937,-9.494720458984375,0.38285163044929504
1773075339551776300,5.4637763671875,0.6795616149902344,-10.016355514526367,0.8135597109794617
1773075339570539000,5.4825390625,0.5168496966362,-10.638489723205566,0.5455635786056519
1773075339589301800,5.5013017578125,-0.04307080805301666,-10.284351348876953,0.5742774605751038
1773075339608064800,5.520064697265625,-0.2392822653055191,-10.222138404846191,0.44027936458587646
1773075339626827500,5.53882763671875,0.004785645287483931,-10.62413215637207,0.8374879360198975
1773075339645590300,5.55759033203125,0.25363919138908386,-10.681560516357422,1.3878371715545654
1773075339664353000,5.57635302734375,0.0526420995593071,-10.671989440917969,1.794616937637329
1773075339683116000,5.595115966796875,0.12442677468061447,-10.87298583984375,1.368694543838501
1773075339701878800,5.613878662109375,0.17228323221206665,-11.054841041564941,0.3397808074951172
1773075339720641500,5.6326416015625,0.1339980661869049,-11.3180513381958,-0.35892340540885925
1773075339739404500,5.651404541015625,-0.08614161610603333,-11.858829498291016,-0.08135596662759781
1773075339758167300,5.670167236328125,-0.33499518036842346,-13.007384300231934,0.6747759580612183
1773075339776930000,5.688929931640625,-0.17706887423992157,-12.490533828735352,0.8087740540504456
1773075339795692800,5.70769287109375,-1.0528420209884644,-11.614761352539062,0.1579262912273407
1773075339814455600,5.72645556640625,-1.9046868085861206,-11.251051902770996,-0.33499518036842346
1773075339833218600,5.745218505859375,-1.6319050788879395,-10.322636604309082,-0.8757730722427368
1773075339851981300,5.763981201171875,-1.3639088869094849,-9.542576789855957,-0.9954141974449158
1773075339870744000,5.782744140625,-1.2394821643829346,-8.781659126281738,-1.6941183805465698
1773075339889507000,5.801507080078125,-1.6462619304656982,-8.863015174865723,-2.115255117416382
1773075339908269800,5.820269775390625,-1.34476637840271,-11.006983757019043,-2.5746772289276123
1773075339927032600,5.839032470703125,2.1343977451324463,-14.12243938446045,-3.0867412090301514
1773075339945795600,5.857795654296875,2.651247501373291,-14.313864707946777,-2.2396819591522217
1773075339964558300,5.876558349609375,0.7992027401924133,-11.35633659362793,0.22013968229293823
1773075339983321000,5.895321044921875,-1.1772687435150146,-9.753145217895508,0.550349235534668
1773075340002083800,5.914083740234375,-1.7324036359786987,-9.025727272033691,0.6269195079803467
1773075340020846800,5.932846923828125,-1.856830358505249,-8.681160926818848,0.45942193269729614
1773075340039609600,5.951609619140625,-2.029113531112671,-8.451449394226074,0.5551348328590393
1773075340058372400,5.970372314453125,-1.5649060010910034,-8.528019905090332,-0.019142581149935722
1773075340077135000,5.989135009765625,-1.3160524368286133,-7.848458290100098,-0.23449662327766418
1773075340095898000,6.007898193359375,-1.1724830865859985,-6.857829570770264,0.038285162299871445
1773075340114660900,6.026660888671875,-0.914058268070221,-5.843272686004639,0.4211367964744568
1773075340133423600,6.045423583984375,-0.914058268070221,-5.469992637634277,0.5455635786056519
1773075340152186600,6.0641865234375,-0.7082754969596863,-5.216353416442871,0.07178468257188797
1773075340170949400,6.082949462890625,-0.8805587291717529,-5.31685209274292,-0.28235307335853577
1773075340189712100,6.101712158203125,-1.7419748306274414,-5.9437713623046875,-0.09571290761232376
1773075340208475100,6.12047509765625,-2.6943182945251465,-6.939185619354248,-0.13878370821475983
1773075340227238000,6.13923779296875,-4.249652862548828,-8.528019905090332,0.27756741642951965
1773075340246000600,6.158000732421875,-6.092126369476318,-11.203195571899414,0.8327022790908813
1773075340264763400,6.176763427734375,-7.130611419677734,-15.213566780090332,0.2392822653055191
1773075340283526100,6.195526123046875,-11.145768165588379,-15.658631324768066,-1.0959128141403198
1773075340302289200,6.2142890625,-9.269794464111328,-13.308879852294922,-0.6604190468788147
1773075340321052000,6.233052001953125,-6.3122663497924805,-9.389435768127441,-1.3351950645446777
1773075340339814700,6.251814697265625,-4.130012035369873,-8.432307243347168,-2.9862427711486816
1773075340358577700,6.27057763671875,-3.3547372817993164,-9.28893756866455,-3.6993038654327393
1773075340377340400,6.28934033203125,-2.6608188152313232,-11.547761917114258,-3.383451223373413
1773075340396103200,6.308103271484375,-0.32542386651039124,-13.677373886108398,0
1773075340414866200,6.3268662109375,2.2636101245880127,-9.56650447845459,3.3643085956573486
1773075340433629000,6.34562890625,1.5122638940811157,-5.886343479156494,0.397208571434021
1773075340452391700,6.3643916015625,-0.41156548261642456,-5.838487148284912,-2.8043880462646484
1773075340471154400,6.383154541015625,-0.5599204897880554,-7.384250640869141,-3.8524444103240967
1773075340489917400,6.40191748046875,-0.6891329288482666,-9.169296264648438,-4.063013076782227
1773075340508680200,6.42068017578125,0.2871387302875519,-10.403992652893066,-1.306481122970581
1773075340527443000,6.43944287109375,0.38763725757598877,-11.284551620483398,3.211168050765991
1773075340546206000,6.4582060546875,0.6221339106559753,-11.734402656555176,4.096512317657471
1773075340564968700,6.47696875,-0.5072783827781677,-9.992427825927734,3.1824541091918945
1773075340593112800,6.50511279296875,-1.0480563640594482,-9.140582084655762,0.11485548317432404
1773075340611875800,6.523875732421875,-0.9475577473640442,-9.169296264648438,-1.196411371231079
1773075340630638600,6.542638671875,-0.33499518036842346,-9.489934921264648,-1.5409778356552124
1773075340649401300,6.5614013671875,0.07178468257188797,-9.652647018432617,-1.100698471069336
1773075340668164000,6.5801640625,0.1866401731967926,-9.844072341918945,-0.4833501875400543
1773075340686927000,6.598927001953125,0.5359922647476196,-9.781859397888184,-0.06699903309345245
1773075340705689900,6.61768994140625,0.7752745151519775,-9.351150512695312,0.24406790733337402
1773075340724452600,6.63645263671875,0.46420758962631226,-9.236295700073242,0.5742774605751038
1773075340743215400,6.65521533203125,0.550349235534668,-9.370293617248535,0.7417750358581543
1773075340761978400,6.673978271484375,0.5120640397071838,-9.456435203552246,0.698704183101654
1773075340780741000,6.6927412109375,1.0432707071304321,-9.667003631591797,0.30149564146995544
1773075340799504000,6.71150390625,1.038485050201416,-9.757930755615234,-0.11485548317432404
1773075340818267000,6.730266845703125,0.349352091550827,-9.949356079101562,-0.10049854964017868
1773075340837029600,6.749029541015625,-0.35413774847984314,-10.250852584838867,0.10049854964017868
1773075340855792400,6.76779248046875,-0.8709874153137207,-10.600204467773438,0.09571290761232376
1773075340874555400,6.786555419921875,-0.8087740540504456,-10.829915046691895,0.363709032535553
1773075340893318100,6.805318115234375,-0.40677985548973083,-10.753344535827637,0.8805587291717529
1773075340912081000,6.824080810546875,-0.30628129839897156,-10.628918647766113,1.435693621635437
1773075340930843600,6.84284375,-0.14356936514377594,-10.805987358093262,1.6654045581817627
1773075340949606400,6.8616064453125,0.15314064919948578,-11.016555786132812,1.3878371715545654
1773075340968369400,6.880369384765625,0.2153540402650833,-11.069197654724121,0.7322037220001221
1773075340987132200,6.899132080078125,0.038285162299871445,-11.078768730163574,0.48813581466674805
1773075341005895000,6.91789501953125,-0.6221339106559753,-11.609975814819336,0.97148597240448
1773075341024658000,6.936657958984375,-0.8709874153137207,-11.80618667602539,1.2538390159606934
1773075341043420700,6.955420654296875,-1.1102696657180786,-11.638689041137695,1.0959128141403198
1773075341062183400,6.974183349609375,-1.5553346872329712,-11.609975814819336,0.5359922647476196
1773075341080946200,6.9929462890625,-1.703689694404602,-11.217552185058594,0.11485548317432404
1773075341099709200,7.011709228515625,-1.4931213855743408,-9.992427825927734,-0.2727817893028259
1773075341118472000,7.030471923828125,-1.6845471858978271,-9.025727272033691,-0.8422735929489136
1773075341137234700,7.049234619140625,-1.9812572002410889,-8.982656478881836,-1.397408366203308
1773075341155997400,7.06799755859375,-1.789831280708313,-9.379864692687988,-1.7276179790496826
1773075341174760400,7.086760498046875,-1.2346965074539185,-11.050054550170898,-1.828116536140442
1773075341193523200,7.105523193359375,1.856830358505249,-14.002798080444336,-2.5220351219177246
1773075341212286000,7.124285888671875,2.445464849472046,-14.213366508483887,-1.3208380937576294
1773075341231048700,7.143048583984375,0.6460621356964111,-11.557332992553711,0.3445664644241333
1773075341249811500,7.1618115234375,-1.1676974296569824,-9.930213928222656,0.6269195079803467
1773075341268574500,7.180574462890625,-2.1104695796966553,-9.489934921264648,0.6891329288482666
1773075341287337200,7.199337158203125,-1.9716858863830566,-8.877371788024902,0.7034898400306702
1773075341306100000,7.218099853515625,-1.7084753513336182,-8.4562349319458,0.6795616149902344
1773075341324863000,7.236863037109375,-1.2634103298187256,-8.015955924987793,-0.004785645287483931
1773075341343625700,7.255625732421875,-0.7417750358581543,-7.6043901443481445,-0.1866401731967926
1773075341362388500,7.274388427734375,-0.4546363055706024,-6.920042991638184,-0.15314064919948578
1773075341381151200,7.293151123046875,-0.4259224236011505,-6.364908218383789,-0.09571290761232376
1773075341399914200,7.311914306640625,-0.7465606927871704,-6.106483459472656,-0.3158525824546814
1773075341418677000,7.330677001953125,-1.191625714302063,-6.3122663497924805,-0.6891329288482666
1773075341437439700,7.349439697265625,-1.3160524368286133,-6.484549522399902,-0.9092726111412048
1773075341456202500,7.368202392578125,-1.5026925802230835,-6.766902446746826,-0.5742774605751038
1773075341474965500,7.386965576171875,-2.076970100402832,-7.762316703796387,-0.5120640397071838
1773075341493728300,7.405728271484375,-3.373879909515381,-9.805787086486816,0.35413774847984314
1773075341512491000,7.424490966796875,-5.335994720458984,-11.241480827331543,2.029113531112671
1773075341531253800,7.443253662109375,-7.125825881958008,-13.098311424255371,2.2396819591522217
1773075341550016500,7.4620166015625,-8.925228118896484,-13.414163589477539,1.9046868085861206
1773075341568779500,7.480779541015625,-9.10229778289795,-12.016755104064941,2.1918256282806396
1773075341587542300,7.499542236328125,-6.369693756103516,-9.987641334533691,1.124626636505127
1773075341606305000,7.518304931640625,-2.7900311946868896,-8.638090133666992,-0.12442677468061447
1773075341625067800,7.53706787109375,-1.8089739084243774,-8.733802795410156,-0.9379864931106567
1773075341643830500,7.55583056640625,-1.852044701576233,-11.337193489074707,0.11485548317432404
1773075341662593500,7.574593505859375,-1.0097711086273193,-12.102896690368652,2.9623143672943115
1773075341681356300,7.593356201171875,-0.4019941985607147,-11.011770248413086,2.407179594039917
1773075341700119000,7.612119140625,-2.919243574142456,-10.62413215637207,-0.349352091550827
1773075341718881800,7.6308818359375,-1.3543375730514526,-9.346364974975586,-2.6225335597991943
1773075341737644500,7.64964453125,0.397208571434021,-7.81974458694458,-5.264209747314453
1773075341756407600,7.668407470703125,0.6029912829399109,-7.441678524017334,-4.412364959716797
1773075341775170300,7.68717041015625,1.5744773149490356,-7.743174076080322,-1.8951154947280884
1773075341793933000,7.70593310546875,1.6654045581817627,-9.647860527038574,0.45942193269729614
1773075341812695800,7.72469580078125,1.1820544004440308,-10.944770812988281,2.091326951980591
1773075341831458600,7.74345849609375,-0.5072783827781677,-11.002198219299316,3.077169895172119
1773075341850221600,7.7622216796875,-0.7417750358581543,-10.394421577453613,2.359323024749756
1773075341868984300,7.780984375,-1.1772687435150146,-9.930213928222656,1.0767701864242554
1773075341887747000,7.7997470703125,-0.8039883971214294,-9.619147300720215,-0.11485548317432404
1773075341906509800,7.818509765625,0.17706887423992157,-9.308079719543457,-0.5886343717575073
1773075341925272600,7.8372724609375,0.38763725757598877,-9.250652313232422,-0.7369893789291382
1773075341944035600,7.85603564453125,0.5599204897880554,-9.245866775512695,-0.5120640397071838
1773075341962798300,7.87479833984375,0.5024927258491516,-9.513862609863281,-0.22492532432079315
1773075341981561000,7.89356103515625,0.2679961323738098,-9.734002113342285,0.10049854964017868
1773075342000323800,7.91232373046875,0.03349951654672623,-9.556933403015137,0.40677985548973083
1773075342019086600,7.931086669921875,0.23449662327766418,-9.619147300720215,0.33020952343940735
1773075342037849300,7.949849365234375,0.46420758962631226,-9.863214492797852,0.24885354936122894
1773075342056612400,7.9686123046875,0.4019941985607147,-9.781859397888184,0.33499518036842346
1773075342075375000,7.987375,0.363709032535553,-9.67657470703125,0.37806597352027893
1773075342094137900,8.006137939453126,0.23449662327766418,-9.810572624206543,0.33020952343940735
1773075342112900600,8.024900634765626,-0.014356935396790504,-10.102497100830078,0.1579262912273407
1773075342131663400,8.043663330078125,-0.22971096634864807,-10.179067611694336,0.13878370821475983
1773075342150426000,8.062426025390625,-0.41156548261642456,-10.140782356262207,0.0526420995593071
1773075342169188900,8.08118896484375,-0.37806597352027893,-10.279565811157227,-0.009571290574967861
1773075342187951600,8.09995166015625,-0.24406790733337402,-10.327422142028809,0.22971096634864807
1773075342206714600,8.118714599609374,-0.13878370821475983,-10.250852584838867,0.45942193269729614
1773075342225477400,8.137477294921876,-0.397208571434021,-10.365707397460938,0.7178468108177185
1773075342244240100,8.156240234375,-0.44027936458587646,-10.475777626037598,0.8135597109794617
1773075342263003000,8.1750029296875,-0.1866401731967926,-10.906485557556152,1.124626636505127
1773075342281765600,8.193765625,0.07178468257188797,-11.629117965698242,1.8233308792114258
1773075342300528400,8.2125283203125,0.1866401731967926,-11.825329780578613,2.297109842300415
1773075342319291100,8.231291015625,-0.11485548317432404,-12.380464553833008,2.3736801147460938
1773075342338054100,8.25005419921875,-0.7896314859390259,-12.198610305786133,1.5792629718780518
1773075342356817000,8.26881689453125,-1.4931213855743408,-11.466405868530273,0.9954141974449158
1773075342375579600,8.28757958984375,-1.6510475873947144,-10.925628662109375,0.6843472719192505
1773075342394342400,8.30634228515625,-1.94297194480896,-10.341779708862305,0.2632105052471161
1773075342413105200,8.325105224609375,-2.0482561588287354,-10.021141052246094,-0.08614161610603333
1773075342431868000,8.343867919921875,-2.0865414142608643,-9.781859397888184,-0.45942193269729614
1773075342450630700,8.362630615234375,-1.4979069232940674,-9.068798065185547,-0.914058268070221
1773075342469393400,8.381393310546875,-0.760917603969574,-9.408578872680664,-0.7226324677467346
1773075342488156200,8.40015625,0.9284151792526245,-12.102896690368652,-0.5455635786056519
1773075342506919200,8.418919189453124,3.153740167617798,-14.127224922180176,-0.1866401731967926
1773075342525682000,8.437681884765626,2.651247501373291,-12.830314636230469,1.828116536140442
1773075342544444700,8.456444580078125,0.5599204897880554,-10.825129508972168,2.321038007736206
1773075342563207400,8.47520751953125,-0.7369893789291382,-10.226923942565918,2.4981069564819336
1773075342581970200,8.49397021484375,-0.7561319470405579,-9.767501831054688,1.8759729862213135
1773075342600733000,8.51273291015625,-0.5359922647476196,-9.308079719543457,1.674975872039795
1773075342619495700,8.53149560546875,-0.13878370821475983,-8.772088050842285,0.9475577473640442
1773075342638258400,8.550258544921874,0.3445664644241333,-8.422736167907715,0.5790630578994751
1773075342657021200,8.569021240234376,0.7896314859390259,-8.030312538146973,0.7465606927871704
1773075342675784000,8.587783935546875,0.7992027401924133,-7.585247993469238,0.9906286001205444
1773075342694546700,8.606546630859375,0.2584248483181,-7.6474609375,0.9236295223236084
1773075342713309400,8.625309326171875,-0.06699903309345245,-8.039883613586426,0.9858429431915283
1773075342732072200,8.644072265625,-0.28235307335853577,-8.63330364227295,0.5694918036460876
1773075342750835000,8.6628349609375,-0.2727817893028259,-8.96829891204834,0.2392822653055191
1773075342769598000,8.681597900390624,-0.2392822653055191,-9.480362892150879,0.7226324677467346
1773075342788360700,8.700360595703126,-0.35413774847984314,-10.265209197998047,0.9619147181510925
1773075342807123500,8.71912353515625,-1.0432707071304321,-11.251051902770996,1.210768222808838
1773075342825886200,8.73788623046875,-2.234896421432495,-11.863615036010742,0.4737788736820221
1773075342844649000,8.75664892578125,-3.5844483375549316,-11.672188758850098,-0.5599204897880554
1773075342863411700,8.77541162109375,-4.106083869934082,-10.269994735717773,-0.35892340540885925
1773075342882174500,8.794174560546875,-2.9288148880004883,-9.293723106384277,0.2727817893028259
1773075342900937200,8.812937255859374,-1.0193424224853516,-8.8438720703125,0.7992027401924133
1773075342919700000,8.831699951171874,0.38763725757598877,-8.671588897705078,0.9619147181510925
1773075342938462700,8.850462646484376,0.5216353535652161,-9.131011009216309,0.9427721500396729
1773075342957225500,8.8692255859375,-0.20099709928035736,-10.001998901367188,0.550349235534668
1773075342975988200,8.88798828125,-1.1629117727279663,-11.12183952331543,0.25363919138908386
1773075342994751000,8.9067509765625,-1.7802600860595703,-12.031112670898438,0.12442677468061447
1773075343013513700,8.925513671875,-1.5601203441619873,-12.208181381225586,0.6652047038078308
1773075343032276500,8.9442763671875,-0.7513462901115417,-10.365707397460938,0.33499518036842346
1773075343051039200,8.963039306640624,-0.28235307335853577,-9.006584167480469,-1.0480563640594482
1773075343069802000,8.981802001953126,-0.7513462901115417,-8.49452018737793,-2.5124638080596924
1773075343088564700,9.000564697265625,-0.5790630578994751,-8.279166221618652,-2.8809585571289062
1773075343107327500,9.019327392578125,-0.08614161610603333,-8.322237014770508,-1.4787644147872925
1773075343126090200,9.03809033203125,-0.20578274130821228,-9.384650230407715,0.1579262912273407
1773075343144853000,9.05685302734375,-0.6939185857772827,-10.753344535827637,1.7850457429885864
1773075343163615700,9.07561572265625,0.19621145725250244,-10.667202949523926,2.3880369663238525
1773075343182378500,9.09437841796875,-0.11485548317432404,-10.183853149414062,2.1200408935546875
1773075343201141200,9.113141357421876,-1.0001999139785767,-9.7005033493042,1.7276179790496826
1773075343219904000,9.131904052734376,-1.1581261157989502,-9.695717811584473,1.1341979503631592
1773075343238666800,9.150666748046875,-0.48813581466674805,-9.69093132019043,0.9954141974449158
1773075343257429500,9.169429443359375,0.11964113265275955,-9.805787086486816,1.1629117727279663
1773075343276192300,9.188192138671875,0.27756741642951965,-9.91107177734375,1.1437692642211914
1773075343294955000,9.206955078125,0.11006984114646912,-10.030712127685547,0.9188438653945923
1773075343313717800,9.2257177734375,0.08614161610603333,-10.131211280822754,0.6029912829399109
1773075343332480500,9.24448046875,0.2153540402650833,-10.116853713989258,0.4307080805301666
1773075343351243300,9.2632431640625,0.38285163044929504,-10.054640769958496,0.11006984114646912
1773075343370006000,9.282006103515625,0.7034898400306702,-10.01156997680664,0.12921242415905
1773075343388768800,9.300768798828125,0.9092726111412048,-10.040284156799316,0.16749759018421173
1773075343407531500,9.319531494140625,0.4019941985607147,-9.90149974822998,0.19142581522464752
1773075343426294300,9.338294189453125,0.17706887423992157,-9.738788604736328,0.30628129839897156
1773075343445057000,9.35705712890625,0.10049854964017868,-9.729216575622559,0.6221339106559753
1773075343463819800,9.37581982421875,0.14835500717163086,-9.772287368774414,0.7082754969596863
1773075343482582500,9.39458251953125,0.23449662327766418,-9.90149974822998,0.641276478767395
1773075343501345000,9.413344970703125,0.4977070987224579,-9.920642852783203,0.48813581466674805
1773075343520107800,9.432107666015625,0.6221339106559753,-9.839286804199219,0.24406790733337402
1773075343538870500,9.45087060546875,0.7034898400306702,-9.623932838439941,0.07178468257188797
1773075343557633300,9.46963330078125,0.8997012972831726,-9.834501266479492,-0.11485548317432404
1773075343576396000,9.48839599609375,0.8901300430297852,-10.059426307678223,-0.11006984114646912
1773075343595158800,9.50715869140625,1.0001999139785767,-10.188638687133789,-0.37806597352027893
1773075343613921500,9.525921630859376,0.5982056856155396,-10.322636604309082,-0.5647061467170715
1773075343632684300,9.544684326171875,0.07178468257188797,-10.26042366027832,-0.7848458290100098
1773075343651447000,9.563447021484375,-0.31106695532798767,-10.62413215637207,-0.41156548261642456
1773075343670209800,9.582209716796875,-0.11006984114646912,-11.011770248413086,0.2392822653055191
1773075343688972500,9.60097265625,0.038285162299871445,-11.164910316467285,0.9810572862625122
1773075343707735300,9.6197353515625,0.05742774158716202,-10.992627143859863,1.129412293434143
1773075343726498000,9.638498046875,-0.46420758962631226,-10.64806079864502,1.3112667798995972
1773075343745260800,9.6572607421875,-0.9906286001205444,-11.140982627868652,1.3256237506866455
1773075343764023300,9.676023193359375,-1.3591232299804688,-11.150553703308105,1.196411371231079
1773075343782786000,9.6947861328125,-1.28255295753479,-11.150553703308105,1.3782658576965332
1773075343801548800,9.713548828125,-1.191625714302063,-11.217552185058594,1.4261223077774048
1773075343820311600,9.7323115234375,-1.0911271572113037,-10.85862922668457,1.0863415002822876
1773075343839074300,9.75107421875,-1.0815558433532715,-10.107282638549805,0.5934200286865234
1773075343857837000,9.769837158203124,-0.9044869542121887,-9.298508644104004,0.43549370765686035
1773075343876599800,9.788599853515626,-0.607776939868927,-8.46580696105957,0.2871387302875519
1773075343895362600,9.807362548828126,-0.48813581466674805,-9.025727272033691,0.24885354936122894
1773075343914125300,9.826125244140625,0.014356935396790504,-11.882757186889648,0.2919243574142456
1773075343932887800,9.8448876953125,1.4452649354934692,-13.88794231414795,-0.7896314859390259
1773075343951650600,9.863650634765625,1.3878371715545654,-12.275179862976074,-0.24885354936122894
1773075343970413300,9.882413330078125,0.6699903607368469,-11.102697372436523,0.6699903607368469
1773075343989176000,9.901176025390624,0.20578274130821228,-10.782058715820312,0.9188438653945923
1773075344007938800,9.919938720703126,-0.1818545162677765,-10.284351348876953,0.9379864931106567
1773075344026701600,9.93870166015625,-0.14835500717163086,-9.829715728759766,1.0049854516983032
1773075344054845700,9.966845703125,-0.17706887423992157,-9.446864128112793,0.5120640397071838
1773075344073608400,9.9856083984375,0.02871387079358101,-9.298508644104004,-0.11485548317432404
1773075344092371000,10.004370849609375,-0.03349951654672623,-9.221938133239746,-0.6317051649093628
1773075344111133700,10.0231337890625,-0.1818545162677765,-8.776873588562012,-0.6221339106559753
1773075344129896400,10.041896484375,-0.6652047038078308,-8.432307243347168,-0.6317051649093628
1773075344148659200,10.0606591796875,-0.9379864931106567,-8.48016357421875,-0.6173482537269592
1773075344167422000,10.079421875,-1.1868400573730469,-8.25523853302002,-0.4450650215148926
1773075344186184700,10.098184814453125,-1.0815558433532715,-8.327022552490234,-0.6364908218383789
1773075344204947500,10.116947509765625,-0.9332008361816406,-8.13081169128418,-0.7704889178276062
1773075344223710000,10.1357099609375,-0.9332008361816406,-7.982456207275391,-1.0336993932724
1773075344242472700,10.15447265625,-1.4787644147872925,-7.891529083251953,-1.1389836072921753
1773075344261235500,10.1732353515625,-2.431107759475708,-7.977670669555664,-1.0145567655563354
1773075344279998200,10.191998291015626,-3.5030922889709473,-8.556734085083008,-0.7082754969596863
1773075344298761000,10.210760986328125,-4.9292144775390625,-9.30329418182373,-0.06699903309345245
1773075344317523700,10.229523681640625,-5.642275810241699,-10.284351348876953,0.97148597240448
1773075344336286200,10.2482861328125,-5.536991596221924,-10.916056632995605,2.0961127281188965
1773075344355049000,10.267049072265625,-5.115854740142822,-10.829915046691895,2.5076780319213867
1773075344373811700,10.285811767578124,-4.335794448852539,-9.734002113342285,2.1535403728485107
1773075344392574500,10.304574462890624,-3.3786656856536865,-8.896514892578125,1.0959128141403198
1773075344411337200,10.323337158203126,-3.3882367610931396,-9.968499183654785,0.35413774847984314
1773075344430100000,10.342099853515625,-4.101297855377197,-12.380464553833008,1.277767300605774
1773075344448862500,10.360862548828125,-3.6610186100006104,-15.797414779663086,1.1724830865859985
1773075344467625200,10.379625244140625,-3.1202406883239746,-16.31426429748535,4.110869407653809
1773075344486388000,10.398387939453125,-0.5312066078186035,-9.982855796813965,1.6701902151107788
1773075344505150700,10.417150634765624,1.588834285736084,-4.2831525802612305,-3.3164522647857666
1773075344523913500,10.43591357421875,-0.27756741642951965,-3.4265220165252686,-6.551548480987549
1773075344542676000,10.454676025390626,0.38285163044929504,-4.685146808624268,-8.011170387268066
1773075344561438700,10.473438720703125,0.9762716293334961,-5.685346603393555,-4.627718925476074
1773075344580201500,10.492201416015625,1.2299108505249023,-10.447063446044922,-0.02871387079358101
1773075344598964200,10.510964111328125,0.9667003750801086,-15.256637573242188,4.053441524505615
1773075344617727000,10.52972705078125,0.04307080805301666,-14.34736442565918,7.231110095977783
1773075344636489500,10.548489501953124,-1.1102696657180786,-9.509077072143555,4.493721008300781
1773075344655252200,10.567252197265624,-1.0528420209884644,-8.523234367370605,1.3208380937576294
1773075344674015000,10.586014892578126,-0.6269195079803467,-9.159725189208984,-0.1339980661869049
1773075344692777700,10.60477783203125,0.5790630578994751,-9.384650230407715,-1.062413215637207
1773075344711540500,10.62354052734375,1.1772687435150146,-9.28893756866455,-1.4165509939193726
1773075344730303000,10.642302978515625,1.0193424224853516,-9.55214786529541,-1.1150553226470947
1773075344749065700,10.661065673828125,0.7465606927871704,-9.982855796813965,-0.6269195079803467
1773075344767828500,10.679828369140624,0.5599204897880554,-10.293923377990723,-0.30628129839897156
1773075344786591200,10.69859130859375,0.33499518036842346,-9.896714210510254,-0.5886343717575073
1773075344805354000,10.71735400390625,0.3397808074951172,-9.7005033493042,-0.5886343717575073
1773075344824116500,10.736116455078125,0.7561319470405579,-9.633503913879395,-0.38285163044929504
1773075344842879200,10.754879150390625,1.1150553226470947,-9.69093132019043,0.1052841991186142
1773075344861642000,10.77364208984375,0.9284151792526245,-9.56650447845459,0.46899324655532837
1773075344880404500,10.792404541015625,0.5838487148284912,-9.556933403015137,0.5742774605751038
1773075344899167200,10.811167236328124,0.2392822653055191,-9.609575271606445,0.2967100143432617
1773075344917930000,10.829929931640624,0.2919243574142456,-9.791430473327637,0.16749759018421173
1773075344936692700,10.848692626953126,0.2105683982372284,-10.073782920837402,0.04307080805301666
1773075344955455500,10.86745556640625,0.1052841991186142,-10.164710998535156,-0.07178468257188797
1773075344974218000,10.886218017578125,0.09092725813388824,-10.351350784301758,0.10049854964017868
1773075344992980700,10.904980712890625,0.24406790733337402,-10.38485050201416,0.38763725757598877
1773075345011743500,10.923743408203125,0.07178468257188797,-10.389636039733887,0.5982056856155396
1773075345030506200,10.94250634765625,-0.06699903309345245,-10.2747802734375,0.5886343717575073
1773075345049268700,10.961268798828126,-0.2632105052471161,-10.394421577453613,0.5455635786056519
1773075345068031500,10.980031494140626,-0.0526420995593071,-10.336994171142578,0.5455635786056519
1773075345086794200,10.998794189453125,-0.09092725813388824,-11.088339805603027,0.5982056856155396
1773075345105557000,11.017556884765625,0.004785645287483931,-12.55274772644043,1.1772687435150146
1773075345124319500,11.036319580078125,0.363709032535553,-12.619746208190918,1.6319050788879395
1773075345143082200,11.055082275390625,0.04307080805301666,-12.77767276763916,2.187039852142334
1773075345161845000,11.073844970703124,-0.48813581466674805,-12.67717456817627,1.4069796800613403
1773075345180607700,11.092607666015626,-1.397408366203308,-12.117254257202148,0.397208571434021
1773075345199370200,11.111370361328126,-1.7276179790496826,-10.85862922668457,-0.5742774605751038
1773075345218133000,11.130133056640625,-1.435693621635437,-9.90149974822998,-0.7226324677467346
1773075345236895700,11.148895751953125,-1.3543375730514526,-9.131011009216309,-1.2394821643829346
1773075345255658500,11.167658447265625,-1.550549030303955,-8.733802795410156,-1.6271194219589233
1773075345274421000,11.1864208984375,-1.1437692642211914,-9.53779125213623,-1.3304094076156616
1773075345293183700,11.205183837890624,0.7704889178276062,-11.921042442321777,-1.7180466651916504
1773075345311946500,11.223946533203126,2.6081767082214355,-13.323236465454102,-1.832902193069458
1773075345330709200,11.242709228515626,1.6175481081008911,-12.337393760681152,-0.2153540402650833
1773075345349471700,11.2614716796875,-0.3397808074951172,-10.308279991149902,0.7465606927871704
1773075345368234500,11.280234375,-1.4165509939193726,-9.657432556152344,0.16271193325519562
1773075345386997200,11.298997314453125,-1.196411371231079,-9.279366493225098,-0.1339980661869049
1773075345405759700,11.317759765625,-1.5026925802230835,-8.973084449768066,0.2153540402650833
1773075345424522500,11.3365224609375,-1.124626636505127,-8.8438720703125,0.3397808074951172
1773075345443285200,11.35528515625,-0.6556333899497986,-8.46580696105957,0.04785645380616188
1773075345462048000,11.374048095703126,-0.5407779216766357,-7.910671710968018,0.16271193325519562
1773075345480810500,11.392810546875,-0.7704889178276062,-7.278966426849365,0.1579262912273407
1773075345499573200,11.4115732421875,-1.2203395366668701,-7.001399040222168,0.397208571434021
1773075345518336000,11.4303359375,-1.4261223077774048,-6.805187702178955,0.23449662327766418
1773075345537098500,11.449098388671874,-1.4261223077774048,-6.833901405334473,-0.019142581149935722
1773075345555861200,11.467861328125,-1.4739787578582764,-6.781259536743164,-0.2919243574142456
1773075345574624000,11.4866240234375,-1.9621145725250244,-6.896114826202393,-0.35892340540885925
1773075345593386800,11.50538671875,-2.737389087677002,-7.427321434020996,-0.20099709928035736
1773075345612149200,11.524149169921875,-3.6131622791290283,-8.571090698242188,0.5264210104942322
1773075345630912000,11.542912109375,-4.900500774383545,-9.963713645935059,1.5984054803848267
1773075345649674800,11.5616748046875,-5.742774486541748,-11.552547454833984,1.7180466651916504
1773075345668437500,11.5804375,-6.733402729034424,-12.624532699584961,1.2538390159606934
1773075345687200000,11.599199951171874,-7.039684295654297,-12.145967483520508,1.0432707071304321
1773075345705962800,11.617962646484376,-5.838487148284912,-10.437492370605469,1.0289137363433838
1773075345724725500,11.6367255859375,-4.082155227661133,-8.738588333129883,-0.16749759018421173
1773075345743488300,11.65548828125,-2.421536445617676,-7.4464640617370605,-0.5742774605751038
1773075345762250800,11.674250732421875,-2.2396819591522217,-10.016355514526367,-1.5314065217971802
1773075345781013500,11.693013427734375,-2.1056840419769287,-14.270793914794922,1.2251251935958862
1773075345799776300,11.7117763671875,-1.191625714302063,-14.854642868041992,2.871387243270874
1773075345818538800,11.730538818359374,-1.4883357286453247,-12.260823249816895,0.49292147159576416
1773075345837301500,11.749301513671876,-2.5076780319213867,-9.623932838439941,-2.0673987865448
1773075345856064300,11.768064208984375,0.5838487148284912,-5.881557941436768,-4.240081787109375
1773075345874827000,11.786826904296875,0.6460621356964111,-5.8097734451293945,-6.020341873168945
1773075345893589500,11.805589599609375,1.703689694404602,-6.613761901855469,-3.689732551574707
1773075345912352300,11.824352294921875,2.4119651317596436,-8.614161491394043,-1.1198409795761108
1773075345931115000,11.843114990234374,1.674975872039795,-11.49512004852295,1.5601203441619873
1773075345949877800,11.861877685546874,0.3924229145050049,-12.63888931274414,3.1680972576141357
1773075345968640300,11.88064013671875,-0.2679961323738098,-10.882556915283203,3.8428730964660645
1773075345987403000,11.899403076171875,-0.6364908218383789,-9.681360244750977,2.062613010406494
1773075346006165800,11.918165771484375,-0.9475577473640442,-9.470791816711426,-0.19621145725250244
1773075346024928500,11.936928466796875,-0.27756741642951965,-9.351150512695312,-1.1820544004440308
1773075346043691000,11.95569091796875,0.8470591902732849,-9.212367057800293,-1.6654045581817627
1773075346062453800,11.974453857421874,1.1581261157989502,-9.245866775512695,-1.277767300605774
1773075346081216500,11.993216552734374,1.0671988725662231,-9.738788604736328,-0.6652047038078308
1773075346099979000,12.01197900390625,0.7082754969596863,-10.102497100830078,0.04307080805301666
1773075346118741800,12.03074169921875,0.5599204897880554,-9.868000984191895,0.1339980661869049
1773075346137504500,12.04950439453125,0.5790630578994751,-9.542576789855957,0.12442677468061447
1773075346156267300,12.068267333984375,0.8757730722427368,-9.647860527038574,0.4833501875400543
1773075346175030000,12.087030029296875,0.9954141974449158,-9.877572059631348,0.5359922647476196
1773075346193792500,12.10579248046875,0.7178468108177185,-9.657432556152344,0.7417750358581543
1773075346212555300,12.12455517578125,0.5407779216766357,-9.56650447845459,0.7130611538887024
1773075346231318000,12.143318115234376,0.17228323221206665,-9.80100154876709,0.43549370765686035
1773075346250080800,12.162080810546875,-0.09571290761232376,-10.202995300292969,0.43549370765686035
1773075346268843300,12.18084326171875,0.04307080805301666,-10.2747802734375,0.5072783827781677
1773075346287606000,12.19960595703125,0.1052841991186142,-10.021141052246094,0.6795616149902344
1773075346306368800,12.21836865234375,0.2584248483181,-10.03549861907959,0.97148597240448
1773075346325131500,12.237131591796874,0.5216353535652161,-10.226923942565918,1.3639088869094849
1773075346343894000,12.25589404296875,0.40677985548973083,-10.590633392333984,1.5122638940811157
1773075346362656800,12.27465673828125,0.16749759018421173,-10.87298583984375,1.191625714302063
1773075346381419500,12.29341943359375,0.2679961323738098,-10.60977554321289,-0.038285162299871445
1773075346400182300,12.312182373046875,0.4019941985607147,-10.279565811157227,-0.8757730722427368
1773075346418945000,12.330945068359375,0.5599204897880554,-10.193424224853516,-0.9810572862625122
1773075346437707500,12.34970751953125,0.062213387340307236,-10.269994735717773,-0.16271193325519562
1773075346456470300,12.36847021484375,-0.17706887423992157,-10.322636604309082,0.5407779216766357
1773075346475233000,12.38723291015625,-0.5264210104942322,-10.308279991149902,1.0289137363433838
1773075346493995800,12.405995849609376,-0.363709032535553,-10.743773460388184,1.6510475873947144
1773075346512758300,12.42475830078125,-0.3397808074951172,-11.935399055480957,2.0195422172546387
1773075346531521000,12.44352099609375,0.02871387079358101,-11.466405868530273,2.00518536567688
1773075346550283800,12.46228369140625,-0.6317051649093628,-11.739188194274902,1.8089739084243774
1773075346569046500,12.481046630859375,-1.1341979503631592,-13.00259780883789,0.9475577473640442
1773075346587809300,12.499809326171874,-0.885344386100769,-12.294322967529297,-0.04785645380616188
1773075346606571800,12.51857177734375,-1.0049854516983032,-10.590633392333984,-0.8231309652328491
1773075346625334500,12.53733447265625,-1.1054840087890625,-9.394221305847168,-1.612762451171875
1773075346644097300,12.55609716796875,-1.1629117727279663,-9.154939651489258,-2.1678972244262695
1773075346662860000,12.574860107421875,-0.9523434042930603,-10.585846900939941,-2.7421748638153076
1773075346681622800,12.593622802734375,1.4787644147872925,-12.026326179504395,-3.397808074951172
1773075346700385500,12.612385498046875,2.833101987838745,-12.591032981872559,-2.933600664138794
1773075346719148000,12.63114794921875,1.6079767942428589,-10.877771377563477,-0.8327022790908813
1773075346737910800,12.649910888671876,-0.5264210104942322,-9.753145217895508,0.5790630578994751
1773075346756673500,12.668673583984376,-1.4117653369903564,-9.32722282409668,0.363709032535553
1773075346775436300,12.687436279296875,-1.2681959867477417,-8.910871505737305,0.38285163044929504
1773075346794199000,12.706198974609375,-1.368694543838501,-8.614161491394043,0.6747759580612183
1773075346812961500,12.72496142578125,-1.0528420209884644,-8.384450912475586,0.8422735929489136
1773075346831724300,12.743724365234375,-0.3684946894645691,-7.738388538360596,0.5455635786056519
1773075346850487000,12.762487060546874,0.004785645287483931,-7.331608772277832,0.5264210104942322
1773075346869249800,12.781249755859376,-0.22013968229293823,-6.939185619354248,0.5407779216766357
1773075346888012500,12.800012451171876,-0.8566305041313171,-6.98704195022583,0.38763725757598877
1773075346906775300,12.818775390625,-1.34476637840271,-7.369893550872803,0.062213387340307236
1773075346925537800,12.837537841796875,-1.588834285736084,-7.546962738037109,-0.4785645306110382
1773075346944300500,12.856300537109375,-1.8807586431503296,-7.5565338134765625,-0.5072783827781677
1773075346963063300,12.875063232421875,-2.2683959007263184,-7.6666035652160645,-0.5838487148284912
1773075346981826000,12.893825927734374,-2.6847469806671143,-7.977670669555664,-0.40677985548973083
1773075347000588800,12.9125888671875,-3.5461630821228027,-8.82951545715332,0.3158525824546814
1773075347019351300,12.931351318359376,-4.254438877105713,-9.954142570495605,1.301695466041565
1773075347038114000,12.950114013671875,-4.800002098083496,-11.298908233642578,1.3591232299804688
1773075347056876800,12.968876708984375,-5.881557941436768,-11.921042442321777,1.0959128141403198
1773075347075639600,12.9876396484375,-6.723831653594971,-11.557332992553711,0.8709874153137207
1773075347094402300,13.00640234375,-6.809973239898682,-10.614561080932617,1.1485549211502075
1773075347113165000,13.0251650390625,-5.690132141113281,-9.619147300720215,0.3397808074951172
1773075347131927600,13.043927490234376,-4.369294166564941,-8.685946464538574,-0.009571290574967861
1773075347150690300,13.062690185546876,-2.761317253112793,-8.714659690856934,-0.7226324677467346
1773075347169453000,13.081453125,-1.8711873292922974,-13.189238548278809,-0.4785645306110382
1773075347188215800,13.1002158203125,-0.698704183101654,-15.548561096191406,0.4833501875400543
1773075347206978600,13.118978515625,-1.9142581224441528,-15.165709495544434,1.679761528968811
1773075347225741300,13.1377412109375,-1.4021940231323242,-10.461421012878418,2.3880369663238525
1773075347244503800,13.15650390625,0.15314064919948578,-5.106283664703369,-1.674975872039795
1773075347263266600,13.1752666015625,0.41156548261642456,-4.106083869934082,-4.153940200805664
1773075347282029300,13.194029296875,-0.7130611538887024,-6.0538411140441895,-5.771488189697266
1773075347300792000,13.2127919921875,2.5459632873535156,-7.384250640869141,-4.316651821136475
1773075347319554800,13.231554931640625,1.4931213855743408,-10.365707397460938,-0.6364908218383789
1773075347338317600,13.250317626953125,-0.02871387079358101,-13.48594856262207,2.7326035499572754
1773075347357080300,13.269080322265625,-0.8374879360198975,-12.07896900177002,3.814159393310547
1773075347375842800,13.2878427734375,-0.14356936514377594,-9.480362892150879,3.6083765029907227
1773075347394605600,13.30660546875,-0.3684946894645691,-8.987442016601562,1.856830358505249
1773075347413368600,13.32536865234375,-0.10049854964017868,-9.293723106384277,0.5838487148284912
1773075347432131000,13.344131103515625,0.3445664644241333,-9.384650230407715,-0.4498506486415863
1773075347450893800,13.362893798828125,0.550349235534668,-9.42772102355957,-1.062413215637207
1773075347469656600,13.381656494140625,0.5264210104942322,-9.848857879638672,-1.0815558433532715
1773075347488419300,13.40041943359375,0.4211367964744568,-10.169496536254883,-0.9619147181510925
1773075347507182000,13.41918212890625,0.25363919138908386,-9.896714210510254,-0.7034898400306702
1773075347525944800,13.43794482421875,0.17706887423992157,-9.66221809387207,-0.28235307335853577
1773075347544707600,13.45670751953125,0.6747759580612183,-9.480362892150879,0.24406790733337402
1773075347563470000,13.475469970703125,1.1198409795761108,-9.485149383544922,0.19621145725250244
1773075347582232800,13.49423291015625,1.0145567655563354,-9.643074989318848,0.35892340540885925
1773075347600995600,13.51299560546875,1.057627558708191,-9.714859962463379,0.7034898400306702
1773075347619758300,13.53175830078125,0.3732803463935852,-9.767501831054688,0.8614161610603333
1773075347638521000,13.55052099609375,0.06699903309345245,-9.820143699645996,0.794417142868042
1773075347657283800,13.569283935546874,0.014356935396790504,-9.796216011047363,0.3924229145050049
1773075347676046600,13.588046630859376,0.11485548317432404,-9.882357597351074,0.1579262912273407
1773075347694809300,13.606809326171875,0.4450650215148926,-10.13599681854248,0.22013968229293823
1773075347713571800,13.62557177734375,0.7226324677467346,-10.083354949951172,0.4163511395454407
1773075347732334600,13.64433447265625,0.8039883971214294,-10.097711563110352,0.7322037220001221
1773075347751097300,13.663097412109375,0.7082754969596863,-10.126425743103027,0.885344386100769
1773075347769860000,13.681860107421874,0.5168496966362,-10.255638122558594,1.0528420209884644
1773075347788622800,13.700622802734374,0.25363919138908386,-10.547562599182129,0.97148597240448
1773075347807385600,13.719385498046876,0.2871387302875519,-10.360921859741211,0.9810572862625122
1773075347826148400,13.7381484375,0.09571290761232376,-10.49970531463623,0.8231309652328491
1773075347844911000,13.7569111328125,-0.1339980661869049,-11.184053421020508,0.8183453679084778
1773075347863673600,13.775673583984375,-0.05742774158716202,-12.117254257202148,0.8183453679084778
1773075347882436400,13.794436279296875,0.1579262912273407,-12.409177780151367,0.8997012972831726
1773075347901199000,13.81319921875,-0.09571290761232376,-12.361321449279785,1.0767701864242554
1773075347919961900,13.8319619140625,-0.2153540402650833,-12.399606704711914,0.7322037220001221
1773075347938724600,13.850724609375,-0.9571290612220764,-11.95454216003418,0.14356936514377594
1773075347957487400,13.8694873046875,-1.4883357286453247,-11.404192924499512,-0.641276478767395
1773075347976250000,13.88825,-1.373480200767517,-10.877771377563477,-0.9906286001205444
1773075347995012900,13.907012939453125,-1.129412293434143,-10.222138404846191,-1.2634103298187256
1773075348013775600,13.925775634765625,-1.124626636505127,-9.480362892150879,-1.430907964706421
1773075348032538400,13.944538330078124,-1.1054840087890625,-8.958727836608887,-1.765903115272522
1773075348051301000,13.963301025390624,-0.6364908218383789,-9.355937004089355,-2.1296122074127197
1773075348070063600,13.982063720703126,0.6508477330207825,-11.365907669067383,-2.785245656967163
1773075348088826400,14.000826416015625,2.7038896083831787,-12.940384864807129,-3.7950167655944824
1773075348107589000,14.019589111328125,1.765903115272522,-11.825329780578613,-1.94297194480896
1773075348126352000,14.038351806640625,0.30628129839897156,-10.059426307678223,-0.8183453679084778
1773075348145114600,14.057114501953125,-0.9571290612220764,-9.379864692687988,-0.2153540402650833
1773075348163877400,14.07587744140625,-1.3160524368286133,-9.116654396057129,0.19621145725250244
1773075348182640000,14.09464013671875,-1.5936198234558105,-8.944371223449707,0.6173482537269592
1773075348201403000,14.11340283203125,-1.4644074440002441,-8.800801277160645,0.31106695532798767
1773075348220165600,14.13216552734375,-1.0719845294952393,-8.236095428466797,-0.08135596662759781
1773075348238928100,14.15092822265625,-0.6173482537269592,-7.355536937713623,-0.22013968229293823
1773075348257691000,14.16969091796875,-0.5455635786056519,-6.704689025878906,0
1773075348276453600,14.18845361328125,-0.6221339106559753,-6.4941205978393555,0.23449662327766418
1773075348295216400,14.20721630859375,-0.8374879360198975,-6.656832695007324,0.02392822690308094
1773075348313979100,14.225979248046874,-1.306481122970581,-6.915257453918457,-0.3445664644241333
1773075348332742000,14.244741943359376,-2.029113531112671,-7.336394309997559,-0.5072783827781677
1773075348351504600,14.263504638671876,-2.809173822402954,-8.087740898132324,-0.45942193269729614
1773075348370267400,14.282267333984375,-3.321237802505493,-8.906085968017578,-0.04785645380616188
1773075348389030100,14.301030029296875,-4.015156269073486,-9.69093132019043,0.9523434042930603
1773075348407793000,14.31979296875,-4.962714195251465,-10.2747802734375,1.6031911373138428
1773075348426555600,14.3385556640625,-6.546762943267822,-10.954341888427734,1.526620864868164
1773075348445318100,14.357318115234374,-7.5804619789123535,-11.796615600585938,1.2538390159606934
1773075348464081000,14.376080810546876,-6.733402729034424,-10.973484992980957,1.3304094076156616
1773075348482843600,14.39484375,-5.742774486541748,-9.872786521911621,1.2490534782409668
1773075348501606400,14.4136064453125,-4.1970109939575195,-9.509077072143555,0.20099709928035736
1773075348520369200,14.432369140625,-3.3403804302215576,-9.164510726928711,-0.3158525824546814
1773075348539132000,14.4511318359375,-3.1920254230499268,-9.05444049835205,-0.7848458290100098
1773075348557894700,14.469894775390625,-3.6131622791290283,-11.006983757019043,-1.856830358505249
1773075348576657400,14.488657470703124,-3.335594654083252,-12.993026733398438,-0.5264210104942322
1773075348595420200,14.507420166015624,-2.589034080505371,-11.533405303955078,-0.1866401731967926
1773075348614183000,14.526182861328126,-1.8233308792114258,-10.231709480285645,0.44027936458587646
1773075348632945400,14.5449453125,-0.8997012972831726,-8.585447311401367,0.1866401731967926
1773075348651708400,14.56370849609375,-0.5168496966362,-6.795616149902344,-2.4023938179016113
1773075348670471000,14.582470947265625,-0.6795616149902344,-6.8482584953308105,-4.096512317657471
1773075348689233700,14.601233642578125,0.4546363055706024,-8.250452041625977,-4.1491546630859375
1773075348707996400,14.619996337890624,1.1102696657180786,-9.738788604736328,-2.0865414142608643
1773075348726759200,14.63875927734375,0.7513462901115417,-11.140982627868652,0.5742774605751038
1773075348745522000,14.65752197265625,0,-11.34676456451416,1.1629117727279663
1773075348764284700,14.67628466796875,0.2105683982372284,-10.236495018005371,0.9427721500396729
1773075348783047400,14.69504736328125,-0.038285162299871445,-9.585647583007812,1.2729816436767578
1773075348801810200,14.71381005859375,0.0526420995593071,-9.743574142456055,0.760917603969574
1773075348820573000,14.732572998046875,0.13878370821475983,-9.896714210510254,0.038285162299871445
1773075348839335400,14.75133544921875,-0.05742774158716202,-9.494720458984375,-0.6699903607368469
1773075348858098400,14.770098388671874,0.44027936458587646,-9.55214786529541,-1.0671988725662231
1773075348876861000,14.78886083984375,0.7848458290100098,-10.092926025390625,-0.3924229145050049
1773075348895623700,14.807623779296875,0.6843472719192505,-10.17428207397461,0.3732803463935852
1773075348914386400,14.826386474609375,0.5742774605751038,-9.877572059631348,0.5647061467170715
1773075348933149200,14.845149169921875,0.7082754969596863,-9.600004196166992,0.6029912829399109
1773075348951912000,14.863911865234375,0.9332008361816406,-9.600004196166992,0.4785645306110382
1773075348970674700,14.8826748046875,1.062413215637207,-9.595218658447266,0.5790630578994751
1773075348989437400,14.9014375,1.3112667798995972,-9.714859962463379,1.306481122970581
1773075349008200200,14.9202001953125,0.9619147181510925,-9.820143699645996,1.7850457429885864
1773075349026963000,14.938962890625,0.3684946894645691,-9.882357597351074,1.832902193069458
1773075349045725700,14.9577255859375,-0.1052841991186142,-9.78664493560791,0.8901300430297852
1773075349064488400,14.976488525390625,-0.04785645380616188,-9.652647018432617,0.2919243574142456
1773075349083251200,14.995251220703125,0.1818545162677765,-9.944570541381836,0.4498506486415863
1773075349102013700,15.014013671875,0.3445664644241333,-10.04985523223877,1.0671988725662231
1773075349120776700,15.032776611328124,0.4450650215148926,-10.179067611694336,1.4069796800613403
1773075349139539200,15.051539306640626,0.5886343717575073,-10.04985523223877,1.277767300605774
1773075349158302000,15.070302001953126,0.3684946894645691,-9.714859962463379,0.8231309652328491
1773075349177064700,15.089064697265625,0.4019941985607147,-9.772287368774414,0.4833501875400543
1773075349195827500,15.107827392578125,0.5647061467170715,-10.29870891571045,0.5838487148284912
1773075349214590200,15.126590087890625,0.6125625967979431,-10.226923942565918,0.7417750358581543
1773075349233353000,15.14535302734375,0.5790630578994751,-10.533205032348633,1.1868400573730469
1773075349252115700,15.16411572265625,0.4307080805301666,-10.882556915283203,1.4117653369903564
1773075349270878500,15.18287841796875,0.30628129839897156,-10.930414199829102,1.3639088869094849
1773075349289641200,15.20164111328125,0.24406790733337402,-11.270195007324219,1.2634103298187256
1773075349308404000,15.220404052734375,0.1579262912273407,-11.648261070251465,1.038485050201416
1773075349327166700,15.239166748046875,0.2727817893028259,-11.413763999938965,0.8949156403541565
1773075349345929500,15.257929443359375,0.038285162299871445,-11.327622413635254,0.6269195079803467
1773075349364692200,15.276692138671875,-0.6029912829399109,-11.552547454833984,0.5790630578994751
1773075349383455000,15.295455078125,-1.2011969089508057,-11.542976379394531,0.5264210104942322
1773075349402217500,15.314217529296876,-1.4691931009292603,-11.045269012451172,-0.05742774158716202
1773075349420980200,15.332980224609376,-1.5074782371520996,-10.39920711517334,-0.5790630578994751
1773075349439743000,15.351742919921875,-1.2921242713928223,-9.686145782470703,-0.9188438653945923
1773075349458505700,15.370505615234375,-1.210768222808838,-9.083154678344727,-0.7992027401924133
1773075349477268500,15.3892685546875,-0.8757730722427368,-8.987442016601562,-1.2873386144638062
1773075349496031200,15.40803125,-0.2584248483181,-9.829715728759766,-1.7132610082626343
1773075349514794000,15.4267939453125,1.4404792785644531,-11.643474578857422,-1.852044701576233
1773075349533556700,15.445556640625,2.0482561588287354,-12.969099044799805,-2.321038007736206
1773075349552319500,15.464319580078126,0.8997012972831726,-11.96889877319336,-0.4546363055706024
1773075349571082200,15.483082275390625,-0.914058268070221,-10.84427261352539,-0.24885354936122894
1773075349589845000,15.501844970703125,-1.8855443000793457,-10.083354949951172,-0.5838487148284912
1773075349608607700,15.520607666015625,-2.014756679534912,-9.461220741271973,-0.7896314859390259
1773075349627370500,15.53937060546875,-2.1774685382843018,-8.95394229888916,0.009571290574967861
1773075349646133000,15.558133056640624,-1.373480200767517,-8.638090133666992,-0.02871387079358101
1773075349664895700,15.576895751953124,-0.7704889178276062,-8.116454124450684,0.27756741642951965
1773075349683658500,15.595658447265626,-0.8901300430297852,-7.475177764892578,0.41156548261642456
1773075349702421200,15.614421142578125,-1.4021940231323242,-6.829115867614746,0.09092725813388824
1773075349721184000,15.63318408203125,-1.765903115272522,-6.441478729248047,-0.4211367964744568
1773075349739946800,15.65194677734375,-1.9381862878799438,-6.350551128387451,-0.7848458290100098
1773075349758709500,15.67070947265625,-1.9956140518188477,-6.38883638381958,-0.8279166221618652
1773075349777472300,15.68947216796875,-2.2396819591522217,-6.943971157073975,-0.607776939868927
1773075349796235000,15.708235107421874,-2.5842485427856445,-7.657032489776611,-0.2105683982372284
1773075349814997800,15.726997802734376,-3.2207393646240234,-8.226524353027344,0.6125625967979431
1773075349833760500,15.745760498046875,-3.2829527854919434,-8.8438720703125,1.4691931009292603
1773075349852523300,15.764523193359375,-3.7902309894561768,-9.34157943725586,1.8855443000793457
1773075349871286000,15.7832861328125,-4.4650068283081055,-10.470992088317871,2.163111686706543
1773075349890048800,15.802048828125,-5.498706340789795,-11.351551055908203,2.675175666809082
1773075349908811300,15.820811279296874,-5.934200286865234,-11.20798110961914,2.7661030292510986
1773075349927574000,15.839573974609374,-5.986842155456543,-10.84427261352539,1.6223337650299072
1773075349946336800,15.858336669921876,-5.986842155456543,-10.676774978637695,0.6029912829399109
1773075349965099500,15.877099609375,-5.522634506225586,-10.356136322021484,-0.2679961323738098
1773075349983862300,15.8958623046875,-4.991427898406982,-9.667003631591797,-0.7130611538887024
1773075350002625000,15.914625,-3.9864425659179688,-8.470592498779297,-0.5551348328590393
1773075350021387800,15.9333876953125,-3.091526746749878,-8.202595710754395,-0.6269195079803467
1773075350040150500,15.952150634765625,-2.0721843242645264,-8.4562349319458,-0.7130611538887024
1773075350058913300,15.970913330078124,-1.038485050201416,-9.422935485839844,-0.6364908218383789
1773075350077676000,15.989676025390626,-0.3924229145050049,-12.820743560791016,-0.8757730722427368
1773075350096438800,16.008438720703126,-1.0049854516983032,-17.027326583862305,0.7369893789291382
1773075350115201500,16.027201416015625,-2.6321048736572266,-11.56690502166748,1.7754744291305542
1773075350133964300,16.04596435546875,-1.703689694404602,-6.747759819030762,-0.7130611538887024
1773075350152727000,16.06472705078125,-1.34476637840271,-5.058426856994629,-2.809173822402954
1773075350171489500,16.083489501953125,-1.0528420209884644,-6.364908218383789,-3.8189449310302734
1773075350190252300,16.102252197265624,1.6031911373138428,-7.814958572387695,-3.3882367610931396
1773075350209015000,16.12101513671875,2.5698914527893066,-10.01156997680664,0.004785645287483931
1773075350227777800,16.13977783203125,1.9094724655151367,-12.495320320129395,4.876572608947754
1773075350246540500,16.15854052734375,0.062213387340307236,-12.758530616760254,4.54636287689209
1773075350265303300,16.17730322265625,-1.0193424224853516,-10.284351348876953,0.5359922647476196
1773075350284066000,16.196066162109375,-0.9954141974449158,-9.073583602905273,-1.368694543838501
1773075350302828800,16.214828857421875,0.3445664644241333,-8.863015174865723,-1.8903298377990723
1773075350321591600,16.233591552734374,0.8566305041313171,-9.42772102355957,-1.6175481081008911
1773075350340354300,16.252354248046874,1.1772687435150146,-9.934999465942383,-0.6939185857772827
1773075350359117000,16.271116943359374,1.1820544004440308,-9.978070259094238,-0.13878370821475983
1773075350377879800,16.2898798828125,0.7657032608985901,-10.269994735717773,-0.2919243574142456
1773075350396642600,16.308642578125,0.698704183101654,-10.006784439086914,-0.3924229145050049
1773075350415405300,16.3274052734375,0.5551348328590393,-9.982855796813965,-0.4833501875400543
1773075350434167800,16.346167724609376,0.7034898400306702,-10.006784439086914,0.06699903309345245
1773075350452930800,16.364930908203124,0.9236295223236084,-9.997213363647461,0.6508477330207825
1773075350471693300,16.383693359375,1.153340458869934,-9.920642852783203,0.8374879360198975
1773075350490456000,16.4024560546875,0.9858429431915283,-9.949356079101562,0.8374879360198975
1773075350509218800,16.42121875,0.7657032608985901,-10.016355514526367,0.9332008361816406
1773075350527981600,16.439981689453123,0.5790630578994751,-10.021141052246094,0.97148597240448
1773075350546744300,16.458744384765627,0.6269195079803467,-9.949356079101562,1.038485050201416
1773075350565507000,16.477507080078126,1.0289137363433838,-10.164710998535156,1.2011969089508057
1773075350584269800,16.496269775390626,1.129412293434143,-10.092926025390625,1.2873386144638062
1773075350603032600,16.515032470703126,0.7130611538887024,-10.1216402053833,1.038485050201416
1773075350621795300,16.53379541015625,0.3732803463935852,-10.17428207397461,0.4977070987224579
1773075350640558000,16.55255810546875,0.04307080805301666,-10.222138404846191,0.2584248483181
1773075350659320800,16.57132080078125,0.43549370765686035,-10.265209197998047,0.46899324655532837
1773075350678083600,16.59008349609375,0.641276478767395,-10.04985523223877,0.7465606927871704
1773075350696846300,16.608846435546877,0.6891329288482666,-9.872786521911621,0.9379864931106567
1773075350715609000,16.627609130859376,0.5216353535652161,-9.748359680175781,0.8279166221618652
1773075350734371800,16.646371826171876,0.43549370765686035,-9.77707290649414,0.8949156403541565
1773075350753134300,16.66513427734375,0.3924229145050049,-9.791430473327637,0.9044869542121887
1773075350771897000,16.68389697265625,0.4785645306110382,-9.820143699645996,1.0241280794143677
1773075350790659800,16.702659912109375,0.38763725757598877,-9.891928672790527,0.7992027401924133
1773075350809422600,16.721422607421875,0.41156548261642456,-9.997213363647461,0.4307080805301666
1773075350828185300,16.740185302734375,0.17228323221206665,-10.236495018005371,0.22492532432079315
1773075350846948000,16.758947998046875,0.0526420995593071,-10.490134239196777,-0.12442677468061447
1773075350865710800,16.7777109375,0.31106695532798767,-10.743773460388184,-0.6221339106559753
1773075350884473600,16.7964736328125,0.5599204897880554,-11.064412117004395,-1.4404792785644531
1773075350903236400,16.815236328125,0.2919243574142456,-11.322836875915527,-2.2157537937164307
1773075350921999000,16.8339990234375,0.349352091550827,-11.48076343536377,-2.589034080505371
1773075350940761900,16.852761962890625,0.16749759018421173,-11.389835357666016,-2.8187451362609863
1773075350959524600,16.871524658203125,0.641276478767395,-11.102697372436523,-3.0484559535980225
1773075350978287400,16.890287353515625,0.40677985548973083,-10.930414199829102,-2.6081767082214355
1773075350997050000,16.909050048828124,0.7082754969596863,-10.73420238494873,-2.531606435775757
1773075351015812900,16.927812744140624,0.7034898400306702,-10.992627143859863,-2.416750907897949
1773075351034575400,16.946575439453124,0.4833501875400543,-11.227124214172363,-1.6606189012527466
1773075351053338000,16.965338134765624,0.17706887423992157,-10.705488204956055,-1.4404792785644531
1773075351072100900,16.984100830078123,-0.5072783827781677,-9.978070259094238,-0.885344386100769
1773075351090863600,17.002863525390627,-0.5599204897880554,-9.245866775512695,-0.7226324677467346
1773075351109626400,17.02162646484375,-0.5216353535652161,-8.46580696105957,-0.397208571434021
1773075351128389000,17.04038916015625,-0.1579262912273407,-8.025527000427246,-0.28235307335853577
1773075351147152000,17.05915185546875,0.04785645380616188,-7.805387496948242,-0.22013968229293823
1773075351165914600,17.07791455078125,0.03349951654672623,-7.6474609375,-0.3397808074951172
1773075351184677400,17.096677490234374,-0.22492532432079315,-7.6474609375,-0.24885354936122894
1773075351203440000,17.115440185546873,-0.9188438653945923,-7.470392227172852,0.08135596662759781
1773075351222203000,17.134202880859377,-1.6701902151107788,-7.805387496948242,0.19621145725250244
1773075351240965600,17.152965576171876,-2.407179594039917,-8.360522270202637,0.46899324655532837
1773075351259728400,17.171728271484376,-3.359523057937622,-9.169296264648438,0.49292147159576416
1773075351278491100,17.1904912109375,-4.335794448852539,-9.796216011047363,0.7465606927871704
1773075351297254000,17.20925390625,-4.804787635803223,-10.040284156799316,1.191625714302063
1773075351316016600,17.2280166015625,-4.431507587432861,-9.992427825927734,1.7611174583435059
1773075351334779400,17.246779296875,-4.551148891448975,-9.762716293334961,1.9908283948898315
1773075351353542000,17.2655419921875,-5.364708423614502,-9.710074424743652,1.5649060010910034
1773075351372304600,17.2843046875,-5.8097734451293945,-9.17886734008789,0.4977070987224579
1773075351391067400,17.3030673828125,-5.91505765914917,-8.585447311401367,-0.4498506486415863
1773075351409830100,17.321830078125,-5.594419479370117,-8.489734649658203,-1.2059825658798218
1773075351428593000,17.340593017578126,-4.780859470367432,-8.346165657043457,-1.5170495510101318
1773075351447355600,17.359355712890626,-3.3690943717956543,-8.374878883361816,-1.7467604875564575
1773075351466118400,17.378118408203125,-2.344966173171997,-9.796216011047363,-1.612762451171875
1773075351484881200,17.396881103515625,-1.852044701576233,-11.983255386352539,-0.794417142868042
1773075351503644000,17.415643798828125,-2.555534601211548,-11.12183952331543,-0.3445664644241333
1773075351522406700,17.43440673828125,-3.555734395980835,-9.810572624206543,-0.760917603969574
1773075351541169400,17.45316943359375,-3.1680972576141357,-9.18843936920166,-2.321038007736206
1773075351559932200,17.47193212890625,-1.789831280708313,-8.724231719970703,-4.244867324829102
1773075351578695000,17.49069482421875,0.5455635786056519,-8.226524353027344,-3.728017568588257
1773075351597457700,17.509457763671875,0.9523434042930603,-9.05444049835205,-2.9718856811523438
1773075351616220400,17.528220458984375,0.7178468108177185,-9.997213363647461,-1.5696916580200195
1773075351634983000,17.54698291015625,0.5168496966362,-11.026126861572266,-0.23449662327766418
1773075351653746000,17.565745849609375,0.3924229145050049,-10.762916564941406,0.1339980661869049
1773075351672508400,17.58450830078125,-0.04307080805301666,-10.212567329406738,0.5838487148284912
1773075351691271200,17.603271240234374,-0.5790630578994751,-10.183853149414062,0.6269195079803467
1773075351710034000,17.622033935546874,-0.641276478767395,-10.054640769958496,0.12442677468061447
1773075351728796700,17.640796630859374,-0.5982056856155396,-9.738788604736328,0.03349951654672623
1773075351747559400,17.659559326171873,0.07178468257188797,-9.638289451599121,-0.1818545162677765
1773075351766322200,17.678322265625,0.11006984114646912,-9.810572624206543,-0.04307080805301666
1773075351785085000,17.6970849609375,-0.08135596662759781,-10.001998901367188,-0.11006984114646912
1773075351803847700,17.71584765625,-0.11964113265275955,-10.078569412231445,0.17706887423992157
1773075351822610400,17.7346103515625,-0.2153540402650833,-9.944570541381836,0.40677985548973083
1773075351841373200,17.753373291015624,-0.22013968229293823,-9.93978500366211,1.0145567655563354
1773075351860136000,17.772135986328124,0.02871387079358101,-9.78664493560791,1.5361921787261963
1773075351878898700,17.790898681640623,0.33020952343940735,-9.762716293334961,1.7180466651916504
1773075351897661400,17.809661376953127,0.4833501875400543,-9.695717811584473,1.674975872039795
1773075351916424200,17.828424072265626,0.349352091550827,-9.781859397888184,1.8376877307891846
1773075351935186700,17.847186767578126,0.20099709928035736,-9.891928672790527,1.9812572002410889
1773075351953949700,17.86594970703125,0.1052841991186142,-9.891928672790527,1.8759729862213135
1773075351972712200,17.884712158203126,-0.19142581522464752,-9.80100154876709,1.6366907358169556
1773075351991475000,17.903474853515625,-0.15314064919948578,-9.652647018432617,1.5170495510101318
1773075352010237700,17.92223779296875,-0.33499518036842346,-9.614361763000488,0.7561319470405579
1773075352029000400,17.94100048828125,-0.19142581522464752,-9.66221809387207,0.6699903607368469
1773075352047763200,17.95976318359375,0.14356936514377594,-9.78664493560791,0.9762716293334961
1773075352066526000,17.97852587890625,0.15314064919948578,-9.848857879638672,1.215553879737854
1773075352085288700,17.997288818359376,0.25363919138908386,-9.710074424743652,1.306481122970581
1773075352104051500,18.016051513671876,0.33499518036842346,-9.647860527038574,1.306481122970581
1773075352122814200,18.034814208984375,0.46420758962631226,-9.92542839050293,1.277767300605774
1773075352141577000,18.053576904296875,0.3732803463935852,-10.088140487670898,0.9523434042930603
1773075352160339700,18.072339599609375,0.1052841991186142,-9.944570541381836,0.4307080805301666
1773075352179102500,18.0911025390625,0.4019941985607147,-10.116853713989258,0.43549370765686035
1773075352197865200,18.109865234375,0.7082754969596863,-10.456634521484375,0.8231309652328491
1773075352216628000,18.1286279296875,0.48813581466674805,-10.360921859741211,0.6891329288482666
1773075352235390700,18.147390625,0.2632105052471161,-10.188638687133789,0.5359922647476196
1773075352254153500,18.166153564453126,-0.05742774158716202,-10.403992652893066,0.30628129839897156
1773075352272916200,18.184916259765625,0.03349951654672623,-10.49970531463623,0.15314064919948578
1773075352291678700,18.2036787109375,-0.03349951654672623,-11.0835542678833,0.5264210104942322
1773075352310441500,18.22244140625,0.2679961323738098,-11.801401138305664,0.6795616149902344
1773075352329204200,18.241204345703125,0.5072783827781677,-11.447263717651367,0.349352091550827
1773075352347967000,18.259967041015624,0.038285162299871445,-11.729616165161133,0.23449662327766418
1773075352366729700,18.278729736328124,-0.2632105052471161,-12.217752456665039,0.10049854964017868
1773075352385492500,18.297492431640624,-0.6460621356964111,-11.83011531829834,-0.09092725813388824
1773075352404255200,18.316255126953124,-1.2203395366668701,-10.566704750061035,-0.5312066078186035
1773075352423018000,18.33501806640625,-1.301695466041565,-9.657432556152344,-0.7704889178276062
1773075352441780700,18.35378076171875,-1.0097711086273193,-8.85344409942627,-0.727418065071106
1773075352460543500,18.37254345703125,-0.7226324677467346,-8.709874153137207,-0.2392822653055191
1773075352479306200,18.39130615234375,0.1818545162677765,-9.207581520080566,-0.3684946894645691
1773075352498069000,18.410069091796874,0.6795616149902344,-9.982855796813965,-0.7513462901115417
1773075352516831700,18.428831787109374,1.062413215637207,-11.006983757019043,-1.0480563640594482
1773075352535594500,18.447594482421874,0.7417750358581543,-11.576476097106934,-1.153340458869934
1773075352554357200,18.466357177734373,0.014356935396790504,-10.71984577178955,-0.08614161610603333
1773075352573119700,18.48511962890625,-0.9475577473640442,-10.255638122558594,-0.1052841991186142
1773075352591882500,18.503882568359376,-1.306481122970581,-10.021141052246094,-0.641276478767395
1773075352610645200,18.522645263671876,-1.588834285736084,-9.695717811584473,-0.8087740540504456
1773075352629408000,18.541407958984376,-1.5984054803848267,-9.231510162353516,-0.7130611538887024
1773075352648170800,18.560170654296876,-0.8949156403541565,-8.685946464538574,-0.7896314859390259
1773075352666933500,18.57893359375,-0.7896314859390259,-8.293522834777832,-0.3684946894645691
1773075352685696300,18.5976962890625,-1.0145567655563354,-7.944170951843262,0.04307080805301666
1773075352704459000,18.616458984375,-1.5170495510101318,-7.89631462097168,0.30628129839897156
1773075352723221800,18.6352216796875,-1.9142581224441528,-7.9728851318359375,0.7034898400306702
1773075352741984500,18.653984619140626,-2.1535403728485107,-7.810173034667969,0.7369893789291382
1773075352760747300,18.672747314453126,-2.526820659637451,-8.260024070739746,-0.0526420995593071
1773075352779510000,18.691510009765626,-2.3018953800201416,-7.312466144561768,-0.02392822690308094
1773075352798272800,18.710272705078125,-2.943171739578247,-7.594819068908691,-0.0526420995593071
1773075352817035500,18.729035400390625,-3.6993038654327393,-8.23130989074707,0.3924229145050049
1773075352835798000,18.747798095703125,-4.40757942199707,-8.992227554321289,1.2011969089508057
1773075352854561000,18.76656103515625,-4.900500774383545,-9.437292098999023,1.7802600860595703
1773075352873323500,18.785323486328124,-5.182853698730469,-10.963912963867188,1.9286150932312012
1773075352892086300,18.804086181640624,-5.618347644805908,-10.939985275268555,2.306680917739868
1773075352910849000,18.82284912109375,-5.848058700561523,-10.791629791259766,1.3878371715545654
1773075352929611800,18.84161181640625,-4.986642360687256,-9.20279598236084,0.11485548317432404
1773075352948374500,18.86037451171875,-3.871587038040161,-9.848857879638672,-1.9334007501602173
1773075352967137300,18.87913720703125,-3.713660717010498,-11.906685829162598,-1.5170495510101318
1773075352985900000,18.897900146484375,-1.4979069232940674,-13.567304611206055,-1.4165509939193726
1773075353004662800,18.916662841796875,0.2919243574142456,-12.30389404296875,1.526620864868164
1773075353023425500,18.935425537109374,0.914058268070221,-9.686145782470703,0.698704183101654
1773075353042188300,18.954188232421874,0.914058268070221,-6.302694797515869,-2.5603201389312744
1773075353060951000,18.972950927734374,0.9284151792526245,-6.4941205978393555,-3.895515203475952
1773075353079713500,18.991713623046873,1.828116536140442,-8.283951759338379,-3.4552359580993652
1773075353098476500,19.0104765625,2.0195422172546387,-9.265008926391602,-1.7132610082626343
1773075353117239000,19.029239013671877,0.3732803463935852,-10.705488204956055,-0.5934200286865234
1773075353136001800,19.048001708984376,0.33020952343940735,-11.586047172546387,0.7178468108177185
1773075353154764500,19.0667646484375,-0.3924229145050049,-10.796415328979492,1.4979069232940674
1773075353173527300,19.08552734375,-1.2921242713928223,-9.858428955078125,1.8711873292922974
1773075353192290000,19.1042900390625,-1.3160524368286133,-10.083354949951172,1.0815558433532715
1773075353211052800,19.123052734375,-0.7178468108177185,-9.710074424743652,0.30149564146995544
1773075353229815600,19.141815673828123,-0.35892340540885925,-9.370293617248535,-0.24406790733337402
1773075353248578300,19.160578369140627,-0.49292147159576416,-9.17886734008789,-0.5455635786056519
1773075353267341000,19.179341064453126,-0.6939185857772827,-9.686145782470703,-0.3732803463935852
1773075353286103800,19.198103759765626,-0.550349235534668,-9.858428955078125,-0.33499518036842346
1773075353304866300,19.2168662109375,-0.8231309652328491,-9.585647583007812,-0.363709032535553
1773075353323629000,19.235629150390626,-0.9236295223236084,-9.753145217895508,0.33020952343940735
1773075353342391800,19.254391845703125,-0.32542386651039124,-9.533005714416504,0.698704183101654
1773075353361154600,19.273154541015625,0.09092725813388824,-9.56650447845459,0.7130611538887024
1773075353379917300,19.291917236328125,0.24885354936122894,-9.753145217895508,0.641276478767395
1773075353398680000,19.31068017578125,0.2871387302875519,-10.006784439086914,0.5455635786056519
1773075353417442800,19.32944287109375,-0.038285162299871445,-9.67657470703125,0.24885354936122894
1773075353436205600,19.34820556640625,0.05742774158716202,-10.667202949523926,-0.27756741642951965
1773075353454968300,19.36696826171875,0.009571290574967861,-9.78664493560791,-0.11485548317432404
1773075353473731000,19.38573095703125,-0.363709032535553,-9.647860527038574,-0.9667003750801086
1773075353492493800,19.404493896484375,-0.2727817893028259,-9.34157943725586,-1.0145567655563354
1773075353511256600,19.423256591796875,-0.02871387079358101,-9.686145782470703,-0.7561319470405579
1773075353530019000,19.44201904296875,0.6029912829399109,-9.422935485839844,-0.06699903309345245
1773075353548781800,19.46078173828125,1.4644074440002441,-9.355937004089355,0.8039883971214294
1773075353567544600,19.479544677734374,0.8997012972831726,-9.346364974975586,0.8997012972831726
1773075353586307300,19.498307373046874,0.49292147159576416,-9.542576789855957,0.16271193325519562
1773075353605070000,19.517070068359374,0.5407779216766357,-9.77707290649414,0.11006984114646912
1773075353623832800,19.535832763671873,0.2871387302875519,-10.38485050201416,-0.4833501875400543
1773075353642595600,19.554595703125,1.1054840087890625,-10.77248764038086,-1.5936198234558105
1773075353661358300,19.5733583984375,-0.062213387340307236,-12.715459823608398,0.16271193325519562
1773075353680121000,19.59212109375,0.760917603969574,-12.672389030456543,1.947757601737976
1773075353698883600,19.610883544921876,1.0528420209884644,-13.98365592956543,0.9236295223236084
1773075353717646600,19.629646484375,-0.35413774847984314,-16.39083480834961,1.2346965074539185
1773075353736409000,19.6484091796875,-0.8662018179893494,-15.591631889343262,1.4931213855743408
1773075353755171800,19.667171875,0.22971096634864807,-13.792229652404785,0.2871387302875519
1773075353773934600,19.6859345703125,-1.4691931009292603,-13.447663307189941,-0.8422735929489136
1773075353792697300,19.704697265625,-1.3112667798995972,-16.118053436279297,1.3256237506866455
1773075353811460000,19.723460205078126,1.4644074440002441,-20.080568313598633,2.139183521270752
1773075353830222800,19.742222900390626,1.0719845294952393,-13.773087501525879,0.35892340540885925
1773075353848985600,19.760985595703126,2.651247501373291,-8.384450912475586,1.3256237506866455
1773075353867748400,19.779748291015625,5.72841739654541,-16.84068489074707,0.7082754969596863
1773075353886511000,19.798510986328125,4.034298896789551,-14.045868873596191,0.4977070987224579
1773075353905273600,19.817273681640625,1.0767701864242554,-10.691131591796875,-2.148754835128784
1773075353924036400,19.836036376953125,-3.555734395980835,-8.413164138793945,-3.7806596755981445
1773075353942799000,19.854799072265624,0.2871387302875519,-9.882357597351074,-1.4069796800613403
1773075353961561900,19.873561767578124,5.422136306762695,-7.929814338684082,2.3401806354522705
1773075353980324600,19.89232470703125,-0.8135597109794617,-9.724431037902832,3.2685956954956055
1773075353999087400,19.91108740234375,2.1296122074127197,-11.96889877319336,-1.8616160154342651
1773075354017850000,19.92985009765625,-4.910071849822998,-10.75813102722168,3.139383316040039
1773075354036612900,19.94861279296875,3.6610186100006104,-13.304094314575195,13.16530990600586
1773075354055375600,19.967375732421875,4.924428939819336,-9.245866775512695,18.616159439086914
1773075354074138400,19.986138427734375,9.317651748657227,-6.135197162628174,22.41596221923828
1773075354092900900,20.00490087890625,8.8438720703125,-11.131410598754883,16.965112686157227
1773075354111663600,20.02366357421875,7.561319351196289,-14.601003646850586,10.083354949951172
1773075354130426400,20.04242626953125,6.97268533706665,-13.227523803710938,6.058627128601074
1773075354149189000,20.061189208984374,6.369693756103516,-9.796216011047363,3.2063822746276855
1773075354167952000,20.079951904296873,3.6610186100006104,-6.38883638381958,1.8472590446472168
1773075354186714600,20.098714599609377,1.679761528968811,-5.2115678787231445,0.45942193269729614
1773075354205477400,20.117477294921876,1.6941183805465698,-5.934200286865234,-1.3256237506866455
1773075354224240000,20.136240234375,0.6652047038078308,-8.60459041595459,-2.0961127281188965
1773075354243003000,20.1550029296875,3.8907296657562256,-11.131410598754883,-1.8137595653533936
1773075354261765400,20.173765380859376,6.044270038604736,-10.959127426147461,-1.301695466041565
1773075354280528100,20.192528076171875,4.689932346343994,-9.853643417358398,-1.94297194480896
1773075354299291000,20.211290771484375,1.8233308792114258,-6.589833736419678,-3.359523057937622
1773075354318053600,20.2300537109375,1.2969099283218384,-4.086941242218018,-3.9050865173339844
1773075354336816400,20.24881640625,1.1054840087890625,-2.933600664138794,-3.8907296657562256
1773075354355579100,20.2675791015625,0.9379864931106567,-2.0195422172546387,-3.3020951747894287
1773075354374342000,20.286341796875,0.9619147181510925,-1.7563318014144897,-2.2061824798583984
1773075354393104600,20.305104736328126,0.4307080805301666,-1.4404792785644531,-0.8997012972831726
1773075354411867100,20.3238671875,70.6839828491211,10.423135757446289,25.856842041015625
1773075354430630000,20.3426298828125,11.22233772277832,2.3018953800201416,9.226723670959473
1773075354449392600,20.361392578125,2.172683000564575,-2.038684844970703,-0.349352091550827
1773075354468155400,20.3801552734375,4.560719966888428,-0.11485548317432404,0.2967100143432617
1773075354486918100,20.398918212890624,1.1676974296569824,4.867001056671143,2.919243574142456
1773075354505681000,20.417680908203124,5.2977094650268555,3.3930225372314453,2.321038007736206
1773075354524443600,20.436443603515624,10.418350219726562,2.8905298709869385,1.368694543838501
1773075354543206100,20.4552060546875,13.146167755126953,2.8809585571289062,0.4546363055706024
1773075354561969000,20.473968994140623,13.663017272949219,3.421736478805542,1.0719845294952393
1773075354580731600,20.492731689453127,11.901900291442871,3.507878065109253,2.0482561588287354
1773075354599494400,20.511494384765626,10.107282638549805,3.4552359580993652,2.531606435775757
1773075354618257200,20.530257080078126,10.193424224853516,3.6083765029907227,2.3497519493103027
1773075354637020000,20.54902001953125,10.432706832885742,4.168296813964844,0.8327022790908813
1773075354655782700,20.56778271484375,10.097711563110352,4.383651256561279,0.6843472719192505
1773075354674545200,20.586545166015625,8.60459041595459,3.7902309894561768,0.1866401731967926
1773075354693308200,20.60530810546875,7.546962738037109,3.641875982284546,-0.11964113265275955
1773075354712070700,20.624070556640625,7.5565338134765625,3.2542388439178467,0.25363919138908386
1773075354730833400,20.64283349609375,8.695517539978027,3.177668571472168,-0.07178468257188797
1773075354749596200,20.66159619140625,9.633503913879395,3.2063822746276855,-0.5551348328590393
1773075354768359000,20.68035888671875,9.06401252746582,3.1920254230499268,-0.8997012972831726
1773075354787121700,20.69912158203125,8.13081169128418,3.345165967941284,-0.07657032459974289
1773075354805884200,20.71788427734375,8.671588897705078,3.3068809509277344,0.004785645287483931
1773075354824647200,20.736647216796875,9.016156196594238,3.326023578643799,-0.12442677468061447
1773075354843409700,20.75540966796875,8.934800148010254,3.239881753921509,-0.04785645380616188
1773075354871553800,20.7835537109375,8.528019905090332,3.16331148147583,0.30628129839897156
1773075354890316500,20.802316650390626,8.394021987915039,3.1489546298980713,0.3206382393836975
1773075354909079300,20.821079345703126,9.260223388671875,3.4504501819610596,0.19621145725250244
1773075354927841300,20.83984130859375,9.509077072143555,3.4025938510894775,0.05742774158716202
1773075354938215400,20.85021533203125,9.55214786529541,3.266202926635742,0.014356935396790504
1773075354956980200,20.868980224609373,9.889535903930664,3.239881753921509,-0.11485548317432404
1773075354985124400,20.897124267578125,9.494720458984375,3.3619158267974854,0.1746760457754135
1773075355003887000,20.91588720703125,8.855836868286133,3.4265220165252686,0.16031911969184875
1773075355022649900,20.93464990234375,8.669196128845215,3.2446675300598145,-0.12442677468061447
1773075355041412400,20.953412353515624,8.556734085083008,3.294916868209839,-0.21774685382843018
1773075355060175000,20.972175048828124,8.336593627929688,3.31884503364563,-0.380458801984787
1773075355078937300,20.990937255859375,8.116454124450684,3.4025938510894775,-0.1986042857170105
1773075355097699800,21.009699951171875,8.09970474243164,3.428914785385132,-0.007178467698395252
1773075355116462600,21.028462646484375,8.171489715576172,3.421736478805542,0.2560320198535919
1773075355135225300,21.047225341796874,8.413164138793945,3.4169507026672363,0.1866401731967926
1773075355153988000,21.065988037109374,8.748159408569336,3.373879909515381,0.14117653667926788
1773075355172750800,21.084750732421874,8.96829891204834,3.4193434715270996,0.1052841991186142
1773075355191513600,21.103513671875,8.841479301452637,3.352344512939453,0.06939185410737991
1773075355210276000,21.122276123046873,8.382058143615723,3.476771354675293,-0.07178468257188797
1773075355229038800,21.141038818359377,8.575876235961914,3.4887354373931885,-0.22492532432079315
1773075355247801600,21.159801513671876,9.018548965454102,3.594019651412964,-0.30149564146995544
1773075355266564400,21.178564453125,9.403793334960938,3.596412420272827,-0.37088751792907715
1773075355285327000,21.1973271484375,9.42772102355957,3.5820555686950684,-0.23688943684101105
1773075355304089900,21.21608984375,9.17886734008789,3.589233875274658,0.035892341285943985
1773075355322852400,21.234852294921875,9.066405296325684,3.5748770236968994,-0.0933200865983963
1773075355341615000,21.253614990234375,9.052047729492188,3.462414264678955,-0.13878370821475983
1773075355360377900,21.2723779296875,8.767302513122559,3.493520975112915,-0.17946170270442963
1773075355379140600,21.291140625,8.394021987915039,3.4791641235351562,-0.12203395366668701
1773075355397903400,21.3099033203125,8.511270523071289,3.397808074951172,-0.08614161610603333
1773075355416665900,21.328665771484374,8.906085968017578,3.326023578643799,-0.05503492057323456
1773075355435428600,21.3474287109375,9.150154113769531,3.2542388439178467,0.04307080805301666
1773075355463572700,21.37557275390625,9.023334503173828,3.2518460750579834,0.031106693670153618
1773075355482335500,21.39433544921875,8.918049812316895,3.328416347503662,0.0023928226437419653
1773075355501098200,21.41309814453125,9.059226989746094,3.34995174407959,0.038285162299871445
1773075355529242000,21.4412421875,9.028120040893555,3.469592809677124,0.02153540402650833
1773075355548004900,21.4600048828125,9.025727272033691,3.5054850578308105,0.06939185410737991
1773075355566767600,21.478767578125,9.08554744720459,3.486342668533325,-0.0023928226437419653
1773075355585530400,21.4975302734375,9.159725189208984,3.431307554244995,0.02392822690308094
1773075355604293000,21.516293212890623,9.035298347473145,3.4504501819610596,-0.031106693670153618
1773075355623055600,21.5350556640625,8.863015174865723,3.445664644241333,0.004785645287483931
1773075355641818400,21.553818359375,8.834300994873047,3.445664644241333,0.05503492057323456
1773075355660581000,21.5725810546875,8.901300430297852,3.4719855785369873,0.04785645380616188
1773075355688725200,21.600725341796874,8.930013656616211,3.4983067512512207,0.007178467698395252
1773075355707487700,21.61948779296875,8.982656478881836,3.5030922889709473,0.016749758273363113
1773075355726250500,21.63825048828125,9.047262191772461,3.4265220165252686,0.07417750358581543
1773075355745013200,21.65701318359375,9.20997428894043,3.517449378967285,0.10049854964017868
1773075355763776000,21.67577587890625,9.044869422912598,3.500699520111084,0.17228323221206665
1773075355782538800,21.694538818359376,8.8438720703125,3.565305709838867,0.10289137065410614
1773075355801301500,21.713301513671876,8.74337387084961,3.6777684688568115,0.004785645287483931
1773075355820064000,21.73206396484375,8.748159408569336,3.656233072280884,0.007178467698395252
1773075355848208100,21.7602080078125,8.941978454589844,3.610769271850586,0.08135596662759781
1773075355866971000,21.778970947265623,8.858229637145996,3.6299118995666504,-0.062213387340307236
1773075355885733600,21.797733642578127,8.772088050842285,3.5988051891326904,-0.064606212079525
1773075355904496400,21.816496337890626,8.796015739440918,3.4648072719573975,0.15314064919948578
1773075355923259100,21.835259033203126,8.989834785461426,3.627519130706787,0.064606212079525
1773075355942021600,21.854021728515626,8.69791030883789,3.565305709838867,-0.014356935396790504
1773075355960784400,21.872784423828126,8.738588333129883,3.696911096572876,-0.03349951654672623
1773075355979547100,21.891547119140625,8.630910873413086,3.6323046684265137,0.014356935396790504
1773075355998310000,21.910309814453125,8.69791030883789,3.8189449310302734,-0.07896314561367035
1773075356017072600,21.92907275390625,8.764909744262695,3.838087558746338,-0.2512463629245758
1773075356035835100,21.947835205078125,8.8438720703125,3.8261234760284424,-0.11246266216039658
1773075356054598000,21.966597900390624,8.918049812316895,3.8189449310302734,-0.007178467698395252
1773075356073360600,21.985360595703124,8.800801277160645,3.761517286300659,0.062213387340307236
1773075356092123400,22.004123291015624,8.767302513122559,3.713660717010498,-0.06939185410737991
1773075356110886100,22.02288623046875,8.870193481445312,3.6370904445648193,-0.09571290761232376
1773075356129649000,22.04164892578125,8.898907661437988,3.5820555686950684,0.07896314561367035
1773075356148411400,22.060411376953127,9.059226989746094,3.7160534858703613,0.04307080805301666
1773075356167174100,22.079174072265626,8.791230201721191,3.704089403152466,0.07896314561367035
1773075356185937000,22.09793701171875,8.755337715148926,3.751945972442627,0.06699903309345245
1773075356204699600,22.11669970703125,8.73619556427002,3.7471601963043213,0.10049854964017868
1773075356223462400,22.13546240234375,8.764909744262695,3.680161237716675,0.14835500717163086
1773075356242225200,22.15422509765625,8.877371788024902,3.6705899238586426,0.016749758273363113
1773075356260987600,22.172987548828125,8.877371788024902,3.730410575866699,-0.19142581522464752
1773075356279750400,22.19175048828125,8.73619556427002,3.7112679481506348,-0.04307080805301666
1773075356298513200,22.21051318359375,8.877371788024902,3.706482172012329,0.2105683982372284
1773075356317276000,22.22927587890625,8.898907661437988,3.6945180892944336,0.19381862878799438
1773075356336038700,22.24803857421875,8.915657043457031,3.682554006576538,0.1698904037475586
1773075356354801400,22.266801513671876,8.841479301452637,3.6993038654327393,0.11964113265275955
1773075356373564000,22.28556396484375,8.757730484008789,3.7160534858703613,0.11964113265275955
1773075356392326700,22.30432666015625,8.879764556884766,3.6442689895629883,0.11485548317432404
1773075356411089400,22.32308935546875,8.851051330566406,3.675375461578369,0.09571290761232376
1773075356429852200,22.34185205078125,8.886942863464355,3.675375461578369,0.10767702013254166
1773075356448615000,22.360614990234374,8.913264274597168,3.589233875274658,0.20338992774486542
1773075356467377700,22.379377685546874,8.889336585998535,3.5820555686950684,0.14835500717163086
1773075356486140400,22.398140380859374,8.896514892578125,3.5748770236968994,0.062213387340307236
1773075356504903200,22.416903076171874,8.956335067749023,3.579662561416626,0.08135596662759781
1773075356523665700,22.435665771484373,9.001798629760742,3.5270206928253174,0.14356936514377594
1773075356542428400,22.454428466796877,8.97787094116211,3.572484254837036,0.11964113265275955
1773075356561191200,22.473191162109377,8.94676399230957,3.562912940979004,0.14117653667926788
1773075356579954000,22.491953857421876,8.85344409942627,3.541377544403076,0.18424734473228455
1773075356598716700,22.510716552734376,8.772088050842285,3.5150563716888428,0.2105683982372284
1773075356617479400,22.5294794921875,8.95394229888916,3.3020951747894287,0.39481574296951294
1773075356636242200,22.5482421875,9.968499183654785,3.397808074951172,0.6508477330207825
1773075356655005000,22.5670048828125,8.592626571655273,3.431307554244995,0.380458801984787
1773075356673767700,22.585767578125,7.707281589508057,3.634697675704956,-0.39960137009620667
1773075356692530400,22.604530517578127,8.532805442810059,3.814159393310547,-0.08853443711996078
1773075356711293200,22.623293212890626,9.157332420349121,3.397808074951172,0.2847459018230438
1773075356730055700,22.6420556640625,9.628718376159668,3.249453067779541,0.4426721930503845
