time,seconds_elapsed,z,y,x
1772699066145344500,0.106344482421875,8.183453559875488,7.032505512237549,0.3086741268634796
1772699066162690000,0.12368994140625,9.176474571228027,7.599604606628418,2.0243279933929443
1772699066180035600,0.14103564453125,8.654839515686035,5.271388053894043,1.581655740737915
1772699066197380900,0.158380859375,7.0923261642456055,4.910071849822998,0.10289137065410614
1772699066214726400,0.175726318359375,4.503292083740234,5.544169902801514,-1.4787644147872925
1772699066232072000,0.193072021484375,4.618147850036621,5.821737289428711,0.5096712112426758
1772699066249417200,0.210417236328125,3.314059257507324,6.472585201263428,2.6153552532196045
1772699066266762800,0.2277626953125,2.007578134536743,11.152946472167969,-4.768895626068115
1772699066284108300,0.2451083984375,4.689932346343994,6.558726787567139,-5.395814895629883
1772699066301453600,0.26245361328125,7.259823799133301,5.764309883117676,-2.6536402702331543
1772699066318799000,0.279799072265625,8.398807525634766,5.290530681610107,0.12442677468061447
1772699066336144600,0.29714453125,6.8410797119140625,5.752345561981201,0.8111668825149536
1772699066353490000,0.314489990234375,6.453442573547363,5.709274768829346,1.5625132322311401
1772699066370835500,0.33183544921875,5.32403039932251,5.7547383308410645,0.8949156403541565
1772699066388181000,0.349180908203125,3.7232320308685303,5.438885688781738,0.729810893535614
1772699066405526300,0.3665263671875,4.036691665649414,5.123033046722412,1.490728497505188
1772699066422871800,0.383871826171875,3.31884503364563,4.460221290588379,1.8185452222824097
1772699066440217300,0.40121728515625,3.294916868209839,4.5200419425964355,1.8711873292922974
1772699066457562600,0.418562744140625,3.8428730964660645,3.493520975112915,2.1846470832824707
1772699066474908200,0.435908203125,4.130012035369873,2.4335005283355713,3.1106693744659424
1772699066492253700,0.453253662109375,4.503292083740234,1.6821542978286743,4.534399032592773
1772699066509599200,0.47059912109375,5.144568920135498,1.2562319040298462,4.752145767211914
1772699066526944500,0.487944580078125,4.991427898406982,1.0719845294952393,4.381258487701416
1772699066544290000,0.5052900390625,3.9361932277679443,0.38285163044929504,4.651647090911865
1772699066561635600,0.522635498046875,3.1513473987579346,-0.760917603969574,5.01296329498291
1772699066578980900,0.53998095703125,2.342573404312134,-1.7802600860595703,6.726224422454834
1772699066596326400,0.557326416015625,3.084348440170288,-2.737389087677002,8.147561073303223
1772699066613672000,0.574671875,3.8045880794525146,-3.326023578643799,8.889336585998535
1772699066631017200,0.592017333984375,4.689932346343994,-4.125226020812988,9.128618240356445
1772699066648362800,0.60936279296875,4.843072891235352,-5.5106706619262695,7.434499740600586
1772699066665708300,0.626708251953125,3.7567315101623535,-6.809973239898682,7.204789161682129
1772699066683053600,0.644053466796875,2.495713949203491,-8.563912391662598,11.502298355102539
1772699066700399000,0.661399169921875,4.560719966888428,-9.09272575378418,14.110475540161133
1772699066717744600,0.67874462890625,6.939185619354248,-9.284152030944824,14.409578323364258
1772699066735090000,0.69608984375,5.812166213989258,-9.652647018432617,13.732409477233887
1772699066752435500,0.713435546875,5.120640277862549,-10.710273742675781,12.382857322692871
1772699066769781000,0.730781005859375,5.374279499053955,-11.248659133911133,11.643474578857422
1772699066787126500,0.74812646484375,5.223531723022461,-10.942378044128418,11.263015747070312
1772699066804471800,0.765471923828125,4.417150497436523,-10.26760196685791,11.621939659118652
1772699066821817300,0.7828173828125,2.3952155113220215,-9.93260669708252,11.91625690460205
1772699066839163000,0.800162841796875,1.9812572002410889,-10.255638122558594,9.463613510131836
1772699066856508200,0.817508056640625,3.077169895172119,-10.906485557556152,6.905686378479004
1772699066873853700,0.834853759765625,3.8835511207580566,-10.372885704040527,5.687739372253418
1772699066891199200,0.85219921875,1.3256237506866455,-10.124032974243164,5.493920803070068
1772699066908544500,0.86954443359375,-0.7585247755050659,-9.748359680175781,5.292923450469971
1772699066925890000,0.88689013671875,0.06699903309345245,-9.817750930786133,5.106283664703369
1772699066943235600,0.904235595703125,1.8975083827972412,-9.970891952514648,4.646861553192139
1772699066960581000,0.9215810546875,2.0745773315429688,-10.497312545776367,4.098905086517334
1772699066977926400,0.938926513671875,1.9166508913040161,-10.868200302124023,3.397808074951172
1772699066995272000,0.95627197265625,2.155933141708374,-10.313065528869629,3.2757742404937744
1772699067012617500,0.973617431640625,1.430907964706421,-9.975677490234375,2.926422119140625
1772699067029962800,0.990962646484375,2.0889341831207275,-9.7005033493042,1.0791629552841187
1772699067047308300,1.008308349609375,4.591826438903809,-10.277173042297363,0.35413774847984314
1772699067064653800,1.02565380859375,8.133204460144043,-10.236495018005371,1.466800332069397
1772699067081999000,1.0429990234375,7.802994728088379,-9.040083885192871,3.187239646911621
1772699067099344600,1.0603447265625,6.697510719299316,-8.334200859069824,2.825923442840576
1772699067116690200,1.077690185546875,3.2997024059295654,-7.140182971954346,2.6799614429473877
1772699067134035700,1.09503564453125,1.2610175609588623,-5.639883041381836,4.074976921081543
1772699067151381000,1.112381103515625,1.6510475873947144,-5.3312087059021,3.7543387413024902
1772699067168726500,1.1297265625,3.7471601963043213,-5.647061347961426,2.6392834186553955
1772699067186072000,1.147072021484375,0.6915257573127747,-5.733202934265137,2.7421748638153076
1772699067203417300,1.164417236328125,-1.057627558708191,-7.286144733428955,2.579462766647339
1772699067220763000,1.181762939453125,-1.5433706045150757,-7.750352382659912,-0.9954141974449158
1772699067238108400,1.1991083984375,-0.4713860750198364,-8.824729919433594,-1.7515461444854736
1772699067255454000,1.216453857421875,-0.9547362327575684,-8.776873588562012,-1.3471591472625732
1772699067272799200,1.23379931640625,-1.7515461444854736,-9.047262191772461,-0.37806597352027893
1772699067290144800,1.251144775390625,-1.1581261157989502,-9.430113792419434,1.6390835046768188
1772699067307490000,1.268489990234375,4.082155227661133,-15.699309349060059,-1.8783657550811768
1772699067324835600,1.285835693359375,7.4225358963012695,-14.32582950592041,1.7084753513336182
1772699067342181000,1.30318115234375,-5.577669620513916,-11.081161499023438,1.5720844268798828
1772699067359526700,1.320526611328125,4.098905086517334,-9.92542839050293,-0.8087740540504456
1772699067376872000,1.337871826171875,0.607776939868927,-10.12881851196289,-2.3856441974639893
1772699067394217500,1.355217529296875,0.2560320198535919,-11.717652320861816,-1.5601203441619873
1772699067411563000,1.37256298828125,1.8783657550811768,-11.327622413635254,-1.4380863904953003
1772699067428908300,1.389908203125,1.2610175609588623,-10.12881851196289,0.9403793215751648
1772699067446253800,1.40725390625,0.9690931439399719,-8.35573673248291,2.7876384258270264
1772699067463599400,1.424599365234375,1.5912270545959473,-6.774080753326416,0.8207381963729858
1772699067480944600,1.441944580078125,0.27756741642951965,-9.279366493225098,-2.940778970718384
1772699067498290200,1.459290283203125,5.953342914581299,-12.332608222961426,-5.340780258178711
1772699067515635700,1.4766357421875,-1.246660590171814,-8.738588333129883,-4.8191447257995605
1772699067532981000,1.49398095703125,3.7256247997283936,-9.078369140625,0.09571290761232376
1772699067550326500,1.511326416015625,-1.892722725868225,-12.236894607543945,3.266202926635742
1772699067567672000,1.528672119140625,-0.28235307335853577,-13.51705551147461,1.0863415002822876
1772699067585017300,1.546017333984375,0.885344386100769,-12.67717456817627,1.3854442834854126
1772699067602363000,1.56336279296875,0.8662018179893494,-8.484949111938477,1.9525432586669922
1772699067619708200,1.580708251953125,1.3040883541107178,-5.850451469421387,4.034298896789551
1772699067637053700,1.5980537109375,-0.8374879360198975,-7.259823799133301,7.250252723693848
1772699067654399200,1.615399169921875,1.8161523342132568,-13.009777069091797,1.007378339767456
1772699067671744500,1.63274462890625,0.6508477330207825,-17.103897094726562,-0.916451096534729
1772699067689090000,1.650090087890625,1.3423734903335571,-13.519448280334473,-0.0023928226437419653
1772699067706435600,1.667435546875,-1.074377417564392,-8.09252643585205,1.5936198234558105
1772699067723780900,1.68478076171875,-1.0097711086273193,-8.066205024719238,2.289931297302246
1772699067741126400,1.70212646484375,-0.5000999569892883,-11.7990083694458,2.455035924911499
1772699067758472000,1.719471923828125,-0.11006984114646912,-13.782658576965332,1.4883357286453247
1772699067775817200,1.736817138671875,0.33738797903060913,-11.002198219299316,0.18424734473228455
1772699067793162800,1.754162841796875,0.12442677468061447,-11.562119483947754,0.031106693670153618
1772699067810508300,1.77150830078125,0.2225325107574463,-8.157132148742676,0.39481574296951294
1772699067827853600,1.788853515625,-0.08614161610603333,-8.01356315612793,1.8424733877182007
1772699067845199000,1.80619921875,0.09092725813388824,-8.841479301452637,2.517249345779419
1772699067862544600,1.823544677734375,-0.20338992774486542,-10.219745635986328,1.8975083827972412
1772699067879890000,1.840889892578125,-0.7058826684951782,-10.593026161193848,1.3950155973434448
1772699067897235500,1.8582353515625,-0.6580262184143066,-10.289137840270996,0.9403793215751648
1772699067914581000,1.8755810546875,-0.363709032535553,-9.858428955078125,1.1653046607971191
1772699067931926300,1.89292626953125,-0.004785645287483931,-9.250652313232422,1.4644074440002441
1772699067949271800,1.910271728515625,0.20099709928035736,-8.898907661437988,1.919043779373169
1772699067966617300,1.927617431640625,-0.10767702013254166,-8.941978454589844,1.6965112686157227
1772699067983962600,1.944962646484375,-0.5359922647476196,-9.415757179260254,1.545763373374939
1772699068001308200,1.96230810546875,-0.7106683254241943,-10.088140487670898,1.550549030303955
1772699068018653700,1.97965380859375,-0.5910272002220154,-10.514062881469727,1.950150489807129
1772699068035999000,1.9969990234375,-0.4259224236011505,-10.482955932617188,2.1296122074127197
1772699068053344500,2.014344482421875,-0.5312066078186035,-10.243673324584961,1.8999011516571045
1772699068070690000,2.03168994140625,-0.6173482537269592,-9.937392234802246,1.679761528968811
1772699068088035300,2.049035400390625,-0.5982056856155396,-9.559326171875,1.430907964706421
1772699068105380900,2.066380859375,-0.3278166949748993,-9.186046600341797,1.1581261157989502
1772699068122726100,2.08372607421875,-0.10767702013254166,-8.999405860900879,1.1222338676452637
1772699068140071700,2.10107177734375,-0.21296121180057526,-9.061619758605957,1.0791629552841187
1772699068157417200,2.118417236328125,-0.363709032535553,-9.482755661010742,0.6939185857772827
1772699068174762500,2.135762451171875,-0.3086741268634796,-9.992427825927734,0.3565305769443512
1772699068192108000,2.15310791015625,-0.397208571434021,-10.38485050201416,0.3900300860404968
1772699068209453600,2.17045361328125,-0.31824541091918945,-10.679167747497559,0.5407779216766357
1772699068226798800,2.187798828125,0.14117653667926788,-10.74138069152832,0.8279166221618652
1772699068244144400,2.205144287109375,0.1052841991186142,-10.198209762573242,1.2035897970199585
1772699068261490000,2.222489990234375,-0.22971096634864807,-9.482755661010742,1.2251251935958862
1772699068278835200,2.239835205078125,-0.016749758273363113,-9.360722541809082,0.9858429431915283
1772699068296180700,2.2571806640625,0.13878370821475983,-9.590433120727539,0.7800601720809937
1772699068313526000,2.274526123046875,0.22971096634864807,-9.805787086486816,0.9427721500396729
1772699068330871600,2.29187158203125,0.031106693670153618,-10.02592658996582,1.2634103298187256
1772699068348217000,2.309217041015625,-0.5048855543136597,-10.202995300292969,1.552941918373108
1772699068365562400,2.326562255859375,-0.9020941257476807,-10.459028244018555,1.5314065217971802
1772699068382908000,2.343907958984375,-1.0121639966964722,-10.50209903717041,1.1940184831619263
1772699068400253400,2.36125341796875,-0.9236295223236084,-10.480563163757324,0.7680960893630981
1772699068417598700,2.3785986328125,-0.8183453679084778,-10.425528526306152,0.26560330390930176
1772699068434944300,2.3959443359375,-0.763310432434082,-10.26042366027832,-0.040677983313798904
1772699068452289800,2.413289794921875,-0.6939185857772827,-9.992427825927734,-0.3038884699344635
1772699068469635000,2.430635009765625,-0.7250252366065979,-10.03310489654541,-0.44745782017707825
1772699068486980600,2.447980712890625,-0.5910272002220154,-10.133604049682617,-0.38285163044929504
1772699068504326100,2.465326171875,-0.4737788736820221,-10.231709480285645,0.12442677468061447
1772699068521671400,2.48267138671875,-0.2991028428077698,-10.313065528869629,0.6484549641609192
1772699068539017000,2.500016845703125,-0.28235307335853577,-10.396814346313477,1.0432707071304321
1772699068556362500,2.517362548828125,-0.4713860750198364,-10.415956497192383,1.2394821643829346
1772699068573707800,2.534707763671875,-0.47617170214653015,-10.41356372833252,0.8207381963729858
1772699068591053300,2.55205322265625,-0.5886343717575073,-10.468599319458008,0.6269195079803467
1772699068608398600,2.569398681640625,-0.3206382393836975,-10.435099601745605,0.5910272002220154
1772699068625744100,2.586744140625,-0.31824541091918945,-10.40638542175293,0.7680960893630981
1772699068643089700,2.604089599609375,-0.3684946894645691,-10.334601402282715,0.8350951075553894
1772699068660435000,2.62143505859375,-0.36610186100006104,-10.327422142028809,0.7848458290100098
1772699068677780500,2.638780517578125,-0.380458801984787,-10.38485050201416,0.8063812255859375
1772699068695126000,2.6561259765625,-0.4139583110809326,-10.50209903717041,0.9068797826766968
1772699068712471300,2.67347119140625,-0.5216353535652161,-10.557133674621582,0.8757730722427368
1772699068729816800,2.69081689453125,-0.6173482537269592,-10.518848419189453,0.6652047038078308
1772699068747162000,2.708162109375,-0.5694918036460876,-10.442277908325195,0.46899324655532837
1772699068764507600,2.725507568359375,-0.5168496966362,-10.403992652893066,0.4091726839542389
1772699068781853200,2.742853271484375,-0.45942193269729614,-10.470992088317871,0.36610186100006104
1772699068799198500,2.760198486328125,-0.5455635786056519,-10.53799057006836,0.363709032535553
1772699068816544000,2.7775439453125,-0.605384111404419,-10.50209903717041,0.2871387302875519
1772699068833889500,2.7948896484375,-0.5958128571510315,-10.463813781738281,0.27756741642951965
1772699068851234800,2.81223486328125,-0.5359922647476196,-10.430314064025879,0.3397808074951172
1772699068868580400,2.829580322265625,-0.5096712112426758,-10.365707397460938,0.48095735907554626
1772699068885926000,2.84692578125,-0.5120640397071838,-10.346565246582031,0.5551348328590393
1772699068903271200,2.864271240234375,-0.5718846321105957,-10.39920711517334,0.6125625967979431
1772699068920616700,2.88161669921875,-0.6364908218383789,-10.475777626037598,0.6317051649093628
1772699068937962200,2.898962158203125,-0.6484549641609192,-10.549955368041992,0.6197410821914673
1772699068955307500,2.9163076171875,-0.5694918036460876,-10.480563163757324,0.6436693072319031
1772699068972653000,2.933653076171875,-0.4498506486415863,-10.394421577453613,0.6628118753433228
1772699068989998300,2.950998291015625,-0.48813581466674805,-10.303494453430176,0.6891329288482666
1772699069007343900,2.96834375,-0.5862415432929993,-10.258030891418457,0.8231309652328491
1772699069024689400,2.985689453125,-0.6364908218383789,-10.248459815979004,0.9044869542121887
1772699069042034700,3.00303466796875,-0.6173482537269592,-10.305887222290039,0.885344386100769
1772699069059380200,3.020380126953125,-0.6604190468788147,-10.415956497192383,0.7968099117279053
1772699069076725800,3.037725830078125,-0.605384111404419,-10.528419494628906,0.6939185857772827
1772699069094071000,3.055071044921875,-0.5479564070701599,-10.506884574890137,0.6771687865257263
1772699069111416600,3.07241650390625,-0.576670229434967,-10.39920711517334,0.6795616149902344
1772699069128761900,3.089761962890625,-0.5934200286865234,-10.37767219543457,0.5982056856155396
1772699069146107400,3.107107421875,-0.5718846321105957,-10.38485050201416,0.5838487148284912
1772699069163453000,3.124452880859375,-0.5742774605751038,-10.435099601745605,0.6269195079803467
1772699069180798200,3.141798095703125,-0.5551348328590393,-10.475777626037598,0.6580262184143066
1772699069198143700,3.159143798828125,-0.5647061467170715,-10.435099601745605,0.5982056856155396
1772699069215489300,3.1764892578125,-0.607776939868927,-10.380064964294434,0.5647061467170715
1772699069232834600,3.19383447265625,-0.5623133182525635,-10.40638542175293,0.5670989751815796
1772699069250180000,3.21118017578125,-0.5216353535652161,-10.473384857177734,0.6628118753433228
1772699069267525600,3.228525634765625,-0.5623133182525635,-10.478170394897461,0.7465606927871704
1772699069284871000,3.245870849609375,-0.5958128571510315,-10.442277908325195,0.7250252366065979
1772699069302216400,3.263216552734375,-0.5838487148284912,-10.396814346313477,0.6340979933738708
1772699069319561700,3.280561767578125,-0.5623133182525635,-10.363314628601074,0.5862415432929993
1772699069336907300,3.2979072265625,-0.5670989751815796,-10.365707397460938,0.6245267391204834
1772699069354252800,3.315252685546875,-0.5551348328590393,-10.444670677185059,0.6197410821914673
1772699069371598000,3.33259814453125,-0.5312066078186035,-10.418350219726562,0.6173482537269592
1772699069388943600,3.349943603515625,-0.5335994362831116,-10.425528526306152,0.6604190468788147
1772699069406289200,3.3672890625,-0.605384111404419,-10.439885139465332,0.6891329288482666
1772699069423634400,3.384634521484375,-0.6340979933738708,-10.487741470336914,0.6317051649093628
1772699069440980000,3.40197998046875,-0.5647061467170715,-10.442277908325195,0.5958128571510315
1772699069458325500,3.419325439453125,-0.5407779216766357,-10.432706832885742,0.6317051649093628
1772699069475670800,3.4366708984375,-0.5790630578994751,-10.454241752624512,0.6508477330207825
1772699069493016300,3.454016357421875,-0.6149554252624512,-10.411170959472656,0.6101697683334351
1772699069510361600,3.471361572265625,-0.5958128571510315,-10.370492935180664,0.5910272002220154
1772699069527707100,3.48870703125,-0.6005984544754028,-10.39202880859375,0.6819544434547424
1772699069545052700,3.506052734375,-0.5599204897880554,-10.442277908325195,0.7322037220001221
1772699069562398000,3.52339794921875,-0.5455635786056519,-10.461421012878418,0.7537391185760498
1772699069579743500,3.540743408203125,-0.5623133182525635,-10.463813781738281,0.7106683254241943
1772699069597088800,3.5580888671875,-0.5862415432929993,-10.473384857177734,0.6891329288482666
1772699069614434300,3.575434326171875,-0.5838487148284912,-10.50927734375,0.7082754969596863
1772699069631779800,3.59277978515625,-0.5599204897880554,-10.518848419189453,0.6101697683334351
1772699069649125400,3.61012548828125,-0.5335994362831116,-10.432706832885742,0.5694918036460876
1772699069666470700,3.627470703125,-0.5575276613235474,-10.401599884033203,0.6173482537269592
1772699069683816200,3.644816162109375,-0.5670989751815796,-10.40638542175293,0.6915257573127747
1772699069701161500,3.662161376953125,-0.5718846321105957,-10.418350219726562,0.7226324677467346
1772699069718507000,3.679507080078125,-0.5551348328590393,-10.466206550598145,0.6795616149902344
1772699069735852500,3.6968525390625,-0.5431707501411438,-10.506884574890137,0.6604190468788147
1772699069753197800,3.71419775390625,-0.5264210104942322,-10.480563163757324,0.641276478767395
1772699069770543400,3.73154345703125,-0.5407779216766357,-10.444670677185059,0.6652047038078308
1772699069787888600,3.748888671875,-0.5479564070701599,-10.418350219726562,0.7058826684951782
1772699069805234200,3.766234130859375,-0.5623133182525635,-10.427921295166016,0.7417750358581543
1772699069822579700,3.783579833984375,-0.576670229434967,-10.473384857177734,0.6963114142417908
1772699069839925000,3.800925048828125,-0.5790630578994751,-10.48534870147705,0.6245267391204834
1772699069857270500,3.8182705078125,-0.5455635786056519,-10.480563163757324,0.6149554252624512
1772699069874616000,3.835615966796875,-0.5527420043945312,-10.449456214904785,0.6197410821914673
1772699069891961300,3.85296142578125,-0.576670229434967,-10.348958015441895,0.6197410821914673
1772699069909307000,3.870306884765625,-0.5647061467170715,-10.336994171142578,0.7058826684951782
1772699069926652200,3.887652099609375,-0.5838487148284912,-10.375279426574707,0.729810893535614
1772699069943997700,3.904997802734375,-0.6029912829399109,-10.396814346313477,0.6771687865257263
1772699069961343200,3.92234326171875,-0.5599204897880554,-10.408778190612793,0.6125625967979431
1772699069978688500,3.9396884765625,-0.5527420043945312,-10.49970531463623,0.6508477330207825
1772699069996034000,3.957033935546875,-0.5623133182525635,-10.540383338928223,0.6867401003837585
1772699070013379600,3.974379638671875,-0.5623133182525635,-10.50209903717041,0.6675975322723389
1772699070030724900,3.991724853515625,-0.5383850932121277,-10.375279426574707,0.6652047038078308
1772699070048070400,4.0090703125,-0.5718846321105957,-10.29870891571045,0.6436693072319031
1772699070065416000,4.026416015625,-0.5599204897880554,-10.29153060913086,0.6221339106559753
1772699070082761200,4.04376123046875,-0.5623133182525635,-10.332208633422852,0.605384111404419
1772699070100106800,4.061106689453125,-0.5551348328590393,-10.40638542175293,0.6029912829399109
1772699070117452000,4.0784521484375,-0.5072783827781677,-10.418350219726562,0.5862415432929993
1772699070134797600,4.095797607421875,-0.4833501875400543,-10.348958015441895,0.6197410821914673
1772699070152142800,4.113142822265625,-0.46899324655532837,-10.336994171142578,0.7322037220001221
1772699070169488400,4.13048828125,-0.4785645306110382,-10.442277908325195,0.8111668825149536
1772699070186834000,4.147833984375,-0.5312066078186035,-10.53081226348877,0.8303094506263733
1772699070204179200,4.16517919921875,-0.5431707501411438,-10.557133674621582,0.7992027401924133
1772699070221524700,4.182524658203125,-0.5024927258491516,-10.506884574890137,0.7489534616470337
1772699070238870300,4.199870361328125,-0.519242525100708,-10.444670677185059,0.760917603969574
1772699070256215600,4.217215576171875,-0.5048855543136597,-10.415956497192383,0.7369893789291382
1772699070273561000,4.23456103515625,-0.5288137793540955,-10.40638542175293,0.6795616149902344
1772699070290906600,4.25190673828125,-0.4953143000602722,-10.439885139465332,0.6436693072319031
1772699070308252000,4.269251953125,-0.5096712112426758,-10.497312545776367,0.6340979933738708
1772699070325597400,4.286597412109375,-0.48574298620224,-10.48534870147705,0.6005984544754028
1772699070342943000,4.30394287109375,-0.44027936458587646,-10.396814346313477,0.6101697683334351
1772699070360288300,4.321288330078125,-0.4331009089946747,-10.372885704040527,0.6939185857772827
1772699070377633800,4.3386337890625,-0.4666004180908203,-10.403992652893066,0.7369893789291382
1772699070394979000,4.35597900390625,-0.5000999569892883,-10.449456214904785,0.7154539823532104
1772699070412324600,4.37332470703125,-0.4737788736820221,-10.423135757446289,0.6843472719192505
1772699070429670100,4.390670166015625,-0.4378865361213684,-10.470992088317871,0.6915257573127747
1772699070447015400,4.408015380859375,-0.4498506486415863,-10.50927734375,0.7202396392822266
1772699070464361000,4.42536083984375,-0.45224347710609436,-10.506884574890137,0.7585247755050659
1772699070481706200,4.442706298828125,-0.4618147611618042,-10.506884574890137,0.7752745151519775
1772699070499051800,4.4600517578125,-0.4833501875400543,-10.408778190612793,0.7513462901115417
1772699070516397300,4.477397216796875,-0.5072783827781677,-10.317851066589355,0.6939185857772827
1772699070533742600,4.49474267578125,-0.48095735907554626,-10.284351348876953,0.6364908218383789
1772699070551088000,4.512088134765625,-0.4498506486415863,-10.37767219543457,0.6652047038078308
1772699070568433400,4.529433349609375,-0.4307080805301666,-10.576275825500488,0.6843472719192505
1772699070585779000,4.546779052734375,-0.46420758962631226,-10.626524925231934,0.6915257573127747
1772699070603124500,4.56412451171875,-0.4498506486415863,-10.51645565032959,0.7010970115661621
1772699070620469800,4.5814697265625,-0.4618147611618042,-10.418350219726562,0.7058826684951782
1772699070637815300,4.598815185546875,-0.45942193269729614,-10.40638542175293,0.7202396392822266
1772699070655160800,4.616160888671875,-0.4666004180908203,-10.39202880859375,0.7130611538887024
1772699070672506000,4.633506103515625,-0.4666004180908203,-10.37767219543457,0.6819544434547424
1772699070689851600,4.6508515625,-0.4331009089946747,-10.317851066589355,0.6508477330207825
1772699070707197200,4.668197265625,-0.4259224236011505,-10.277173042297363,0.6819544434547424
1772699070724542500,4.68554248046875,-0.4331009089946747,-10.308279991149902,0.729810893535614
1772699070741888000,4.702887939453125,-0.46899324655532837,-10.360921859741211,0.7369893789291382
1772699070759233300,4.7202333984375,-0.4618147611618042,-10.427921295166016,0.6963114142417908
1772699070776578800,4.737578857421875,-0.43549370765686035,-10.403992652893066,0.6652047038078308
1772699070793924400,4.75492431640625,-0.4307080805301666,-10.301101684570312,0.6317051649093628
1772699070811269600,4.77226953125,-0.4426721930503845,-10.179067611694336,0.6460621356964111
1772699070828615200,4.789615234375,-0.4713860750198364,-10.112068176269531,0.6604190468788147
1772699070845960400,4.80696044921875,-0.4977070987224579,-10.107282638549805,0.6795616149902344
1772699070863306000,4.824305908203125,-0.4977070987224579,-10.14317512512207,0.6867401003837585
1772699070880651500,4.841651611328125,-0.49292147159576416,-10.234102249145508,0.6891329288482666
1772699070897996800,4.858996826171875,-0.44745782017707825,-10.317851066589355,0.6675975322723389
1772699070915342300,4.87634228515625,-0.4139583110809326,-10.286744117736816,0.6101697683334351
1772699070932691700,4.893691650390625,-0.42352959513664246,-10.14317512512207,0.6508477330207825
1772699070950033200,4.911033203125,-0.42831525206565857,-10.06421184539795,0.7178468108177185
1772699070967378700,4.928378662109375,-0.43549370765686035,-10.03549861907959,0.7537391185760498
1772699070984724000,4.945723876953125,-0.4618147611618042,-10.059426307678223,0.7250252366065979
1772699071002069500,4.963069580078125,-0.4259224236011505,-10.1216402053833,0.641276478767395
1772699071019415000,4.9804150390625,-0.36610186100006104,-10.193424224853516,0.641276478767395
1772699071036760300,4.99776025390625,-0.33738797903060913,-10.236495018005371,0.6891329288482666
1772699071054105900,5.01510595703125,-0.3445664644241333,-10.262816429138184,0.7226324677467346
1772699071071451400,5.032451416015625,-0.35892340540885925,-10.16710376739502,0.7082754969596863
1772699071088796700,5.049796630859375,-0.33738797903060913,-10.037891387939453,0.6771687865257263
1772699071106142200,5.06714208984375,-0.34217363595962524,-9.982855796813965,0.6604190468788147
1772699071123487500,5.084487548828125,-0.32303106784820557,-10.001998901367188,0.6532405614852905
1772699071140833000,5.1018330078125,-0.30149564146995544,-10.030712127685547,0.7082754969596863
1772699071158178300,5.11917822265625,-0.26560330390930176,-10.040284156799316,0.7322037220001221
1772699071175523800,5.13652392578125,-0.2727817893028259,-9.956535339355469,0.7920243144035339
1772699071192869400,5.153869384765625,-0.275174617767334,-9.915857315063477,0.8183453679084778
1772699071210214700,5.171214599609375,-0.31345975399017334,-10.03310489654541,0.7992027401924133
1772699071227560200,5.188560302734375,-0.33020952343940735,-10.112068176269531,0.7513462901115417
1772699071244905700,5.20590576171875,-0.3038884699344635,-10.06421184539795,0.6891329288482666
1772699071262251000,5.2232509765625,-0.2679961323738098,-9.930213928222656,0.6675975322723389
1772699071279596500,5.240596435546875,-0.28953152894973755,-9.832108497619629,0.7226324677467346
1772699071296942000,5.257942138671875,-0.3158525824546814,-9.832108497619629,0.7465606927871704
1772699071314287400,5.275287353515625,-0.3326023519039154,-9.872786521911621,0.7585247755050659
1772699071331633000,5.2926328125,-0.33499518036842346,-9.930213928222656,0.7441678643226624
1772699071348978200,5.309978271484375,-0.34217363595962524,-9.963713645935059,0.7322037220001221
1772699071366323700,5.32732373046875,-0.30628129839897156,-9.923035621643066,0.7010970115661621
1772699071383669200,5.344669189453125,-0.3038884699344635,-9.913464546203613,0.7106683254241943
1772699071401014500,5.3620146484375,-0.3158525824546814,-9.906285285949707,0.729810893535614
1772699071418360000,5.379360107421875,-0.349352091550827,-9.8871431350708,0.7441678643226624
1772699071435705600,5.39670556640625,-0.363709032535553,-9.853643417358398,0.7106683254241943
1772699071453051000,5.41405078125,-0.3086741268634796,-9.844072341918945,0.7250252366065979
1772699071470396400,5.431396484375,-0.3038884699344635,-9.879964828491211,0.7369893789291382
1772699071487741700,5.44874169921875,-0.30149564146995544,-9.89432144165039,0.7417750358581543
1772699071505087200,5.466087158203125,-0.27038896083831787,-9.89432144165039,0.7010970115661621
1772699071522432800,5.483432861328125,-0.3158525824546814,-9.856036186218262,0.7178468108177185
1772699071539778000,5.500778076171875,-0.33499518036842346,-9.772287368774414,0.7034898400306702
1772699071557123600,5.51812353515625,-0.33499518036842346,-9.710074424743652,0.7154539823532104
1772699071574469000,5.53546923828125,-0.3158525824546814,-9.722038269042969,0.7178468108177185
1772699071591814400,5.552814453125,-0.26081767678260803,-9.820143699645996,0.7202396392822266
1772699071609160000,5.570159912109375,-0.2632105052471161,-9.934999465942383,0.6891329288482666
1772699071626505200,5.587505126953125,-0.3086741268634796,-9.91107177734375,0.6699903607368469
1772699071643850800,5.604850830078125,-0.3756731450557709,-9.836894035339355,0.7082754969596863
1772699071661196300,5.6221962890625,-0.4139583110809326,-9.772287368774414,0.7441678643226624
1772699071678541600,5.63954150390625,-0.3684946894645691,-9.765109062194824,0.7250252366065979
1772699071695887000,5.65688720703125,-0.31824541091918945,-9.80100154876709,0.6891329288482666
1772699071713232600,5.674232666015625,-0.27756741642951965,-9.836894035339355,0.6747759580612183
1772699071730578000,5.691577880859375,-0.31106695532798767,-9.882357597351074,0.7130611538887024
1772699071747923500,5.70892333984375,-0.3613162338733673,-9.868000984191895,0.7872386574745178
1772699071765268700,5.726268798828125,-0.3613162338733673,-9.812965393066406,0.8111668825149536
1772699071782614300,5.7436142578125,-0.35413774847984314,-9.731609344482422,0.8087740540504456
1772699071799959600,5.76095947265625,-0.2919243574142456,-9.69093132019043,0.7657032608985901
1772699071817305000,5.77830517578125,-0.2392822653055191,-9.724431037902832,0.7369893789291382
1772699071834650600,5.795650634765625,-0.275174617767334,-9.81535816192627,0.7489534616470337
1772699071851996000,5.812995849609375,-0.3086741268634796,-9.91825008392334,0.8135597109794617
1772699071869341400,5.830341552734375,-0.3517449200153351,-9.994820594787598,0.8446664214134216
1772699071886687000,5.84768701171875,-0.380458801984787,-9.927821159362793,0.7968099117279053
1772699071904032300,5.8650322265625,-0.33020952343940735,-9.789037704467773,0.7226324677467346
1772699071921377800,5.882377685546875,-0.3158525824546814,-9.693324089050293,0.7034898400306702
1772699071938723300,5.899723388671875,-0.31345975399017334,-9.695717811584473,0.7058826684951782
1772699071956068600,5.917068603515625,-0.34217363595962524,-9.743574142456055,0.7537391185760498
1772699071973414100,5.9344140625,-0.35413774847984314,-9.796216011047363,0.8255237936973572
1772699071990759400,5.951759521484375,-0.380458801984787,-9.8871431350708,0.8207381963729858
1772699072008105000,5.96910498046875,-0.3732803463935852,-9.980463027954102,0.7657032608985901
1772699072025450500,5.986450439453125,-0.3565305769443512,-10.023533821105957,0.7130611538887024
1772699072042795800,6.003795654296875,-0.34217363595962524,-9.949356079101562,0.6939185857772827
1772699072060141300,6.021141357421875,-0.3684946894645691,-9.791430473327637,0.7082754969596863
1772699072077486600,6.038486572265625,-0.37088751792907715,-9.66221809387207,0.7178468108177185
1772699072094832000,6.05583203125,-0.380458801984787,-9.614361763000488,0.7130611538887024
1772699072112177700,6.073177734375,-0.3613162338733673,-9.710074424743652,0.7345965504646301
1772699072129523000,6.09052294921875,-0.32303106784820557,-9.870393753051758,0.7417750358581543
1772699072146868500,6.107868408203125,-0.34695929288864136,-10.006784439086914,0.7561319470405579
1772699072164214000,6.125214111328125,-0.36610186100006104,-10.016355514526367,0.7489534616470337
1772699072181559300,6.142559326171875,-0.4163511395454407,-9.877572059631348,0.7058826684951782
1772699072198904800,6.15990478515625,-0.397208571434021,-9.731609344482422,0.6628118753433228
1772699072216250000,6.17725,-0.38763725757598877,-9.705288887023926,0.6556333899497986
1772699072233595600,6.194595703125,-0.3756731450557709,-9.745966911315918,0.6628118753433228
1772699072250941200,6.211941162109375,-0.3684946894645691,-9.791430473327637,0.6939185857772827
1772699072268286500,6.229286376953125,-0.36610186100006104,-9.860821723937988,0.7585247755050659
1772699072285632000,6.246632080078125,-0.4163511395454407,-9.9469633102417,0.7752745151519775
1772699072302977500,6.2639775390625,-0.4450650215148926,-9.954142570495605,0.7417750358581543
1772699072320322800,6.28132275390625,-0.4211367964744568,-9.915857315063477,0.6795616149902344
1772699072346340900,6.3073408203125,-0.3565305769443512,-9.784252166748047,0.6915257573127747
1772699072363686400,6.324686279296875,-0.3445664644241333,-9.760323524475098,0.7465606927871704
1772699072381032000,6.342031982421875,-0.380458801984787,-9.848857879638672,0.763310432434082
1772699072398377200,6.359377197265625,-0.40677985548973083,-9.92542839050293,0.7393822073936462
1772699072415722800,6.37672265625,-0.3517449200153351,-9.920642852783203,0.7106683254241943
1772699072433068300,6.394068359375,-0.33020952343940735,-9.91107177734375,0.7250252366065979
1772699072450413600,6.41141357421875,-0.2991028428077698,-9.863214492797852,0.7322037220001221
1772699072467759000,6.428759033203125,-0.3397808074951172,-9.767501831054688,0.7106683254241943
1772699072485104600,6.446104736328125,-0.3565305769443512,-9.717252731323242,0.7082754969596863
1772699072502450000,6.463449951171875,-0.2967100143432617,-9.772287368774414,0.7202396392822266
1772699072519795500,6.48079541015625,-0.33020952343940735,-9.89432144165039,0.760917603969574
1772699072537140700,6.498140625,-0.31824541091918945,-9.997213363647461,0.7896314859390259
1772699072554486300,6.515486328125,-0.3445664644241333,-10.009177207946777,0.7680960893630981
1772699072571831800,6.532831787109375,-0.363709032535553,-9.906285285949707,0.763310432434082
1772699072589177000,6.550177001953125,-0.3445664644241333,-9.812965393066406,0.7393822073936462
1772699072606522600,6.567522705078125,-0.33738797903060913,-9.772287368774414,0.7369893789291382
1772699072623868000,6.584867919921875,-0.37088751792907715,-9.779465675354004,0.6963114142417908
1772699072641213400,6.60221337890625,-0.380458801984787,-9.80100154876709,0.7034898400306702
1772699072658559000,6.61955908203125,-0.34695929288864136,-9.863214492797852,0.7202396392822266
1772699072675904300,6.636904296875,-0.3517449200153351,-9.906285285949707,0.7441678643226624
1772699072693249800,6.654249755859375,-0.30628129839897156,-9.937392234802246,0.727418065071106
1772699072710595000,6.671594970703125,-0.3445664644241333,-9.853643417358398,0.7417750358581543
1772699072727940600,6.688940673828125,-0.397208571434021,-9.755537986755371,0.727418065071106
1772699072745286100,6.7062861328125,-0.42352959513664246,-9.693324089050293,0.7250252366065979
1772699072762631400,6.72363134765625,-0.4450650215148926,-9.724431037902832,0.6795616149902344
1772699072779977000,6.74097705078125,-0.4019941985607147,-9.803394317626953,0.6556333899497986
1772699072797322500,6.758322509765625,-0.37806597352027893,-9.908679008483887,0.6795616149902344
1772699072814667800,6.775667724609375,-0.3684946894645691,-10.061819076538086,0.7250252366065979
1772699072832013300,6.793013427734375,-0.42352959513664246,-10.15035343170166,0.729810893535614
1772699072849358800,6.81035888671875,-0.46899324655532837,-9.968499183654785,0.698704183101654
1772699072866704100,6.8277041015625,-0.44027936458587646,-9.68375301361084,0.6460621356964111
1772699072884049700,6.845049560546875,-0.42831525206565857,-9.492327690124512,0.6269195079803467
1772699072901395200,6.862395263671875,-0.4426721930503845,-9.499505996704102,0.641276478767395
1772699072918740500,6.879740478515625,-0.4331009089946747,-9.702896118164062,0.6795616149902344
1772699072936086000,6.8970859375,-0.41156548261642456,-9.920642852783203,0.729810893535614
1772699072953431300,6.914431396484375,-0.42352959513664246,-10.083354949951172,0.7010970115661621
1772699072970776800,6.93177685546875,-0.41156548261642456,-9.963713645935059,0.6364908218383789
1772699072988122400,6.949122314453125,-0.4163511395454407,-9.705288887023926,0.6221339106559753
1772699073005467600,6.966467529296875,-0.4450650215148926,-9.580862045288086,0.6532405614852905
1772699073022813200,6.983813232421875,-0.5048855543136597,-9.635896682739258,0.6819544434547424
1772699073040158500,7.001158447265625,-0.5048855543136597,-9.77707290649414,0.6819544434547424
1772699073057504000,7.01850390625,-0.4785645306110382,-9.882357597351074,0.6580262184143066
1772699073074849500,7.035849609375,-0.4450650215148926,-9.90149974822998,0.5958128571510315
1772699073092194800,7.05319482421875,-0.397208571434021,-9.834501266479492,0.6149554252624512
1772699073109540400,7.070540283203125,-0.380458801984787,-9.779465675354004,0.6819544434547424
1772699073126886000,7.087885986328125,-0.3924229145050049,-9.784252166748047,0.7345965504646301
1772699073144231200,7.105231201171875,-0.38285163044929504,-9.812965393066406,0.7824530005455017
1772699073161576700,7.12257666015625,-0.37806597352027893,-9.805787086486816,0.8063812255859375
1772699073178922000,7.139921875,-0.37806597352027893,-9.798608779907227,0.8039883971214294
1772699073196267500,7.157267578125,-0.32303106784820557,-9.80100154876709,0.7704889178276062
1772699073213613000,7.174613037109375,-0.29431718587875366,-9.812965393066406,0.7680960893630981
1772699073230958300,7.191958251953125,-0.33738797903060913,-9.836894035339355,0.7872386574745178
1772699073248303900,7.209303955078125,-0.349352091550827,-9.889535903930664,0.8207381963729858
1772699073265649400,7.2266494140625,-0.37806597352027893,-9.896714210510254,0.849452018737793
1772699073282994700,7.24399462890625,-0.3852444589138031,-9.899106979370117,0.8446664214134216
1772699073300340200,7.26134033203125,-0.31345975399017334,-9.832108497619629,0.7848458290100098
1772699073317685500,7.278685546875,-0.3038884699344635,-9.774680137634277,0.7417750358581543
1772699073335031000,7.296031005859375,-0.3158525824546814,-9.827322959899902,0.7345965504646301
1772699073352376600,7.31337646484375,-0.3565305769443512,-9.906285285949707,0.7489534616470337
1772699073369721900,7.330721923828125,-0.31824541091918945,-9.954142570495605,0.7800601720809937
1772699073387067400,7.3480673828125,-0.3326023519039154,-9.968499183654785,0.7776673436164856
1772699073404413000,7.365412841796875,-0.33738797903060913,-9.944570541381836,0.7537391185760498
1772699073421758200,7.38275830078125,-0.31824541091918945,-9.853643417358398,0.7154539823532104
1772699073439103700,7.400103759765625,-0.31345975399017334,-9.803394317626953,0.6628118753433228
1772699073456449300,7.41744921875,-0.2919243574142456,-9.858428955078125,0.6699903607368469
1772699073473794600,7.434794677734375,-0.30149564146995544,-9.944570541381836,0.729810893535614
1772699073491140000,7.45214013671875,-0.33020952343940735,-9.992427825927734,0.7322037220001221
1772699073508485400,7.4694853515625,-0.33020952343940735,-9.944570541381836,0.6867401003837585
1772699073525831000,7.486830810546875,-0.35413774847984314,-9.822537422180176,0.6652047038078308
1772699073543176400,7.504176513671875,-0.3445664644241333,-9.724431037902832,0.6484549641609192
1772699073560521700,7.521521728515625,-0.2991028428077698,-9.698110580444336,0.6556333899497986
1772699073577867300,7.5388671875,-0.3086741268634796,-9.743574142456055,0.6915257573127747
1772699073595212800,7.556212890625,-0.31824541091918945,-9.848857879638672,0.7226324677467346
1772699073612558000,7.57355810546875,-0.3517449200153351,-9.93978500366211,0.698704183101654
1772699073629903600,7.590903564453125,-0.35892340540885925,-9.93260669708252,0.6604190468788147
1772699073647249000,7.608248779296875,-0.3517449200153351,-9.858428955078125,0.605384111404419
1772699073664594400,7.625594482421875,-0.3326023519039154,-9.738788604736328,0.6125625967979431
1772699073681940000,7.64293994140625,-0.37088751792907715,-9.667003631591797,0.638883650302887
1772699073699285200,7.66028515625,-0.3732803463935852,-9.681360244750977,0.6460621356964111
1772699073716630800,7.677630859375,-0.40677985548973083,-9.719645500183105,0.6269195079803467
1772699073733976300,7.694976318359375,-0.3756731450557709,-9.836894035339355,0.5958128571510315
1772699073751321600,7.712321533203125,-0.31345975399017334,-9.899106979370117,0.5886343717575073
1772699073768667100,7.729667236328125,-0.2871387302875519,-9.848857879638672,0.6197410821914673
1772699073786012400,7.747012451171875,-0.2727817893028259,-9.731609344482422,0.6317051649093628
1772699073803358000,7.76435791015625,-0.2799602448940277,-9.671789169311523,0.7393822073936462
1772699073820703500,7.781703369140625,-0.3326023519039154,-9.765109062194824,0.8327022790908813
1772699073838048800,7.799048828125,-0.349352091550827,-9.91107177734375,0.8446664214134216
1772699073855394300,7.816394287109375,-0.31345975399017334,-9.999606132507324,0.8709874153137207
1772699073872739800,7.83373974609375,-0.35892340540885925,-9.805787086486816,0.9547362327575684
1772699073890085000,7.851085205078125,-0.36610186100006104,-9.695717811584473,1.0049854516983032
1772699073907430700,7.8684306640625,-0.2967100143432617,-9.762716293334961,0.9619147181510925
1772699073924776200,7.885776123046875,-0.28235307335853577,-9.810572624206543,0.8638089895248413
1772699073942121500,7.90312158203125,-0.349352091550827,-9.860821723937988,0.7489534616470337
1772699073959467000,7.920467041015625,-0.32303106784820557,-9.817750930786133,0.763310432434082
1772699073976812300,7.937812255859375,-0.2871387302875519,-9.803394317626953,0.7896314859390259
1772699073994157800,7.95515771484375,-0.3852444589138031,-9.896714210510254,0.7657032608985901
1772699074011503400,7.97250341796875,-0.5024927258491516,-9.908679008483887,0.6436693072319031
1772699074028848600,7.9898486328125,-0.4905286431312561,-9.860821723937988,0.5670989751815796
1772699074046194200,8.007194091796874,-0.28953152894973755,-9.774680137634277,0.5000999569892883
1772699074063539700,8.024539794921875,-0.2153540402650833,-9.765109062194824,0.5431707501411438
1772699074080885000,8.041885009765625,-0.2799602448940277,-9.796216011047363,0.6364908218383789
1772699074098230500,8.05923046875,-0.30149564146995544,-9.760323524475098,0.6149554252624512
1772699074115575800,8.076575927734375,-0.36610186100006104,-9.836894035339355,0.576670229434967
1772699074132921300,8.09392138671875,-0.21296121180057526,-9.958928108215332,0.6652047038078308
1772699074150267000,8.111266845703126,-0.1698904037475586,-10.01874828338623,0.7896314859390259
1772699074167612200,8.128612060546875,-0.31106695532798767,-10.04985523223877,0.8542376756668091
1772699074184957700,8.145957763671875,-0.4259224236011505,-9.968499183654785,0.8470591902732849
1772699074202303200,8.16330322265625,-0.5096712112426758,-9.91107177734375,0.7585247755050659
1772699074219648500,8.1806484375,-0.42352959513664246,-9.860821723937988,0.6939185857772827
1772699074236994000,8.197994140625,-0.26081767678260803,-9.848857879638672,0.7513462901115417
1772699074254339600,8.215339599609376,-0.3086741268634796,-9.875179290771484,0.8422735929489136
1772699074271684900,8.232684814453124,-0.3684946894645691,-9.872786521911621,0.9116654396057129
1772699074289030400,8.250030517578125,-0.34695929288864136,-9.91825008392334,0.9044869542121887
1772699074306376000,8.2673759765625,-0.31345975399017334,-9.963713645935059,0.9379864931106567
1772699074323721200,8.28472119140625,-0.35892340540885925,-9.973284721374512,0.9427721500396729
1772699074341066800,8.302066650390625,-0.4307080805301666,-9.903892517089844,0.9212366938591003
1772699074358412000,8.319412109375,-0.4331009089946747,-9.760323524475098,0.8685946464538574
1772699074375757600,8.336757568359374,-0.3086741268634796,-9.671789169311523,0.7704889178276062
1772699074393103000,8.35410302734375,-0.22013968229293823,-9.688538551330566,0.729810893535614
1772699074410448400,8.371448486328125,-0.24406790733337402,-9.80817985534668,0.7106683254241943
1772699074427794000,8.3887939453125,-0.33020952343940735,-9.908679008483887,0.7010970115661621
1772699074445139500,8.406139404296875,-0.3397808074951172,-9.927821159362793,0.6675975322723389
1772699074462484700,8.423484619140625,-0.33020952343940735,-9.872786521911621,0.6939185857772827
1772699074479830300,8.440830322265626,-0.28953152894973755,-9.722038269042969,0.7465606927871704
1772699074497175800,8.45817578125,-0.2273181527853012,-9.588040351867676,0.7728816866874695
1772699074514521000,8.47552099609375,-0.20578274130821228,-9.580862045288086,0.7920243144035339
1772699074531866600,8.49286669921875,-0.2727817893028259,-9.722038269042969,0.8638089895248413
1772699074549212000,8.5102119140625,-0.31824541091918945,-9.884750366210938,0.916451096534729
1772699074566557400,8.527557373046875,-0.3086741268634796,-9.923035621643066,0.8949156403541565
1772699074583903000,8.544903076171876,-0.25363919138908386,-9.844072341918945,0.8709874153137207
1772699074601248300,8.562248291015624,-0.21296121180057526,-9.774680137634277,0.916451096534729
1772699074618593800,8.57959375,-0.23688943684101105,-9.719645500183105,0.9451649188995361
1772699074635939300,8.596939208984375,-0.2632105052471161,-9.710074424743652,0.9284151792526245
1772699074653284600,8.61428466796875,-0.2967100143432617,-9.755537986755371,0.9212366938591003
1772699074670630100,8.631630126953125,-0.28953152894973755,-9.827322959899902,0.9332008361816406
1772699074687975700,8.6489755859375,-0.2871387302875519,-9.879964828491211,0.9188438653945923
1772699074705321000,8.666321044921874,-0.24167509377002716,-9.968499183654785,0.8997012972831726
1772699074722666500,8.68366650390625,-0.28235307335853577,-10.02592658996582,0.9068797826766968
1772699074740012000,8.701011962890625,-0.3397808074951172,-9.9469633102417,0.8949156403541565
1772699074757357300,8.718357421875,-0.33499518036842346,-9.748359680175781,0.8350951075553894
1772699074774702800,8.735702880859375,-0.26560330390930176,-9.619147300720215,0.7728816866874695
1772699074792048000,8.753048095703125,-0.22971096634864807,-9.659825325012207,0.7848458290100098
1772699074809393700,8.7703935546875,-0.25363919138908386,-9.860821723937988,0.8183453679084778
1772699074826739200,8.7877392578125,-0.2991028428077698,-9.980463027954102,0.8422735929489136
1772699074844084500,8.80508447265625,-0.2871387302875519,-10.006784439086914,0.8638089895248413
1772699074861430000,8.822429931640626,-0.22492532432079315,-9.913464546203613,0.8422735929489136
1772699074878775600,8.839775634765624,-0.2225325107574463,-9.798608779907227,0.8231309652328491
1772699074896120800,8.857120849609375,-0.22013968229293823,-9.698110580444336,0.8159525394439697
1772699074913466400,8.87446630859375,-0.24167509377002716,-9.686145782470703,0.8279166221618652
1772699074930812000,8.89181201171875,-0.28953152894973755,-9.781859397888184,0.8327022790908813
1772699074948157200,8.9091572265625,-0.2632105052471161,-9.934999465942383,0.8303094506263733
1772699074965502700,8.926502685546875,-0.18903298676013947,-10.05703353881836,0.8446664214134216
1772699074982848300,8.94384814453125,-0.24885354936122894,-10.02592658996582,0.8350951075553894
1772699075000193500,8.961193603515625,-0.2919243574142456,-9.958928108215332,0.8039883971214294
1772699075017539000,8.9785390625,-0.30149564146995544,-9.827322959899902,0.7322037220001221
1772699075034884400,8.99588427734375,-0.2799602448940277,-9.750752449035645,0.698704183101654
1772699075052230000,9.01322998046875,-0.27756741642951965,-9.7938232421875,0.7034898400306702
1772699075069575400,9.030575439453125,-0.2967100143432617,-9.851250648498535,0.7154539823532104
1772699075086920700,9.047920654296876,-0.3206382393836975,-9.937392234802246,0.729810893535614
1772699075104266200,9.065266357421875,-0.363709032535553,-9.982855796813965,0.698704183101654
1772699075121611800,9.08261181640625,-0.4139583110809326,-9.970891952514648,0.5958128571510315
1772699075138957000,9.09995703125,-0.4043870270252228,-9.879964828491211,0.5670989751815796
1772699075156302600,9.117302490234374,-0.37088751792907715,-9.791430473327637,0.5862415432929993
1772699075173648100,9.134648193359375,-0.2991028428077698,-9.710074424743652,0.672383189201355
1772699075190993400,9.151993408203126,-0.3038884699344635,-9.693324089050293,0.7465606927871704
1772699075208339000,9.1693388671875,-0.3326023519039154,-9.812965393066406,0.7154539823532104
1772699075225684500,9.1866845703125,-0.3924229145050049,-9.90149974822998,0.6508477330207825
1772699075243029800,9.20402978515625,-0.4163511395454407,-9.973284721374512,0.5599204897880554
1772699075260375300,9.221375244140624,-0.37088751792907715,-9.963713645935059,0.5024927258491516
1772699075277720800,9.238720947265625,-0.3326023519039154,-9.78664493560791,0.5527420043945312
1772699075295066000,9.256066162109375,-0.28235307335853577,-9.640682220458984,0.6843472719192505
1772699075312411600,9.27341162109375,-0.3086741268634796,-9.638289451599121,0.7992027401924133
1772699075329757200,9.290757080078125,-0.3900300860404968,-9.757930755615234,0.8638089895248413
1772699075347102500,9.3081025390625,-0.4713860750198364,-9.872786521911621,0.849452018737793
1772699075364448000,9.325447998046876,-0.4211367964744568,-9.927821159362793,0.763310432434082
1772699075381793500,9.34279345703125,-0.3684946894645691,-9.923035621643066,0.7226324677467346
1772699075399138800,9.360138916015625,-0.3517449200153351,-9.8871431350708,0.7178468108177185
1772699075416484400,9.377484375,-0.38763725757598877,-9.879964828491211,0.698704183101654
1772699075433830000,9.394829833984375,-0.4139583110809326,-9.879964828491211,0.6460621356964111
1772699075451175200,9.412175048828125,-0.44027936458587646,-9.875179290771484,0.5958128571510315
1772699075468520700,9.429520751953126,-0.4139583110809326,-9.812965393066406,0.5934200286865234
1772699075485866200,9.4468662109375,-0.4043870270252228,-9.743574142456055,0.5718846321105957
1772699075503211500,9.46421142578125,-0.4019941985607147,-9.717252731323242,0.6101697683334351
1772699075520557000,9.48155712890625,-0.39481574296951294,-9.791430473327637,0.6556333899497986
1772699075537902600,9.498902587890624,-0.41874396800994873,-9.961320877075195,0.6460621356964111
1772699075555247900,9.516247802734375,-0.4259224236011505,-10.076175689697266,0.5718846321105957
1772699075572593400,9.533593505859375,-0.380458801984787,-10.076175689697266,0.6005984544754028
1772699075598611500,9.559611572265625,-0.4259224236011505,-9.688538551330566,0.8303094506263733
1772699075615957000,9.57695703125,-0.35413774847984314,-9.564111709594727,1.0241280794143677
1772699075633302500,9.594302490234375,-0.2632105052471161,-9.585647583007812,1.0504491329193115
1772699075650647800,9.611647705078125,-0.24167509377002716,-9.65503978729248,0.9451649188995361
1772699075667993300,9.628993408203126,-0.2584248483181,-9.738788604736328,0.7680960893630981
1772699075685339000,9.6463388671875,-0.29431718587875366,-9.810572624206543,0.6221339106559753
1772699075702684200,9.66368408203125,-0.2512463629245758,-9.834501266479492,0.5718846321105957
1772699075720029700,9.68102978515625,-0.2153540402650833,-9.781859397888184,0.6675975322723389
1772699075737375200,9.698375244140625,-0.2512463629245758,-9.757930755615234,0.8015955686569214
1772699075754720500,9.715720458984375,-0.27038896083831787,-9.81535816192627,0.9260223507881165
1772699075772066000,9.733066162109376,-0.31106695532798767,-9.875179290771484,1.0217353105545044
1772699075789411600,9.75041162109375,-0.34217363595962524,-9.961320877075195,1.0336993932724
1772699075806756900,9.7677568359375,-0.3732803463935852,-9.93978500366211,0.9451649188995361
1772699075824102400,9.785102294921876,-0.4713860750198364,-9.882357597351074,0.7154539823532104
1772699075841448000,9.802447998046874,-0.4977070987224579,-9.836894035339355,0.39481574296951294
1772699075858793200,9.819793212890625,-0.5168496966362,-9.851250648498535,0.18903298676013947
1772699075876138800,9.837138671875,-0.5575276613235474,-9.891928672790527,0.21296121180057526
1772699075893484300,9.854484375,-0.6149554252624512,-9.997213363647461,0.37088751792907715
1772699075910829600,9.87182958984375,-0.6269195079803467,-10.083354949951172,0.48813581466674805
1772699075928175000,9.889175048828125,-0.5958128571510315,-10.090533256530762,0.43549370765686035
1772699075945520600,9.906520751953124,-0.6173482537269592,-9.990034103393555,0.4019941985607147
1772699075962866000,9.923865966796875,-0.6029912829399109,-9.90149974822998,0.4019941985607147
1772699075980211500,9.94121142578125,-0.6221339106559753,-9.817750930786133,0.39481574296951294
1772699075997557000,9.958556884765626,-0.6556333899497986,-9.748359680175781,0.34217363595962524
1772699076014902300,9.97590234375,-0.6580262184143066,-9.623932838439941,0.31345975399017334
1772699076032247800,9.993247802734375,-0.6699903607368469,-9.504291534423828,0.48574298620224
1772699076049593300,10.01059326171875,-0.6340979933738708,-9.580862045288086,0.7154539823532104
1772699076066938600,10.027938720703125,-0.6197410821914673,-9.863214492797852,0.7992027401924133
1772699076084284200,10.0452841796875,-0.605384111404419,-10.037891387939453,0.8590233325958252
1772699076101629700,10.062629638671876,-0.5742774605751038,-9.966106414794922,0.97148597240448
1772699076118975000,10.07997509765625,-0.5407779216766357,-9.66939640045166,1.1365907192230225
1772699076136320500,10.097320556640625,-0.5862415432929993,-9.446864128112793,1.2897313833236694
1772699076153666000,10.114666015625,-0.6221339106559753,-9.456435203552246,1.3591232299804688
1772699076171011300,10.13201123046875,-0.605384111404419,-9.748359680175781,1.3591232299804688
1772699076188356900,10.14935693359375,-0.5742774605751038,-9.978070259094238,1.3256237506866455
1772699076205702400,10.166702392578125,-0.48095735907554626,-9.9469633102417,1.2634103298187256
1772699076223047700,10.184047607421874,-0.46420758962631226,-9.748359680175781,1.246660590171814
1772699076240393200,10.201393310546875,-0.48095735907554626,-9.54496955871582,1.1485549211502075
1772699076257738800,10.21873876953125,-0.519242525100708,-9.497113227844238,0.9667003750801086
1772699076275084000,10.236083984375,-0.5407779216766357,-9.600004196166992,0.8374879360198975
1772699076292429600,10.2534296875,-0.5407779216766357,-9.774680137634277,0.794417142868042
1772699076309775000,10.270775146484375,-0.5551348328590393,-9.93978500366211,0.8015955686569214
1772699076327120400,10.288120361328126,-0.5958128571510315,-9.968499183654785,0.7657032608985901
1772699076344466000,10.3054658203125,-0.6221339106559753,-9.851250648498535,0.6795616149902344
1772699076361811500,10.3228115234375,-0.5958128571510315,-9.722038269042969,0.5694918036460876
1772699076379157000,10.340156982421876,-0.5335994362831116,-9.635896682739258,0.4618147611618042
1772699076396502300,10.357502197265624,-0.5000999569892883,-9.695717811584473,0.48095735907554626
1772699076413847800,10.374847900390625,-0.5575276613235474,-9.884750366210938,0.5264210104942322
1772699076431193300,10.392193359375,-0.5958128571510315,-9.992427825927734,0.5575276613235474
1772699076448538600,10.40953857421875,-0.5718846321105957,-9.987641334533691,0.607776939868927
1772699076465884200,10.42688427734375,-0.5886343717575073,-9.937392234802246,0.5647061467170715
1772699076483229700,10.444229736328126,-0.6245267391204834,-9.872786521911621,0.48813581466674805
1772699076500575000,10.461574951171874,-0.5694918036460876,-9.767501831054688,0.4498506486415863
1772699076517920500,10.47892041015625,-0.5886343717575073,-9.707681655883789,0.4331009089946747
1772699076535266000,10.49626611328125,-0.641276478767395,-9.748359680175781,0.37806597352027893
1772699076552611300,10.513611328125,-0.5862415432929993,-9.820143699645996,0.3613162338733673
1772699076569956900,10.530956787109375,-0.550349235534668,-9.844072341918945,0.4307080805301666
1772699076587302400,10.548302490234375,-0.6340979933738708,-9.803394317626953,0.5264210104942322
1772699076604647700,10.565647705078124,-0.6819544434547424,-9.745966911315918,0.48095735907554626
1772699076621993200,10.5829931640625,-0.6245267391204834,-9.791430473327637,0.349352091550827
1772699076639338800,10.6003388671875,-0.5168496966362,-9.834501266479492,0.31345975399017334
1772699076656684300,10.617684326171876,-0.4618147611618042,-9.812965393066406,0.4307080805301666
1772699076674029600,10.635029541015625,-0.5551348328590393,-9.779465675354004,0.49292147159576416
1772699076691375000,10.652375,-0.6580262184143066,-9.755537986755371,0.49292147159576416
1772699076708720600,10.669720703125,-0.6556333899497986,-9.76989459991455,0.48095735907554626
1772699076726066000,10.68706591796875,-0.5838487148284912,-9.784252166748047,0.5359922647476196
1772699076743411500,10.704411376953125,-0.38763725757598877,-9.789037704467773,0.6963114142417908
1772699076760757000,10.721757080078126,-0.23688943684101105,-9.652647018432617,0.8566305041313171
1772699076778102300,10.739102294921874,-0.10049854964017868,-9.513862609863281,0.9236295223236084
1772699076795447800,10.75644775390625,-0.05742774158716202,-9.461220741271973,1.00259268283844
1772699076812793300,10.77379345703125,-0.09810572862625122,-9.494720458984375,0.9858429431915283
1772699076830138600,10.791138671875,-0.11485548317432404,-9.554540634155273,0.8949156403541565
1772699076847484200,10.808484130859375,-0.09092725813388824,-9.456435203552246,0.8255237936973572
1772699076864829700,10.82582958984375,-0.04307080805301666,-9.269794464111328,0.7872386574745178
1772699076882175000,10.843175048828124,0.007178467698395252,-9.150154113769531,0.7920243144035339
1772699076899520500,10.8605205078125,-0.031106693670153618,-9.219545364379883,0.7896314859390259
1772699076916866000,10.877865966796875,-0.007178467698395252,-9.343972206115723,0.8231309652328491
1772699076934211600,10.895211669921874,-0.01196411345154047,-9.44447135925293,0.8183453679084778
1772699076951556900,10.912556884765625,0.04546362906694412,-9.463613510131836,0.8685946464538574
1772699076968902400,10.92990234375,0.08374879509210587,-9.375079154968262,0.885344386100769
1772699076986248000,10.947248046875,0.0526420995593071,-9.267401695251465,0.8470591902732849
1772699077003593200,10.96459326171875,-0.0526420995593071,-9.253045082092285,0.7489534616470337
1772699077020938800,10.981938720703125,-0.13639089465141296,-9.363115310668945,0.605384111404419
1772699077038284300,10.9992841796875,-0.21774685382843018,-9.43489933013916,0.5431707501411438
1772699077055629600,11.016629638671875,-0.12681959569454193,-9.401400566101074,0.5264210104942322
1772699077072975000,11.03397509765625,-0.07417750358581543,-9.336793899536133,0.5072783827781677
1772699077090320600,11.051320556640626,-0.06699903309345245,-9.226723670959473,0.4426721930503845
1772699077107666200,11.068666259765624,-0.1339980661869049,-9.078369140625,0.3852444589138031
1772699077125011500,11.086011474609375,-0.3278166949748993,-9.087940216064453,0.2560320198535919
1772699077142357000,11.10335693359375,-0.44027936458587646,-9.305686950683594,0.11006984114646912
1772699077159702500,11.12070263671875,-0.4737788736820221,-9.485149383544922,0.12681959569454193
1772699077177047800,11.1380478515625,-0.45942193269729614,-9.588040351867676,0.27038896083831787
1772699077194393300,11.155393310546875,-0.39960137009620667,-9.597611427307129,0.3732803463935852
1772699077211739000,11.17273876953125,-0.3206382393836975,-9.521040916442871,0.397208571434021
1772699077229084400,11.19008447265625,-0.2679961323738098,-9.360722541809082,0.3565305769443512
1772699077246429700,11.2074296875,-0.16031911969184875,-9.248259544372559,0.363709032535553
1772699077263775200,11.224775146484374,-0.14356936514377594,-9.248259544372559,0.5407779216766357
1772699077281120800,11.242120849609375,-0.2632105052471161,-9.4061861038208,0.6795616149902344
1772699077298466000,11.259466064453125,-0.2392822653055191,-9.549755096435547,0.6293123364448547
1772699077315811600,11.2768115234375,-0.12203395366668701,-9.592825889587402,0.5144568681716919
1772699077333157000,11.2941572265625,-0.04307080805301666,-9.487542152404785,0.4307080805301666
1772699077350502700,11.311502685546875,-0.040677983313798904,-9.298508644104004,0.47617170214653015
1772699077367848000,11.328847900390626,-0.07896314561367035,-9.123832702636719,0.45942193269729614
1772699077385193500,11.346193359375,-0.038285162299871445,-9.056833267211914,0.46420758962631226
1772699077402539000,11.3635390625,0.014356935396790504,-9.05444049835205,0.6149554252624512
1772699077419884300,11.38088427734375,-0.02392822690308094,-9.176474571228027,0.7537391185760498
1772699077437229800,11.398229736328124,-0.08135596662759781,-9.248259544372559,0.7489534616470337
1772699077454575400,11.415575439453125,-0.12681959569454193,-9.176474571228027,0.6604190468788147
1772699077471921000,11.4329208984375,-0.1746760457754135,-9.186046600341797,0.6652047038078308
1772699077489266200,11.45026611328125,-0.23449662327766418,-9.250652313232422,0.5742774605751038
1772699077506611700,11.46761181640625,-0.11006984114646912,-9.298508644104004,0.4091726839542389
1772699077523957200,11.484957275390625,0.014356935396790504,-9.250652313232422,0.4019941985607147
1772699077541302500,11.502302490234374,-0.038285162299871445,-9.183652877807617,0.5312066078186035
1772699077558648000,11.51964794921875,-0.10049854964017868,-9.183652877807617,0.5647061467170715
1772699077575993600,11.53699365234375,-0.1986042857170105,-9.200403213500977,0.4259224236011505
1772699077593339000,11.5543388671875,-0.2273181527853012,-9.253045082092285,0.36610186100006104
1772699077610684400,11.571684326171875,-0.18903298676013947,-9.30329418182373,0.42831525206565857
1772699077628030000,11.589030029296875,-0.14117653667926788,-9.33440113067627,0.5024927258491516
1772699077645375500,11.60637548828125,-0.059820566326379776,-9.305686950683594,0.5168496966362
1772699077662720800,11.623720703125,-0.038285162299871445,-9.21715259552002,0.5455635786056519
1772699077680066300,11.64106640625,-0.08135596662759781,-9.150154113769531,0.5216353535652161
1772699077697411800,11.658411865234376,-0.11246266216039658,-9.104690551757812,0.5359922647476196
1772699077714757000,11.675757080078125,-0.11485548317432404,-9.1716890335083,0.550349235534668
1772699077732102700,11.6931025390625,-0.15314064919948578,-9.339186668395996,0.5790630578994751
1772699077749448200,11.7104482421875,-0.21296121180057526,-9.449256896972656,0.6029912829399109
1772699077766793500,11.72779345703125,-0.2225325107574463,-9.475577354431152,0.5886343717575073
1772699077784139000,11.745138916015625,-0.0933200865983963,-9.418149948120117,0.4953143000602722
1772699077801484500,11.762484619140626,0.038285162299871445,-9.372686386108398,0.48095735907554626
1772699077818830000,11.779830078125,0.05024927482008934,-9.410971641540527,0.5910272002220154
1772699077836175400,11.79717529296875,0.01196411345154047,-9.377471923828125,0.7010970115661621
1772699077853521000,11.81452099609375,-0.05024927482008934,-9.28893756866455,0.7082754969596863
1772699077870866400,11.831866455078124,-0.07417750358581543,-9.121439933776855,0.672383189201355
1772699077888212000,11.8492119140625,0.019142581149935722,-9.056833267211914,0.7489534616470337
1772699077905557200,11.86655712890625,0.13160525262355804,-9.028120040893555,0.8805587291717529
1772699077922902800,11.88390283203125,0.21774685382843018,-9.133403778076172,0.9810572862625122
1772699077940248300,11.901248291015625,0.12921242415905,-9.119047164916992,0.9355936646461487
1772699077957593600,11.918593505859375,0.007178467698395252,-9.07119083404541,0.7489534616470337
1772699077974939100,11.935939208984376,-0.07896314561367035,-8.980263710021973,0.7130611538887024
1772699077992284700,11.95328466796875,-0.1986042857170105,-8.937192916870117,0.7034898400306702
1772699078009630200,11.970630126953125,-0.1866401731967926,-9.044869422912598,0.5359922647476196
1772699078026975500,11.9879755859375,-0.13160525262355804,-9.159725189208984,0.5694918036460876
1772699078044321000,12.005321044921875,-0.035892341285943985,-9.329615592956543,0.7465606927871704
1772699078061666600,12.02266650390625,0.04546362906694412,-9.370293617248535,0.7800601720809937
1772699078079011800,12.04001171875,-0.0023928226437419653,-9.243474006652832,0.7441678643226624
1772699078096357400,12.057357421875,-0.17228323221206665,-9.090332984924316,0.6915257573127747
1772699078113703000,12.074702880859375,-0.22492532432079315,-9.107083320617676,0.7824530005455017
1772699078131048400,12.09204833984375,-0.09810572862625122,-9.193224906921387,0.8973084688186646
1772699078148393700,12.109393798828124,0.13160525262355804,-9.272188186645508,0.9858429431915283
1772699078165739300,12.1267392578125,0.16749759018421173,-9.305686950683594,0.9499505758285522
1772699078183084800,12.144084716796876,0.15553347766399384,-9.253045082092285,0.9858429431915283
1772699078200430300,12.161430419921874,0.13878370821475983,-9.22433090209961,1.0815558433532715
1772699078217775600,12.178775634765625,0.05024927482008934,-9.305686950683594,1.246660590171814
1772699078235121200,12.19612109375,0.038285162299871445,-9.511469841003418,1.3806586265563965
1772699078252466700,12.213466796875,0.1986042857170105,-9.741181373596191,1.399801254272461
1772699078269812200,12.230812255859375,0.2679961323738098,-9.846465110778809,1.4644074440002441
1772699078287157500,12.248157470703125,0.2560320198535919,-9.856036186218262,1.4261223077774048
1772699078304503000,12.2655029296875,0.27038896083831787,-9.525827407836914,1.1892328262329102
1772699078321848600,12.2828486328125,0.24406790733337402,-8.9850492477417,0.8949156403541565
1772699078339193900,12.30019384765625,0.11964113265275955,-8.63330364227295,0.6819544434547424
1772699078356539400,12.317539306640626,-0.016749758273363113,-8.688339233398438,0.5934200286865234
1772699078373885000,12.334885009765625,-0.10767702013254166,-8.93958568572998,0.576670229434967
1772699078391230500,12.35223046875,-0.11485548317432404,-9.140582084655762,0.5144568681716919
1772699078408575700,12.36957568359375,-0.10289137065410614,-9.32004451751709,0.4498506486415863
1772699078425921300,12.38692138671875,-0.05503492057323456,-9.298508644104004,0.38285163044929504
1772699078443266800,12.404266845703125,-0.01196411345154047,-9.166903495788574,0.4139583110809326
1772699078460612400,12.4216123046875,-0.014356935396790504,-9.016156196594238,0.49292147159576416
1772699078477957600,12.43895751953125,-0.03349951654672623,-8.894122123718262,0.5814558863639832
1772699078495303200,12.45630322265625,0.01196411345154047,-8.992227554321289,0.7106683254241943
1772699078512648700,12.473648681640626,0.040677983313798904,-9.229117393493652,0.8087740540504456
1772699078529994200,12.490994140625,0.09092725813388824,-9.363115310668945,0.8111668825149536
1772699078547339500,12.508339599609375,0.1698904037475586,-9.372686386108398,0.8039883971214294
1772699078564685000,12.52568505859375,0.15553347766399384,-9.279366493225098,0.885344386100769
1772699078582030600,12.543030517578124,0.06939185410737991,-9.238688468933105,1.007378339767456
1772699078599376100,12.560376220703125,0.12203395366668701,-9.207581520080566,1.1365907192230225
1772699078616721400,12.577721435546875,-0.031106693670153618,-9.142974853515625,1.100698471069336
1772699078634067000,12.59506689453125,-0.1746760457754135,-9.186046600341797,0.9475577473640442
1772699078651412500,12.61241259765625,0.7034898400306702,-9.559326171875,0.46899324655532837
1772699078668757800,12.6297578125,-0.27756741642951965,-8.992227554321289,1.222732424736023
1772699078686103300,12.647103271484376,0.16031911969184875,-9.298508644104004,0.7106683254241943
1772699078703448800,12.66444873046875,0.39960137009620667,-9.521040916442871,0.8757730722427368
1772699078720794400,12.68179443359375,0.26081767678260803,-8.992227554321289,1.423729419708252
1772699078738140000,12.699139892578126,0.20338992774486542,-9.214759826660156,1.337587833404541
1772699078755485200,12.716485107421875,0.23210379481315613,-9.243474006652832,1.2490534782409668
1772699078772830700,12.733830810546875,0.5790630578994751,-9.21715259552002,1.1868400573730469
1772699078790176300,12.75117626953125,0.46420758962631226,-9.45882797241211,1.306481122970581
1772699078807521800,12.768521728515625,0.5479564070701599,-9.67657470703125,1.1629117727279663
1772699078824867000,12.7858671875,0.4378865361213684,-9.58325481414795,1.2442678213119507
1772699078842212600,12.803212646484376,0.45224347710609436,-9.626325607299805,1.0504491329193115
1772699078859558100,12.82055810546875,0.31824541091918945,-9.485149383544922,1.0097711086273193
1772699078876903700,12.837903564453125,0.29431718587875366,-9.525827407836914,0.8781659007072449
1772699078894249000,12.8552490234375,0.38285163044929504,-9.399007797241211,0.9236295223236084
1772699078911594500,12.872594482421874,0.43549370765686035,-9.233902931213379,0.9044869542121887
1772699078928940000,12.88993994140625,0.43549370765686035,-9.176474571228027,1.007378339767456
1772699078946285300,12.907285400390625,0.3445664644241333,-9.255437850952148,1.0719845294952393
1772699078963630800,12.924630859375,0.08614161610603333,-9.207581520080566,0.9188438653945923
1772699078980976400,12.941976318359375,0.19381862878799438,-9.260223388671875,0.9786644577980042
1772699078998322000,12.959322021484375,0.17228323221206665,-8.997013092041016,0.8997012972831726
1772699079015667500,12.97666748046875,0.20338992774486542,-8.922835350036621,0.8063812255859375
1772699079033012700,12.9940126953125,0.20099709928035736,-9.126225471496582,0.6245267391204834
1772699079050358300,13.011358154296875,0.26081767678260803,-9.20997428894043,0.7106683254241943
1772699079067703800,13.028703857421876,0.1746760457754135,-9.291330337524414,0.6891329288482666
1772699079085049300,13.04604931640625,0.14356936514377594,-9.200403213500977,0.763310432434082
1772699079102394600,13.06339453125,0.1339980661869049,-9.281759262084961,0.763310432434082
1772699079119740200,13.080740234375,0.672383189201355,-9.279366493225098,1.074377417564392
1772699079137085700,13.098085693359375,0.24646073579788208,-9.09990406036377,0.9355936646461487
1772699079154431200,13.11543115234375,0.1866401731967926,-9.176474571228027,1.0791629552841187
1772699079171776500,13.132776611328126,0.12442677468061447,-9.267401695251465,1.1748759746551514
1772699079189122000,13.1501220703125,0.019142581149935722,-9.154939651489258,1.1341979503631592
1772699079206467600,13.167467529296875,0.37806597352027893,-8.848658561706543,1.2921242713928223
1772699079223813000,13.184813232421876,0.1698904037475586,-8.963513374328613,0.8111668825149536
1772699079241158400,13.202158447265624,0.14117653667926788,-9.214759826660156,0.9188438653945923
1772699079258504000,13.21950390625,0.24885354936122894,-8.784051895141602,1.038485050201416
1772699079275849500,13.236849365234375,0.27756741642951965,-8.824729919433594,1.0336993932724
1772699079293195000,13.254195068359374,-0.38763725757598877,-9.05444049835205,1.1318050622940063
1772699079310540300,13.271540283203125,-0.08614161610603333,-9.477970123291016,1.1700903177261353
1772699079327885800,13.2888857421875,0.009571290574967861,-9.7938232421875,0.849452018737793
1772699079345231400,13.3062314453125,0.34695929288864136,-9.4660062789917,0.6963114142417908
1772699079362577000,13.323576904296875,0.20817556977272034,-9.154939651489258,0.6939185857772827
1772699079379922400,13.34092236328125,-0.2727817893028259,-9.391828536987305,1.1198409795761108
1772699079397267700,13.358267822265624,-0.2727817893028259,-9.621540069580078,1.1078768968582153
1772699079414613200,13.37561328125,-0.06699903309345245,-9.877572059631348,1.0121639966964722
1772699079431958800,13.392958740234375,0.15553347766399384,-9.891928672790527,1.160519003868103
1772699079449304000,13.410303955078126,0.10289137065410614,-10.64806079864502,1.1653046607971191
1772699079466649600,13.427649658203125,0.040677983313798904,-10.671989440917969,0.4953143000602722
1772699079483995100,13.4449951171875,0.08853443711996078,-11.145768165588379,0.5718846321105957
1772699079501340700,13.462340576171876,0.4331009089946747,-11.33240795135498,0.4426721930503845
1772699079518686200,13.479686279296875,0.14835500717163086,-12.241681098937988,0.12921242415905
1772699079536031500,13.497031494140625,0.46899324655532837,-12.320643424987793,-0.16271193325519562
1772699079553377000,13.514376953125,1.0265209674835205,-11.650653839111328,0.44745782017707825
1772699079570722600,13.53172265625,0.4833501875400543,-12.100503921508789,-0.06939185410737991
1772699079588068000,13.549068115234375,0.5838487148284912,-12.79442310333252,-0.08853443711996078
1772699079605413600,13.56641357421875,0.30628129839897156,-14.641681671142578,0.5742774605751038
1772699079622759000,13.583759033203124,2.4023938179016113,-14.096117973327637,0.5527420043945312
1772699079640104400,13.6011044921875,1.4715858697891235,-14.718252182006836,-0.9523434042930603
1772699079657450000,13.618449951171876,4.168296813964844,-14.845071792602539,-0.4498506486415863
1772699079674795500,13.63579541015625,1.3256237506866455,-10.564311981201172,-1.8855443000793457
1772699079692140800,13.653140869140625,-1.3184453248977661,-9.681360244750977,-1.7874385118484497
1772699079709486300,13.670486328125,1.7443677186965942,-9.233902931213379,0.5575276613235474
1772699079726831900,13.687831787109374,2.0243279933929443,-7.877171993255615,-0.29431718587875366
1772699079744177400,13.705177490234375,-0.7872386574745178,-7.334001541137695,2.871387243270874
1772699079761523000,13.72252294921875,6.879364967346191,-7.747959613800049,13.677373886108398
1772699079778868200,13.7398681640625,6.125626087188721,-4.240081787109375,8.714659690856934
1772699079796213800,13.7572138671875,2.9168508052825928,-6.2668023109436035,7.10429048538208
1772699079813559300,13.774559326171875,2.251646041870117,-7.130611419677734,6.403193473815918
1772699079830904800,13.79190478515625,1.7156537771224976,-5.338387489318848,9.724431037902832
1772699079848250400,13.80925048828125,3.744767427444458,-7.0061845779418945,13.75633716583252
1772699079865595600,13.826595703125,7.379465103149414,-8.331808090209961,14.088939666748047
1772699079882941200,13.843941162109376,11.33958625793457,-9.614361763000488,15.127425193786621
1772699079900286700,13.86128662109375,8.032705307006836,-10.894521713256836,11.119446754455566
1772699079917632300,13.87863232421875,5.7164530754089355,-10.86580753326416,9.164510726928711
1772699079934977800,13.895977783203126,4.058227062225342,-9.954142570495605,11.696117401123047
1772699079952323000,13.913322998046874,2.4406790733337402,-11.085947036743164,14.632110595703125
1772699079969668600,13.930668701171875,2.6632115840911865,-14.735001564025879,13.552947044372559
1772699079987014100,13.94801416015625,4.838287353515625,-14.416756629943848,9.147761344909668
1772699080004359700,13.965359619140624,5.063212871551514,-12.440284729003906,9.66221809387207
1772699080021705200,13.982705322265625,3.9840497970581055,-10.301101684570312,10.403992652893066
1772699080039050800,14.00005078125,0.33738797903060913,-10.420742988586426,13.031311988830566
1772699080056396000,14.01739599609375,0.12681959569454193,-9.05444049835205,10.932806968688965
1772699080073741600,14.034741455078125,0.7345965504646301,-8.090133666992188,7.293323516845703
1772699080091087000,14.052087158203125,1.373480200767517,-6.484549522399902,4.266402721405029
1772699080108432600,14.0694326171875,1.7012969255447388,-3.2781670093536377,3.735196113586426
1772699080125778000,14.08677783203125,3.507878065109253,-1.7611174583435059,5.410171985626221
1772699080143123500,14.10412353515625,5.4173502922058105,-0.08853443711996078,5.185246467590332
1772699080160469000,14.121468994140624,4.833501815795898,1.2299108505249023,3.3930225372314453
1772699080177814500,14.138814453125,3.4097721576690674,2.3497519493103027,1.3878371715545654
1772699080195160000,14.15616015625,2.9862427711486816,3.517449378967285,0.6340979933738708
1772699080212505600,14.173505615234374,3.735196113586426,4.177868366241455,1.34476637840271
1772699080229851000,14.190850830078125,4.543970108032227,4.240081787109375,1.6821542978286743
1772699080247196400,14.208196533203125,4.019941806793213,4.41475772857666,0.5838487148284912
1772699080264542000,14.2255419921875,4.658825874328613,5.843272686004639,0.5312066078186035
1772699080281887500,14.242887451171875,5.388636589050293,5.32403039932251,-0.1866401731967926
1772699080299233000,14.26023291015625,5.343173027038574,6.38165807723999,0.41156548261642456
1772699080316578300,14.277578369140626,6.661618232727051,6.7621169090271,1.0480563640594482
1772699080333923800,14.294923828125,6.486942291259766,5.675775527954102,-0.5886343717575073
1772699080351269400,14.312269287109375,8.049455642700195,5.8337016105651855,-2.4095723628997803
1772699080368615000,14.329614990234376,7.444071292877197,6.1710896492004395,-2.6249263286590576
1772699080385960400,14.34696044921875,6.362515449523926,7.278966426849365,-0.8685946464538574
1772699080403306000,14.364305908203125,3.6873397827148438,8.69791030883789,-0.11006984114646912
1772699080420651300,14.3816513671875,-0.4043870270252228,8.432307243347168,-0.3397808074951172
1772699080437996800,14.398996826171874,5.065605640411377,6.4701924324035645,0.48574298620224
1772699080455342300,14.41634228515625,8.810373306274414,8.549555778503418,-0.5455635786056519
1772699080472687900,14.43368798828125,6.97986364364624,7.003791809082031,0.14117653667926788
1772699080490033400,14.451033447265624,7.377072334289551,5.747560024261475,0.9930213689804077
1772699080507379000,14.46837890625,7.549355506896973,6.230910301208496,1.0504491329193115
1772699080524724200,14.48572412109375,6.573083877563477,7.2430739402771,0.10289137065410614
1772699080542069800,14.50306982421875,5.2737812995910645,8.061419486999512,0.064606212079525
1772699080559415300,14.520415283203125,5.163711071014404,7.496713161468506,0.914058268070221
1772699080576760800,14.5377607421875,6.39601469039917,6.051448345184326,0.9619147181510925
1772699080594106400,14.5551064453125,7.582854747772217,6.905686378479004,-0.3756731450557709
1772699080611451600,14.57245166015625,7.451249599456787,7.41535758972168,-1.3543375730514526
1772699080628797200,14.589797119140625,7.020541667938232,7.472784996032715,-0.7776673436164856
1772699080646142700,14.607142822265626,5.982056617736816,7.692924976348877,0.5910272002220154
1772699080663488300,14.62448828125,5.7858452796936035,7.436892986297607,0.9427721500396729
1772699080680833800,14.641833740234375,5.867201328277588,7.623532772064209,-0.2105683982372284
1772699080698179000,14.659178955078126,5.92223596572876,7.558926582336426,-1.0336993932724
1772699080715524600,14.676524658203125,5.508277893066406,7.566105365753174,-0.9427721500396729
1772699080732870100,14.6938701171875,5.441278457641602,7.654639720916748,-0.41156548261642456
1772699080750215700,14.711215576171876,6.204588890075684,7.625925540924072,-0.040677983313798904
1772699080767561200,14.728561279296875,6.802794933319092,7.5637125968933105,0.0023928226437419653
1772699080784906800,14.74590673828125,6.632904529571533,7.463213920593262,0.35892340540885925
1772699080802252000,14.763251953125,5.881557941436768,7.3675007820129395,0.2679961323738098
1772699080819597600,14.78059765625,6.029912948608398,7.283751964569092,-0.8063812255859375
1772699080836943000,14.797943115234375,5.362315654754639,7.795815944671631,-1.8640087842941284
1772699080854288600,14.81528857421875,5.383851051330566,7.451249599456787,-1.423729419708252
1772699080871634200,14.83263427734375,5.553741455078125,7.2813591957092285,-0.7513462901115417
1772699080888979700,14.849979736328125,5.843272686004639,7.685746192932129,-0.5599204897880554
1772699080906325000,14.867324951171875,5.745167255401611,7.824530124664307,-0.33738797903060913
1772699080923670500,14.88467041015625,5.606383323669434,7.558926582336426,-0.9260223507881165
