time,seconds_elapsed,z,y,x
1772699066135901700,0.096901611328125,0.19669845700263977,-0.19242240488529205,0.6029235124588013
1772699066153247200,0.114247314453125,-0.007330377586185932,0.07941242307424545,0.9749401807785034
1772699066170592800,0.1315927734375,-0.14110976457595825,0.3634645342826843,1.2528836727142334
1772699066187938000,0.14893798828125,-0.565049946308136,-0.22174391150474548,1.5851941108703613
1772699066205283600,0.16628369140625,-0.7324268817901611,-1.1038326025009155,1.4019346237182617
1772699066222629000,0.183629150390625,-0.12583814561367035,-1.406821608543396,0.5302306413650513
1772699066239974400,0.200974365234375,0.665842592716217,-2.4373505115509033,-0.5400044918060303
1772699066257320000,0.21831982421875,-0.03848448023200035,-3.0952517986297607,-0.8362739086151123
1772699066274665500,0.23566552734375,-0.9682206511497498,-1.3439024686813354,-0.6493492722511292
1772699066292011000,0.253010986328125,0.8032872080802917,0.040317077189683914,-0.6243038177490234
1772699066309356300,0.270356201171875,1.2431098222732544,-0.40378162264823914,-0.45875945687294006
1772699066326701800,0.287701904296875,1.416595458984375,-1.3665045499801636,-0.046425722539424896
1772699066344047400,0.30504736328125,1.3939933776855469,-1.488066554069519,0.2614501118659973
1772699066361392600,0.322392578125,1.2467750310897827,-1.580307126045227,0.13500112295150757
1772699066378738200,0.33973828125,1.4147628545761108,-1.6120721101760864,-0.2101374864578247
1772699066396083700,0.357083740234375,1.6401718854904175,-1.1508692502975464,-0.5937605500221252
1772699066413429200,0.37442919921875,1.8142683506011963,-1.191797137260437,-1.008537769317627
1772699066430774500,0.3917744140625,1.987753987312317,-1.6865977048873901,-1.5393792390823364
1772699066448120000,0.4091201171875,2.140470266342163,-2.0476186275482178,-1.8558071851730347
1772699066465465300,0.42646533203125,2.4715588092803955,-2.321286201477051,-1.8924590349197388
1772699066482811000,0.443810791015625,2.7146830558776855,-2.324951410293579,-1.7269147634506226
1772699066500156400,0.461156494140625,2.7617197036743164,-2.2925755977630615,-1.4813470840454102
1772699066517502000,0.478501953125,2.7928738594055176,-2.5521931648254395,-1.1966841220855713
1772699066534847200,0.49584716796875,3.020115375518799,-2.8570146560668945,-0.9224058389663696
1772699066552192800,0.51319287109375,3.3817474842071533,-2.8209736347198486,-0.8277217745780945
1772699066569538300,0.530538330078125,3.875936985015869,-2.581514596939087,-0.9382883310317993
1772699066586883600,0.547883544921875,4.280940532684326,-2.148411512374878,-1.2046253681182861
1772699066604229000,0.56522900390625,4.291935920715332,-2.0354013442993164,-1.57297682762146
1772699066621574700,0.58257470703125,4.141663074493408,-2.2650866508483887,-1.7690644264221191
1772699066638920000,0.599919921875,4.14105224609375,-2.6664247512817383,-1.7049236297607422
1772699066656265500,0.617265380859375,4.849655628204346,-2.6554291248321533,-1.4581341743469238
1772699066673611000,0.634611083984375,5.843532562255859,-2.701854944229126,-1.40559983253479
1772699066690956500,0.65195654296875,5.816043376922607,-2.4514002799987793,-2.138026714324951
1772699066708301800,0.6693017578125,5.155698776245117,-2.5937318801879883,-2.313955783843994
1772699066725647400,0.6866474609375,4.501462459564209,-3.2791221141815186,-1.8270965814590454
1772699066742993000,0.703992919921875,4.239401340484619,-2.6505422592163086,-1.2302817106246948
1772699066760338200,0.721338134765625,4.372570037841797,-1.6462805271148682,-1.082452416419983
1772699066777683700,0.73868359375,4.389063358306885,-1.071456789970398,-0.9822705388069153
1772699066795029200,0.756029296875,4.112952709197998,-1.3029745817184448,-0.7336485981941223
1772699066812374500,0.77337451171875,3.5863871574401855,-1.7727296352386475,-0.4917461574077606
1772699066829720000,0.790719970703125,3.0463826656341553,-1.359174132347107,-0.5125155448913574
1772699066847065600,0.808065673828125,2.961472511291504,-0.48502662777900696,-0.49541133642196655
1772699066864411100,0.8254111328125,3.1691665649414062,-0.0513126403093338,-0.1899789422750473
1772699066881756400,0.84275634765625,3.3127195835113525,0.11728604137897491,0.3640754222869873
1772699066899102000,0.86010205078125,3.3408195972442627,0.41844236850738525,0.45998117327690125
1772699066916447500,0.877447509765625,3.358534574508667,0.8643736839294434,0.05742128938436508
1772699066933792800,0.894792724609375,3.2681264877319336,0.9181297421455383,-0.2614501118659973
1772699066951138300,0.91213818359375,3.268737316131592,1.0164790153503418,-0.16859868168830872
1772699066968483800,0.92948388671875,3.5491244792938232,2.079383611679077,0.1637117564678192
1772699066985829000,0.9468291015625,3.711003541946411,2.5112650394439697,0.2516762912273407
1772699067003174700,0.964174560546875,3.5472917556762695,2.1111485958099365,0.27366742491722107
1772699067020520200,0.981520263671875,3.2418594360351562,1.5674790143966675,0.2608392536640167
1772699067037865500,0.998865478515625,3.154505729675293,1.5375466346740723,0.2254091054201126
1772699067055211000,1.0162109375,3.274846076965332,1.9083415269851685,0.45020735263824463
1772699067072556500,1.033556640625,3.2284202575683594,2.5754058361053467,0.9810488224029541
1772699067089902000,1.050902099609375,2.9009969234466553,3.0830345153808594,1.5210533142089844
1772699067107247400,1.068247314453125,2.458730697631836,2.2388193607330322,1.8735222816467285
1772699067124593000,1.085593017578125,1.9437717199325562,0.6945532560348511,1.4850122928619385
1772699067141938400,1.1029384765625,1.2003493309020996,0.2156352698802948,0.9474512934684753
1772699067159283700,1.12028369140625,0.5601630210876465,0.3127627670764923,0.7544180154800415
1772699067176629200,1.137629150390625,0.02260199747979641,0.19181154668331146,0.8405499458312988
1772699067193974800,1.154974853515625,-0.38789913058280945,0.19792018830776215,0.5674933791160583
1772699067211320000,1.172320068359375,-0.9297361969947815,0.42882707715034485,0.036651886999607086
1772699067228665600,1.18966552734375,-0.9468404054641724,0.4825831651687622,-0.4831940531730652
1772699067246011100,1.20701123046875,-0.9963204264640808,0.37751442193984985,-0.7171552777290344
1772699067263356700,1.224356689453125,-1.158199667930603,0.44959646463394165,-0.8472694754600525
1772699067280702000,1.241701904296875,-1.4074324369430542,0.6145299673080444,-1.1331541538238525
1772699067298047500,1.259047607421875,-1.7721186876296997,0.711046576499939,-1.361006736755371
1772699067315393000,1.27639306640625,-0.8002328872680664,2.1887285709381104,-0.45998117327690125
1772699067332738300,1.29373828125,-1.053130865097046,2.092211961746216,-0.26878049969673157
1772699067350083800,1.311083740234375,-1.8002184629440308,0.6560688018798828,-1.1307107210159302
1772699067367429400,1.328429443359375,-2.067777395248413,-1.0079269409179688,-0.46547895669937134
1772699067384774700,1.345774658203125,-1.7550145387649536,-1.64872407913208,-0.24740023910999298
1772699067402120200,1.3631201171875,-1.2693769931793213,-0.8686497211456299,-0.401949018239975
1772699067419465700,1.3804658203125,-0.9187406301498413,-0.09834922850131989,-0.29138249158859253
1772699067436811000,1.39781103515625,-1.0390809774398804,0.04764745384454727,-0.23396120965480804
1772699067454156500,1.415156494140625,-1.6927063465118408,-0.14477495849132538,-0.10934479534626007
1772699067471502000,1.432502197265625,-2.1899502277374268,-0.22724169492721558,0.3017672002315521
1772699067488847400,1.449847412109375,-2.134972333908081,-0.4935787320137024,0.4789179861545563
1772699067506193000,1.46719287109375,-1.6615521907806396,-2.140470266342163,0.3842339515686035
1772699067523538400,1.484538330078125,-0.7434224486351013,-0.4825831651687622,0.42271843552589417
1772699067540883700,1.5018837890625,-1.1270455121994019,0.84177166223526,0.2003636509180069
1772699067558229200,1.519229248046875,-1.339626431465149,1.2522728443145752,-0.7757982611656189
1772699067575574800,1.53657470703125,-1.2858703136444092,2.9962916374206543,-1.2137882709503174
1772699067592920000,1.553920166015625,-1.525329351425171,3.6926774978637695,-1.092226266860962
1772699067610265600,1.571265625,-1.0445787906646729,3.131903648376465,-0.9303470849990845
1772699067627611100,1.588611083984375,0.3341430425643921,1.7653992176055908,-0.41783151030540466
1772699067644956400,1.605956298828125,0.5717694163322449,2.4825544357299805,-1.0751219987869263
1772699067662302000,1.623302001953125,1.05496346950531,2.361603260040283,-2.3316707611083984
1772699067679647500,1.6406474609375,0.7617483735084534,0.9095776677131653,-0.6579013466835022
1772699067696992800,1.65799267578125,0.42271843552589417,-0.6591231226921082,-0.11911863088607788
1772699067714338300,1.67533837890625,0.7061597108840942,-0.4569268524646759,-0.30970844626426697
1772699067731683600,1.69268359375,0.9083559513092041,-0.04886918142437935,-0.20402882993221283
1772699067749029000,1.710029052734375,0.5974257588386536,0.2828303873538971,0.13744457066059113
1772699067766374700,1.727374755859375,-0.012217295356094837,0.43860089778900146,0.30604326725006104
1772699067783720000,1.744719970703125,-0.37690356373786926,0.318871408700943,0.1594357043504715
1772699067801065500,1.7620654296875,-0.711046576499939,0.14660754799842834,0.1844811588525772
1772699067818411000,1.779410888671875,-0.3090975880622864,-0.19730933010578156,-0.07269290834665298
1772699067835756300,1.79675634765625,0.06536252796649933,0.020769402384757996,-0.31093016266822815
1772699067853101800,1.814101806640625,0.23335035145282745,0.25961753726005554,-0.3799578845500946
1772699067870447400,1.831447265625,0.06291907280683517,0.4013381600379944,-0.21868959069252014
1772699067887792600,1.848792724609375,-0.11362084746360779,0.39828383922576904,-0.03298669680953026
1772699067905138200,1.86613818359375,-0.12095122784376144,0.31459537148475647,-0.004276053514331579
1772699067922483700,1.883483642578125,-0.010384701192378998,0.21868959069252014,-0.14294235408306122
1772699067939829000,1.9008291015625,0.06475166976451874,0.2009745091199875,-0.27427828311920166
1772699067957174500,1.918174560546875,0.0977383628487587,0.23029601573944092,-0.2822195291519165
1772699067974520000,1.93552001953125,0.06841685622930527,0.2981020212173462,-0.16798780858516693
1772699067991865300,1.952865234375,0.05070177838206291,0.29993459582328796,-0.12217295914888382
1772699068009211000,1.9702109375,0.06230820715427399,0.22724169492721558,-0.14782927930355072
1772699068026556400,1.987556396484375,0.06963858753442764,0.1288924664258957,-0.17592905461788177
1772699068043901700,2.004901611328125,0.07330377399921417,0.050090912729501724,-0.17653992772102356
1772699068061247200,2.022247314453125,0.07635809481143951,0.000610864779446274,-0.17837251722812653
1772699068078592800,2.0395927734375,0.07819069176912308,-0.04153880476951599,-0.1795942485332489
1772699068095938000,2.05693798828125,0.11728604137897491,-0.08307760953903198,-0.21502439677715302
1772699068113283600,2.07428369140625,0.18081597983837128,-0.1594357043504715,-0.2522871494293213
1772699068130629000,2.091629150390625,0.21135921776294708,-0.21930044889450073,-0.23823726177215576
1772699068147974400,2.108974365234375,0.18753549456596375,-0.16249002516269684,-0.2254091054201126
1772699068165320000,2.12631982421875,0.16004657745361328,-0.07269290834665298,-0.23762640357017517
1772699068182665200,2.143665283203125,0.17287473380565643,-0.056199558079242706,-0.22296564280986786
1772699068200010800,2.1610107421875,0.2107483446598053,-0.11178825795650482,-0.21135921776294708
1772699068217356300,2.178356201171875,0.2516762912273407,-0.24251331388950348,-0.21868959069252014
1772699068234701600,2.19570166015625,0.24923282861709595,-0.42332929372787476,-0.1490510106086731
1772699068252047000,2.213047119140625,0.22479823231697083,-0.4465421438217163,-0.000610864779446274
1772699068269392600,2.230392578125,0.2107483446598053,-0.3445277214050293,0.07574722915887833
1772699068286738000,2.247738037109375,0.1533270627260208,-0.34208428859710693,0.08857539296150208
1772699068304083500,2.26508349609375,0.1026252806186676,-0.3237583339214325,0.06963858753442764
1772699068321429000,2.282428955078125,0.06414080411195755,-0.2981020212173462,0.08918625861406326
1772699068338774300,2.299774169921875,0.036651886999607086,-0.30970844626426697,0.13561198115348816
1772699068356119800,2.317119873046875,0.023212861269712448,-0.3084867000579834,0.13500112295150757
1772699068373465000,2.334465087890625,0.01954767294228077,-0.26878049969673157,0.09468404203653336
1772699068390810600,2.351810546875,0.01649334840476513,-0.21441353857517242,0.04581485688686371
1772699068408156200,2.36915625,0.015271619893610477,-0.18875721096992493,-0.003665188793092966
1772699068425501400,2.38650146484375,0.018325943499803543,-0.17776164412498474,-0.014049889519810677
1772699068442847000,2.403846923828125,0.01954767294228077,-0.12705987691879272,0.030543239787220955
1772699068460192500,2.421192626953125,0.04153880476951599,-0.05070177838206291,0.07269290834665298
1772699068477537800,2.438537841796875,0.05070177838206291,0.03176496922969818,0.09468404203653336
1772699068494883300,2.45588330078125,0.059864748269319534,0.06047561392188072,0.08796452730894089
1772699068512228900,2.473228759765625,0.046425722539424896,0.04214967042207718,0.05436696484684944
1772699068529574100,2.49057421875,0.05925388261675835,-0.006108647678047419,0.012217295356094837
1772699068546919700,2.507919677734375,0.047036588191986084,0.021991131827235222,0.01954767294228077
1772699068564265200,2.52526513671875,0.020769402384757996,0.06352993845939636,0.02871064469218254
1772699068581610500,2.542610595703125,0.020158538594841957,0.015271619893610477,0.0256563201546669
1772699068598956000,2.5599560546875,0.02626718580722809,-0.020158538594841957,-0.001832594396546483
1772699068616301600,2.577301513671875,0.046425722539424896,-0.05558869615197182,-0.009162971749901772
1772699068633646800,2.594646728515625,0.039706211537122726,-0.06414080411195755,-0.010995565913617611
1772699068650992400,2.611992431640625,0.024434590712189674,-0.07635809481143951,0.004886918235570192
1772699068668337700,2.629337646484375,0.0256563201546669,-0.0977383628487587,0.023823726922273636
1772699068685683200,2.64668310546875,0.027488915249705315,-0.11362084746360779,0.024434590712189674
1772699068703028700,2.66402880859375,0.01649334840476513,-0.11239911615848541,0.007330377586185932
1772699068720374000,2.6813740234375,0.004886918235570192,-0.10506874322891235,0.003665188793092966
1772699068737719600,2.698719482421875,0.007330377586185932,-0.10567960888147354,0.009162971749901772
1772699068755064800,2.71606494140625,0.010384701192378998,-0.11056652665138245,0.017104214057326317
1772699068772410400,2.733410400390625,0.004276053514331579,-0.11117739230394363,0.014049889519810677
1772699068789756000,2.750755859375,0.000610864779446274,-0.08613193035125732,0.011606430634856224
1772699068807101200,2.76810107421875,0.001221729558892548,-0.04581485688686371,0.013439024798572063
1772699068824446700,2.78544677734375,0.01282816007733345,-0.0030543238390237093,0.007330377586185932
1772699068841792300,2.802792236328125,0.021991131827235222,0.01588248461484909,0.000610864779446274
1772699068859137500,2.820137451171875,0.01649334840476513,0.018325943499803543,0.014660755172371864
1772699068876483000,2.837483154296875,0.000610864779446274,0.02932151034474373,0.031154103577136993
1772699068893828400,2.854828369140625,-0.01282816007733345,0.036651886999607086,0.0360410213470459
1772699068911174000,2.872173828125,-0.021380268037319183,0.0409279391169548,0.025045456364750862
1772699068928519400,2.88951953125,-0.017715077847242355,0.04886918142437935,0.004276053514331579
1772699068945864700,2.90686474609375,-0.006719512399286032,0.027488915249705315,-0.001832594396546483
1772699068963210200,2.924210205078125,-0.0054977829568088055,0.010384701192378998,0.009162971749901772
1772699068980555800,2.9415556640625,-0.007330377586185932,-0.011606430634856224,0.011606430634856224
1772699068997901300,2.9589013671875,0.002443459117785096,-0.010384701192378998,0.001832594396546483
1772699069015246600,2.97624658203125,0.014049889519810677,0.0030543238390237093,-0.002443459117785096
1772699069032592100,2.993592041015625,0.01282816007733345,-0.018325943499803543,0.010995565913617611
1772699069049937400,3.0109375,0,-0.05070177838206291,0.03176496922969818
1772699069067283000,3.028282958984375,-0.010995565913617611,-0.05253437161445618,0.02932151034474373
1772699069084628500,3.04562841796875,-0.013439024798572063,-0.039706211537122726,0.018325943499803543
1772699069101973800,3.062973876953125,-0.013439024798572063,-0.03237583488225937,0.01588248461484909
1772699069119319300,3.0803193359375,-0.01282816007733345,-0.023212861269712448,0.018325943499803543
1772699069136664600,3.09766455078125,-0.001221729558892548,-0.02260199747979641,0.021380268037319183
1772699069154010000,3.115010009765625,0.006719512399286032,-0.017104214057326317,0.018325943499803543
1772699069171355600,3.132355712890625,0.0054977829568088055,-0.007941242307424545,0.014660755172371864
1772699069188701000,3.149700927734375,0.003665188793092966,-0.000610864779446274,0.01282816007733345
1772699069206046500,3.16704638671875,0.004276053514331579,0.0030543238390237093,0.010995565913617611
1772699069223392000,3.18439208984375,0.006108647678047419,0.007941242307424545,0.009162971749901772
1772699069240737300,3.2017373046875,0.008552107028663158,0.008552107028663158,0.007330377586185932
1772699069258082800,3.219082763671875,0.011606430634856224,0.003665188793092966,0.014049889519810677
1772699069275428400,3.236428466796875,0.011606430634856224,0.007941242307424545,0.01588248461484909
1772699069292773600,3.253773681640625,0.01282816007733345,0.010384701192378998,0.010384701192378998
1772699069310119200,3.271119140625,0.013439024798572063,0.000610864779446274,0.007330377586185932
1772699069327464400,3.28846435546875,0.007330377586185932,-0.006108647678047419,0.007941242307424545
1772699069344810000,3.30581005859375,0.002443459117785096,-0.009773836471140385,0.010995565913617611
1772699069362155500,3.323155517578125,0.006108647678047419,-0.006719512399286032,0.013439024798572063
1772699069379500800,3.340500732421875,0.014660755172371864,-0.009162971749901772,0.018325943499803543
1772699069396846300,3.357846435546875,0.01649334840476513,-0.01649334840476513,0.018325943499803543
1772699069414191900,3.37519189453125,0.008552107028663158,-0.01649334840476513,0.01282816007733345
1772699069431537200,3.392537109375,0.003665188793092966,-0.017104214057326317,0.007941242307424545
1772699069448882700,3.409882568359375,0.006108647678047419,-0.018325943499803543,0.009162971749901772
1772699069466228000,3.42722802734375,0.009773836471140385,-0.018325943499803543,0.007330377586185932
1772699069483573500,3.444573486328125,0.009162971749901772,-0.010995565913617611,0.01282816007733345
1772699069500919000,3.4619189453125,0.006719512399286032,-0.001221729558892548,0.020769402384757996
1772699069518264300,3.479264404296875,0.000610864779446274,-0.0030543238390237093,0.024434590712189674
1772699069535609900,3.49660986328125,-0.007330377586185932,-0.001221729558892548,0.023212861269712448
1772699069552955400,3.513955322265625,-0.012217295356094837,0.0030543238390237093,0.0256563201546669
1772699069570300700,3.53130078125,-0.01282816007733345,0.0054977829568088055,0.033597562462091446
1772699069587646200,3.548646240234375,-0.006719512399286032,-0.008552107028663158,0.03298669680953026
1772699069604991500,3.565991455078125,0,-0.017715077847242355,0.023823726922273636
1772699069622337000,3.5833369140625,0.002443459117785096,-0.015271619893610477,0.01649334840476513
1772699069639682600,3.6006826171875,0.006108647678047419,-0.007941242307424545,0.01282816007733345
1772699069657027800,3.61802783203125,0.010384701192378998,-0.006719512399286032,0.009162971749901772
1772699069674373400,3.635373291015625,0.003665188793092966,-0.0030543238390237093,0.004886918235570192
1772699069691719000,3.652718994140625,-0.004276053514331579,-0.001221729558892548,0.009162971749901772
1772699069709064200,3.670064208984375,-0.006719512399286032,-0.001221729558892548,0.01588248461484909
1772699069726409700,3.68740966796875,-0.0030543238390237093,-0.001832594396546483,0.020769402384757996
1772699069743755300,3.70475537109375,-0.000610864779446274,0.0030543238390237093,0.01954767294228077
1772699069761100500,3.7221005859375,0.0030543238390237093,0.0030543238390237093,0.018325943499803543
1772699069778446000,3.739446044921875,0.003665188793092966,-0.003665188793092966,0.017715077847242355
1772699069795791400,3.756791259765625,0.001221729558892548,-0.004886918235570192,0.01954767294228077
1772699069813137000,3.774136962890625,-0.001832594396546483,-0.002443459117785096,0.017104214057326317
1772699069830482400,3.791482421875,-0.002443459117785096,0.004276053514331579,0.014049889519810677
1772699069847827700,3.80882763671875,-0.000610864779446274,0.004886918235570192,0.015271619893610477
1772699069865173200,3.82617333984375,0.004276053514331579,-0.004276053514331579,0.01954767294228077
1772699069882518800,3.843518798828125,0.007330377586185932,-0.012217295356094837,0.018325943499803543
1772699069899864000,3.860864013671875,0.008552107028663158,-0.010995565913617611,0.01954767294228077
1772699069917209600,3.878209716796875,0,-0.004276053514331579,0.018325943499803543
1772699069934555000,3.895554931640625,-0.004276053514331579,-0.000610864779446274,0.01893680728971958
1772699069951900400,3.912900390625,0.0030543238390237093,-0.0054977829568088055,0.018325943499803543
1772699069969246000,3.930245849609375,0.010995565913617611,-0.013439024798572063,0.01588248461484909
1772699069986591200,3.94759130859375,0.006108647678047419,-0.017104214057326317,0.017715077847242355
1772699070003936800,3.964936767578125,-0.004276053514331579,-0.009162971749901772,0.02260199747979641
1772699070021282000,3.982281982421875,-0.006108647678047419,-0.003665188793092966,0.025045456364750862
1772699070038627600,3.999627685546875,-0.001832594396546483,-0.006719512399286032,0.031154103577136993
1772699070055973000,4.01697314453125,-0.001832594396546483,-0.009773836471140385,0.0360410213470459
1772699070073318400,4.034318359375,-0.007941242307424545,-0.010384701192378998,0.04214967042207718
1772699070090664000,4.051663818359375,-0.01649334840476513,-0.009162971749901772,0.05070177838206291
1772699070108009500,4.069009521484375,-0.01893680728971958,-0.006719512399286032,0.06719512492418289
1772699070125354800,4.086354736328125,-0.01649334840476513,-0.008552107028663158,0.08674279600381851
1772699070142700300,4.1037001953125,-0.01282816007733345,-0.009162971749901772,0.09407317638397217
1772699070160045800,4.1210458984375,-0.011606430634856224,-0.0054977829568088055,0.08491020649671555
1772699070177391000,4.13839111328125,-0.01649334840476513,-0.001221729558892548,0.0665842592716217
1772699070194736600,4.155736572265625,-0.01893680728971958,0.006108647678047419,0.05192350596189499
1772699070212082000,4.17308203125,-0.01649334840476513,0.006719512399286032,0.0409279391169548
1772699070229427500,4.190427490234375,-0.01282816007733345,-0.006108647678047419,0.029932374134659767
1772699070246773000,4.20777294921875,-0.007941242307424545,-0.024434590712189674,0.020158538594841957
1772699070264118300,4.2251181640625,0,-0.03787361457943916,0.01282816007733345
1772699070281463800,4.2424638671875,0.003665188793092966,-0.037262752652168274,0.012217295356094837
1772699070298809300,4.259809326171875,0.006108647678047419,-0.02932151034474373,0.014660755172371864
1772699070316154600,4.277154541015625,0.004276053514331579,-0.018325943499803543,0.017104214057326317
1772699070333500200,4.294500244140625,0.006719512399286032,-0.012217295356094837,0.01893680728971958
1772699070350845400,4.311845458984375,0.006719512399286032,-0.008552107028663158,0.018325943499803543
1772699070368191000,4.32919091796875,0.000610864779446274,-0.004276053514331579,0.017715077847242355
1772699070385536500,4.34653662109375,-0.004886918235570192,0.0030543238390237093,0.017104214057326317
1772699070402881800,4.3638818359375,-0.004276053514331579,0.003665188793092966,0.020769402384757996
1772699070420227300,4.381227294921875,-0.001221729558892548,-0.003665188793092966,0.021991131827235222
1772699070437572900,4.39857275390625,0.004276053514331579,-0.010995565913617611,0.01649334840476513
1772699070454918100,4.415918212890625,0.006108647678047419,-0.014660755172371864,0.015271619893610477
1772699070472263700,4.433263671875,0.001832594396546483,-0.009162971749901772,0.01588248461484909
1772699070489609000,4.45060888671875,-0.000610864779446274,-0.007330377586185932,0.017715077847242355
1772699070506954500,4.46795458984375,0,-0.017104214057326317,0.01893680728971958
1772699070524300000,4.485300048828125,0,-0.021380268037319183,0.021380268037319183
1772699070541645300,4.502645263671875,0.001221729558892548,-0.02260199747979641,0.021991131827235222
1772699070558990800,4.519990966796875,-0.002443459117785096,-0.01893680728971958,0.020158538594841957
1772699070576336400,4.53733642578125,-0.004886918235570192,-0.01282816007733345,0.020769402384757996
1772699070593681700,4.554681640625,-0.002443459117785096,-0.004886918235570192,0.021991131827235222
1772699070611027200,4.572027099609375,0.002443459117785096,-0.007330377586185932,0.01954767294228077
1772699070628372500,4.58937255859375,0.004886918235570192,-0.014049889519810677,0.01649334840476513
1772699070645718000,4.606718017578125,0.002443459117785096,-0.018325943499803543,0.01588248461484909
1772699070663063600,4.6240634765625,-0.000610864779446274,-0.014660755172371864,0.020769402384757996
1772699070680408800,4.641408935546875,0.001221729558892548,-0.013439024798572063,0.026878049597144127
1772699070697754400,4.65875439453125,0.003665188793092966,-0.017715077847242355,0.02932151034474373
1772699070715100000,4.676099853515625,0.002443459117785096,-0.021380268037319183,0.028099779039621353
1772699070732445200,4.693445068359375,-0.004276053514331579,-0.023212861269712448,0.02871064469218254
1772699070749790700,4.710790771484375,-0.010384701192378998,-0.020158538594841957,0.023823726922273636
1772699070767136000,4.728135986328125,-0.007941242307424545,-0.020158538594841957,0.021380268037319183
1772699070784481500,4.7454814453125,-0.003665188793092966,-0.01893680728971958,0.020769402384757996
1772699070801827000,4.7628271484375,0,-0.020769402384757996,0.021991131827235222
1772699070819172400,4.78017236328125,0.001221729558892548,-0.023212861269712448,0.028099779039621353
1772699070836518000,4.797517822265625,0,-0.026878049597144127,0.029932374134659767
1772699070853863200,4.81486328125,-0.0030543238390237093,-0.031154103577136993,0.03298669680953026
1772699070871208700,4.832208740234375,-0.006108647678047419,-0.02932151034474373,0.029932374134659767
1772699070888554200,4.84955419921875,-0.007330377586185932,-0.021380268037319183,0.02626718580722809
1772699070905899500,4.8668994140625,-0.007330377586185932,-0.012217295356094837,0.0256563201546669
1772699070923245000,4.8842451171875,-0.0030543238390237093,-0.010384701192378998,0.031154103577136993
1772699070940590300,4.90159033203125,-0.001221729558892548,-0.01282816007733345,0.03543015569448471
1772699070957935900,4.918935791015625,-0.007941242307424545,-0.01282816007733345,0.03848448023200035
1772699070975281400,4.936281494140625,-0.014049889519810677,-0.014660755172371864,0.04276053607463837
1772699070992626700,4.953626708984375,-0.01588248461484909,-0.01282816007733345,0.04153880476951599
1772699071009972200,4.97097216796875,-0.014049889519810677,-0.015271619893610477,0.03909534588456154
1772699071027317800,4.98831787109375,-0.009162971749901772,-0.023212861269712448,0.03481929376721382
1772699071044663000,5.0056630859375,-0.004276053514331579,-0.021380268037319183,0.030543239787220955
1772699071062008600,5.023008544921875,-0.002443459117785096,-0.009773836471140385,0.028099779039621353
1772699071079354000,5.04035400390625,-0.004276053514331579,0.003665188793092966,0.023823726922273636
1772699071096699400,5.057699462890625,-0.004886918235570192,0.007330377586185932,0.021380268037319183
1772699071114045000,5.075044921875,-0.004276053514331579,0.004886918235570192,0.020158538594841957
1772699071131390200,5.09239013671875,-0.001832594396546483,0.001832594396546483,0.023212861269712448
1772699071148735700,5.10973583984375,-0.001832594396546483,0.0054977829568088055,0.02932151034474373
1772699071166081300,5.127081298828125,-0.004276053514331579,0.007330377586185932,0.03237583488225937
1772699071183426600,5.144426513671875,-0.003665188793092966,0.004886918235570192,0.033597562462091446
1772699071200772000,5.161772216796875,-0.007941242307424545,0.000610864779446274,0.03298669680953026
1772699071218117400,5.179117431640625,-0.012217295356094837,-0.001832594396546483,0.029932374134659767
1772699071235463000,5.196462890625,-0.01649334840476513,0,0.030543239787220955
1772699071252808400,5.213808349609375,-0.017104214057326317,0.000610864779446274,0.031154103577136993
1772699071270153700,5.23115380859375,-0.011606430634856224,-0.009162971749901772,0.033597562462091446
1772699071287499300,5.248499267578125,-0.010995565913617611,-0.01893680728971958,0.031154103577136993
1772699071304844800,5.2658447265625,-0.009162971749901772,-0.01588248461484909,0.03176496922969818
1772699071322190000,5.283190185546875,-0.010995565913617611,-0.009162971749901772,0.028099779039621353
1772699071339535600,5.30053564453125,-0.010995565913617611,-0.001221729558892548,0.023212861269712448
1772699071356881000,5.317880859375,-0.009773836471140385,0.000610864779446274,0.018325943499803543
1772699071374226400,5.335226318359375,-0.006108647678047419,-0.0054977829568088055,0.01893680728971958
1772699071391572000,5.352572021484375,-0.007941242307424545,-0.009773836471140385,0.01954767294228077
1772699071408917200,5.369917236328125,-0.009162971749901772,-0.008552107028663158,0.018325943499803543
1772699071426262800,5.3872626953125,-0.007330377586185932,-0.009773836471140385,0.012217295356094837
1772699071443608300,5.4046083984375,-0.001221729558892548,-0.017104214057326317,0.009162971749901772
1772699071460953600,5.42195361328125,0.002443459117785096,-0.02260199747979641,0.009162971749901772
1772699071478299100,5.439299072265625,0.000610864779446274,-0.020158538594841957,0.011606430634856224
1772699071495644400,5.45664453125,-0.004276053514331579,-0.008552107028663158,0.01282816007733345
1772699071512990000,5.473989990234375,-0.010384701192378998,-0.001832594396546483,0.01649334840476513
1772699071530335200,5.491335205078125,-0.007941242307424545,-0.000610864779446274,0.018325943499803543
1772699071547680800,5.5086806640625,-0.0030543238390237093,-0.004886918235570192,0.018325943499803543
1772699071565026300,5.5260263671875,-0.000610864779446274,-0.008552107028663158,0.018325943499803543
1772699071582371600,5.54337158203125,-0.001832594396546483,-0.006108647678047419,0.01893680728971958
1772699071599717000,5.560717041015625,-0.007330377586185932,0,0.018325943499803543
1772699071617062700,5.578062744140625,-0.008552107028663158,0.007941242307424545,0.01588248461484909
1772699071634408000,5.595407958984375,-0.0030543238390237093,0.014660755172371864,0.012217295356094837
1772699071651753500,5.61275341796875,0.001832594396546483,0.014049889519810677,0.007941242307424545
1772699071669099000,5.63009912109375,0.004886918235570192,0.009773836471140385,0.007330377586185932
1772699071686444300,5.6474443359375,0.003665188793092966,0.001832594396546483,0.010384701192378998
1772699071703789800,5.664789794921875,0.001221729558892548,0.003665188793092966,0.017715077847242355
1772699071721135400,5.68213525390625,0.001221729558892548,0.008552107028663158,0.01649334840476513
1772699071738480600,5.699480712890625,0.007941242307424545,0.013439024798572063,0.009162971749901772
1772699071755826200,5.716826171875,0.015271619893610477,0.009162971749901772,0.0030543238390237093
1772699071773171500,5.73417138671875,0.018325943499803543,0.002443459117785096,-0.001221729558892548
1772699071790517000,5.75151708984375,0.017104214057326317,-0.002443459117785096,-0.001832594396546483
1772699071807862500,5.768862548828125,0.010995565913617611,-0.001221729558892548,-0.001832594396546483
1772699071825207800,5.786207763671875,0.007941242307424545,0.000610864779446274,0.001832594396546483
1772699071842553300,5.80355322265625,0.004276053514331579,0.004276053514331579,0.0054977829568088055
1772699071859898600,5.820898681640625,0.001221729558892548,0.006719512399286032,0.007330377586185932
1772699071877244200,5.838244140625,0.0030543238390237093,0.003665188793092966,0.006108647678047419
1772699071894589700,5.855589599609375,0.006719512399286032,-0.001832594396546483,0.0054977829568088055
1772699071911935000,5.87293505859375,0.008552107028663158,-0.010995565913617611,0.006719512399286032
1772699071929280500,5.890280517578125,0.0054977829568088055,-0.011606430634856224,0.007330377586185932
1772699071946626000,5.9076259765625,0.001221729558892548,-0.009773836471140385,0.009162971749901772
1772699071963971300,5.924971435546875,0.001832594396546483,-0.007330377586185932,0.011606430634856224
1772699071981316900,5.94231689453125,0.006108647678047419,-0.010384701192378998,0.01282816007733345
1772699071998662100,5.959662109375,0.007330377586185932,-0.012217295356094837,0.009162971749901772
1772699072016007700,5.977007568359375,0.004276053514331579,-0.013439024798572063,0.0030543238390237093
1772699072033353200,5.994353271484375,0.003665188793092966,-0.01649334840476513,0.000610864779446274
1772699072050698500,6.011698486328125,0.009162971749901772,-0.020769402384757996,0.0030543238390237093
1772699072068044000,6.0290439453125,0.011606430634856224,-0.018325943499803543,0.004276053514331579
1772699072085389300,6.046389404296875,0.01282816007733345,-0.018325943499803543,0.0054977829568088055
1772699072102734800,6.06373486328125,0.010384701192378998,-0.017104214057326317,0.007941242307424545
1772699072120080400,6.081080322265625,0.006719512399286032,-0.01588248461484909,0.01282816007733345
1772699072137425700,6.09842578125,0.002443459117785096,-0.01649334840476513,0.021380268037319183
1772699072154771200,6.115771240234375,-0.0030543238390237093,-0.010995565913617611,0.020769402384757996
1772699072172116500,6.133116455078125,-0.004886918235570192,-0.006719512399286032,0.01893680728971958
1772699072189462000,6.1504619140625,-0.001832594396546483,-0.001832594396546483,0.014049889519810677
1772699072206807600,6.1678076171875,0.002443459117785096,-0.007941242307424545,0.014660755172371864
1772699072224152800,6.18515283203125,0.001832594396546483,-0.01282816007733345,0.020769402384757996
1772699072241498400,6.202498291015625,0,-0.01282816007733345,0.028099779039621353
1772699072258844000,6.219843994140625,-0.000610864779446274,-0.009162971749901772,0.028099779039621353
1772699072276189200,6.237189208984375,0.001221729558892548,-0.008552107028663158,0.02260199747979641
1772699072293534700,6.25453466796875,-0.000610864779446274,-0.006719512399286032,0.014660755172371864
1772699072310880300,6.27188037109375,-0.002443459117785096,-0.003665188793092966,0.009773836471140385
1772699072328225500,6.2892255859375,0,-0.008552107028663158,0.010995565913617611
1772699072345571000,6.306571044921875,0.006108647678047419,-0.018325943499803543,0.017104214057326317
1772699072362916400,6.323916259765625,0.008552107028663158,-0.023212861269712448,0.021991131827235222
1772699072380262000,6.341261962890625,0.004886918235570192,-0.023823726922273636,0.023823726922273636
1772699072397607400,6.358607421875,-0.000610864779446274,-0.018325943499803543,0.017715077847242355
1772699072414952700,6.37595263671875,0.000610864779446274,-0.013439024798572063,0.009162971749901772
1772699072432298200,6.39329833984375,0.007941242307424545,-0.013439024798572063,0.004886918235570192
1772699072449643500,6.4106435546875,0.01282816007733345,-0.01588248461484909,0.006719512399286032
1772699072466989000,6.427989013671875,0.011606430634856224,-0.01649334840476513,0.012217295356094837
1772699072484334600,6.44533447265625,0.004886918235570192,-0.009773836471140385,0.01588248461484909
1772699072501679900,6.462679931640625,0.000610864779446274,-0.010384701192378998,0.01649334840476513
1772699072519025400,6.480025390625,-0.001832594396546483,-0.007330377586185932,0.017104214057326317
1772699072536371000,6.497370849609375,-0.0030543238390237093,-0.004276053514331579,0.015271619893610477
1772699072553716200,6.51471630859375,0.0030543238390237093,-0.0054977829568088055,0.014049889519810677
1772699072571061800,6.532061767578125,0.010384701192378998,-0.013439024798572063,0.012217295356094837
1772699072588407300,6.5494072265625,0.012217295356094837,-0.01893680728971958,0.007330377586185932
1772699072605752600,6.566752685546875,0.007330377586185932,-0.02260199747979641,0.008552107028663158
1772699072623098000,6.58409814453125,0.000610864779446274,-0.01954767294228077,0.010995565913617611
1772699072640443400,6.601443359375,-0.001221729558892548,-0.015271619893610477,0.01588248461484909
1772699072657789000,6.618788818359375,0.001221729558892548,-0.018325943499803543,0.01588248461484909
1772699072675134500,6.636134521484375,0,-0.021380268037319183,0.01588248461484909
1772699072692479700,6.653479736328125,0.001221729558892548,-0.02626718580722809,0.01649334840476513
1772699072709825300,6.6708251953125,0.006108647678047419,-0.03298669680953026,0.01649334840476513
1772699072727170600,6.688170654296875,0.009162971749901772,-0.03481929376721382,0.010384701192378998
1772699072744516000,6.70551611328125,0.006719512399286032,-0.034208428114652634,0.001832594396546483
1772699072761861600,6.722861572265625,0.0030543238390237093,-0.030543239787220955,-0.000610864779446274
1772699072779207000,6.74020703125,-0.001221729558892548,-0.02626718580722809,0.002443459117785096
1772699072796552400,6.757552490234375,0.000610864779446274,-0.02626718580722809,0.010384701192378998
1772699072813898000,6.77489794921875,0.002443459117785096,-0.023823726922273636,0.012217295356094837
1772699072831243300,6.7922431640625,0.006108647678047419,-0.023823726922273636,0.010995565913617611
1772699072848588800,6.8095888671875,0.008552107028663158,-0.01893680728971958,0.010995565913617611
1772699072865934000,6.82693408203125,0.010384701192378998,-0.014049889519810677,0.011606430634856224
1772699072883279600,6.844279541015625,0.012217295356094837,-0.017715077847242355,0.007330377586185932
1772699072900625200,6.861625244140625,0.010995565913617611,-0.02260199747979641,0.0030543238390237093
1772699072917970400,6.878970458984375,0.006108647678047419,-0.021991131827235222,0.006108647678047419
1772699072935316000,6.89631591796875,-0.002443459117785096,-0.012217295356094837,0.01588248461484909
1772699072952661200,6.9136611328125,-0.007941242307424545,0.006719512399286032,0.020769402384757996
1772699072970006800,6.9310068359375,-0.004886918235570192,0.01893680728971958,0.01588248461484909
1772699072987352300,6.948352294921875,0.001832594396546483,0.01649334840476513,0.014660755172371864
1772699073004697600,6.965697509765625,0.001832594396546483,-0.000610864779446274,0.018325943499803543
1772699073022043100,6.983043212890625,-0.0030543238390237093,-0.006719512399286032,0.021991131827235222
1772699073039388700,7.000388671875,-0.009162971749901772,0.006719512399286032,0.021991131827235222
1772699073056734000,7.01773388671875,-0.010384701192378998,0.02626718580722809,0.01954767294228077
1772699073074079500,7.03507958984375,-0.003665188793092966,0.040317077189683914,0.017104214057326317
1772699073091424800,7.0524248046875,0.004886918235570192,0.03848448023200035,0.01282816007733345
1772699073108770300,7.069770263671875,0.012217295356094837,0.031154103577136993,0.01282816007733345
1772699073126115800,7.08711572265625,0.009162971749901772,0.031154103577136993,0.01649334840476513
1772699073143461000,7.104461181640625,-0.001832594396546483,0.03848448023200035,0.01893680728971958
1772699073160806700,7.121806640625,-0.012217295356094837,0.04764745384454727,0.017715077847242355
1772699073178152200,7.139152099609375,-0.010995565913617611,0.04825831577181816,0.013439024798572063
1772699073195497500,7.15649755859375,-0.003665188793092966,0.037262752652168274,0.01588248461484909
1772699073212843000,7.173843017578125,0.001221729558892548,0.02260199747979641,0.023823726922273636
1772699073230188500,7.1911884765625,-0.002443459117785096,0.015271619893610477,0.02932151034474373
1772699073247533800,7.208533935546875,-0.006719512399286032,0.01588248461484909,0.028099779039621353
1772699073264879400,7.22587939453125,-0.009162971749901772,0.007941242307424545,0.025045456364750862
1772699073282224600,7.243224609375,-0.010995565913617611,0.004886918235570192,0.02626718580722809
1772699073299570200,7.260570068359375,-0.007330377586185932,-0.0054977829568088055,0.029932374134659767
1772699073316915700,7.277915771484375,-0.0054977829568088055,-0.011606430634856224,0.0360410213470459
1772699073334261000,7.295260986328125,-0.004276053514331579,-0.01588248461484909,0.033597562462091446
1772699073351606500,7.3126064453125,-0.001221729558892548,-0.017104214057326317,0.031154103577136993
1772699073368952000,7.3299521484375,0.0030543238390237093,-0.01893680728971958,0.028099779039621353
1772699073386297300,7.34729736328125,0.006108647678047419,-0.02626718580722809,0.027488915249705315
1772699073403643000,7.364642822265625,0.004886918235570192,-0.029932374134659767,0.024434590712189674
1772699073420988200,7.38198828125,0.0054977829568088055,-0.031154103577136993,0.023823726922273636
1772699073438333700,7.399333740234375,0.007330377586185932,-0.02626718580722809,0.024434590712189674
1772699073455679200,7.41667919921875,0.009162971749901772,-0.026878049597144127,0.025045456364750862
1772699073473024500,7.4340244140625,0.010995565913617611,-0.029932374134659767,0.023212861269712448
1772699073490370000,7.4513701171875,0.009162971749901772,-0.023212861269712448,0.021991131827235222
1772699073507715600,7.468715576171875,0.007941242307424545,-0.021991131827235222,0.02260199747979641
1772699073525060900,7.486060791015625,0.008552107028663158,-0.023212861269712448,0.020158538594841957
1772699073542406400,7.503406494140625,0.009773836471140385,-0.025045456364750862,0.018325943499803543
1772699073559752000,7.520751953125,0.008552107028663158,-0.0256563201546669,0.020769402384757996
1772699073577097200,7.53809716796875,0.009773836471140385,-0.02626718580722809,0.02260199747979641
1772699073594442800,7.55544287109375,0.006719512399286032,-0.023212861269712448,0.020158538594841957
1772699073611788000,7.5727880859375,0.001221729558892548,-0.014660755172371864,0.01649334840476513
1772699073629133600,7.590133544921875,-0.0054977829568088055,-0.009773836471140385,0.020158538594841957
1772699073646479000,7.60747900390625,-0.006108647678047419,-0.0030543238390237093,0.017715077847242355
1772699073663824400,7.624824462890625,-0.001221729558892548,-0.004886918235570192,0.017104214057326317
1772699073681170000,7.642169921875,0.001221729558892548,0.000610864779446274,0.018325943499803543
1772699073698515500,7.659515380859375,-0.0030543238390237093,0.008552107028663158,0.024434590712189674
1772699073715860700,7.67686083984375,-0.0054977829568088055,0.01649334840476513,0.026878049597144127
1772699073733206300,7.694206298828125,-0.008552107028663158,0.031154103577136993,0.020769402384757996
1772699073750551600,7.711551513671875,-0.007330377586185932,0.03909534588456154,0.015271619893610477
1772699073767897000,7.72889697265625,-0.0054977829568088055,0.04153880476951599,0.010995565913617611
1772699073785242400,7.746242431640625,-0.001221729558892548,0.04214967042207718,0.011606430634856224
1772699073802588000,7.763587890625,0.000610864779446274,0.036651886999607086,0.014049889519810677
1772699073819933400,7.780933349609375,-0.004886918235570192,0.034208428114652634,0.01649334840476513
1772699073837278700,7.79827880859375,-0.006719512399286032,0.034208428114652634,0.01649334840476513
1772699073854624300,7.815624267578125,0,0.01893680728971958,0.014660755172371864
1772699073871969800,7.8329697265625,0.014049889519810677,-0.002443459117785096,0.012217295356094837
1772699073889315000,7.850315185546875,0.023212861269712448,-0.01954767294228077,0.009773836471140385
1772699073906660600,7.86766064453125,0.020158538594841957,-0.034208428114652634,0.004886918235570192
1772699073924006100,7.885006103515625,0.007941242307424545,-0.043982263654470444,0.000610864779446274
1772699073941351400,7.902351318359375,0.002443459117785096,-0.04459312930703163,0
1772699073958697000,7.919697021484375,0.000610864779446274,-0.046425722539424896,0.008552107028663158
1772699073976042500,7.93704248046875,-0.001832594396546483,-0.05070177838206291,0.02260199747979641
1772699073993387800,7.9543876953125,-0.007941242307424545,-0.04581485688686371,0.027488915249705315
1772699074010733300,7.9717333984375,-0.007330377586185932,-0.021991131827235222,0.014660755172371864
1772699074028078800,7.989078857421875,-0.0054977829568088055,-0.002443459117785096,0.006719512399286032
1772699074045424000,8.006424072265625,-0.004276053514331579,0.000610864779446274,0.006719512399286032
1772699074062769700,8.023769775390624,-0.009773836471140385,-0.003665188793092966,0.02932151034474373
1772699074080115000,8.041114990234375,-0.023212861269712448,0.01588248461484909,0.03848448023200035
1772699074097460500,8.05846044921875,-0.029932374134659767,0.04459312930703163,0.03848448023200035
1772699074114806000,8.075805908203124,-0.01893680728971958,0.05864302068948746,0.024434590712189674
1772699074132151300,8.0931513671875,-0.007941242307424545,0.036651886999607086,0.018325943499803543
1772699074149496800,8.110496826171875,-0.014660755172371864,0.009162971749901772,0.03787361457943916
1772699074166842400,8.12784228515625,-0.033597562462091446,0.017715077847242355,0.05497783049941063
1772699074184187600,8.145187744140625,-0.04825831577181816,0.05192350596189499,0.05497783049941063
1772699074201533200,8.162533203125,-0.039706211537122726,0.07086031138896942,0.03543015569448471
1772699074218878500,8.17987841796875,-0.014660755172371864,0.06047561392188072,0.01649334840476513
1772699074236224000,8.19722412109375,-0.004886918235570192,0.021991131827235222,0.029932374134659767
1772699074253569500,8.214569580078125,-0.010384701192378998,0.001221729558892548,0.04276053607463837
1772699074270914800,8.231914794921876,-0.014660755172371864,0.011606430634856224,0.03176496922969818
1772699074288260400,8.24926025390625,-0.007941242307424545,0.030543239787220955,0.007941242307424545
1772699074305606000,8.26660595703125,0.004276053514331579,0.01649334840476513,0.001221729558892548
1772699074322951200,8.283951171875,0.011606430634856224,-0.007941242307424545,0.004886918235570192
1772699074340296700,8.301296630859374,0.014049889519810677,-0.021991131827235222,0.004886918235570192
1772699074357642200,8.318642333984375,0.013439024798572063,-0.02871064469218254,0.000610864779446274
1772699074374987500,8.335987548828125,0.010995565913617611,-0.023823726922273636,-0.0030543238390237093
1772699074392333000,8.3533330078125,0.002443459117785096,-0.01954767294228077,0.004276053514331579
1772699074409678600,8.3706787109375,-0.004886918235570192,-0.011606430634856224,0.009162971749901772
1772699074427024000,8.38802392578125,-0.009773836471140385,0.003665188793092966,0.011606430634856224
1772699074444369400,8.405369384765624,-0.006108647678047419,0.007330377586185932,0.010995565913617611
1772699074461714700,8.422714599609375,0,0.003665188793092966,0.009162971749901772
1772699074479060200,8.440060302734375,0.001832594396546483,0.006719512399286032,0.012217295356094837
1772699074496405800,8.45740576171875,0.000610864779446274,0.017104214057326317,0.01649334840476513
1772699074513751000,8.4747509765625,0.001832594396546483,0.023212861269712448,0.020158538594841957
1772699074531096600,8.4920966796875,0.003665188793092966,0.0256563201546669,0.01649334840476513
1772699074548442000,8.509442138671876,0.000610864779446274,0.031154103577136993,0.009773836471140385
1772699074565787400,8.526787353515624,-0.003665188793092966,0.03543015569448471,0.011606430634856224
1772699074583133000,8.5441328125,-0.004886918235570192,0.0256563201546669,0.01649334840476513
1772699074600478500,8.561478515625,-0.004276053514331579,0.009162971749901772,0.01893680728971958
1772699074617823700,8.57882373046875,-0.007330377586185932,-0.001832594396546483,0.020769402384757996
1772699074635169300,8.596169189453125,-0.010995565913617611,-0.009773836471140385,0.023823726922273636
1772699074652514600,8.6135146484375,-0.006719512399286032,-0.02626718580722809,0.026878049597144127
1772699074669860000,8.630860107421874,-0.004276053514331579,-0.0409279391169548,0.030543239787220955
1772699074687205600,8.64820556640625,-0.003665188793092966,-0.04886918142437935,0.031154103577136993
1772699074704551000,8.665551025390625,-0.0054977829568088055,-0.05192350596189499,0.02626718580722809
1772699074721896400,8.682896484375,-0.003665188793092966,-0.05925388261675835,0.01649334840476513
1772699074739242000,8.700241943359375,0.001221729558892548,-0.06719512492418289,0.009773836471140385
1772699074756587300,8.717587158203125,0.008552107028663158,-0.06841685622930527,0.011606430634856224
1772699074773932800,8.734932861328126,0.017104214057326317,-0.07452550530433655,0.015271619893610477
1772699074791278300,8.7522783203125,0.021991131827235222,-0.08674279600381851,0.017104214057326317
1772699074808623600,8.76962353515625,0.017104214057326317,-0.09407317638397217,0.01954767294228077
1772699074825969200,8.78696923828125,0.0054977829568088055,-0.09101885557174683,0.02260199747979641
1772699074843314700,8.804314697265625,0.002443459117785096,-0.08368847519159317,0.023823726922273636
1772699074860660000,8.821659912109375,0.0054977829568088055,-0.08796452730894089,0.021991131827235222
1772699074878005500,8.839005615234376,0.013439024798572063,-0.09346231073141098,0.01588248461484909
1772699074895351000,8.85635107421875,0.01893680728971958,-0.10201441496610641,0.013439024798572063
1772699074912696300,8.8736962890625,0.014660755172371864,-0.10751219838857651,0.014660755172371864
1772699074930041900,8.891041748046876,0.003665188793092966,-0.10323614627122879,0.017715077847242355
1772699074947387400,8.908387451171874,-0.002443459117785096,-0.10079269111156464,0.01893680728971958
1772699074964732700,8.925732666015625,0.001832594396546483,-0.10567960888147354,0.017104214057326317
1772699074982078200,8.943078125,0.009162971749901772,-0.11239911615848541,0.015271619893610477
1772699074999423700,8.960423828125,0.014049889519810677,-0.1185077652335167,0.007941242307424545
1772699075016769000,8.97776904296875,0.015271619893610477,-0.12095122784376144,0.002443459117785096
1772699075034114600,8.995114501953125,0.01588248461484909,-0.12034036219120026,0.004886918235570192
1772699075051459800,9.0124599609375,0.010995565913617611,-0.12400554865598679,0.010384701192378998
1772699075068805400,9.029805419921875,0.006719512399286032,-0.10873392969369888,0.006108647678047419
1772699075086151000,9.04715087890625,0.006719512399286032,-0.08979712426662445,0.003665188793092966
1772699075103496200,9.06449609375,0.0054977829568088055,-0.08124501258134842,0.006108647678047419
1772699075120841700,9.081841796875,0.007330377586185932,-0.0769689604640007,0.001832594396546483
1772699075138187300,9.099187255859375,0.011606430634856224,-0.07513637095689774,0
1772699075155532500,9.116532470703126,0.014660755172371864,-0.06841685622930527,-0.0030543238390237093
1772699075172878000,9.133878173828125,0.017104214057326317,-0.05925388261675835,-0.006108647678047419
1772699075190223600,9.1512236328125,0.01588248461484909,-0.043982263654470444,-0.002443459117785096
1772699075207569000,9.16856884765625,0.012217295356094837,-0.02260199747979641,-0.007330377586185932
1772699075224914400,9.18591455078125,0.010384701192378998,-0.01282816007733345,-0.010995565913617611
1772699075242260000,9.203260009765625,0.007941242307424545,-0.009773836471140385,-0.011606430634856224
1772699075259605200,9.220605224609375,0.0054977829568088055,-0.006719512399286032,-0.003665188793092966
1772699075276950800,9.23795068359375,0.010995565913617611,-0.006719512399286032,0.003665188793092966
1772699075294296300,9.25529638671875,0.01588248461484909,-0.0030543238390237093,0.009162971749901772
1772699075311641600,9.2726416015625,0.01588248461484909,-0.001221729558892548,0.009773836471140385
1772699075328987100,9.289987060546874,0.012217295356094837,-0.007941242307424545,0.006719512399286032
1772699075346332400,9.30733251953125,0.006719512399286032,-0.014049889519810677,0.001832594396546483
1772699075363678000,9.324677978515625,0.004886918235570192,-0.01649334840476513,-0.002443459117785096
1772699075381023500,9.3420234375,0.0054977829568088055,-0.023212861269712448,-0.0030543238390237093
1772699075398368800,9.35936865234375,0.006719512399286032,-0.03298669680953026,-0.002443459117785096
1772699075415714300,9.37671435546875,0.007330377586185932,-0.03787361457943916,-0.001221729558892548
1772699075433059800,9.394059814453126,0.009162971749901772,-0.033597562462091446,0.002443459117785096
1772699075450405400,9.4114052734375,0.007941242307424545,-0.023823726922273636,0.000610864779446274
1772699075467750700,9.428750732421875,0.004276053514331579,-0.010384701192378998,-0.000610864779446274
1772699075485096200,9.44609619140625,0.0054977829568088055,-0.002443459117785096,-0.000610864779446274
1772699075502441700,9.463441650390624,0.010384701192378998,-0.004276053514331579,0.000610864779446274
1772699075519787000,9.480787109375,0.010384701192378998,-0.001832594396546483,0.002443459117785096
1772699075537132500,9.498132568359376,0.0054977829568088055,0.007330377586185932,0.001832594396546483
1772699075554478000,9.51547802734375,0.0030543238390237093,0.024434590712189674,-0.007330377586185932
1772699075571823400,9.5328232421875,0.008552107028663158,0.02871064469218254,-0.017104214057326317
1772699075589169000,9.5501689453125,0.018325943499803543,0.025045456364750862,-0.02626718580722809
1772699075606514400,9.567514404296874,0.037262752652168274,0.03176496922969818,-0.02871064469218254
1772699075623859700,9.584859619140625,0.04581485688686371,0.01954767294228077,-0.033597562462091446
1772699075641205200,9.602205322265625,0.03237583488225937,0.0054977829568088055,-0.033597562462091446
1772699075658550500,9.619550537109374,0.004886918235570192,0.001832594396546483,-0.024434590712189674
1772699075675896000,9.63689599609375,-0.01282816007733345,0.006108647678047419,-0.018325943499803543
1772699075693241600,9.65424169921875,-0.012217295356094837,0,-0.010995565913617611
1772699075710587000,9.6715869140625,-0.002443459117785096,-0.023212861269712448,0.0054977829568088055
1772699075727932400,9.688932373046875,0.0054977829568088055,-0.047036588191986084,0.02626718580722809
1772699075745278000,9.70627783203125,0.011606430634856224,-0.06536252796649933,0.030543239787220955
1772699075762623200,9.723623291015626,0.015271619893610477,-0.08552107214927673,0.017104214057326317
1772699075779968800,9.74096875,0.014049889519810677,-0.09957095980644226,-0.0030543238390237093
1772699075797314300,9.758314208984375,0.007330377586185932,-0.11239911615848541,-0.015271619893610477
1772699075814659600,9.77565966796875,0.000610864779446274,-0.11667517572641373,-0.017104214057326317
1772699075832005000,9.793005126953124,0.000610864779446274,-0.10506874322891235,-0.013439024798572063
1772699075849350700,9.8103505859375,0.004886918235570192,-0.09162971377372742,-0.013439024798572063
1772699075866696000,9.827696044921876,0.007330377586185932,-0.05925388261675835,-0.009162971749901772
1772699075884041500,9.84504150390625,0.004886918235570192,-0.01588248461484909,-0.002443459117785096
1772699075901387000,9.862386962890625,0.001221729558892548,0.02932151034474373,-0.002443459117785096
1772699075918732300,9.879732177734375,-0.0030543238390237093,0.07330377399921417,-0.001832594396546483
1772699075936077800,9.897077880859374,0.002443459117785096,0.10751219838857651,-0.008552107028663158
1772699075953423400,9.91442333984375,0.010995565913617611,0.1380554437637329,-0.020769402384757996
1772699075970768600,9.9317685546875,0.014049889519810677,0.1692095398902893,-0.024434590712189674
1772699075988114200,9.9491142578125,0.011606430634856224,0.20708316564559937,-0.014660755172371864
1772699076005459700,9.966459716796875,0.007941242307424545,0.24801109731197357,0.004276053514331579
1772699076022805000,9.983804931640625,0.0054977829568088055,0.29016077518463135,0.018325943499803543
1772699076040150500,10.001150634765626,0,0.3182605504989624,0.017104214057326317
1772699076057496000,10.01849609375,-0.003665188793092966,0.3249800503253937,0.013439024798572063
1772699076074841300,10.03584130859375,-0.001221729558892548,0.31520622968673706,0.01893680728971958
1772699076092187000,10.053186767578126,0.009773836471140385,0.2919933497905731,0.027488915249705315
1772699076109532400,10.070532470703125,0.013439024798572063,0.268169641494751,0.03298669680953026
1772699076126878000,10.0878779296875,0.011606430634856224,0.2406807243824005,0.03237583488225937
1772699076144223200,10.10522314453125,0.004886918235570192,0.1948658674955368,0.024434590712189674
1772699076161568800,10.12256884765625,-0.004276053514331579,0.13500112295150757,0.023212861269712448
1772699076178914300,10.139914306640625,-0.003665188793092966,0.06719512492418289,0.017715077847242355
1772699076196259600,10.157259521484375,0.000610864779446274,0.009162971749901772,0.010995565913617611
1772699076213605000,10.174605224609374,0.0054977829568088055,-0.03176496922969818,0.004276053514331579
1772699076230950700,10.19195068359375,0.003665188793092966,-0.06414080411195755,0.001221729558892548
1772699076248296000,10.2092958984375,0.006108647678047419,-0.10079269111156464,0.009162971749901772
1772699076265641500,10.226641357421874,0.014049889519810677,-0.14294235408306122,0.018325943499803543
1772699076282987000,10.243987060546875,0.014049889519810677,-0.16615521907806396,0.03298669680953026
1772699076300332300,10.261332275390625,0.001832594396546483,-0.16126830875873566,0.04276053607463837
1772699076317677800,10.278677734375,-0.007941242307424545,-0.15271618962287903,0.039706211537122726
1772699076335023400,10.2960234375,-0.006108647678047419,-0.1545487940311432,0.03237583488225937
1772699076352368600,10.31336865234375,0.006719512399286032,-0.1539379209280014,0.03237583488225937
1772699076369714200,10.330714111328126,0.01954767294228077,-0.1545487940311432,0.034208428114652634
1772699076387059700,10.348059814453125,0.0256563201546669,-0.15027274191379547,0.037262752652168274
1772699076404405000,10.365405029296875,0.018325943499803543,-0.1386663019657135,0.050090912729501724
1772699076421750500,10.38275048828125,0.001221729558892548,-0.12095122784376144,0.06475166976451874
1772699076439096000,10.400095947265624,-0.007941242307424545,-0.1026252806186676,0.06902772188186646
1772699076456441300,10.41744140625,-0.007330377586185932,-0.10140355676412582,0.06291907280683517
1772699076473787000,10.434786865234376,0.002443459117785096,-0.10079269111156464,0.056199558079242706
1772699076491132400,10.45213232421875,0.012217295356094837,-0.10323614627122879,0.05742128938436508
1772699076508477700,10.469477783203125,0.01282816007733345,-0.10506874322891235,0.06902772188186646
1772699076525823200,10.4868232421875,0.003665188793092966,-0.09590577334165573,0.07513637095689774
1772699076543168800,10.504168701171874,-0.0054977829568088055,-0.07452550530433655,0.06230820715427399
1772699076560514300,10.521514404296875,-0.002443459117785096,-0.056199558079242706,0.05436696484684944
1772699076577859600,10.538859619140625,-0.004886918235570192,-0.037262752652168274,0.06352993845939636
1772699076595205000,10.556205078125,-0.010384701192378998,-0.015271619893610477,0.08124501258134842
1772699076612550700,10.573550537109375,-0.010995565913617611,-0.011606430634856224,0.08552107214927673
1772699076629896000,10.59089599609375,-0.001221729558892548,-0.01893680728971958,0.07574722915887833
1772699076647241500,10.608241455078126,0.012217295356094837,-0.01954767294228077,0.06475166976451874
1772699076664587000,10.6255869140625,0.01588248461484909,-0.004276053514331579,0.05742128938436508
1772699076681932300,10.642932373046875,0.010384701192378998,0.02626718580722809,0.043371398001909256
1772699076699277800,10.66027783203125,0.006719512399286032,0.04214967042207718,0.0360410213470459
1772699076716623400,10.677623291015625,0.010384701192378998,0.03237583488225937,0.036651886999607086
1772699076733968600,10.69496875,0.020769402384757996,0.01282816007733345,0.03848448023200035
1772699076751314200,10.712314208984376,0.036651886999607086,-0.012217295356094837,0.031154103577136993
1772699076768659700,10.72965966796875,0.05497783049941063,-0.023212861269712448,0.015271619893610477
1772699076786005000,10.7470048828125,0.07086031138896942,-0.036651886999607086,-0.003665188793092966
1772699076803350500,10.7643505859375,0.07574722915887833,-0.05742128938436508,-0.009162971749901772
1772699076820696000,10.781696044921874,0.07330377399921417,-0.06719512492418289,-0.003665188793092966
1772699076838041600,10.79904150390625,0.06536252796649933,-0.07452550530433655,0
1772699076855387000,10.816386962890626,0.05253437161445618,-0.07330377399921417,0
1772699076872732400,10.833732421875,0.040317077189683914,-0.06963858753442764,0.010995565913617611
1772699076890078000,10.851077880859375,0.03909534588456154,-0.09162971377372742,0.024434590712189674
1772699076907423200,10.86842333984375,0.04825831577181816,-0.11239911615848541,0.029932374134659767
1772699076924768800,10.885768798828124,0.05742128938436508,-0.13072505593299866,0.03481929376721382
1772699076942114300,10.9031142578125,0.05192350596189499,-0.1288924664258957,0.03298669680953026
1772699076959459600,10.92045947265625,0.039706211537122726,-0.1185077652335167,0.02871064469218254
1772699076976805000,10.93780517578125,0.028099779039621353,-0.11056652665138245,0.02871064469218254
1772699076994150700,10.955150634765625,0.01282816007733345,-0.10445787757635117,0.0360410213470459
1772699077011496000,10.972495849609375,0.002443459117785096,-0.10690133273601532,0.053145237267017365
1772699077028841500,10.989841552734376,0.006108647678047419,-0.11239911615848541,0.05742128938436508
1772699077046187000,11.00718701171875,0.010995565913617611,-0.10751219838857651,0.05558869615197182
1772699077063532500,11.024532470703125,0.006719512399286032,-0.0922405794262886,0.047036588191986084
1772699077080877800,11.0418779296875,-0.001221729558892548,-0.06047561392188072,0.04276053607463837
1772699077098223400,11.059223388671874,-0.013439024798572063,-0.025045456364750862,0.056199558079242706
1772699077115569000,11.07656884765625,-0.031154103577136993,0.0054977829568088055,0.07452550530433655
1772699077132914400,11.09391455078125,-0.043982263654470444,0.0360410213470459,0.09407317638397217
1772699077150259700,11.111259765625,-0.043371398001909256,0.04520399495959282,0.10018182545900345
1772699077167605200,11.128605224609375,-0.034208428114652634,0.03848448023200035,0.10079269111156464
1772699077184950800,11.14595068359375,-0.024434590712189674,0.020769402384757996,0.09651663154363632
1772699077202296000,11.163296142578124,-0.017715077847242355,0.015271619893610477,0.08674279600381851
1772699077219641600,11.1806416015625,-0.012217295356094837,0.025045456364750862,0.0720820426940918
1772699077236987100,11.197987060546875,-0.000610864779446274,0.0409279391169548,0.06108647957444191
1772699077254332400,11.21533251953125,0.010384701192378998,0.039706211537122726,0.05558869615197182
1772699077271678000,11.232677978515625,0.008552107028663158,0.036651886999607086,0.04153880476951599
1772699077289023500,11.2500234375,-0.001221729558892548,0.04153880476951599,0.01588248461484909
1772699077306368800,11.26736865234375,0.001221729558892548,0.030543239787220955,-0.003665188793092966
1772699077323714300,11.28471435546875,0.010995565913617611,0.006719512399286032,-0.012217295356094837
1772699077341059800,11.302059814453125,0.025045456364750862,-0.012217295356094837,-0.014660755172371864
1772699077358405000,11.319405029296876,0.03176496922969818,-0.01588248461484909,-0.010384701192378998
1772699077375750700,11.336750732421875,0.028099779039621353,0.000610864779446274,-0.007941242307424545
1772699077393096200,11.35409619140625,0.02260199747979641,0.010384701192378998,-0.0030543238390237093
1772699077410441700,11.371441650390626,0.010384701192378998,0.01893680728971958,0.010995565913617611
1772699077427787000,11.388787109375,-0.007330377586185932,0.025045456364750862,0.028099779039621353
1772699077445132500,11.406132568359375,-0.02871064469218254,0.017715077847242355,0.0513126403093338
1772699077462478000,11.42347802734375,-0.05497783049941063,-0.004886918235570192,0.06414080411195755
1772699077479823400,11.4408232421875,-0.07330377399921417,-0.040317077189683914,0.07452550530433655
1772699077497169000,11.4581689453125,-0.0720820426940918,-0.06352993845939636,0.06902772188186646
1772699077514514400,11.475514404296876,-0.05497783049941063,-0.07819069176912308,0.0616973415017128
1772699077531859700,11.492859619140624,-0.034208428114652634,-0.0720820426940918,0.056810423731803894
1772699077549205200,11.510205322265625,-0.026878049597144127,-0.04825831577181816,0.050090912729501724
1772699077566550800,11.52755078125,-0.03298669680953026,-0.02626718580722809,0.04276053607463837
1772699077583896300,11.544896240234374,-0.043982263654470444,-0.009773836471140385,0.039706211537122726
1772699077601241900,11.562241943359375,-0.047036588191986084,-0.006719512399286032,0.033597562462091446
1772699077618587100,11.579587158203125,-0.0409279391169548,-0.010995565913617611,0.03237583488225937
1772699077635932700,11.5969326171875,-0.03481929376721382,-0.007330377586185932,0.026878049597144127
1772699077653278200,11.6142783203125,-0.031154103577136993,0.006108647678047419,0.02626718580722809
1772699077670623500,11.63162353515625,-0.028099779039621353,0.01282816007733345,0.033597562462091446
1772699077687969000,11.648968994140626,-0.01588248461484909,0.004276053514331579,0.03909534588456154
1772699077705314600,11.666314453125,-0.0030543238390237093,-0.006719512399286032,0.04276053607463837
1772699077722659800,11.683659912109375,-0.0030543238390237093,0.001832594396546483,0.04520399495959282
1772699077740005400,11.70100537109375,-0.01588248461484909,0.023823726922273636,0.04276053607463837
1772699077757351000,11.718350830078125,-0.03176496922969818,0.04825831577181816,0.03543015569448471
1772699077774696400,11.735696533203125,-0.040317077189683914,0.06475166976451874,0.018325943499803543
1772699077792041700,11.753041748046876,-0.02626718580722809,0.06963858753442764,0.004276053514331579
1772699077809387300,11.77038720703125,-0.000610864779446274,0.06719512492418289,-0.008552107028663158
1772699077826732800,11.78773291015625,0.009773836471140385,0.07452550530433655,-0.023212861269712448
1772699077844078000,11.805078125,0.010995565913617611,0.09162971377372742,-0.02932151034474373
1772699077861423600,11.822423583984374,0.011606430634856224,0.10445787757635117,-0.0360410213470459
1772699077878769200,11.83976904296875,0.010995565913617611,0.12156209349632263,-0.04153880476951599
1772699077896114700,11.85711474609375,0.006108647678047419,0.1185077652335167,-0.04276053607463837
1772699077913460000,11.8744599609375,-0.001221729558892548,0.11239911615848541,-0.03543015569448471
1772699077930805500,11.891805419921875,-0.010384701192378998,0.10384701192378998,-0.01893680728971958
1772699077948151000,11.909151123046875,-0.01649334840476513,0.1185077652335167,0.01588248461484909
1772699077965496600,11.92649658203125,-0.023212861269712448,0.1441640853881836,0.04581485688686371
1772699077982841900,11.943841796875,-0.046425722539424896,0.1337793916463852,0.07513637095689774
1772699078000187400,11.9611875,-0.09040798991918564,0.12400554865598679,0.10079269111156464
1772699078017533000,11.978532958984376,-0.11667517572641373,0.1178968995809555,0.10567960888147354
1772699078034878200,11.995878173828125,-0.11667517572641373,0.11545344442129135,0.12400554865598679
1772699078052223700,12.0132236328125,-0.10506874322891235,0.10995566099882126,0.143553227186203
1772699078069569300,12.0305693359375,-0.08613193035125732,0.0873536616563797,0.16004657745361328
1772699078086914800,12.047914794921875,-0.07880155742168427,0.0665842592716217,0.18387030065059662
1772699078104260000,12.065260009765625,-0.08674279600381851,0.05864302068948746,0.19181154668331146
1772699078121605600,12.082605712890626,-0.09957095980644226,0.03909534588456154,0.18264856934547424
1772699078138951200,12.099951171875,-0.10506874322891235,0.020158538594841957,0.17531819641590118
1772699078156296700,12.117296630859375,-0.09957095980644226,-0.007941242307424545,0.1795942485332489
1772699078173642000,12.13464208984375,-0.08429934084415436,-0.030543239787220955,0.17531819641590118
1772699078190987500,12.151987548828124,-0.06352993845939636,-0.0769689604640007,0.16249002516269684
1772699078208333000,12.1693330078125,-0.04276053607463837,-0.1178968995809555,0.13744457066059113
1772699078225678300,12.18667822265625,-0.021380268037319183,-0.14660754799842834,0.10445787757635117
1772699078243024000,12.20402392578125,0.0030543238390237093,-0.2003636509180069,0.059864748269319534
1772699078260369400,12.221369384765625,0.027488915249705315,-0.25900667905807495,0.01893680728971958
1772699078277715000,12.23871484375,0.049480047076940536,-0.28527384996414185,-0.029932374134659767
1772699078295060200,12.256060302734374,0.04886918142437935,-0.2669478952884674,-0.09101885557174683
1772699078312405800,12.27340576171875,0.029932374134659767,-0.23945899307727814,-0.1282816082239151
1772699078329751300,12.290751220703125,0.017715077847242355,-0.20952661335468292,-0.12950333952903748
1772699078347096800,12.308096923828124,0.012217295356094837,-0.18753549456596375,-0.12644900381565094
1772699078364442000,12.325442138671875,0.014660755172371864,-0.15821397304534912,-0.1178968995809555
1772699078381787600,12.34278759765625,0.020158538594841957,-0.12705987691879272,-0.09346231073141098
1772699078399133200,12.36013330078125,0.015271619893610477,-0.10629047453403473,-0.05742128938436508
1772699078416478700,12.377478759765625,0.007330377586185932,-0.08979712426662445,-0.023823726922273636
1772699078433824000,12.394823974609375,0.006719512399286032,-0.08491020649671555,0.006719512399286032
1772699078451169500,12.41216943359375,0.0054977829568088055,-0.07880155742168427,0.03909534588456154
1772699078468515000,12.42951513671875,0.004886918235570192,-0.06414080411195755,0.07635809481143951
1772699078485860400,12.4468603515625,0.001221729558892548,-0.04581485688686371,0.10018182545900345
1772699078503206000,12.464205810546876,-0.015271619893610477,-0.01954767294228077,0.10018182545900345
1772699078520551400,12.481551513671874,-0.03909534588456154,0.014049889519810677,0.09162971377372742
1772699078537897000,12.49889697265625,-0.05253437161445618,0.04459312930703163,0.08857539296150208
1772699078555242200,12.5162421875,-0.04459312930703163,0.049480047076940536,0.09407317638397217
1772699078572587800,12.533587890625,-0.027488915249705315,0.0409279391169548,0.10201441496610641
1772699078589933300,12.550933349609375,-0.023823726922273636,0.03481929376721382,0.10384701192378998
1772699078607278800,12.56827880859375,-0.03848448023200035,0.01649334840476513,0.11606431007385254
1772699078624624000,12.5856240234375,-0.056810423731803894,0.01954767294228077,0.12705987691879272
1772699078641969700,12.6029697265625,-0.059864748269319534,0.013439024798572063,0.1282816082239151
1772699078659315200,12.620315185546875,-0.0030543238390237093,-0.15149445831775665,0.2528980076313019
1772699078676660700,12.63766064453125,-0.043371398001909256,-0.08429934084415436,0.2162461280822754
1772699078694006000,12.655006103515625,-0.026878049597144127,-0.09407317638397217,0.18142683804035187
1772699078711351600,12.6723515625,-0.018325943499803543,-0.164322629570961,0.2107483446598053
1772699078728697000,12.689697021484376,-0.056810423731803894,-0.14172062277793884,0.1997527778148651
1772699078746042600,12.707042724609375,-0.06719512492418289,-0.09957095980644226,0.16249002516269684
1772699078763388000,12.724387939453125,-0.06475166976451874,-0.12156209349632263,0.12705987691879272
1772699078780733400,12.7417333984375,-0.047036588191986084,-0.19425499439239502,0.13072505593299866
1772699078798079000,12.759078857421875,-0.05558869615197182,-0.2052505612373352,0.1185077652335167
1772699078815424500,12.776424560546875,-0.04886918142437935,-0.22724169492721558,0.0977383628487587
1772699078832769800,12.793769775390626,-0.06291907280683517,-0.22663083672523499,0.06719512492418289
1772699078850115300,12.811115234375,-0.05436696484684944,-0.2510654330253601,0.04214967042207718
1772699078867460900,12.8284609375,-0.043371398001909256,-0.28588470816612244,0.031154103577136993
1772699078884806400,12.845806396484376,-0.01649334840476513,-0.26389357447624207,0.010384701192378998
1772699078902151700,12.863151611328124,0,-0.24984370172023773,-0.030543239787220955
1772699078919497200,12.880497314453125,0.008552107028663158,-0.23273947834968567,-0.05803215503692627
1772699078936842800,12.8978427734375,0.025045456364750862,-0.2406807243824005,-0.07757982611656189
1772699078954188300,12.915188232421874,0.04276053607463837,-0.25350889563560486,-0.08674279600381851
1772699078971533600,12.932533447265625,0.056810423731803894,-0.24434591829776764,-0.08002328872680664
1772699078988879000,12.949879150390625,0.043982263654470444,-0.25473061203956604,-0.05864302068948746
1772699079006224600,12.967224609375,0.02626718580722809,-0.20891575515270233,-0.04581485688686371
1772699079023570200,12.984570068359375,0.014660755172371864,-0.17898337543010712,-0.03787361457943916
1772699079040915500,13.00191552734375,0.027488915249705315,-0.14233149588108063,-0.05253437161445618
1772699079058261000,13.019260986328124,0.0409279391169548,-0.12522727251052856,-0.04153880476951599
1772699079075606500,13.0366064453125,0.037262752652168274,-0.09346231073141098,-0.021991131827235222
1772699079092952000,13.0539521484375,0.012217295356094837,-0.0922405794262886,0.010995565913617611
1772699079110297300,13.07129736328125,-0.017104214057326317,-0.03848448023200035,0.013439024798572063
1772699079127643000,13.088642822265625,-0.03787361457943916,-0.06597339361906052,-0.03176496922969818
1772699079144988400,13.105988525390625,-0.047036588191986084,-0.04214967042207718,-0.03298669680953026
1772699079162334000,13.123333984375,-0.047036588191986084,0.08491020649671555,-0.14599667489528656
1772699079179679200,13.14067919921875,-0.04825831577181816,0.3029889166355133,-0.2718348205089569
1772699079197024800,13.158024658203125,-0.04276053607463837,0.4410443603992462,-0.29565855860710144
1772699079214370300,13.175370361328126,-0.04153880476951599,0.2309068888425827,-0.18081597983837128
1772699079231715800,13.1927158203125,-0.003665188793092966,0.001832594396546483,-0.01282816007733345
1772699079249061400,13.210061279296875,0.006108647678047419,-0.09896009415388107,0.007330377586185932
1772699079266406700,13.22740673828125,0.04825831577181816,-0.19914191961288452,0.03481929376721382
1772699079283752200,13.244752197265624,0.09162971377372742,-0.27855435013771057,0.04520399495959282
1772699079301097700,13.26209765625,0.08674279600381851,-0.013439024798572063,-0.04459312930703163
1772699079318443300,13.279443359375,0.03237583488225937,0.1484401375055313,-0.1233946830034256
1772699079335788500,13.29678857421875,-0.003665188793092966,0.19303326308727264,-0.12400554865598679
1772699079353134000,13.314134033203125,0.018325943499803543,0.006719512399286032,-0.08918625861406326
1772699079370479600,13.331479736328125,0.1795942485332489,-0.13561198115348816,-0.05925388261675835
1772699079387825000,13.348824951171874,0.2864955961704254,-0.03176496922969818,0.0720820426940918
1772699079405170400,13.36617041015625,0.2620609998703003,0.0922405794262886,0.11667517572641373
1772699079422516000,13.383515869140625,0.32070401310920715,0.10445787757635117,0.026878049597144127
1772699079439861500,13.400861572265624,0.5112938284873962,0.02626718580722809,-0.01954767294228077
1772699079457207000,13.41820703125,0.7006618976593018,-0.01893680728971958,0.056199558079242706
1772699079474552300,13.43555224609375,0.6688969135284424,0.017715077847242355,0.20219624042510986
1772699079491897900,13.45289794921875,0.8900299668312073,0.007941242307424545,0.3585776388645172
1772699079509243400,13.470243408203125,0.9712749719619751,-0.14294235408306122,0.4276053309440613
1772699079526589000,13.4875888671875,1.2217295169830322,-0.1954767256975174,0.430659681558609
1772699079543934500,13.5049345703125,1.4043781757354736,-0.25961753726005554,0.4471530318260193
1772699079561279700,13.52227978515625,1.265711784362793,-0.5876519083976746,0.6731730103492737
1772699079578625300,13.539625244140625,1.1740821599960327,-0.8698714375495911,0.9419534802436829
1772699079595970800,13.556970703125,1.1728603839874268,-1.1533126831054688,1.0543526411056519
1772699079613316400,13.57431640625,0.9761618971824646,-1.1056652069091797,0.9309579133987427
1772699079630661600,13.59166162109375,0.6780598759651184,-1.1985167264938354,0.8393282294273376
1772699079648007200,13.609007080078126,0.7189878225326538,-0.4886918365955353,0.8240565657615662
1772699079665352700,13.626352783203124,0.5503891706466675,-0.8637627959251404,1.2302817106246948
1772699079682698200,13.6436982421875,0.4728093445301056,-1.1136064529418945,1.4379756450653076
1772699079700043800,13.661043701171875,0.16615521907806396,-1.201570987701416,0.9737184643745422
1772699079717389000,13.67838916015625,-0.27488914132118225,-1.9022328853607178,0.43860089778900146
1772699079734734600,13.695734619140625,-0.22724169492721558,-2.1300854682922363,-0.39217519760131836
1772699079752080100,13.713080078125,-0.6499601006507874,-2.4379613399505615,-1.3530654907226562
1772699079769425700,13.73042578125,-2.402531147003174,-3.1135778427124023,-1.278540015220642
1772699079786771200,13.747771240234375,-3.018282890319824,-3.9272496700286865,-0.5204567909240723
1772699079804116500,13.765116455078125,-3.0757040977478027,-3.7953028678894043,-0.4251618981361389
1772699079821462000,13.7824619140625,-2.7928738594055176,-2.3267838954925537,-0.164322629570961
1772699079838807600,13.7998076171875,-3.0274457931518555,-1.1759146451950073,-0.15149445831775665
1772699079856153000,13.817153076171875,-4.32431173324585,-1.997527837753296,-0.401949018239975
1772699079873498600,13.83449853515625,-5.852695465087891,-3.788583278656006,-0.17165300250053406
1772699079890844000,13.851843994140625,-7.174606800079346,-4.534449100494385,0.5943714380264282
1772699079908189400,13.869189453125,-7.415287494659424,-3.277289628982544,0.9639446139335632
1772699079925535000,13.886534912109376,-7.14162015914917,-1.6560543775558472,0.924238383769989
1772699079942880500,13.903880615234375,-7.3248796463012695,0.056199558079242706,0.7012727856636047
1772699079960226000,13.92122607421875,-8.01943302154541,1.9724823236465454,0.5308414697647095
1772699079977571300,13.9385712890625,-8.633962631225586,2.8991641998291016,0.12400554865598679
1772699079994916900,13.955916748046874,-8.129999160766602,3.6529712677001953,0.35674503445625305
1772699080012262400,13.973262451171875,-7.483093738555908,4.645626544952393,1.0574069023132324
1772699080029608000,13.99060791015625,-6.826414108276367,4.780016899108887,2.1300854682922363
1772699080046953500,14.007953369140624,-7.241801738739014,4.853931427001953,2.221104383468628
1772699080064298800,14.025298828125,-7.503252029418945,4.616305351257324,2.000582218170166
1772699080081644300,14.042644287109376,-6.944921493530273,4.525897026062012,1.839924693107605
1772699080098989800,14.05998974609375,-5.277871608734131,4.791623115539551,1.740964651107788
1772699080116335400,14.07733544921875,-3.6975646018981934,5.225337505340576,1.4703515768051147
1772699080133681000,14.094680908203125,-3.043328285217285,5.023751735687256,1.3451242446899414
1772699080151026200,14.112026123046874,-2.8851144313812256,4.350578784942627,1.6719368696212769
1772699080168371700,14.129371826171875,-2.7262895107269287,3.802633285522461,1.9022328853607178
1772699080185717200,14.14671728515625,-2.2956297397613525,3.4629924297332764,1.6914845705032349
1772699080203062800,14.164062744140624,-1.7159191370010376,3.117853879928589,1.1588104963302612
1772699080220408300,14.181408203125,-1.3225222826004028,2.6224424839019775,0.6414080262184143
1772699080237753600,14.198753662109375,-1.1459823846817017,2.187506675720215,0.3078758418560028
1772699080255099100,14.21609912109375,-1.0164790153503418,2.5833470821380615,0.15638138353824615
1772699080272444700,14.233444580078125,-0.7984002828598022,2.5888450145721436,0.3090975880622864
1772699080289790200,14.250790283203125,-0.7672461867332458,2.2876884937286377,0.4428769648075104
1772699080307135700,14.2681357421875,-0.647516667842865,2.414748430252075,0.7483093738555908
1772699080324481300,14.285481201171875,-0.2809978127479553,1.9370522499084473,1.0225876569747925
1772699080341826600,14.30282666015625,-0.056199558079242706,1.1050543785095215,0.8820887207984924
1772699080359172000,14.320172119140626,0.2809978127479553,-0.3139844834804535,1.043357014656067
1772699080376517600,14.337517578125,0.8075632452964783,-1.2638791799545288,1.2760965824127197
1772699080393863200,14.35486328125,1.158199667930603,-1.4862339496612549,1.3842196464538574
1772699080411208700,14.372208740234376,1.0054833889007568,-0.20769402384757996,1.230892539024353
1772699080428554200,14.38955419921875,0.6994401812553406,3.144120931625366,1.1172716617584229
1772699080445899500,14.4068994140625,0.6621774435043335,4.123337268829346,0.3170388340950012
1772699080463245000,14.4242451171875,1.1643083095550537,1.68354332447052,-0.7611374855041504
1772699080480590600,14.441590576171874,1.4159845113754272,1.3390156030654907,-0.7098248600959778
1772699080497936100,14.45893603515625,1.1172716617584229,1.2009601593017578,-0.2809978127479553
1772699080515281700,14.47628173828125,0.6633991599082947,0.47036588191986084,-0.07819069176912308
1772699080532627000,14.493626953125,0.44470956921577454,0.11239911615848541,-0.07391463965177536
1772699080549972500,14.510972412109375,0.3536907136440277,0.40378162264823914,-0.516791582107544
1772699080567318000,14.528318115234375,0.22785256803035736,1.0158681869506836,-0.9010255336761475
1772699080584663600,14.54566357421875,-0.018325943499803543,1.0317505598068237,-0.9205732345581055
1772699080602009000,14.563009033203125,-0.02626718580722809,0.48441576957702637,-0.6456840634346008
1772699080619354600,14.580354736328125,0.27916520833969116,0.10690133273601532,-0.23884813487529755
1772699080636700000,14.597699951171874,0.4770853817462921,-0.015271619893610477,0.07086031138896942
1772699080654045400,14.61504541015625,0.31093016266822815,0.2461785078048706,0.13255766034126282
1772699080671391000,14.632390869140625,0.004276053514331579,0.4618137776851654,0.12278381735086441
1772699080688736500,14.649736572265626,-0.049480047076940536,0.3842339515686035,0.12278381735086441
1772699080706082000,14.66708203125,0.06352993845939636,0.10018182545900345,0.12461641430854797
1772699080723427300,14.68442724609375,0.21991132199764252,-0.014049889519810677,0.000610864779446274
1772699080740772900,14.70177294921875,0.36224281787872314,0.1740964651107788,-0.14538581669330597
1772699080758118400,14.719118408203125,0.3689623177051544,0.3860665261745453,-0.13194678723812103
1772699080775464000,14.7364638671875,0.33047783374786377,0.5045742988586426,0.06963858753442764
1772699080792809500,14.7538095703125,0.22357651591300964,0.5204567909240723,0.2889390289783478
1772699080810155000,14.771155029296875,0.1185077652335167,0.5308414697647095,0.4477638900279999
1772699080827500300,14.788500244140625,0.030543239787220955,0.1282816082239151,0.4880809485912323
1772699080844845800,14.805845703125,0.2565632164478302,0.06475166976451874,0.33169957995414734
1772699080862191400,14.82319140625,0.37201663851737976,0.2779434621334076,0.19120067358016968
1772699080879537000,14.840536865234375,0.36163195967674255,0.5699368119239807,0.08613193035125732
1772699080896882400,14.85788232421875,0.31642794609069824,0.7464767694473267,0.10018182545900345
1772699080914227700,14.875227783203124,0.15271618962287903,0.5815432667732239,0.26022839546203613
