time,seconds_elapsed,z,y,x
1772727768678929000,0.100928955078125,5.474778175354004,7.936992645263672,1.1461620330810547
1772727768696273000,0.11827294921875,4.692325115203857,6.704689025878906,0.9044869542121887
1772727768713618400,0.135618408203125,6.606583118438721,5.773880958557129,0.41156548261642456
1772727768730964000,0.1529638671875,7.2813591957092285,5.910272121429443,-0.035892341285943985
1772727768748309200,0.170309326171875,7.152146816253662,6.740581512451172,-0.8231309652328491
1772727768765654800,0.18765478515625,7.046862602233887,7.527820110321045,-1.672582983970642
1772727768783000000,0.205,7.726424217224121,7.267002582550049,-2.548356056213379
1772727768800345600,0.222345703125,7.9489569664001465,6.561119556427002,-1.9262222051620483
1772727768817691000,0.23969091796875,7.994420528411865,6.403193473815918,0.3517449200153351
1772727768835036400,0.257036376953125,7.389036178588867,6.4510498046875,1.7276179790496826
1772727768852381700,0.274381591796875,6.903293132781982,6.180660724639893,1.1413763761520386
1772727768869727200,0.291727294921875,7.29810905456543,5.9916276931762695,1.4739787578582764
1772727768887072800,0.30907275390625,7.089933395385742,5.67338228225708,3.1896326541900635
1772727768904418000,0.32641796875,4.73300313949585,5.391029357910156,6.247660160064697
1772727768921763600,0.343763671875,2.4765713214874268,5.249852657318115,6.757331371307373
1772727768939108900,0.36110888671875,2.0267207622528076,5.221138954162598,6.072983741760254
1772727768956454400,0.378454345703125,1.8664016723632812,4.984249591827393,5.517848968505859
1772727768973799700,0.395799560546875,2.579462766647339,4.9052863121032715,4.620540618896484
1772727768991145200,0.413145263671875,3.7543387413024902,4.900500774383545,2.5914268493652344
1772727769008490800,0.43049072265625,5.0943193435668945,5.2977094650268555,-1.6462619304656982
1772727769025836000,0.4478359375,5.247459888458252,6.235695838928223,-5.697310924530029
1772727769043181600,0.465181640625,4.094119548797607,10.861021995544434,-10.628918647766113
1772727769060526800,0.48252685546875,1.648654818534851,24.1387939453125,-14.641681671142578
1772727769077872400,0.499872314453125,1.5625132322311401,14.976676940917969,-2.2779672145843506
1772727769095217700,0.5172177734375,-0.37806597352027893,10.762916564941406,1.4380863904953003
1772727769112563200,0.534563232421875,-1.5481562614440918,8.0350980758667,0.3278166949748993
1772727769129908700,0.55190869140625,-2.108076810836792,8.810373306274414,-0.5407779216766357
1772727769147254000,0.56925390625,-2.7589244842529297,8.195417404174805,-1.4428720474243164
1772727769164599600,0.586599609375,-0.698704183101654,8.516056060791016,-2.2372891902923584
1772727769181944800,0.60394482421875,-0.7561319470405579,9.145368576049805,-2.66560435295105
1772727769199290400,0.621290283203125,0.11724831163883209,7.10429048538208,-2.2851455211639404
1772727769216636000,0.638635986328125,2.021935224533081,5.484349727630615,-1.1461620330810547
1772727769233981200,0.655981201171875,1.8065811395645142,5.4173502922058105,0.27756741642951965
1772727769251326700,0.67332666015625,-3.6945180892944336,5.5968122482299805,2.9599215984344482
1772727769268672300,0.69067236328125,-8.7505521774292,10.01874828338623,1.5481562614440918
1772727769286017500,0.708017578125,-10.214960098266602,9.89432144165039,-0.6029912829399109
1772727769303363000,0.725363037109375,-9.56889820098877,8.528019905090332,-1.2179467678070068
1772727769320708400,0.742708251953125,-21.315263748168945,5.8959150314331055,6.338587284088135
1772727769338054000,0.760053955078125,-7.908278942108154,6.809973239898682,2.3473589420318604
1772727769355399400,0.7773994140625,-3.9696927070617676,6.656832695007324,1.6319050788879395
1772727769372744700,0.79474462890625,-3.5533416271209717,6.5419769287109375,3.0340991020202637
1772727769390090200,0.81209033203125,-5.675775527954102,9.059226989746094,2.723032236099243
1772727769407435800,0.829435791015625,2.115255117416382,9.789037704467773,1.4787644147872925
1772727769424781000,0.846781005859375,0.07178468257188797,9.032905578613281,0.4618147611618042
1772727769442126600,0.864126708984375,-2.9001009464263916,8.015955924987793,0.7178468108177185
1772727769459472000,0.881471923828125,-3.4002010822296143,8.142775535583496,0.09092725813388824
1772727769476817400,0.8988173828125,-2.4717857837677,7.523034572601318,0.019142581149935722
1772727769494163000,0.916162841796875,-3.6083765029907227,5.793023586273193,-1.1461620330810547
1772727769511508200,0.93350830078125,-3.672982692718506,2.7517459392547607,-2.8139593601226807
1772727769528853800,0.950853759765625,-8.941978454589844,5.525027275085449,-1.797009825706482
1772727769546199300,0.96819921875,-8.621339797973633,4.177868366241455,0.08374879509210587
1772727769563544600,0.985544677734375,-2.9527430534362793,2.6368906497955322,0.48813581466674805
1772727769580890000,1.00289013671875,-5.726024627685547,4.867001056671143,-0.3565305769443512
1772727769598235600,1.020235595703125,-3.3858439922332764,6.044270038604736,1.2203395366668701
1772727769615581000,1.037580810546875,-5.737988471984863,8.429914474487305,0.14117653667926788
1772727769632926500,1.054926513671875,-4.412364959716797,10.17428207397461,-0.0933200865983963
1772727769650272000,1.07227197265625,1.0193424224853516,15.084354400634766,5.67338228225708
1772727769667617300,1.0896171875,7.494320392608643,20.819950103759766,0.14356936514377594
1772727769684962800,1.106962890625,-0.37806597352027893,26.237300872802734,-2.715853691101074
1772727769702308400,1.124308349609375,-2.170290231704712,17.984455108642578,-3.122633457183838
1772727769719653600,1.141653564453125,-2.2396819591522217,11.191231727600098,-0.5790630578994751
1772727769736999200,1.158999267578125,-3.005385160446167,6.754938125610352,0.698704183101654
1772727769754344700,1.1763447265625,-2.6799614429473877,5.800201892852783,0.9188438653945923
1772727769771690000,1.19368994140625,-2.5986053943634033,6.984649181365967,0.5096712112426758
1772727769789035500,1.211035400390625,-3.1202406883239746,9.07119083404541,0.42831525206565857
1772727769806380800,1.228380859375,-2.486142635345459,9.848857879638672,0.5000999569892883
1772727769823726300,1.245726318359375,-2.2923240661621094,9.789037704467773,0.4426721930503845
1772727769841071900,1.26307177734375,-2.4741785526275635,9.449256896972656,0.45942193269729614
1772727769858417400,1.28041748046875,-2.3258235454559326,9.346364974975586,0.3565305769443512
1772727769875762700,1.2977626953125,-1.6821542978286743,9.372686386108398,0.07657032459974289
1772727769893108200,1.315108154296875,-2.4023938179016113,9.573683738708496,-0.48574298620224
1772727769910453800,1.332453857421875,-2.2995026111602783,9.477970123291016,-0.07657032459974289
1772727769927799000,1.349799072265625,-2.069791555404663,9.523433685302734,0.08853443711996078
1772727769945144600,1.36714453125,-2.0961127281188965,9.332008361816406,0.07896314561367035
1772727769962490000,1.384489990234375,-2.1583259105682373,9.286544799804688,0.09571290761232376
1772727769979835400,1.40183544921875,-1.9908283948898315,9.298508644104004,0.13878370821475983
1772727769997181000,1.419180908203125,-2.062613010406494,9.286544799804688,0.1866401731967926
1772727770014526500,1.4365263671875,-2.1272194385528564,9.351150512695312,0.16749759018421173
1772727770031871700,1.453871826171875,-1.9932212829589844,9.300901412963867,0.22492532432079315
1772727770049217300,1.47121728515625,-2.0554347038269043,9.382257461547852,0.13878370821475983
1772727770066562800,1.488562744140625,-2.122433662414551,9.372686386108398,0.04307080805301666
1772727770083908000,1.505908203125,-2.0243279933929443,9.53779125213623,0.11246266216039658
1772727770101253600,1.523253662109375,-1.911865234375,9.497113227844238,0.04546362906694412
1772727770118599200,1.54059912109375,-2.179861545562744,9.408578872680664,-0.08374879509210587
1772727770135944700,1.55794482421875,-2.1439690589904785,9.509077072143555,0.031106693670153618
1772727770153290000,1.5752900390625,-2.0267207622528076,9.533005714416504,0.11246266216039658
1772727770170635500,1.592635498046875,-2.093719720840454,9.504291534423828,0.1818545162677765
1772727770187981000,1.60998095703125,-2.0793628692626953,9.43489933013916,0.1698904037475586
1772727770205326300,1.627326416015625,-2.234896421432495,9.504291534423828,0.14835500717163086
1772727770222672000,1.644671875,-2.2396819591522217,9.501898765563965,0.1698904037475586
1772727770240017400,1.662017333984375,-2.2923240661621094,9.571290969848633,0.0526420995593071
1772727770257363000,1.679363037109375,-2.328216314315796,9.705288887023926,0.02392822690308094
1772727770274708200,1.696708251953125,-2.2707886695861816,9.678967475891113,0.04307080805301666
1772727770292053800,1.7140537109375,-2.2636101245880127,9.561718940734863,0.08135596662759781
1772727770309399300,1.7313994140625,-2.1415762901306152,9.53061294555664,0.16031911969184875
1772727770326744600,1.74874462890625,-2.1822543144226074,9.56650447845459,0.22971096634864807
1772727770344090000,1.766090087890625,-2.163111686706543,9.533005714416504,0.275174617767334
1772727770361435600,1.783435546875,-2.1678972244262695,9.53779125213623,0.17228323221206665
1772727770378781000,1.800781005859375,-2.2205393314361572,9.600004196166992,0.007178467698395252
1772727770396126500,1.81812646484375,-2.234896421432495,9.590433120727539,0.01196411345154047
1772727770413472000,1.835471923828125,-2.2325034141540527,9.559326171875,0.040677983313798904
1772727770430817500,1.852817626953125,-2.203789710998535,9.604789733886719,0.07417750358581543
1772727770448162800,1.870162841796875,-2.1655044555664062,9.56889820098877,0.2225325107574463
1772727770465508400,1.88750830078125,-2.163111686706543,9.384650230407715,0.1052841991186142
1772727770482854000,1.90485400390625,-2.227717876434326,9.410971641540527,0.14356936514377594
1772727770500199400,1.922199462890625,-2.1678972244262695,9.4660062789917,0.17946170270442963
1772727770517544700,1.939544677734375,-2.117648124694824,9.497113227844238,0.17228323221206665
1772727770534890200,1.95689013671875,-2.0793628692626953,9.396614074707031,0.12681959569454193
1772727770552235800,1.97423583984375,-2.100898265838623,9.274580955505371,0.11724831163883209
1772727770569581300,1.991581298828125,-2.1607189178466797,9.269794464111328,0.16510476171970367
1772727770586926600,2.008926513671875,-2.1894326210021973,9.332008361816406,0.2584248483181
1772727770604272000,2.026272216796875,-2.1655044555664062,9.437292098999023,0.25363919138908386
1772727770621617700,2.04361767578125,-2.0410776138305664,9.626325607299805,-0.10289137065410614
1772727770638963200,2.060963134765625,-1.9597218036651611,9.573683738708496,0.004785645287483931
1772727770656308500,2.07830859375,-2.3641088008880615,9.640682220458984,-0.064606212079525
1772727770673654000,2.095654052734375,-2.0243279933929443,9.547362327575684,-0.031106693670153618
1772727770690999600,2.11299951171875,-2.1032910346984863,9.475577354431152,0.05503492057323456
1772727770708345000,2.130344970703125,-2.201396942138672,9.415757179260254,0.17706887423992157
1772727770725690400,2.1476904296875,-2.053041934967041,9.485149383544922,0.14835500717163086
1772727770743036000,2.165035888671875,-2.172683000564575,9.521040916442871,0.1052841991186142
1772727770760381400,2.18238134765625,-2.1607189178466797,9.442078590393066,0.08853443711996078
1772727770777727000,2.19972705078125,-2.122433662414551,9.473184585571289,-0.08374879509210587
1772727770795072500,2.217072509765625,-2.170290231704712,9.473184585571289,-0.0526420995593071
1772727770812417800,2.234417724609375,-2.170290231704712,9.477970123291016,0.07178468257188797
1772727770829763300,2.251763427734375,-2.1822543144226074,9.482755661010742,0.13160525262355804
1772727770847108900,2.26910888671875,-2.1439690589904785,9.454042434692383,0.09810572862625122
1772727770864454400,2.286454345703125,-2.1511476039886475,9.44447135925293,0.11485548317432404
1772727770881799700,2.303799560546875,-2.2229323387145996,9.44447135925293,0.08614161610603333
1772727770899145200,2.321145263671875,-2.1750757694244385,9.494720458984375,0.009571290574967861
1772727770916490800,2.33849072265625,-2.146361827850342,9.513862609863281,0.062213387340307236
1772727770933836300,2.355836181640625,-2.1032910346984863,9.468399047851562,0.0526420995593071
1772727770951181800,2.373181884765625,-2.0410776138305664,9.494720458984375,0.03349951654672623
1772727770968527000,2.390527099609375,-2.0482561588287354,9.422935485839844,0.08853443711996078
1772727770985872600,2.40787255859375,-2.1128623485565186,9.343972206115723,0.035892341285943985
1772727771003218200,2.42521826171875,-2.03629207611084,9.42054271697998,0.009571290574967861
1772727771020563700,2.442563720703125,-2.053041934967041,9.477970123291016,0.02153540402650833
1772727771037909200,2.4599091796875,-2.0410776138305664,9.475577354431152,0.004785645287483931
1772727771055254500,2.477254638671875,-1.9980069398880005,9.45164966583252,-0.07896314561367035
1772727771072600000,2.49460009765625,-2.007578134536743,9.430113792419434,0.1339980661869049
1772727771089945600,2.511945556640625,-2.0003998279571533,9.360722541809082,0.19142581522464752
1772727771107291100,2.529291015625,-2.03629207611084,9.399007797241211,0.062213387340307236
1772727771124636700,2.54663671875,-1.9621145725250244,9.41336441040039,0.07417750358581543
1772727771141982000,2.56398193359375,-1.9860427379608154,9.42772102355957,0.05503492057323456
1772727771159327500,2.581327392578125,-1.9980069398880005,9.439684867858887,0.004785645287483931
1772727771176673000,2.598673095703125,-1.9980069398880005,9.4660062789917,-0.035892341285943985
1772727771194018600,2.6160185546875,-1.9334007501602173,9.55214786529541,0.016749758273363113
1772727771211364000,2.633364013671875,-1.9405791759490967,9.449256896972656,0.10767702013254166
1772727771228709400,2.65070947265625,-1.9381862878799438,9.387042999267578,0.1052841991186142
1772727771246055000,2.668054931640625,-1.950150489807129,9.456435203552246,0.13878370821475983
1772727771263400400,2.685400390625,-1.9453648328781128,9.504291534423828,0.12681959569454193
1772727771280746000,2.70274609375,-1.9286150932312012,9.504291534423828,-0.02871387079358101
1772727771298091500,2.720091552734375,-1.978864312171936,9.56889820098877,-0.06699903309345245
1772727771315437000,2.73743701171875,-1.978864312171936,9.611968994140625,-0.05024927482008934
1772727771332782300,2.7547822265625,-1.950150489807129,9.585647583007812,-0.04307080805301666
1772727771350127900,2.7721279296875,-1.947757601737976,9.535398483276367,0.004785645287483931
1772727771367473400,2.789473388671875,-2.012363910675049,9.511469841003418,0.08853443711996078
1772727771384819000,2.80681884765625,-2.0506489276885986,9.528220176696777,0.20338992774486542
1772727771402164500,2.82416455078125,-2.0889341831207275,9.597611427307129,0.10767702013254166
1772727771419510000,2.841510009765625,-2.0865414142608643,9.614361763000488,0.08614161610603333
1772727771436855300,2.858855224609375,-2.0889341831207275,9.643074989318848,-0.03349951654672623
1772727771454200800,2.876200927734375,-2.0482561588287354,9.614361763000488,-0.1052841991186142
1772727771471546400,2.89354638671875,-2.0745773315429688,9.547362327575684,-0.0526420995593071
1772727771488892000,2.910891845703125,-2.0506489276885986,9.547362327575684,0.02632104977965355
1772727771506237400,2.928237548828125,-2.0171494483947754,9.592825889587402,0.05503492057323456
1772727771523583000,2.9455830078125,-2.00518536567688,9.607182502746582,0.07417750358581543
1772727771540928500,2.962928466796875,-1.9836499691009521,9.578469276428223,-0.035892341285943985
1772727771558273800,2.980273681640625,-2.0961127281188965,9.561718940734863,-0.02153540402650833
1772727771575619300,2.997619384765625,-2.0793628692626953,9.55214786529541,0.02392822690308094
1772727771592964900,3.01496484375,-2.060220241546631,9.564111709594727,0.016749758273363113
1772727771610310400,3.032310302734375,-2.038684844970703,9.509077072143555,0.02392822690308094
1772727771627656000,3.049656005859375,-2.0315065383911133,9.485149383544922,0.007178467698395252
1772727771645001500,3.06700146484375,-2.03629207611084,9.523433685302734,0.06699903309345245
1772727771662347000,3.084346923828125,-2.03629207611084,9.506684303283691,0.1052841991186142
1772727771679692300,3.1016923828125,-2.0099709033966064,9.523433685302734,0.06699903309345245
1772727771697037800,3.119037841796875,-1.954936146736145,9.559326171875,0.035892341285943985
1772727771714383400,3.13638330078125,-2.0171494483947754,9.561718940734863,0.05024927482008934
1772727771731729000,3.15372900390625,-2.012363910675049,9.56889820098877,-0.07178468257188797
1772727771749074400,3.171074462890625,-1.9573289155960083,9.497113227844238,-0.10049854964017868
1772727771766420000,3.188419921875,-2.0506489276885986,9.501898765563965,-0.009571290574967861
1772727771783765200,3.20576513671875,-1.9262222051620483,9.533005714416504,0.03349951654672623
1772727771801110800,3.22311083984375,-1.9597218036651611,9.482755661010742,0.06699903309345245
1772727771818456300,3.240456298828125,-2.0243279933929443,9.394221305847168,0.07178468257188797
1772727771835801900,3.2578017578125,-2.053041934967041,9.468399047851562,0.04307080805301666
1772727771853147400,3.2751474609375,-2.0721843242645264,9.511469841003418,0.07178468257188797
1772727771870493000,3.292492919921875,-2.0410776138305664,9.54496955871582,0.04546362906694412
1772727771887838500,3.30983837890625,-1.94297194480896,9.53779125213623,-0.016749758273363113
1772727771905184000,3.32718408203125,-1.9956140518188477,9.470791816711426,0.02871387079358101
1772727771922529500,3.344529541015625,-2.00518536567688,9.489934921264648,0.07896314561367035
1772727771939875000,3.361875,-2.0027925968170166,9.53061294555664,0.06699903309345245
1772727771957220400,3.379220458984375,-1.9764715433120728,9.554540634155273,-0.0023928226437419653
1772727771974566000,3.39656591796875,-1.954936146736145,9.501898765563965,-0.05024927482008934
1772727771991911400,3.413911376953125,-2.038684844970703,9.470791816711426,0.007178467698395252
1772727772009257000,3.431257080078125,-2.0578274726867676,9.480362892150879,0.059820566326379776
1772727772026602500,3.4486025390625,-1.9956140518188477,9.477970123291016,0.05742774158716202
1772727772043948000,3.465947998046875,-1.9597218036651611,9.511469841003418,0.10289137065410614
1772727772061293600,3.48329345703125,-1.94297194480896,9.516255378723145,0.016749758273363113
1772727772078639000,3.50063916015625,-1.9573289155960083,9.494720458984375,-0.0526420995593071
1772727772095984600,3.517984619140625,-1.9932212829589844,9.487542152404785,-0.04546362906694412
1772727772113330000,3.535329833984375,-1.9597218036651611,9.53061294555664,-0.007178467698395252
1772727772130675500,3.552675537109375,-1.9214365482330322,9.516255378723145,0.040677983313798904
1772727772148021000,3.57002099609375,-1.9286150932312012,9.454042434692383,0.02871387079358101
1772727772165366500,3.587366455078125,-1.9094724655151367,9.401400566101074,0.02632104977965355
1772727772182712000,3.604712158203125,-1.919043779373169,9.454042434692383,0.03349951654672623
1772727772200057600,3.6220576171875,-1.9597218036651611,9.547362327575684,0.07417750358581543
1772727772217403100,3.639403076171875,-1.9621145725250244,9.592825889587402,-0.02392822690308094
1772727772234748700,3.656748779296875,-1.923829436302185,9.57607650756836,-0.09092725813388824
1772727772252094200,3.67409423828125,-1.8831514120101929,9.54496955871582,-0.06939185410737991
1772727772269439700,3.691439697265625,-1.8616160154342651,9.504291534423828,0.009571290574967861
1772727772286785300,3.708785400390625,-1.923829436302185,9.554540634155273,0.09571290761232376
1772727772304130600,3.726130615234375,-1.7994025945663452,9.533005714416504,0.062213387340307236
1772727772321476000,3.74347607421875,-1.794616937637329,9.497113227844238,0.004785645287483931
1772727772338821600,3.760821533203125,-1.8592232465744019,9.547362327575684,0
1772727772356167200,3.778167236328125,-1.8711873292922974,9.590433120727539,-0.016749758273363113
1772727772373512700,3.7955126953125,-1.8807586431503296,9.590433120727539,-0.0526420995593071
1772727772390858200,3.812858154296875,-1.8687944412231445,9.607182502746582,-0.05742774158716202
1772727772408203800,3.830203857421875,-1.856830358505249,9.571290969848633,-0.06939185410737991
1772727772425549300,3.84754931640625,-1.892722725868225,9.564111709594727,0.01196411345154047
1772727772442894800,3.864894775390625,-1.9812572002410889,9.607182502746582,0.1052841991186142
1772727772460240400,3.882240478515625,-1.9166508913040161,9.602396965026855,0.09092725813388824
1772727772477586000,3.8995859375,-1.8448662757873535,9.633503913879395,0.04546362906694412
1772727772494931500,3.916931396484375,-1.8999011516571045,9.58325481414795,-0.014356935396790504
1772727772512277000,3.934277099609375,-1.9166508913040161,9.626325607299805,0.035892341285943985
1772727772529622500,3.95162255859375,-1.9262222051620483,9.609575271606445,0.02153540402650833
1772727772546968000,3.968968017578125,-1.8544375896453857,9.494720458984375,-0.04546362906694412
1772727772564313600,3.986313720703125,-1.8711873292922974,9.53779125213623,-0.040677983313798904
1772727772581659100,4.0036591796875,-1.892722725868225,9.57607650756836,-0.01196411345154047
1772727772599004400,4.02100439453125,-1.9166508913040161,9.633503913879395,0.04546362906694412
1772727772616350000,4.038349853515625,-1.9262222051620483,9.621540069580078,-0.019142581149935722
1772727772633695500,4.055695556640625,-1.892722725868225,9.53061294555664,-0.019142581149935722
1772727772651041000,4.073041015625,-1.9573289155960083,9.499505996704102,0.038285162299871445
1772727772668386600,4.090386474609375,-1.9573289155960083,9.523433685302734,0.09092725813388824
1772727772685732000,4.107732177734375,-1.892722725868225,9.595218658447266,0.08135596662759781
1772727772703077600,4.12507763671875,-1.9286150932312012,9.564111709594727,-0.014356935396790504
1772727772720423200,4.142423095703125,-1.94297194480896,9.475577354431152,-0.007178467698395252
1772727772737768700,4.159768798828125,-1.9860427379608154,9.509077072143555,-0.004785645287483931
1772727772755114200,4.1771142578125,-1.9262222051620483,9.54496955871582,0.04307080805301666
1772727772772459800,4.194459716796875,-1.8616160154342651,9.571290969848633,-0.05742774158716202
1772727772789805300,4.211805419921875,-1.8903298377990723,9.456435203552246,-0.02871387079358101
1772727772807150800,4.22915087890625,-1.9046868085861206,9.399007797241211,-0.01196411345154047
1772727772824496400,4.246496337890625,-1.9525432586669922,9.480362892150879,0.07896314561367035
1772727772841842000,4.263842041015625,-1.9310078620910645,9.56650447845459,0.17228323221206665
1772727772859187500,4.2811875,-1.825723648071289,9.521040916442871,0.01196411345154047
1772727772876533000,4.298532958984375,-1.7754744291305542,9.518648147583008,-0.08135596662759781
1772727772893878500,4.31587841796875,-1.8687944412231445,9.499505996704102,-0.035892341285943985
1772727772911224000,4.33322412109375,-1.9334007501602173,9.509077072143555,0.07178468257188797
1772727772928569600,4.350569580078125,-1.8664016723632812,9.516255378723145,0.13639089465141296
1772727772945915100,4.3679150390625,-1.8161523342132568,9.489934921264648,0.11724831163883209
1772727772963260700,4.3852607421875,-1.8352949619293213,9.511469841003418,0.1339980661869049
1772727772980606200,4.402606201171875,-1.9262222051620483,9.516255378723145,0.16031911969184875
1772727772997951700,4.41995166015625,-1.9357935190200806,9.528220176696777,0.11246266216039658
1772727773015297300,4.43729736328125,-1.8831514120101929,9.561718940734863,0.06699903309345245
1772727773032642800,4.454642822265625,-1.8951154947280884,9.511469841003418,0.03349951654672623
1772727773049988400,4.47198828125,-1.9022940397262573,9.499505996704102,0.016749758273363113
1772727773067334000,4.489333984375,-1.8855443000793457,9.535398483276367,0.064606212079525
1772727773084679400,4.506679443359375,-1.8424733877182007,9.585647583007812,0.1052841991186142
1772727773102025000,4.52402490234375,-1.8855443000793457,9.595218658447266,0.007178467698395252
1772727773119370500,4.54137060546875,-1.770688772201538,9.674181938171387,0.040677983313798904
1772727773136716000,4.558716064453125,-1.8233308792114258,9.600004196166992,-0.019142581149935722
1772727773154061600,4.5760615234375,-1.8352949619293213,9.765109062194824,0.059820566326379776
1772727773171407000,4.593406982421875,-2.0099709033966064,9.461220741271973,0.2273181527853012
1772727773188752600,4.610752685546875,-1.8855443000793457,9.559326171875,-0.36610186100006104
1772727773206098200,4.62809814453125,-2.0267207622528076,9.10229778289795,0.11006984114646912
1772727773223443700,4.645443603515625,-2.251646041870117,9.580862045288086,0.19142581522464752
1772727773240789200,4.662789306640625,-1.2681959867477417,10.04267692565918,0.14835500717163086
1772727773258134800,4.680134765625,-1.7252250909805298,9.628718376159668,0.1579262912273407
1772727773275480300,4.697480224609375,-2.0793628692626953,9.425328254699707,-0.035892341285943985
1772727773292825900,4.714825927734375,-1.3543375730514526,9.365508079528809,-0.20578274130821228
1772727773310171400,4.73217138671875,-2.1272194385528564,9.547362327575684,0.09571290761232376
1772727773327517000,4.749516845703125,-1.8711873292922974,9.595218658447266,0.17706887423992157
1772727773344862500,4.766862548828125,-1.6414763927459717,9.674181938171387,0.038285162299871445
1772727773362208000,4.7842080078125,-1.9692929983139038,9.611968994140625,0.064606212079525
1772727773379553500,4.801553466796875,-1.7922241687774658,9.477970123291016,0.0933200865983963
1772727773396899000,4.818899169921875,-1.8664016723632812,9.375079154968262,0.10289137065410614
1772727773414244600,4.83624462890625,-1.9453648328781128,9.365508079528809,0.16271193325519562
1772727773431590100,4.853590087890625,-1.8161523342132568,9.410971641540527,0.08614161610603333
1772727773448935700,4.870935791015625,-1.8305093050003052,9.422935485839844,0.08853443711996078
1772727773466281200,4.88828125,-1.8592232465744019,9.470791816711426,0.09571290761232376
1772727773483626800,4.905626708984375,-1.8137595653533936,9.482755661010742,0.04546362906694412
1772727773500972300,4.92297216796875,-1.7754744291305542,9.454042434692383,0.05742774158716202
1772727773518317800,4.94031787109375,-1.9070796966552734,9.468399047851562,0.11006984114646912
1772727773535663400,4.957663330078125,-1.7778671979904175,9.523433685302734,0.12921242415905
1772727773553009000,4.9750087890625,-1.832902193069458,9.580862045288086,0.09092725813388824
1772727773570354400,4.9923544921875,-1.8400806188583374,9.53061294555664,0.04785645380616188
1772727773587700000,5.009699951171875,-1.820937991142273,9.521040916442871,0.014356935396790504
1772727773605045500,5.02704541015625,-1.892722725868225,9.523433685302734,0.040677983313798904
1772727773622391000,5.04439111328125,-1.856830358505249,9.523433685302734,0.07178468257188797
1772727773639736600,5.061736572265625,-1.8903298377990723,9.516255378723145,0.10049854964017868
1772727773657082000,5.07908203125,-1.8999011516571045,9.482755661010742,0.10767702013254166
1772727773674427600,5.096427734375,-1.9214365482330322,9.549755096435547,0.1746760457754135
1772727773691773200,5.113773193359375,-1.9597218036651611,9.597611427307129,0.14356936514377594
1772727773709118700,5.13111865234375,-1.954936146736145,9.619147300720215,0.04785645380616188
1772727773726464300,5.14846435546875,-1.9669002294540405,9.619147300720215,-0.004785645287483931
1772727773743809800,5.165809814453125,-1.9980069398880005,9.652647018432617,0.064606212079525
1772727773761155600,5.183155517578125,-1.9573289155960083,9.66939640045166,0.07657032459974289
1772727773778501000,5.200501220703125,-1.9764715433120728,9.652647018432617,0.12442677468061447
1772727773795846700,5.2178466796875,-1.8807586431503296,9.58325481414795,0.11006984114646912
1772727773813192200,5.235192138671875,-1.8807586431503296,9.585647583007812,0.15314064919948578
1772727773830537700,5.252537841796875,-1.911865234375,9.580862045288086,0.14835500717163086
1772727773847883300,5.26988330078125,-1.919043779373169,9.647860527038574,0.04546362906694412
1772727773865228800,5.287228759765625,-1.9692929983139038,9.633503913879395,-0.016749758273363113
1772727773882574300,5.30457421875,-1.9405791759490967,9.57607650756836,-0.02153540402650833
1772727773899920000,5.321919921875,-1.9860427379608154,9.480362892150879,0.07896314561367035
1772727773917265400,5.339265380859375,-1.9405791759490967,9.387042999267578,0.10767702013254166
1772727773934611000,5.35661083984375,-1.8735800981521606,9.396614074707031,0.1818545162677765
1772727773951956500,5.37395654296875,-1.9597218036651611,9.485149383544922,0.2584248483181
1772727773969302000,5.391302001953125,-1.947757601737976,9.573683738708496,0.14117653667926788
1772727773986647600,5.4086474609375,-1.8496519327163696,9.556933403015137,0.02871387079358101
1772727774003993000,5.4259931640625,-1.7682958841323853,9.475577354431152,-0.009571290574967861
1772727774021338600,5.443338623046875,-1.8496519327163696,9.480362892150879,0.06699903309345245
1772727774038684200,5.46068408203125,-1.8687944412231445,9.521040916442871,0.10767702013254166
1772727774056029700,5.47802978515625,-1.9022940397262573,9.54496955871582,0.13160525262355804
1772727774073375500,5.49537548828125,-1.7587246894836426,9.513862609863281,0.07657032459974289
1772727774090721000,5.512720947265625,-1.825723648071289,9.578469276428223,0.064606212079525
1772727774108066600,5.530066650390625,-1.8664016723632812,9.561718940734863,0.10289137065410614
1772727774125412000,5.547412109375,-1.7515461444854736,9.53779125213623,0.08135596662759781
1772727774142757600,5.564757568359375,-1.7850457429885864,9.485149383544922,0.031106693670153618
1772727774160103200,5.582103271484375,-1.770688772201538,9.463613510131836,0.0933200865983963
1772727774177448700,5.59944873046875,-1.8113667964935303,9.482755661010742,0.1866401731967926
1772727774194794200,5.616794189453125,-1.801795482635498,9.523433685302734,0.15074782073497772
1772727774212139800,5.634139892578125,-1.674975872039795,9.611968994140625,0.031106693670153618
1772727774229485300,5.6514853515625,-1.7635103464126587,9.619147300720215,0.016749758273363113
1772727774246831000,5.6688310546875,-1.7491533756256104,9.588040351867676,-0.009571290574967861
1772727774264176600,5.6861767578125,-1.832902193069458,9.638289451599121,0.06939185410737991
1772727774281522000,5.70352197265625,-1.8376877307891846,9.609575271606445,0.06699903309345245
1772727774298867700,5.72086767578125,-1.770688772201538,9.511469841003418,0.08374879509210587
1772727774316213200,5.738213134765625,-1.825723648071289,9.499505996704102,0.035892341285943985
1772727774333558800,5.755558837890625,-1.8041882514953613,9.643074989318848,0.1339980661869049
1772727774350904300,5.772904296875,-1.8687944412231445,9.626325607299805,0.1746760457754135
1772727774368249900,5.790249755859375,-1.789831280708313,9.638289451599121,-0.0023928226437419653
1772727774385595400,5.807595458984375,-1.825723648071289,9.56889820098877,0.05024927482008934
1772727774402941000,5.82494091796875,-1.9022940397262573,9.535398483276367,0.059820566326379776
1772727774420286500,5.842286376953125,-1.892722725868225,9.56889820098877,0.040677983313798904
1772727774437632000,5.859632080078125,-1.9142581224441528,9.533005714416504,0.06939185410737991
1772727774454977500,5.8769775390625,-1.8903298377990723,9.518648147583008,0.059820566326379776
1772727774472323300,5.8943232421875,-1.911865234375,9.480362892150879,0.09810572862625122
1772727774489668900,5.9116689453125,-1.9094724655151367,9.425328254699707,0.12442677468061447
1772727774507014400,5.929014404296875,-1.8735800981521606,9.4660062789917,0.17946170270442963
1772727774524360000,5.94635986328125,-1.8975083827972412,9.475577354431152,0.13160525262355804
1772727774541705500,5.96370556640625,-1.8975083827972412,9.489934921264648,0.05024927482008934
1772727774559051000,5.981051025390625,-1.911865234375,9.477970123291016,0.07417750358581543
1772727774576396500,5.998396484375,-1.9262222051620483,9.430113792419434,0.05024927482008934
1772727774593742000,6.0157421875,-1.8831514120101929,9.454042434692383,0.08853443711996078
1772727774611088000,6.033087890625,-1.8855443000793457,9.525827407836914,0.13160525262355804
1772727774628433400,6.050433349609375,-1.9142581224441528,9.533005714416504,0.07178468257188797
1772727774645779000,6.067779052734375,-1.8783657550811768,9.442078590393066,0
1772727774663124500,6.08512451171875,-1.8735800981521606,9.382257461547852,0.0526420995593071
1772727774680470000,6.102469970703125,-1.9046868085861206,9.42054271697998,0.15553347766399384
1772727774697815600,6.119815673828125,-1.820937991142273,9.425328254699707,0.22492532432079315
1772727774715161000,6.1371611328125,-1.8592232465744019,9.45882797241211,0.20578274130821228
1772727774732506600,6.154506591796875,-1.7874385118484497,9.480362892150879,0.064606212079525
1772727774749852200,6.17185205078125,-1.8089739084243774,9.53061294555664,0.06699903309345245
1772727774767197700,6.18919775390625,-1.8664016723632812,9.55214786529541,0.10049854964017868
1772727774784543500,6.20654345703125,-1.8592232465744019,9.564111709594727,0.038285162299871445
1772727774801889000,6.223888916015625,-1.9070796966552734,9.573683738708496,0.031106693670153618
1772727774819234600,6.241234619140625,-1.8903298377990723,9.600004196166992,0.1746760457754135
1772727774836580000,6.258580078125,-1.820937991142273,9.588040351867676,0.14835500717163086
1772727774853925600,6.275925537109375,-1.8496519327163696,9.542576789855957,-0.0023928226437419653
1772727774871271200,6.293271240234375,-1.8113667964935303,9.497113227844238,0.05742774158716202
1772727774888616700,6.31061669921875,-1.9716858863830566,9.559326171875,0.2273181527853012
1772727774905962500,6.32796240234375,-1.9357935190200806,9.53061294555664,0.15074782073497772
1772727774923308000,6.34530810546875,-1.8711873292922974,9.53779125213623,0.064606212079525
1772727774940653600,6.362653564453125,-1.8352949619293213,9.489934921264648,0.07896314561367035
1772727774957999000,6.3799990234375,-1.8472590446472168,9.521040916442871,0.11485548317432404
1772727774975344600,6.3973447265625,-1.8807586431503296,9.580862045288086,0.12203395366668701
1772727774992690200,6.414690185546875,-1.919043779373169,9.564111709594727,0.05024927482008934
1772727775010035700,6.43203564453125,-1.97407865524292,9.578469276428223,0.0933200865983963
1772727775027381500,6.449381591796875,-1.9812572002410889,9.573683738708496,0.0526420995593071
1772727775044727000,6.46672705078125,-1.9836499691009521,9.619147300720215,0.09092725813388824
1772727775062072600,6.484072509765625,-1.923829436302185,9.580862045288086,0.21296121180057526
1772727775079418000,6.501418212890625,-1.8735800981521606,9.509077072143555,0.11246266216039658
1772727775096763600,6.518763671875,-1.8400806188583374,9.501898765563965,0.09092725813388824
1772727775114109200,6.536109130859375,-1.8999011516571045,9.506684303283691,0.09571290761232376
1772727775131454700,6.553454833984375,-1.9310078620910645,9.556933403015137,0.05503492057323456
1772727775148800300,6.57080029296875,-1.8855443000793457,9.518648147583008,0.009571290574967861
1772727775166146000,6.58814599609375,-1.9046868085861206,9.45164966583252,0.01196411345154047
1772727775183491600,6.60549169921875,-1.9214365482330322,9.437292098999023,0.10767702013254166
1772727775200837000,6.622837158203125,-1.97407865524292,9.497113227844238,0.16510476171970367
1772727775218182700,6.6401826171875,-1.9597218036651611,9.542576789855957,0.09571290761232376
1772727775235528200,6.657528076171875,-1.8975083827972412,9.521040916442871,0.08135596662759781
1772727775252874000,6.6748740234375,-1.8951154947280884,9.518648147583008,0.11485548317432404
1772727775270219500,6.692219482421875,-1.8759729862213135,9.540184020996094,0.20578274130821228
1772727775287565000,6.70956494140625,-1.797009825706482,9.559326171875,0.11246266216039658
1772727775304910600,6.72691064453125,-1.7443677186965942,9.607182502746582,0.059820566326379776
1772727775322256100,6.744256103515625,-1.789831280708313,9.65503978729248,0.05742774158716202
1772727775339601700,6.7616015625,-1.8903298377990723,9.66939640045166,-0.04785645380616188
1772727775356947200,6.778947265625,-1.950150489807129,9.714859962463379,0.038285162299871445
1772727775374293000,6.79629296875,-1.8903298377990723,9.647860527038574,0.11485548317432404
1772727775391638500,6.813638427734375,-1.8376877307891846,9.614361763000488,0.08614161610603333
1772727775408984000,6.830984130859375,-1.887937068939209,9.602396965026855,0.20338992774486542
1772727775426329600,6.84832958984375,-1.9573289155960083,9.635896682739258,0.15553347766399384
1772727775443675100,6.865675048828125,-1.8831514120101929,9.674181938171387,0.06699903309345245
1772727775461020700,6.883020751953125,-1.887937068939209,9.614361763000488,0.08614161610603333
1772727775478366500,6.900366455078125,-1.8759729862213135,9.556933403015137,0.11246266216039658
1772727775495712000,6.9177119140625,-1.8400806188583374,9.559326171875,0.11964113265275955
1772727775513057500,6.9350576171875,-1.8975083827972412,9.588040351867676,0.09571290761232376
1772727775530403000,6.952403076171875,-1.9262222051620483,9.559326171875,0.05503492057323456
1772727775547748600,6.96974853515625,-1.9310078620910645,9.556933403015137,0.040677983313798904
1772727775565094400,6.987094482421875,-2.0099709033966064,9.588040351867676,0.11724831163883209
1772727775582439700,7.004439697265625,-2.0027925968170166,9.535398483276367,0.11246266216039658
1772727775599785500,7.021785400390625,-1.8759729862213135,9.442078590393066,0.04785645380616188
1772727775617131000,7.039131103515625,-1.9405791759490967,9.41336441040039,0.11964113265275955
1772727775634476500,7.0564765625,-1.9381862878799438,9.399007797241211,0.12921242415905
1772727775651822000,7.073822021484375,-1.9334007501602173,9.470791816711426,0.12921242415905
1772727775669167900,7.09116796875,-1.9453648328781128,9.442078590393066,0.10049854964017868
1772727775686513400,7.108513427734375,-1.8472590446472168,9.439684867858887,0.05503492057323456
1772727775703859000,7.12585888671875,-1.9669002294540405,9.377471923828125,0.09092725813388824
1772727775721204500,7.14320458984375,-2.0027925968170166,9.31047248840332,0.12921242415905
1772727775738550000,7.160550048828125,-1.9692929983139038,9.382257461547852,0.08614161610603333
1772727775755895600,7.1778955078125,-1.9836499691009521,9.375079154968262,0.04307080805301666
1772727775773241300,7.195241455078125,-1.97407865524292,9.353543281555176,0.06939185410737991
1772727775790587000,7.2125869140625,-2.038684844970703,9.336793899536133,0.14835500717163086
1772727775807932400,7.229932373046875,-2.007578134536743,9.329615592956543,0.14835500717163086
1772727775825278000,7.24727783203125,-1.94297194480896,9.355937004089355,0.20099709928035736
1772727775842623500,7.26462353515625,-1.978864312171936,9.358329772949219,0.12203395366668701
1772727775859969300,7.28196923828125,-1.9310078620910645,9.370293617248535,0.08135596662759781
1772727775877314800,7.299314697265625,-1.9669002294540405,9.44447135925293,0.14117653667926788
1772727775894660400,7.316660400390625,-1.9980069398880005,9.485149383544922,0.05503492057323456
1772727775912006000,7.334005859375,-1.9621145725250244,9.468399047851562,0.02392822690308094
1772727775929351400,7.351351318359375,-1.9381862878799438,9.379864692687988,0.11724831163883209
1772727775946697200,7.368697265625,-1.9645073413848877,9.391828536987305,0.1579262912273407
1772727775964042800,7.386042724609375,-1.9860427379608154,9.4660062789917,0.21774685382843018
1772727775981388300,7.40338818359375,-2.012363910675049,9.523433685302734,0.12203395366668701
1772727775998733800,7.42073388671875,-1.950150489807129,9.525827407836914,0.059820566326379776
1772727776016079400,7.438079345703125,-1.9692929983139038,9.473184585571289,0.059820566326379776
1772727776033425200,7.455425048828125,-1.9310078620910645,9.492327690124512,0.16749759018421173
1772727776050770700,7.472770751953125,-1.8855443000793457,9.516255378723145,0.20338992774486542
1772727776068116200,7.4901162109375,-1.9046868085861206,9.473184585571289,0.15074782073497772
1772727776085461800,7.507461669921875,-1.8807586431503296,9.504291534423828,0.040677983313798904
1772727776102807300,7.524807373046875,-1.9022940397262573,9.564111709594727,0.07417750358581543
1772727776120153000,7.542153076171875,-1.8711873292922974,9.604789733886719,0.09810572862625122
1772727776137498600,7.55949853515625,-1.797009825706482,9.528220176696777,0.02632104977965355
1772727776154844200,7.57684423828125,-1.789831280708313,9.45164966583252,0.04546362906694412
1772727776172189700,7.594189697265625,-1.828116536140442,9.463613510131836,0.13639089465141296
1772727776189535200,7.61153515625,-1.8855443000793457,9.480362892150879,0.16271193325519562
1772727776206881000,7.628881103515625,-1.911865234375,9.468399047851562,0.11006984114646912
1772727776224226600,7.6462265625,-1.7874385118484497,9.403793334960938,0.05503492057323456
1772727776241572000,7.663572021484375,-1.820937991142273,9.422935485839844,0.07417750358581543
1772727776258917600,7.680917724609375,-1.8759729862213135,9.501898765563965,0.13639089465141296
1772727776276263200,7.69826318359375,-1.856830358505249,9.561718940734863,0.11485548317432404
1772727776293609000,7.71560888671875,-1.8687944412231445,9.535398483276367,0.10767702013254166
1772727776310954500,7.73295458984375,-1.8807586431503296,9.523433685302734,0.04546362906694412
1772727776328300000,7.750300048828125,-1.9573289155960083,9.578469276428223,0.09092725813388824
1772727776345645600,7.7676455078125,-2.0195422172546387,9.638289451599121,0.07417750358581543
1772727776362991400,7.784991455078125,-2.045863389968872,9.671789169311523,0.05742774158716202
1772727776380337000,7.8023369140625,-2.0338993072509766,9.68375301361084,0.01196411345154047
1772727776397682400,7.819682373046875,-2.0003998279571533,9.69093132019043,0.02632104977965355
1772727776415028000,7.837028076171875,-2.117648124694824,9.698110580444336,0.15314064919948578
1772727776432373800,7.854373779296875,-2.124826431274414,9.647860527038574,0.16510476171970367
1772727776449719300,7.87171923828125,-2.0315065383911133,9.650253295898438,0.10049854964017868
1772727776467064800,7.88906494140625,-2.0554347038269043,9.647860527038574,0.11485548317432404
1772727776484410400,7.906410400390625,-2.091326951980591,9.66221809387207,0.09092725813388824
1772727776501756000,7.923755859375,-2.108076810836792,9.755537986755371,0.04546362906694412
1772727776519101700,7.941101806640625,-2.076970100402832,9.729216575622559,0.04546362906694412
1772727776536447200,7.958447265625,-2.03629207611084,9.722038269042969,0.04307080805301666
1772727776553792800,7.975792724609375,-2.187039852142334,9.729216575622559,0.07896314561367035
1772727776571138300,7.99313818359375,-2.155933141708374,9.657432556152344,0.12921242415905
1772727776588483800,8.01048388671875,-2.210968017578125,9.698110580444336,0.12921242415905
1772727776605829600,8.02782958984375,-2.179861545562744,9.650253295898438,0.08853443711996078
1772727776623175200,8.045175048828124,-2.251646041870117,9.623932838439941,0.12681959569454193
1772727776640520700,8.062520751953125,-2.2396819591522217,9.607182502746582,0.12681959569454193
1772727776657866500,8.079866455078125,-2.139183521270752,9.585647583007812,0.16271193325519562
1772727776675212000,8.0972119140625,-2.076970100402832,9.573683738708496,0.17946170270442963
1772727776692557600,8.1145576171875,-2.0578274726867676,9.501898765563965,0.13878370821475983
1772727776709903000,8.131903076171875,-2.1056840419769287,9.509077072143555,0.07657032459974289
1772727776727248600,8.14924853515625,-2.0650060176849365,9.54496955871582,0.05503492057323456
1772727776744594400,8.166594482421875,-2.053041934967041,9.521040916442871,0.007178467698395252
1772727776761940000,8.18393994140625,-2.012363910675049,9.389435768127441,-0.019142581149935722
1772727776779285500,8.201285400390624,-1.9860427379608154,9.377471923828125,0.04785645380616188
1772727776796631300,8.21863134765625,-2.060220241546631,9.399007797241211,0.16271193325519562
1772727776813976800,8.235976806640625,-2.0673987865448,9.372686386108398,0.17706887423992157
1772727776831322400,8.253322265625,-2.012363910675049,9.382257461547852,0.10049854964017868
1772727776848668000,8.27066796875,-2.0554347038269043,9.312865257263184,0.062213387340307236
1772727776866013400,8.288013427734375,-2.0027925968170166,9.30329418182373,0.12681959569454193
1772727776883359200,8.305359130859374,-2.014756679534912,9.379864692687988,0.16510476171970367
1772727776900704800,8.322704833984375,-2.029113531112671,9.399007797241211,0.14356936514377594
1772727776918050300,8.34005029296875,-2.0338993072509766,9.387042999267578,0.06699903309345245
1772727776935395800,8.357395751953124,-2.0721843242645264,9.329615592956543,0.059820566326379776
1772727776952741600,8.37474169921875,-2.038684844970703,9.358329772949219,0.09571290761232376
1772727776970087200,8.392087158203125,-2.0578274726867676,9.396614074707031,0.14356936514377594
1772727776987432700,8.4094326171875,-2.0793628692626953,9.360722541809082,0.16271193325519562
1772727777004778500,8.426778564453125,-2.0506489276885986,9.394221305847168,0.06939185410737991
1772727777022124000,8.4441240234375,-2.1056840419769287,9.324830055236816,0.07896314561367035
1772727777039469600,8.461469482421874,-2.1296122074127197,9.44447135925293,0.19381862878799438
1772727777056815000,8.478815185546875,-2.0099709033966064,9.415757179260254,0.13639089465141296
1772727777074161000,8.496160888671875,-2.093719720840454,9.382257461547852,-0.016749758273363113
1772727777091506400,8.51350634765625,-2.053041934967041,9.454042434692383,0.09810572862625122
1772727777108852000,8.53085205078125,-2.1104695796966553,9.442078590393066,0.12442677468061447
1772727777126197500,8.548197509765625,-2.146361827850342,9.504291534423828,0.059820566326379776
1772727777143543300,8.565543212890624,-2.1343977451324463,9.556933403015137,0.09092725813388824
1772727777160888800,8.582888916015625,-2.1032910346984863,9.480362892150879,0.07896314561367035
1772727777178234400,8.600234375,-2.0650060176849365,9.477970123291016,0.13878370821475983
1772727777195580000,8.617579833984376,-2.1032910346984863,9.516255378723145,0.1746760457754135
1772727777212925700,8.63492578125,-2.1343977451324463,9.53061294555664,0.062213387340307236
1772727777230271200,8.652271240234375,-2.1056840419769287,9.53779125213623,-0.019142581149935722
1772727777247616800,8.66961669921875,-2.043470621109009,9.525827407836914,-0.019142581149935722
1772727777264962600,8.686962646484375,-2.1104695796966553,9.509077072143555,0.06699903309345245
1772727777282308000,8.70430810546875,-2.0889341831207275,9.480362892150879,0.19142581522464752
1772727777299653600,8.721653564453124,-2.0099709033966064,9.480362892150879,0.15074782073497772
1772727777316999200,8.738999267578125,-2.03629207611084,9.454042434692383,0.11724831163883209
1772727777334345000,8.756344970703125,-2.100898265838623,9.456435203552246,0.1052841991186142
1772727777351690500,8.7736904296875,-2.124826431274414,9.53061294555664,0.0526420995593071
1772727777369036000,8.7910361328125,-2.1439690589904785,9.619147300720215,0.0526420995593071
1772727777386381600,8.808381591796875,-2.0195422172546387,9.592825889587402,0.06939185410737991
1772727777403727400,8.825727294921874,-1.9980069398880005,9.542576789855957,0.01196411345154047
1772727777421073000,8.843072998046875,-2.0027925968170166,9.480362892150879,0.0933200865983963
1772727777438418400,8.86041845703125,-1.94297194480896,9.487542152404785,0.13639089465141296
1772727777455764000,8.877763916015626,-2.0650060176849365,9.55214786529541,0.09810572862625122
1772727777473109800,8.89510986328125,-2.0482561588287354,9.554540634155273,0.01196411345154047
1772727777490455300,8.912455322265625,-2.021935224533081,9.611968994140625,-0.02871387079358101
1772727777507800800,8.92980078125,-2.0195422172546387,9.53061294555664,0.019142581149935722
1772727777525146600,8.947146728515625,-2.0315065383911133,9.525827407836914,0.059820566326379776
1772727777542492200,8.9644921875,-2.0554347038269043,9.489934921264648,0.09810572862625122
1772727777559837700,8.981837646484376,-2.0267207622528076,9.43489933013916,0.014356935396790504
1772727777577183200,8.999183349609375,-2.0099709033966064,9.463613510131836,0.10049854964017868
1772727777594529000,9.016529052734375,-2.060220241546631,9.473184585571289,0.10049854964017868
1772727777611874600,9.03387451171875,-2.0338993072509766,9.499505996704102,0.08374879509210587
1772727777629220000,9.05122021484375,-2.045863389968872,9.4660062789917,0.08135596662759781
1772727777646566000,9.06856591796875,-2.091326951980591,9.387042999267578,0.01196411345154047
1772727777663911400,9.085911376953124,-2.0721843242645264,9.442078590393066,0.035892341285943985
1772727777681257000,9.103257080078125,-2.1104695796966553,9.482755661010742,0.07896314561367035
1772727777698602500,9.1206025390625,-2.1032910346984863,9.42772102355957,0.02153540402650833
1772727777715948300,9.1379482421875,-2.0961127281188965,9.415757179260254,0.059820566326379776
1772727777733293800,9.1552939453125,-2.062613010406494,9.42772102355957,0.15553347766399384
1772727777750639400,9.172639404296875,-2.2396819591522217,9.449256896972656,0.10289137065410614
1772727777767985200,9.189985107421874,-2.163111686706543,9.437292098999023,0.06699903309345245
1772727777785330700,9.20733056640625,-2.1583259105682373,9.430113792419434,0.04307080805301666
1772727777802676200,9.22467626953125,-2.1918256282806396,9.432506561279297,0.02871387079358101
1772727777820022000,9.24202197265625,-2.194218397140503,9.43489933013916,0.11964113265275955
1772727777837367600,9.259367431640625,-2.2396819591522217,9.42054271697998,0.12203395366668701
1772727777854713000,9.276713134765625,-2.2133610248565674,9.44447135925293,0.11006984114646912
1772727777872059000,9.294058837890624,-2.2851455211639404,9.468399047851562,0.09092725813388824
1772727777889404400,9.311404296875,-2.2947168350219727,9.506684303283691,0.08135596662759781
1772727777906750000,9.32875,-2.2636101245880127,9.523433685302734,0.062213387340307236
1772727777924095500,9.346095458984376,-2.289931297302246,9.513862609863281,0.10049854964017868
1772727777941441300,9.363441162109375,-2.289931297302246,9.509077072143555,0.1339980661869049
1772727777958786800,9.380786865234375,-2.328216314315796,9.523433685302734,0.15314064919948578
1772727777976132400,9.39813232421875,-2.342573404312134,9.525827407836914,0.13878370821475983
1772727777993478100,9.41547802734375,-2.321038007736206,9.533005714416504,0.09571290761232376
1772727778010823700,9.43282373046875,-2.2995026111602783,9.540184020996094,0.08614161610603333
1772727778028169200,9.450169189453124,-2.3018953800201416,9.542576789855957,0.08374879509210587
1772727778045515000,9.467514892578125,-2.289931297302246,9.521040916442871,0.12442677468061447
1772727778062860500,9.484860595703125,-2.297109842300415,9.518648147583008,0.08135596662759781
1772727778080206000,9.5022060546875,-2.282752752304077,9.53061294555664,0.12921242415905
1772727778097551600,9.519551513671875,-2.2205393314361572,9.535398483276367,0.08853443711996078
1772727778114897400,9.5368974609375,-2.242074728012085,9.585647583007812,0.07657032459974289
1772727778132243000,9.554242919921874,-2.194218397140503,9.614361763000488,0.02392822690308094
1772727778149588500,9.57158837890625,-2.1678972244262695,9.55214786529541,-0.009571290574967861
1772727778166934300,9.588934326171875,-2.1535403728485107,9.497113227844238,0.04546362906694412
1772727778184279800,9.60627978515625,-2.1918256282806396,9.499505996704102,0.13639089465141296
1772727778201625300,9.623625244140625,-2.196611166000366,9.487542152404785,0.07178468257188797
1772727778218971100,9.64097119140625,-2.1750757694244385,9.489934921264648,0.02153540402650833
1772727778236316700,9.658316650390624,-2.139183521270752,9.454042434692383,0.07657032459974289
1772727778253662200,9.675662109375,-2.122433662414551,9.408578872680664,0.02632104977965355
1772727778271008000,9.693008056640625,-2.148754835128784,9.403793334960938,0.11246266216039658
1772727778288353500,9.710353515625,-2.172683000564575,9.401400566101074,0.13639089465141296
1772727778305699000,9.727698974609375,-2.0793628692626953,9.415757179260254,0.064606212079525
1772727778323044600,9.745044677734375,-2.0985054969787598,9.449256896972656,0.038285162299871445
1772727778340390400,9.762390380859374,-2.1104695796966553,9.439684867858887,0.02153540402650833
1772727778357736000,9.77973583984375,-2.0338993072509766,9.45164966583252,-0.004785645287483931
1772727778375081500,9.79708154296875,-2.1056840419769287,9.43489933013916,0.02153540402650833
1772727778392427300,9.81442724609375,-2.139183521270752,9.394221305847168,0.08853443711996078
1772727778409772800,9.831772705078125,-2.1511476039886475,9.363115310668945,0.07178468257188797
1772727778427118300,9.849118408203125,-2.1583259105682373,9.355937004089355,0.05503492057323456
1772727778444464000,9.866464111328124,-2.1272194385528564,9.379864692687988,0.07178468257188797
1772727778461809700,9.8838095703125,-2.155933141708374,9.358329772949219,0.07657032459974289
1772727778479155200,9.9011552734375,-2.1774685382843018,9.339186668395996,0.059820566326379776
1772727778496501000,9.9185009765625,-2.139183521270752,9.343972206115723,0.08614161610603333
1772727778513846500,9.935846435546875,-2.1367905139923096,9.346364974975586,0.11485548317432404
1772727778531192000,9.953192138671875,-2.1990039348602295,9.384650230407715,0.1052841991186142
1772727778548537900,9.970537841796874,-2.1678972244262695,9.454042434692383,0.06699903309345245
1772727778565883400,9.98788330078125,-2.172683000564575,9.482755661010742,0.0023928226437419653
1772727778583229000,10.00522900390625,-2.203789710998535,9.489934921264648,0.02871387079358101
1772727778600574700,10.02257470703125,-2.2085752487182617,9.4660062789917,0.06699903309345245
1772727778617920300,10.039920166015625,-2.2468605041503906,9.480362892150879,0.1052841991186142
1772727778635265800,10.057265869140625,-2.3018953800201416,9.528220176696777,0.16031911969184875
1772727778652611600,10.074611572265624,-2.3090739250183105,9.518648147583008,0.08135596662759781
1772727778669957000,10.09195703125,-2.287538528442383,9.504291534423828,0.035892341285943985
1772727778687302700,10.109302734375,-2.321038007736206,9.542576789855957,0.07896314561367035
1772727778704648400,10.1266484375,-2.352144718170166,9.525827407836914,0.10289137065410614
1772727778721994000,10.143993896484375,-2.289931297302246,9.487542152404785,0.06939185410737991
1772727778739339500,10.161339599609375,-2.2995026111602783,9.489934921264648,0.12921242415905
1772727778756685300,10.178685302734374,-2.328216314315796,9.494720458984375,0.17946170270442963
1772727778774030800,10.19603076171875,-2.2923240661621094,9.540184020996094,0.11006984114646912
1772727778791376400,10.21337646484375,-2.3617160320281982,9.595218658447266,0.07657032459974289
1772727778808722200,10.23072216796875,-2.256431818008423,9.523433685302734,0.03349951654672623
1772727778826067700,10.248067626953125,-2.2779672145843506,9.499505996704102,0.04785645380616188
1772727778843413200,10.265413330078125,-2.3545374870300293,9.470791816711426,0.1459621787071228
1772727778860759000,10.282759033203124,-2.313859462738037,9.468399047851562,0.15553347766399384
1772727778878104600,10.3001044921875,-2.2947168350219727,9.494720458984375,0.09092725813388824
1772727778895450000,10.3174501953125,-2.306680917739868,9.468399047851562,0.05742774158716202
1772727778912796000,10.3347958984375,-2.2683959007263184,9.482755661010742,0.05024927482008934
1772727778930141400,10.352141357421875,-2.289931297302246,9.485149383544922,0.019142581149935722
1772727778947487000,10.369487060546875,-2.256431818008423,9.44447135925293,0.10767702013254166
1772727778964832800,10.386832763671874,-2.2468605041503906,9.360722541809082,0.12681959569454193
1772727778982178300,10.40417822265625,-2.2301106452941895,9.32722282409668,0.1052841991186142
1772727778999523800,10.42152392578125,-2.297109842300415,9.367900848388672,0.1339980661869049
1772727779016869600,10.43886962890625,-2.2683959007263184,9.399007797241211,0.10289137065410614
1772727779034215200,10.456215087890625,-2.218146562576294,9.415757179260254,0.02632104977965355
1772727779051561000,10.47356103515625,-2.266003131866455,9.377471923828125,-0.004785645287483931
1772727779068906500,10.490906494140624,-2.2157537937164307,9.308079719543457,0.05024927482008934
1772727779086252000,10.508251953125,-2.256431818008423,9.31047248840332,0.11006984114646912
1772727779103597800,10.525597900390625,-2.258824586868286,9.28893756866455,0.14356936514377594
1772727779120943400,10.542943359375,-2.2540390491485596,9.317651748657227,0.12921242415905
1772727779138289000,10.560288818359375,-2.2612173557281494,9.322437286376953,0.08853443711996078
1772727779155634700,10.577634765625,-2.2396819591522217,9.365508079528809,0.04307080805301666
1772727779172980200,10.594980224609374,-2.234896421432495,9.387042999267578,0.02392822690308094
1772727779190325800,10.61232568359375,-2.2301106452941895,9.408578872680664,0.03349951654672623
1772727779207671600,10.629671630859375,-2.249253273010254,9.370293617248535,0.08135596662759781
1772727779225017000,10.64701708984375,-2.2612173557281494,9.343972206115723,0.08374879509210587
1772727779242362600,10.664362548828125,-2.273181438446045,9.33440113067627,0.1746760457754135
1772727779259708400,10.68170849609375,-2.3258235454559326,9.418149948120117,0.13878370821475983
1772727779277054000,10.699053955078124,-2.3018953800201416,9.446864128112793,0.09810572862625122
1772727779294399500,10.7163994140625,-2.2683959007263184,9.487542152404785,0.02871387079358101
1772727779311745300,10.733745361328126,-2.2636101245880127,9.442078590393066,0.059820566326379776
1772727779329090800,10.7510908203125,-2.321038007736206,9.425328254699707,0.08614161610603333
1772727779346436400,10.768436279296875,-2.266003131866455,9.468399047851562,0.15074782073497772
1772727779363782100,10.7857822265625,-2.3306093215942383,9.571290969848633,0.17946170270442963
1772727779381127700,10.803127685546874,-2.3856441974639893,9.540184020996094,0.1339980661869049
1772727779398473200,10.82047314453125,-2.2923240661621094,9.521040916442871,0.07896314561367035
1772727779415819000,10.837819091796876,-2.2995026111602783,9.516255378723145,0.05742774158716202
1772727779433164500,10.85516455078125,-2.400001049041748,9.556933403015137,0.10289137065410614
1772727779450510300,10.87251025390625,-2.366501569747925,9.54496955871582,0.14835500717163086
1772727779467856000,10.88985595703125,-2.3258235454559326,9.616754531860352,0.09810572862625122
1772727779485201400,10.907201416015624,-2.3617160320281982,9.602396965026855,0.11006984114646912
1772727779502547200,10.924547119140625,-2.366501569747925,9.53061294555664,0.06939185410737991
1772727779519892700,10.941892822265626,-2.366501569747925,9.487542152404785,0.0933200865983963
1772727779537238300,10.95923828125,-2.368894338607788,9.542576789855957,0.16510476171970367
1772727779554584000,10.976583984375,-2.3186452388763428,9.57607650756836,0.1986042857170105
1772727779571929600,10.9939296875,-2.282752752304077,9.518648147583008,0.11724831163883209
1772727779589275400,11.011275390625,-2.366501569747925,9.470791816711426,0.04785645380616188
1772727779606621000,11.028620849609375,-2.306680917739868,9.437292098999023,0.08614161610603333
1772727779623966500,11.045966552734376,-2.3736801147460938,9.499505996704102,0.12681959569454193
1772727779641312300,11.063312255859374,-2.313859462738037,9.525827407836914,0.13878370821475983
1772727779658657800,11.08065771484375,-2.3090739250183105,9.53061294555664,0.15553347766399384
1772727779676003300,11.09800341796875,-2.2779672145843506,9.410971641540527,0.07896314561367035
1772727779693349000,11.11534912109375,-2.328216314315796,9.332008361816406,0.08614161610603333
1772727779710694700,11.132694580078125,-2.3784656524658203,9.351150512695312,0.1339980661869049
1772727779728040200,11.150040283203126,-2.225325107574463,9.370293617248535,0.11724831163883209
1772727779745386000,11.167385986328124,-2.3545374870300293,9.401400566101074,0.08374879509210587
1772727779762731500,11.1847314453125,-2.2851455211639404,9.269794464111328,0.09571290761232376
1772727779780077300,11.202077392578126,-2.3258235454559326,9.30329418182373,0.06939185410737991
1772727779797422800,11.2194228515625,-2.3401806354522705,9.343972206115723,0.13639089465141296
1772727779814768400,11.236768310546875,-2.3330020904541016,9.370293617248535,0.13878370821475983
1772727779832114200,11.2541142578125,-2.3306093215942383,9.370293617248535,0.13160525262355804
1772727779849459700,11.271459716796874,-2.3018953800201416,9.315258979797363,0.09810572862625122
1772727779866805200,11.28880517578125,-2.2923240661621094,9.32004451751709,0.11964113265275955
1772727779884151000,11.306151123046876,-2.3090739250183105,9.324830055236816,0.12921242415905
1772727779901496600,11.32349658203125,-2.3401806354522705,9.410971641540527,0.07178468257188797
1772727779918842400,11.34084228515625,-2.311466693878174,9.430113792419434,0.04785645380616188
1772727779936188000,11.35818798828125,-2.3306093215942383,9.382257461547852,0.064606212079525
1772727779953533400,11.375533447265624,-2.2995026111602783,9.32004451751709,0.11485548317432404
1772727779970879200,11.392879150390625,-2.335394859313965,9.336793899536133,0.16031911969184875
1772727779988224800,11.410224853515626,-2.3258235454559326,9.34157943725586,0.1866401731967926
1772727780005570300,11.4275703125,-2.3545374870300293,9.358329772949219,0.14117653667926788
1772727780022916000,11.444916015625,-2.266003131866455,9.415757179260254,0.0933200865983963
1772727780040261600,11.46226171875,-2.4047868251800537,9.492327690124512,0.07657032459974289
1772727780057607400,11.479607421875,-2.3784656524658203,9.343972206115723,0.0526420995593071
1772727780074953000,11.496952880859375,-2.400001049041748,9.34157943725586,0.07178468257188797
1772727780092298500,11.514298583984376,-2.4430718421936035,9.396614074707031,0.19142581522464752
1772727780109644300,11.531644287109375,-2.4670002460479736,9.439684867858887,0.20578274130821228
1772727780126989800,11.54898974609375,-2.469393014907837,9.482755661010742,0.17706887423992157
1772727780144335400,11.56633544921875,-2.421536445617676,9.489934921264648,0.13639089465141296
1772727780161681200,11.58368115234375,-2.4741785526275635,9.449256896972656,0.15074782073497772
1772727780179026700,11.601026611328125,-2.526820659637451,9.437292098999023,0.15553347766399384
1772727780196372200,11.618372314453126,-2.4598217010498047,9.475577354431152,0.14117653667926788
1772727780213718000,11.635718017578125,-2.4765713214874268,9.475577354431152,0.14356936514377594
1772727780231063600,11.6530634765625,-2.4358935356140137,9.42054271697998,0.13878370821475983
1772727780248409300,11.670409423828126,-2.4526431560516357,9.375079154968262,0.09571290761232376
1772727780265755000,11.6877548828125,-2.4526431560516357,9.41336441040039,0.10767702013254166
1772727780283100700,11.7051005859375,-2.4670002460479736,9.446864128112793,0.2225325107574463
1772727780300446200,11.7224462890625,-2.469393014907837,9.442078590393066,0.15314064919948578
1772727780317791700,11.739791748046875,-2.4119651317596436,9.42054271697998,0.14117653667926788
1772727780335137500,11.757137451171875,-2.4981069564819336,9.41336441040039,0.1052841991186142
1772727780352483000,11.774483154296876,-2.4526431560516357,9.370293617248535,0.11246266216039658
1772727780369828900,11.791828857421875,-2.4670002460479736,9.382257461547852,0.1052841991186142
1772727780387174400,11.80917431640625,-2.5220351219177246,9.425328254699707,0.16510476171970367
1772727780404520000,11.82652001953125,-2.478964328765869,9.437292098999023,0.1579262912273407
1772727780421865700,11.84386572265625,-2.4670002460479736,9.387042999267578,0.13160525262355804
1772727780439211300,11.861211181640625,-2.445464849472046,9.379864692687988,0.12921242415905
1772727780456556800,11.878556884765626,-2.431107759475708,9.353543281555176,0.15074782073497772
1772727780473902600,11.895902587890625,-2.4598217010498047,9.343972206115723,0.13639089465141296
1772727780491248000,11.913248046875,-2.4287149906158447,9.367900848388672,0.14117653667926788
1772727780508594000,11.930593994140626,-2.4047868251800537,9.401400566101074,0.15314064919948578
1772727780525939500,11.947939453125,-2.392822742462158,9.367900848388672,0.11246266216039658
1772727780543285000,11.965284912109375,-2.383251428604126,9.315258979797363,0.08374879509210587
1772727780560630800,11.982630859375,-2.414358139038086,9.370293617248535,0.13878370821475983
1772727780577976300,11.999976318359375,-2.431107759475708,9.425328254699707,0.1746760457754135
1772727780595322000,12.017322021484375,-2.414358139038086,9.437292098999023,0.08614161610603333
1772727780612667600,12.034667724609376,-2.304288148880005,9.382257461547852,0.05024927482008934
1772727780630013200,12.05201318359375,-2.344966173171997,9.343972206115723,0.15553347766399384
1772727780647359000,12.06935888671875,-2.4263222217559814,9.355937004089355,0.20099709928035736
1772727780664704500,12.08670458984375,-2.392822742462158,9.396614074707031,0.11006984114646912
1772727780682050300,12.10405029296875,-2.344966173171997,9.42772102355957,0.06699903309345245
1772727780699395800,12.121395751953125,-2.383251428604126,9.379864692687988,0.07896314561367035
1772727780716741400,12.138741455078126,-2.390429735183716,9.391828536987305,0.12442677468061447
1772727780734087200,12.156087158203125,-2.352144718170166,9.403793334960938,0.11246266216039658
1772727780751432700,12.1734326171875,-2.3712873458862305,9.360722541809082,0.14835500717163086
1772727780768778200,12.1907783203125,-2.366501569747925,9.394221305847168,0.06699903309345245
1772727780786124000,12.2081240234375,-2.2851455211639404,9.401400566101074,0.08135596662759781
1772727780803469600,12.225469482421875,-2.3856441974639893,9.410971641540527,0.13639089465141296
1772727780820815400,12.2428154296875,-2.4191436767578125,9.4061861038208,0.16031911969184875
1772727780838161000,12.260160888671875,-2.3545374870300293,9.353543281555176,0.0933200865983963
1772727780855506700,12.277506591796875,-2.462214469909668,9.396614074707031,-0.007178467698395252
1772727780872852200,12.294852294921874,-2.3186452388763428,9.44447135925293,0.07417750358581543
1772727780890197800,12.31219775390625,-2.400001049041748,9.461220741271973,0.11485548317432404
1772727780907543600,12.32954345703125,-2.4095723628997803,9.384650230407715,0.1579262912273407
1772727780924889000,12.34688916015625,-2.4095723628997803,9.42772102355957,0.1698904037475586
1772727780942234600,12.364234619140625,-2.3952155113220215,9.42054271697998,0.1818545162677765
1772727780959580400,12.381580322265625,-2.4335005283355713,9.425328254699707,0.1818545162677765
1772727780976926000,12.398926025390624,-2.493321180343628,9.425328254699707,0.16031911969184875
1772727780994271700,12.416271728515625,-2.392822742462158,9.506684303283691,0.14356936514377594
1772727781011617300,12.4336171875,-2.4023938179016113,9.446864128112793,0.07896314561367035
1772727781028963000,12.450963134765624,-2.469393014907837,9.418149948120117,0.10289137065410614
1772727781046308600,12.46830859375,-2.4095723628997803,9.482755661010742,0.1339980661869049
1772727781063654100,12.485654052734375,-2.3880369663238525,9.499505996704102,0.16510476171970367
1772727781081000000,12.503,-2.4598217010498047,9.415757179260254,0.10289137065410614
1772727781098345500,12.520345458984375,-2.447857618331909,9.401400566101074,0.12442677468061447
1772727781115691300,12.537691162109375,-2.455035924911499,9.468399047851562,0.13878370821475983
1772727781133036800,12.555036865234374,-2.4646072387695312,9.473184585571289,0.10767702013254166
1772727781150382300,12.57238232421875,-2.407179594039917,9.461220741271973,0.04546362906694412
1772727781167728000,12.58972802734375,-2.438286304473877,9.44447135925293,0.02153540402650833
1772727781185073700,12.60707373046875,-2.478964328765869,9.394221305847168,0.062213387340307236
1772727781202419500,12.62441943359375,-2.531606435775757,9.415757179260254,0.11485548317432404
1772727781219765000,12.641764892578125,-2.4765713214874268,9.410971641540527,0.14356936514377594
1772727781237110500,12.659110595703124,-2.455035924911499,9.33440113067627,0.1459621787071228
1772727781254456300,12.676456298828125,-2.517249345779419,9.305686950683594,0.17228323221206665
1772727781271801900,12.6938017578125,-2.526820659637451,9.34157943725586,0.1818545162677765
1772727781289147600,12.711147705078124,-2.572284460067749,9.394221305847168,0.16510476171970367
1772727781306493200,12.7284931640625,-2.5363919734954834,9.4061861038208,0.0933200865983963
1772727781323838700,12.745838623046875,-2.550748825073242,9.336793899536133,0.059820566326379776
1772727781341184500,12.7631845703125,-2.5220351219177246,9.346364974975586,0.08614161610603333
1772727781358530000,12.780530029296875,-2.5148565769195557,9.358329772949219,0.09810572862625122
1772727781375875800,12.797875732421875,-2.4909284114837646,9.382257461547852,0.09571290761232376
1772727781393221400,12.815221435546874,-2.445464849472046,9.384650230407715,0.08853443711996078
1772727781410567000,12.83256689453125,-2.510071039199829,9.367900848388672,0.11006984114646912
1772727781427912700,12.84991259765625,-2.500499725341797,9.363115310668945,0.10289137065410614
1772727781445258200,12.86725830078125,-2.500499725341797,9.370293617248535,0.11485548317432404
1772727781462604000,12.88460400390625,-2.486142635345459,9.355937004089355,0.09092725813388824
1772727781479949600,12.901949462890625,-2.495713949203491,9.351150512695312,0.11964113265275955
1772727781497295400,12.91929541015625,-2.4909284114837646,9.339186668395996,0.10049854964017868
1772727781514641000,12.936640869140625,-2.510071039199829,9.382257461547852,0.12681959569454193
1772727781531986400,12.953986328125,-2.4837498664855957,9.384650230407715,0.12203395366668701
1772727781549332200,12.971332275390624,-2.500499725341797,9.379864692687988,0.0933200865983963
1772727781566677800,12.988677734375,-2.4670002460479736,9.358329772949219,0.07896314561367035
1772727781584023600,13.0060234375,-2.510071039199829,9.389435768127441,0.05024927482008934
1772727781601369000,13.023369140625,-2.4885356426239014,9.401400566101074,0.040677983313798904
1772727781618714600,13.040714599609375,-2.5148565769195557,9.533005714416504,-0.11006984114646912
1772727781636060400,13.058060302734376,-2.4670002460479736,9.602396965026855,0.016749758273363113
1772727781653406000,13.075406005859374,-2.4263222217559814,9.43489933013916,0.17946170270442963
1772727781670751700,13.092751708984375,-2.4765713214874268,9.150154113769531,0.25363919138908386
1772727781688097300,13.11009716796875,-2.667997360229492,9.023334503173828,0.31106695532798767
1772727781705442800,13.12744287109375,-2.6943182945251465,9.22433090209961,0.12921242415905
1772727781722788600,13.14478857421875,-2.407179594039917,9.437292098999023,0.10289137065410614
1772727781740134100,13.162134033203126,-2.6392834186553955,9.580862045288086,0.038285162299871445
1772727781757480000,13.17947998046875,-2.548356056213379,9.42772102355957,0.038285162299871445
1772727781774825500,13.196825439453125,-2.6488547325134277,9.346364974975586,0.07178468257188797
1772727781792171300,13.214171142578126,-2.691925525665283,9.305686950683594,0.18903298676013947
1772727781809516800,13.231516845703124,-2.644068956375122,9.324830055236816,0.23688943684101105
1772727781826862300,13.2488623046875,-2.6249263286590576,9.384650230407715,0.17946170270442963
1772727781844208000,13.2662080078125,-2.6057839393615723,9.43489933013916,0.11964113265275955
1772727781861553700,13.2835537109375,-2.5674986839294434,9.437292098999023,0.05503492057323456
1772727781878899500,13.3008994140625,-2.550748825073242,9.375079154968262,0.019142581149935722
1772727781896245000,13.318244873046876,-2.5842485427856445,9.32722282409668,0.02871387079358101
1772727781913590500,13.335590576171874,-2.5674986839294434,9.389435768127441,0.062213387340307236
1772727781930936300,13.352936279296875,-2.517249345779419,9.4061861038208,0.04785645380616188
1772727781948281900,13.37028173828125,-2.5292134284973145,9.379864692687988,0.02871387079358101
1772727781965627600,13.387627685546875,-2.5603201389312744,9.358329772949219,0.11006984114646912
1772727781982973200,13.40497314453125,-2.612962245941162,9.34157943725586,0.1698904037475586
1772727782000319000,13.422319091796876,-2.6297121047973633,9.355937004089355,0.13639089465141296
1772727782017664500,13.43966455078125,-2.6225335597991943,9.360722541809082,0.08614161610603333
1772727782035010000,13.457010009765625,-2.6321048736572266,9.365508079528809,0.0933200865983963
1772727782052355800,13.47435595703125,-2.5603201389312744,9.365508079528809,0.064606212079525
1772727782069701400,13.491701416015625,-2.6392834186553955,9.365508079528809,0.08374879509210587
1772727782087047200,13.509047119140625,-2.56510591506958,9.377471923828125,0.10767702013254166
1772727782104392700,13.526392822265626,-2.572284460067749,9.401400566101074,0.08853443711996078
1772727782121738500,13.543738525390625,-2.5914268493652344,9.34157943725586,0.08135596662759781
1772727782139084000,13.561083984375,-2.579462766647339,9.324830055236816,0.09092725813388824
1772727782156429600,13.5784296875,-2.6177480220794678,9.324830055236816,0.15074782073497772
1772727782173775400,13.595775390625,-2.6273193359375,9.324830055236816,0.12442677468061447
1772727782191121000,13.613120849609375,-2.6081767082214355,9.346364974975586,0.06939185410737991
1772727782208466700,13.630466796875,-2.5842485427856445,9.358329772949219,0.09571290761232376
1772727782225812200,13.647812255859375,-2.6392834186553955,9.324830055236816,0.09092725813388824
1772727782243157800,13.66515771484375,-2.5938198566436768,9.324830055236816,0.059820566326379776
1772727782260503600,13.682503662109376,-2.60339093208313,9.351150512695312,0.07896314561367035
1772727782277849000,13.69984912109375,-2.6057839393615723,9.34157943725586,0.08614161610603333
1772727782295195000,13.71719482421875,-2.5603201389312744,9.308079719543457,0.11724831163883209
1772727782312540400,13.73454052734375,-2.6249263286590576,9.298508644104004,0.14356936514377594
1772727782329886200,13.75188623046875,-2.60339093208313,9.351150512695312,0.12442677468061447
1772727782347231700,13.769231689453125,-2.6081767082214355,9.384650230407715,0.0526420995593071
1772727782364577300,13.786577392578126,-2.5842485427856445,9.358329772949219,0.019142581149935722
1772727782381923000,13.803923095703125,-2.5938198566436768,9.382257461547852,0.035892341285943985
1772727782399268600,13.8212685546875,-2.60339093208313,9.370293617248535,0.08135596662759781
1772727782416614400,13.838614501953124,-2.572284460067749,9.370293617248535,0.10289137065410614
1772727782433960000,13.8559599609375,-2.589034080505371,9.346364974975586,0.08374879509210587
1772727782451305700,13.8733056640625,-2.555534601211548,9.31047248840332,0.08374879509210587
1772727782468651300,13.8906513671875,-2.586641311645508,9.339186668395996,0.08614161610603333
1772727782485996800,13.907996826171875,-2.586641311645508,9.387042999267578,0.06699903309345245
1772727782503342600,13.925342529296875,-2.5435705184936523,9.418149948120117,0.04307080805301666
1772727782520688000,13.942688232421874,-2.5698914527893066,9.399007797241211,0.02392822690308094
1772727782538034000,13.960033935546875,-2.5435705184936523,9.346364974975586,0.08374879509210587
1772727782555379500,13.97737939453125,-2.56510591506958,9.360722541809082,0.08614161610603333
1772727782572725200,13.994725341796874,-2.60339093208313,9.34875774383545,0.16271193325519562
1772727782590070800,14.01207080078125,-2.5459632873535156,9.329615592956543,0.06939185410737991
1772727782607416300,14.029416259765625,-2.63449764251709,9.29611587524414,0.04546362906694412
1772727782624762000,14.04676220703125,-2.667997360229492,9.329615592956543,0.016749758273363113
1772727782642107600,14.064107666015625,-2.6057839393615723,9.418149948120117,0.0023928226437419653
1772727782659453400,14.081453369140625,-2.541177749633789,9.415757179260254,0.03349951654672623
1772727782676799000,14.098799072265624,-2.572284460067749,9.382257461547852,0.09092725813388824
1772727782694144800,14.116144775390625,-2.5986053943634033,9.286544799804688,0.15314064919948578
1772727782711490300,14.133490234375,-2.5770699977874756,9.255437850952148,0.11006984114646912
1772727782728835800,14.1508359375,-2.60339093208313,9.322437286376953,0.08135596662759781
1772727782746181600,14.168181640625,-2.6273193359375,9.399007797241211,0.08853443711996078
1772727782763527200,14.185527099609375,-2.6009981632232666,9.41336441040039,0.059820566326379776
1772727782780873000,14.202873046875,-2.5842485427856445,9.372686386108398,0
1772727782798218500,14.220218505859375,-2.6009981632232666,9.286544799804688,-0.04307080805301666
1772727782815564300,14.237564208984375,-2.6632115840911865,9.28893756866455,0.031106693670153618
1772727782832909800,14.254909912109374,-2.541177749633789,9.425328254699707,0.11964113265275955
1772727782850255400,14.27225537109375,-2.5842485427856445,9.442078590393066,0.1459621787071228
1772727782867601200,14.28960107421875,-2.63449764251709,9.367900848388672,0.09810572862625122
1772727782884946700,14.30694677734375,-2.555534601211548,9.34875774383545,0.0526420995593071
1772727782902292500,14.32429248046875,-2.7038896083831787,9.358329772949219,0.07657032459974289
1772727782919638000,14.341637939453125,-2.56510591506958,9.370293617248535,0.14117653667926788
1772727782936983800,14.35898388671875,-2.5052852630615234,9.410971641540527,0.13878370821475983
1772727782954329300,14.376329345703125,-2.589034080505371,9.391828536987305,0.040677983313798904
1772727782971675000,14.3936748046875,-2.557927370071411,9.446864128112793,0.04546362906694412
1772727782989020700,14.411020751953124,-2.6177480220794678,9.391828536987305,0.040677983313798904
1772727783006366200,14.4283662109375,-2.63449764251709,9.363115310668945,0.031106693670153618
1772727783023712000,14.4457119140625,-2.6297121047973633,9.396614074707031,0.09810572862625122
1772727783041057500,14.4630576171875,-2.65842604637146,9.399007797241211,0.11485548317432404
1772727783058403300,14.4804033203125,-2.68953275680542,9.34157943725586,0.09571290761232376
1772727783075748900,14.497748779296876,-2.7014968395233154,9.34157943725586,0.064606212079525
1772727783093094700,14.5150947265625,-2.7589244842529297,9.360722541809082,0.09571290761232376
1772727783110440200,14.532440185546875,-2.699103832244873,9.308079719543457,0.06939185410737991
1772727783127785700,14.54978564453125,-2.6488547325134277,9.34157943725586,0.08135596662759781
1772727783145131500,14.567131591796874,-2.5914268493652344,9.355937004089355,0.08853443711996078
1772727783162477000,14.58447705078125,-2.581855535507202,9.365508079528809,0.07657032459974289
1772727783179822800,14.60182275390625,-2.5842485427856445,9.339186668395996,0.09810572862625122
1772727783197168400,14.61916845703125,-2.620140790939331,9.394221305847168,0.08614161610603333
1772727783214514200,14.63651416015625,-2.6632115840911865,9.387042999267578,0.06699903309345245
1772727783231859700,14.653859619140626,-2.6392834186553955,9.363115310668945,0.035892341285943985
1772727783249205200,14.671205322265624,-2.691925525665283,9.332008361816406,0.064606212079525
1772727783266551000,14.688551025390625,-2.691925525665283,9.293723106384277,0.10289137065410614
1772727783283896600,14.705896484375,-2.6368906497955322,9.332008361816406,0.16271193325519562
1772727783301242400,14.723242431640625,-2.620140790939331,9.360722541809082,0.1339980661869049
1772727783318588000,14.740587890625,-2.6488547325134277,9.351150512695312,0.11246266216039658
1772727783335933400,14.757933349609376,-2.6177480220794678,9.343972206115723,0.064606212079525
1772727783353279200,14.775279296875,-2.620140790939331,9.34875774383545,0.040677983313798904
1772727783370624800,14.792624755859375,-2.6153552532196045,9.33440113067627,0.05742774158716202
1772727783387970600,14.809970458984376,-2.612962245941162,9.339186668395996,0.02632104977965355
1772727783405316000,14.827316162109375,-2.6368906497955322,9.329615592956543,0.1052841991186142
1772727783422662000,14.844661865234375,-2.6297121047973633,9.32722282409668,0.07657032459974289
1772727783440007400,14.86200732421875,-2.641676187515259,9.332008361816406,0.11485548317432404
1772727783457353000,14.87935302734375,-2.6297121047973633,9.343972206115723,0.11246266216039658
1772727783474698800,14.89669873046875,-2.651247501373291,9.346364974975586,0.08853443711996078
1772727783492044500,14.91404443359375,-2.6249263286590576,9.31047248840332,0.064606212079525
1772727783509390000,14.93139013671875,-2.644068956375122,9.298508644104004,0.05024927482008934
1772727783526735600,14.948735595703125,-2.66560435295105,9.31047248840332,0.08135596662759781
1772727783544081400,14.966081298828126,-2.641676187515259,9.336793899536133,0.11006984114646912
1772727783561427000,14.983427001953125,-2.6297121047973633,9.346364974975586,0.09810572862625122
1772727783578772700,15.000772705078125,-2.667997360229492,9.346364974975586,0.04307080805301666
1772727783596118300,15.0181181640625,-2.6632115840911865,9.329615592956543,0.08614161610603333
1772727783613463800,15.0354638671875,-2.63449764251709,9.336793899536133,0.08853443711996078
1772727783630809600,15.0528095703125,-2.6703901290893555,9.305686950683594,0.13160525262355804
1772727783648155100,15.070155029296876,-2.6392834186553955,9.281759262084961,0.09092725813388824
1772727783665501000,15.0875009765625,-2.6464617252349854,9.336793899536133,0.1052841991186142
1772727783682846500,15.104846435546875,-2.6488547325134277,9.4061861038208,0.12203395366668701
1772727783700192300,15.122192138671876,-2.6727828979492188,9.394221305847168,0.04307080805301666
1772727783717537800,15.139537841796875,-2.667997360229492,9.355937004089355,0.016749758273363113
1772727783734883300,15.15688330078125,-2.682354211807251,9.34875774383545,0.07417750358581543
1772727783752229000,15.17422900390625,-2.706282377243042,9.339186668395996,0.15553347766399384
1772727783769574700,15.19157470703125,-2.66560435295105,9.32722282409668,0.11964113265275955
1772727783786920400,15.20892041015625,-2.6847469806671143,9.346364974975586,0.10767702013254166
1772727783804266000,15.226265869140626,-2.6847469806671143,9.379864692687988,0.08853443711996078
1772727783821611800,15.24361181640625,-2.730210542678833,9.394221305847168,0.064606212079525
1772727783838957300,15.260957275390625,-2.699103832244873,9.372686386108398,0.07178468257188797
1772727783856302800,15.278302734375,-2.682354211807251,9.31047248840332,0
1772727783873648600,15.295648681640625,-2.6703901290893555,9.281759262084961,0.08614161610603333
1772727783890994200,15.312994140625,-2.6943182945251465,9.332008361816406,0.15074782073497772
1772727783908340000,15.330340087890624,-2.699103832244873,9.346364974975586,0.13878370821475983
1772727783925685500,15.347685546875,-2.651247501373291,9.360722541809082,0.08374879509210587
1772727783943031300,15.36503125,-2.66560435295105,9.339186668395996,0.007178467698395252
1772727783960376800,15.382376953125,-2.713460922241211,9.31047248840332,0.06699903309345245
1772727783977722600,15.39972265625,-2.6057839393615723,9.324830055236816,0.10289137065410614
1772727783995068200,15.417068115234375,-2.730210542678833,9.279366493225098,0.15553347766399384
1772727784012414000,15.4344140625,-2.68953275680542,9.322437286376953,0.11246266216039658
1772727784029759500,15.451759521484375,-2.66560435295105,9.30329418182373,0.12442677468061447
1772727784047105000,15.46910498046875,-2.754138946533203,9.34157943725586,0.0526420995593071
1772727784064450800,15.486450927734374,-2.6608188152313232,9.365508079528809,0.02871387079358101
1772727784081796400,15.50379638671875,-2.7637102603912354,9.34875774383545,0.035892341285943985
1772727784099142100,15.52114208984375,-2.7038896083831787,9.31047248840332,0.059820566326379776
1772727784116487700,15.53848779296875,-2.6392834186553955,9.300901412963867,0.11964113265275955
1772727784133833500,15.55583349609375,-2.6536402702331543,9.31047248840332,0.15314064919948578
1772727784151179000,15.573178955078125,-2.6368906497955322,9.265008926391602,0.10049854964017868
1772727784168524800,15.59052490234375,-2.68953275680542,9.286544799804688,0.09810572862625122
1772727784185870300,15.607870361328125,-2.6967110633850098,9.346364974975586,0.040677983313798904
1772727784203216000,15.6252158203125,-2.7014968395233154,9.377471923828125,0.04307080805301666
1772727784220561700,15.642561767578124,-2.6799614429473877,9.358329772949219,0.031106693670153618
1772727784237907200,15.6599072265625,-2.6799614429473877,9.315258979797363,0.062213387340307236
1772727784255253000,15.6772529296875,-2.6943182945251465,9.34875774383545,0.14117653667926788
1772727784272598500,15.6945986328125,-2.6464617252349854,9.31047248840332,0.15074782073497772
1772727784289944300,15.7119443359375,-2.6273193359375,9.312865257263184,0.11724831163883209
1772727784307289900,15.729289794921876,-2.6392834186553955,9.377471923828125,0.10049854964017868
1772727784324635600,15.7466357421875,-2.6464617252349854,9.418149948120117,0.064606212079525
1772727784341981200,15.763981201171875,-2.667997360229492,9.418149948120117,-0.02632104977965355
1772727784359326700,15.78132666015625,-2.641676187515259,9.367900848388672,0.02871387079358101
1772727784376672500,15.798672607421874,-2.620140790939331,9.33440113067627,0.12681959569454193
1772727784394018000,15.81601806640625,-2.6632115840911865,9.329615592956543,0.1459621787071228
1772727784411363800,15.83336376953125,-2.610569477081299,9.346364974975586,0.1459621787071228
1772727784428709400,15.85070947265625,-2.6153552532196045,9.418149948120117,0.1052841991186142
1772727784446055200,15.86805517578125,-2.6392834186553955,9.401400566101074,0.035892341285943985
1772727784463400700,15.885400634765626,-2.6273193359375,9.346364974975586,0.02392822690308094
1772727784480746200,15.902746337890624,-2.612962245941162,9.346364974975586,0.04307080805301666
1772727784498092000,15.920092041015625,-2.6153552532196045,9.358329772949219,0.11964113265275955
1772727784515437600,15.9374375,-2.6009981632232666,9.355937004089355,0.13160525262355804
1772727784532783400,15.954783447265624,-2.6009981632232666,9.317651748657227,0.13639089465141296
1772727784550129000,15.97212890625,-2.5842485427856445,9.29611587524414,0.11246266216039658
1772727784567474700,15.989474609375,-2.6081767082214355,9.339186668395996,0.09810572862625122
1772727784584820200,16.0068203125,-2.610569477081299,9.367900848388672,0.09092725813388824
1772727784602166000,16.024166015625,-2.620140790939331,9.363115310668945,0.007178467698395252
1772727784619511600,16.041511474609376,-2.6081767082214355,9.322437286376953,0.02632104977965355
1772727784636857000,16.058857177734374,-2.5914268493652344,9.312865257263184,0.038285162299871445
1772727784654203000,16.076202880859373,-2.63449764251709,9.358329772949219,0.15553347766399384
1772727784671548400,16.09354833984375,-2.5603201389312744,9.377471923828125,0.19381862878799438
1772727784688894200,16.110894287109375,-2.5603201389312744,9.339186668395996,0.09092725813388824
1772727784706239700,16.12823974609375,-2.612962245941162,9.312865257263184,0.07657032459974289
1772727784723585500,16.14558544921875,-2.6560330390930176,9.372686386108398,0.05024927482008934
1772727784740931000,16.16293115234375,-2.651247501373291,9.401400566101074,0.031106693670153618
1772727784758276600,16.180276611328125,-2.6057839393615723,9.418149948120117,0.04307080805301666
1772727784775622400,16.197622314453124,-2.6153552532196045,9.401400566101074,0.062213387340307236
1772727784792968000,16.214968017578126,-2.6297121047973633,9.34875774383545,0.06699903309345245
1772727784810313700,16.232313720703125,-2.641676187515259,9.329615592956543,0.11006984114646912
1772727784827659300,16.2496591796875,-2.6775684356689453,9.346364974975586,0.0933200865983963
1772727784845005000,16.267005126953126,-2.699103832244873,9.396614074707031,0.1339980661869049
1772727784862350600,16.2843505859375,-2.66560435295105,9.415757179260254,0.08853443711996078
1772727784879696400,16.3016962890625,-2.713460922241211,9.399007797241211,0.08135596662759781
1772727784897042000,16.3190419921875,-2.7038896083831787,9.360722541809082,0.0526420995593071
1772727784914387500,16.336387451171873,-2.6943182945251465,9.32004451751709,0.06939185410737991
1772727784931733200,16.353733154296876,-2.6608188152313232,9.346364974975586,0.19142581522464752
1772727784949078800,16.371078857421875,-2.682354211807251,9.346364974975586,0.15074782073497772
1772727784966424600,16.388424560546873,-2.68953275680542,9.367900848388672,0.0933200865983963
1772727784983770000,16.40577001953125,-2.682354211807251,9.375079154968262,0.064606212079525
1772727785001116000,16.423115966796875,-2.7493531703948975,9.358329772949219,0.02153540402650833
1772727785018461400,16.44046142578125,-2.699103832244873,9.363115310668945,0.04785645380616188
1772727785035807000,16.457806884765624,-2.6943182945251465,9.355937004089355,0.11964113265275955
1772727785053152800,16.47515283203125,-2.7014968395233154,9.300901412963867,0.12442677468061447
1772727785070498300,16.492498291015625,-2.713460922241211,9.317651748657227,0.1698904037475586
1772727785087844000,16.509843994140624,-2.7326035499572754,9.336793899536133,0.20338992774486542
1772727785105189600,16.527189697265626,-2.7110681533813477,9.353543281555176,0.07417750358581543
1772727785122535400,16.544535400390625,-2.7014968395233154,9.379864692687988,0.04785645380616188
1772727785139881000,16.561880859375,-2.7182464599609375,9.322437286376953,-0.009571290574967861
1772727785157226500,16.5792265625,-2.7493531703948975,9.305686950683594,0.05503492057323456
1772727785174572300,16.596572265625,-2.6009981632232666,9.32004451751709,0.08374879509210587
1772727785191917800,16.613917724609376,-2.720639228820801,9.324830055236816,0.08853443711996078
1772727785209263600,16.631263671875,-2.651247501373291,9.253045082092285,0.15553347766399384
1772727785226609200,16.648609130859374,-2.7326035499572754,9.274580955505371,0.14835500717163086
1772727785243955000,16.665954833984376,-2.768495798110962,9.291330337524414,0.18903298676013947
1772727785261300500,16.683300537109375,-2.7254250049591064,9.308079719543457,0.07417750358581543
1772727785278646300,16.700646240234374,-2.7278177738189697,9.298508644104004,0.038285162299871445
1772727785295991800,16.71799169921875,-2.7110681533813477,9.312865257263184,0.09810572862625122
1772727785313337300,16.73533740234375,-2.6967110633850098,9.31047248840332,0.09810572862625122
1772727785330683100,16.75268310546875,-2.7014968395233154,9.276973724365234,0.10289137065410614
1772727785348028700,16.770028564453124,-2.66560435295105,9.255437850952148,0.09571290761232376
1772727785365374500,16.78737451171875,-2.7086751461029053,9.276973724365234,0.11724831163883209
1772727785382720000,16.804719970703125,-2.7038896083831787,9.31047248840332,0.07896314561367035
1772727785400065800,16.822065673828124,-2.7493531703948975,9.351150512695312,0.14117653667926788
1772727785417411300,16.839411376953127,-2.730210542678833,9.34875774383545,0.09571290761232376
1772727785434756900,16.8567568359375,-2.744567632675171,9.32004451751709,0.05742774158716202
1772727785452102700,16.8741025390625,-2.715853691101074,9.329615592956543,0.13639089465141296
1772727785469448200,16.8914482421875,-2.68953275680542,9.34875774383545,0.15314064919948578
1772727785486794000,16.9087939453125,-2.675175666809082,9.370293617248535,0.14117653667926788
1772727785504139500,16.926139404296876,-2.6871397495269775,9.339186668395996,0.04546362906694412
1772727785521485300,16.9434853515625,-2.7493531703948975,9.336793899536133,0.038285162299871445
1772727785538830800,16.960830810546874,-2.7326035499572754,9.375079154968262,0.064606212079525
1772727785556176600,16.9781767578125,-2.7278177738189697,9.399007797241211,0.064606212079525
1772727785573522200,16.995522216796875,-2.6703901290893555,9.379864692687988,0.12681959569454193
1772727785590867700,17.01286767578125,-2.6632115840911865,9.336793899536133,0.10049854964017868
1772727785608213500,17.030213623046876,-2.667997360229492,9.305686950683594,0.11724831163883209
1772727785625559000,17.04755908203125,-2.6703901290893555,9.324830055236816,0.11724831163883209
1772727785642904800,17.06490478515625,-2.675175666809082,9.339186668395996,0.08614161610603333
1772727785660250400,17.08225048828125,-2.6703901290893555,9.34157943725586,0.031106693670153618
1772727785677596200,17.09959619140625,-2.6608188152313232,9.358329772949219,0.014356935396790504
1772727785694941700,17.116941650390626,-2.6392834186553955,9.360722541809082,0.08135596662759781
1772727785712287500,17.13428759765625,-2.6321048736572266,9.332008361816406,0.0526420995593071
1772727785729633000,17.151633056640627,-2.6536402702331543,9.28893756866455,0.07657032459974289
1772727785746978600,17.168978515625,-2.641676187515259,9.315258979797363,0.11485548317432404
1772727785764324400,17.186324462890624,-2.6799614429473877,9.329615592956543,0.10289137065410614
1772727785781670000,17.203669921875,-2.6297121047973633,9.358329772949219,0.12442677468061447
1772727785799015700,17.221015625,-2.6321048736572266,9.34157943725586,0.035892341285943985
1772727785816361200,17.238361328125,-2.68953275680542,9.336793899536133,0.05742774158716202
1772727785833707000,17.25570703125,-2.68953275680542,9.353543281555176,0.07417750358581543
1772727785851052500,17.273052490234374,-2.6871397495269775,9.339186668395996,0.05503492057323456
1772727785868398000,17.290398193359376,-2.6632115840911865,9.32004451751709,0.0933200865983963
1772727785885743900,17.307743896484375,-2.644068956375122,9.351150512695312,0.062213387340307236
1772727785903089400,17.32508935546875,-2.691925525665283,9.360722541809082,0.09571290761232376
1772727785920435200,17.342435302734376,-2.66560435295105,9.387042999267578,0.064606212079525
1772727785937780700,17.35978076171875,-2.66560435295105,9.367900848388672,0.02871387079358101
1772727785955126500,17.37712646484375,-2.682354211807251,9.360722541809082,0.05503492057323456
1772727785972472000,17.39447216796875,-2.6775684356689453,9.375079154968262,0.06939185410737991
1772727785989817900,17.41181787109375,-2.6632115840911865,9.391828536987305,0.07178468257188797
1772727786007163400,17.429163330078126,-2.6703901290893555,9.363115310668945,0.040677983313798904
1772727786024509000,17.446509033203125,-2.66560435295105,9.384650230407715,0.031106693670153618
1772727786041854700,17.463854736328123,-2.675175666809082,9.387042999267578,0.07657032459974289
1772727786059200300,17.4812001953125,-2.6464617252349854,9.358329772949219,0.04307080805301666
1772727786076546000,17.498546142578125,-2.644068956375122,9.339186668395996,0.064606212079525
1772727786093891600,17.5158916015625,-2.6871397495269775,9.346364974975586,0.064606212079525
1772727786111237400,17.5332373046875,-2.6775684356689453,9.382257461547852,0.019142581149935722
1772727786128583000,17.5505830078125,-2.6273193359375,9.389435768127441,0.014356935396790504
1772727786145928400,17.567928466796875,-2.6273193359375,9.339186668395996,-0.007178467698395252
1772727786163274200,17.585274169921874,-2.6775684356689453,9.32722282409668,0.031106693670153618
1772727786180619800,17.602619873046876,-2.699103832244873,9.322437286376953,0.08135596662759781
1772727786197965600,17.619965576171875,-2.7038896083831787,9.358329772949219,0.0526420995593071
1772727786215311000,17.63731103515625,-2.6632115840911865,9.384650230407715,0.05024927482008934
1772727786232657000,17.654656982421876,-2.6225335597991943,9.32004451751709,-0.02392822690308094
1772727786250002400,17.67200244140625,-2.723032236099243,9.272188186645508,-0.016749758273363113
1772727786267348200,17.68934814453125,-2.715853691101074,9.317651748657227,0.07657032459974289
1772727786284693800,17.70669384765625,-2.730210542678833,9.372686386108398,0.09092725813388824
1772727786302039600,17.72403955078125,-2.68953275680542,9.377471923828125,0.02632104977965355
1772727786319385000,17.741385009765626,-2.667997360229492,9.312865257263184,-0.014356935396790504
1772727786336730600,17.758730712890625,-2.7182464599609375,9.262616157531738,0.01196411345154047
1772727786354076400,17.776076416015623,-2.6967110633850098,9.255437850952148,0.02632104977965355
1772727786371422000,17.793421875,-2.699103832244873,9.293723106384277,0.02153540402650833
1772727786388767700,17.810767822265625,-2.6871397495269775,9.401400566101074,0.06939185410737991
1772727786406113300,17.82811328125,-2.6871397495269775,9.379864692687988,0.0023928226437419653
1772727786423459000,17.845458984375,-2.691925525665283,9.284152030944824,-0.038285162299871445
1772727786440804600,17.8628046875,-2.6608188152313232,9.257830619812012,0.02153540402650833
1772727786458150100,17.880150146484375,-2.682354211807251,9.305686950683594,0.06699903309345245
1772727786475496000,17.897495849609374,-2.6560330390930176,9.375079154968262,0.06939185410737991
1772727786492841500,17.914841552734377,-2.6847469806671143,9.372686386108398,-0.031106693670153618
1772727786510187300,17.932187255859375,-2.6943182945251465,9.31047248840332,-0.08853443711996078
1772727786527532800,17.94953271484375,-2.7110681533813477,9.291330337524414,-0.02153540402650833
1772727786544878600,17.966878662109377,-2.675175666809082,9.324830055236816,0.04546362906694412
1772727786562224000,17.98422412109375,-2.6536402702331543,9.343972206115723,0.05742774158716202
1772727786579570000,18.00156982421875,-2.6392834186553955,9.360722541809082,0.04546362906694412
1772727786596915500,18.01891552734375,-2.706282377243042,9.33440113067627,-0.03349951654672623
1772727786614261000,18.036260986328124,-2.7517459392547607,9.308079719543457,-0.05024927482008934
1772727786631606800,18.053606689453126,-2.713460922241211,9.332008361816406,-0.007178467698395252
1772727786648952300,18.070952392578125,-2.6943182945251465,9.379864692687988,0.019142581149935722
1772727786666298000,18.088298095703124,-2.6775684356689453,9.379864692687988,-0.009571290574967861
1772727786683643600,18.1056435546875,-2.682354211807251,9.367900848388672,-0.02153540402650833
1772727786700989400,18.122989501953125,-2.720639228820801,9.32722282409668,-0.031106693670153618
1772727786718335000,18.1403349609375,-2.746960401535034,9.33440113067627,-0.016749758273363113
1772727786735680500,18.157680419921874,-2.715853691101074,9.34875774383545,-0.019142581149935722
1772727786753026300,18.1750263671875,-2.7086751461029053,9.367900848388672,-0.0023928226437419653
1772727786770371800,18.192371826171875,-2.706282377243042,9.358329772949219,-0.02392822690308094
1772727786787717600,18.209717529296874,-2.6967110633850098,9.34157943725586,-0.06699903309345245
1772727786805063200,18.227063232421877,-2.6727828979492188,9.31047248840332,-0.059820566326379776
1772727786822408700,18.24440869140625,-2.7182464599609375,9.322437286376953,-0.019142581149935722
1772727786839754500,18.26175439453125,-2.723032236099243,9.370293617248535,-0.02392822690308094
1772727786857100000,18.27910009765625,-2.713460922241211,9.384650230407715,-0.07657032459974289
1772727786874445800,18.29644580078125,-2.699103832244873,9.324830055236816,-0.09810572862625122
1772727786891791400,18.313791259765626,-2.6871397495269775,9.293723106384277,-0.08614161610603333
1772727786909137200,18.33113720703125,-2.68953275680542,9.308079719543457,-0.004785645287483931
1772727786926482700,18.348482666015624,-2.6871397495269775,9.31047248840332,0.031106693670153618
1772727786943828500,18.365828369140626,-2.6727828979492188,9.298508644104004,-0.05024927482008934
1772727786961174000,18.383174072265625,-2.6967110633850098,9.32722282409668,-0.07417750358581543
1772727786978519800,18.400519775390624,-2.6967110633850098,9.343972206115723,-0.08853443711996078
1772727786995865300,18.417865234375,-2.6703901290893555,9.33440113067627,-0.1339980661869049
1772727787013211000,18.4352109375,-2.6608188152313232,9.300901412963867,-0.09810572862625122
1772727787030556700,18.452556640625,-2.6632115840911865,9.276973724365234,-0.02632104977965355
1772727787047902200,18.469902099609374,-2.6847469806671143,9.29611587524414,0
1772727787065247700,18.487247802734377,-2.7038896083831787,9.363115310668945,-0.02632104977965355
1772727787082593500,18.504593505859376,-2.715853691101074,9.403793334960938,-0.09571290761232376
1772727787099939000,18.52193896484375,-2.682354211807251,9.389435768127441,-0.16510476171970367
1772727787117284900,18.539284912109373,-2.6871397495269775,9.370293617248535,-0.13639089465141296
1772727787134630400,18.55663037109375,-2.65842604637146,9.353543281555176,-0.02632104977965355
1772727787151976200,18.57397607421875,-2.6775684356689453,9.34157943725586,-0.016749758273363113
1772727787169321700,18.59132177734375,-2.7086751461029053,9.365508079528809,-0.05024927482008934
1772727787186667500,18.60866748046875,-2.7014968395233154,9.42054271697998,-0.11964113265275955
1772727787204013000,18.626012939453126,-2.6967110633850098,9.401400566101074,-0.15314064919948578
1772727787221358600,18.643358642578125,-2.723032236099243,9.399007797241211,-0.09092725813388824
1772727787238704400,18.660704345703124,-2.720639228820801,9.408578872680664,-0.031106693670153618
1772727787256050000,18.6780498046875,-2.7421748638153076,9.384650230407715,-0.05024927482008934
1772727787273395700,18.695395751953125,-2.730210542678833,9.377471923828125,-0.09810572862625122
1772727787290741200,18.7127412109375,-2.730210542678833,9.377471923828125,-0.1339980661869049
1772727787308087000,18.730087158203126,-2.744567632675171,9.377471923828125,-0.12442677468061447
1772727787325432600,18.7474326171875,-2.7589244842529297,9.394221305847168,-0.07417750358581543
1772727787342778000,18.764778076171876,-2.706282377243042,9.394221305847168,-0.09092725813388824
1772727787360124000,18.7821240234375,-2.699103832244873,9.329615592956543,-0.14117653667926788
1772727787377469400,18.799469482421873,-2.720639228820801,9.317651748657227,-0.09092725813388824
1772727787394815200,18.816815185546876,-2.737389087677002,9.360722541809082,-0.035892341285943985
1772727787412160800,18.834160888671875,-2.7565317153930664,9.370293617248535,-0.11006984114646912
1772727787429506600,18.851506591796873,-2.7086751461029053,9.315258979797363,-0.17228323221206665
1772727787446852000,18.86885205078125,-2.7110681533813477,9.298508644104004,-0.12681959569454193
1772727787464198000,18.886197998046875,-2.7493531703948975,9.322437286376953,-0.08853443711996078
1772727787481543400,18.90354345703125,-2.720639228820801,9.367900848388672,-0.11246266216039658
1772727787498889000,18.920888916015624,-2.7278177738189697,9.346364974975586,-0.16749759018421173
1772727787516234800,18.93823486328125,-2.737389087677002,9.308079719543457,-0.18903298676013947
1772727787533580300,18.955580322265625,-2.7517459392547607,9.300901412963867,-0.12442677468061447
1772727787550926000,18.972926025390624,-2.699103832244873,9.298508644104004,-0.05742774158716202
1772727787568271600,18.990271728515626,-2.706282377243042,9.308079719543457,-0.04546362906694412
1772727787585617400,19.007617431640625,-2.7565317153930664,9.286544799804688,-0.0933200865983963
1772727787602963000,19.024962890625,-2.7326035499572754,9.293723106384277,-0.18903298676013947
1772727787620308500,19.04230859375,-2.713460922241211,9.32004451751709,-0.19142581522464752
1772727787637654300,19.059654296875,-2.713460922241211,9.358329772949219,-0.13878370821475983
1772727787654999800,19.076999755859376,-2.706282377243042,9.329615592956543,-0.12681959569454193
1772727787672345600,19.094345703125,-2.6967110633850098,9.315258979797363,-0.12681959569454193
1772727787689691100,19.111691162109373,-2.723032236099243,9.31047248840332,-0.11964113265275955
1772727787707037000,19.129036865234376,-2.7493531703948975,9.32004451751709,-0.11246266216039658
1772727787724382500,19.146382568359375,-2.737389087677002,9.355937004089355,-0.1579262912273407
1772727787741728300,19.163728271484374,-2.770888566970825,9.399007797241211,-0.15314064919948578
1772727787759073800,19.18107373046875,-2.761317253112793,9.389435768127441,-0.12921242415905
1772727787776419300,19.19841943359375,-2.737389087677002,9.329615592956543,-0.17706887423992157
1772727787793765000,19.21576513671875,-2.723032236099243,9.279366493225098,-0.14835500717163086
1772727787811110700,19.233110595703124,-2.7493531703948975,9.31047248840332,-0.08614161610603333
1772727787828456400,19.25045654296875,-2.770888566970825,9.387042999267578,-0.11724831163883209
1772727787845802000,19.267802001953125,-2.7637102603912354,9.396614074707031,-0.20578274130821228
1772727787863147500,19.2851474609375,-2.7038896083831787,9.353543281555176,-0.27756741642951965
1772727787880493300,19.302493408203127,-2.761317253112793,9.29611587524414,-0.17706887423992157
1772727787897838800,19.3198388671875,-2.754138946533203,9.324830055236816,-0.12681959569454193
1772727787915184600,19.3371845703125,-2.737389087677002,9.365508079528809,-0.0933200865983963
1772727787932530200,19.3545302734375,-2.7804598808288574,9.353543281555176,-0.16749759018421173
1772727787949876000,19.3718759765625,-2.6608188152313232,9.375079154968262,-0.2632105052471161
1772727787967221500,19.389221435546876,-2.8450660705566406,9.32722282409668,-0.1698904037475586
1772727787984567000,19.406567138671875,-2.8115665912628174,9.372686386108398,-0.1698904037475586
1772727788001912800,19.423912841796874,-2.7349963188171387,9.339186668395996,-0.12442677468061447
1772727788019258400,19.44125830078125,-2.8187451362609863,9.346364974975586,-0.1818545162677765
1772727788036604200,19.458604248046875,-2.723032236099243,9.33440113067627,-0.22492532432079315
1772727788053949700,19.47594970703125,-2.8283164501190186,9.370293617248535,-0.2153540402650833
1772727788071295500,19.49329541015625,-2.7972097396850586,9.363115310668945,-0.1866401731967926
1772727788088641000,19.51064111328125,-2.806781053543091,9.375079154968262,-0.20099709928035736
1772727788105986600,19.527986572265625,-2.744567632675171,9.372686386108398,-0.16749759018421173
1772727788123332400,19.545332275390624,-2.7397818565368652,9.351150512695312,-0.16749759018421173
1772727788140678000,19.562677978515627,-2.746960401535034,9.322437286376953,-0.19381862878799438
1772727788158023700,19.580023681640625,-2.744567632675171,9.346364974975586,-0.18903298676013947
1772727788175369200,19.597369140625,-2.730210542678833,9.370293617248535,-0.20578274130821228
1772727788192715000,19.614715087890627,-2.7397818565368652,9.365508079528809,-0.2871387302875519
1772727788210060500,19.632060546875,-2.7804598808288574,9.355937004089355,-0.22492532432079315
1772727788227406000,19.649406005859376,-2.7589244842529297,9.332008361816406,-0.18424734473228455
1772727788244752000,19.666751953125,-2.691925525665283,9.32004451751709,-0.16749759018421173
1772727788262097400,19.684097412109374,-2.713460922241211,9.30329418182373,-0.14356936514377594
1772727788279443200,19.701443115234376,-2.730210542678833,9.315258979797363,-0.1986042857170105
1772727788296788700,19.718788818359375,-2.7397818565368652,9.365508079528809,-0.27038896083831787
1772727788314134500,19.736134521484374,-2.794816732406616,9.34157943725586,-0.3278166949748993
1772727788331480000,19.75347998046875,-2.7493531703948975,9.336793899536133,-0.31824541091918945
1772727788348825900,19.770825927734375,-2.699103832244873,9.31047248840332,-0.2847459018230438
1772727788366171400,19.78817138671875,-2.723032236099243,9.267401695251465,-0.1698904037475586
1772727788383517000,19.805516845703124,-2.7086751461029053,9.262616157531738,-0.16271193325519562
1772727788400862700,19.82286279296875,-2.723032236099243,9.279366493225098,-0.22013968229293823
1772727788418208300,19.840208251953126,-2.7972097396850586,9.32004451751709,-0.27038896083831787
1772727788435553800,19.8575537109375,-2.7732813358306885,9.34875774383545,-0.3397808074951172
1772727788452899600,19.874899658203127,-2.7565317153930664,9.34875774383545,-0.34695929288864136
1772727788470245000,19.8922451171875,-2.7110681533813477,9.312865257263184,-0.30149564146995544
1772727788487591000,19.9095908203125,-2.7254250049591064,9.300901412963867,-0.20578274130821228
1772727788504936400,19.9269365234375,-2.7182464599609375,9.286544799804688,-0.18903298676013947
1772727788522282200,19.9442822265625,-2.7349963188171387,9.317651748657227,-0.2392822653055191
1772727788539627800,19.961627685546876,-2.768495798110962,9.339186668395996,-0.2871387302875519
1772727788556973600,19.9789736328125,-2.7828526496887207,9.346364974975586,-0.30628129839897156
1772727788574319000,19.996319091796874,-2.770888566970825,9.387042999267578,-0.26081767678260803
1772727788591664600,20.01366455078125,-2.730210542678833,9.34157943725586,-0.2225325107574463
1772727788609010400,20.031010498046875,-2.723032236099243,9.298508644104004,-0.2105683982372284
1772727788626356000,20.04835595703125,-2.7278177738189697,9.317651748657227,-0.2105683982372284
1772727788643701800,20.06570166015625,-2.778067111968994,9.363115310668945,-0.20099709928035736
1772727788661047300,20.08304736328125,-2.754138946533203,9.410971641540527,-0.2991028428077698
1772727788678393000,20.10039306640625,-2.730210542678833,9.425328254699707,-0.33499518036842346
1772727788695738600,20.117738525390624,-2.7349963188171387,9.401400566101074,-0.3038884699344635
1772727788713084200,20.135084228515623,-2.7589244842529297,9.358329772949219,-0.2679961323738098
1772727788730430000,20.152429931640626,-2.7661030292510986,9.317651748657227,-0.21774685382843018
1772727788747775500,20.169775390625,-2.7637102603912354,9.358329772949219,-0.1746760457754135
1772727788765121300,20.187121337890623,-2.7732813358306885,9.394221305847168,-0.19621145725250244
1772727788782466800,20.204466796875,-2.746960401535034,9.403793334960938,-0.2560320198535919
1772727788799812600,20.2218125,-2.778067111968994,9.396614074707031,-0.29431718587875366
1772727788817158100,20.239158203125,-2.775674343109131,9.346364974975586,-0.23449662327766418
1772727788834503700,20.256503662109374,-2.754138946533203,9.384650230407715,-0.22492532432079315
1772727788851849500,20.273849365234376,-2.768495798110962,9.379864692687988,-0.24167509377002716
1772727788869195000,20.291195068359375,-2.7589244842529297,9.367900848388672,-0.2512463629245758
1772727788886540800,20.308540771484374,-2.7517459392547607,9.346364974975586,-0.275174617767334
1772727788903886300,20.32588623046875,-2.7565317153930664,9.336793899536133,-0.28953152894973755
1772727788921232000,20.34323193359375,-2.7349963188171387,9.32722282409668,-0.26560330390930176
1772727788938577700,20.36057763671875,-2.744567632675171,9.379864692687988,-0.22013968229293823
1772727788955923200,20.377923095703125,-2.768495798110962,9.377471923828125,-0.2273181527853012
1772727788973269000,20.39526904296875,-2.7589244842529297,9.32004451751709,-0.2512463629245758
1772727788990614500,20.412614501953126,-2.7493531703948975,9.272188186645508,-0.275174617767334
1772727789007960300,20.429960205078125,-2.7565317153930664,9.269794464111328,-0.24167509377002716
1772727789025305900,20.447305908203123,-2.737389087677002,9.332008361816406,-0.22971096634864807
1772727789042651400,20.4646513671875,-2.7565317153930664,9.384650230407715,-0.2273181527853012
1772727789059997200,20.4819970703125,-2.744567632675171,9.358329772949219,-0.26560330390930176
1772727789077342700,20.4993427734375,-2.746960401535034,9.286544799804688,-0.3086741268634796
1772727789094688500,20.5166884765625,-2.7493531703948975,9.248259544372559,-0.275174617767334
1772727789112034000,20.534033935546876,-2.746960401535034,9.29611587524414,-0.17228323221206665
1772727789129379600,20.551379638671875,-2.7110681533813477,9.346364974975586,-0.15553347766399384
1772727789146725400,20.568725341796874,-2.7038896083831787,9.312865257263184,-0.1746760457754135
1772727789164071000,20.58607080078125,-2.737389087677002,9.298508644104004,-0.23210379481315613
1772727789181416700,20.603416748046875,-2.7732813358306885,9.308079719543457,-0.2584248483181
1772727789198762200,20.62076220703125,-2.7517459392547607,9.324830055236816,-0.2584248483181
1772727789216108000,20.63810791015625,-2.715853691101074,9.329615592956543,-0.1986042857170105
1772727789233453600,20.65545361328125,-2.6775684356689453,9.34157943725586,-0.14835500717163086
1772727789250799000,20.672799072265626,-2.7182464599609375,9.315258979797363,-0.15074782073497772
1772727789268145000,20.690144775390625,-2.746960401535034,9.32004451751709,-0.14117653667926788
1772727789285490400,20.707490478515624,-2.785245656967163,9.351150512695312,-0.15553347766399384
1772727789302836200,20.724836181640626,-2.737389087677002,9.363115310668945,-0.18424734473228455
1772727789320181800,20.742181640625,-2.6871397495269775,9.365508079528809,-0.1698904037475586
1772727789337527600,20.759527587890624,-2.7349963188171387,9.339186668395996,-0.1339980661869049
1772727789354873000,20.776873046875,-2.754138946533203,9.33440113067627,-0.08853443711996078
1772727789372218600,20.794218505859376,-2.746960401535034,9.343972206115723,-0.07417750358581543
1772727789389564400,20.811564453125,-2.7278177738189697,9.360722541809082,-0.07417750358581543
1772727789406910000,20.828909912109374,-2.7182464599609375,9.365508079528809,-0.10049854964017868
1772727789424255700,20.846255859375,-2.7493531703948975,9.351150512695312,-0.08374879509210587
1772727789441601300,20.863601318359375,-2.768495798110962,9.34875774383545,-0.05742774158716202
1772727789458946800,20.88094677734375,-2.7421748638153076,9.34875774383545,-0.09810572862625122
1772727789476292600,20.898292724609377,-2.723032236099243,9.358329772949219,-0.11006984114646912
1772727789493638100,20.91563818359375,-2.768495798110962,9.336793899536133,-0.13639089465141296
1772727789510984000,20.93298388671875,-2.7589244842529297,9.351150512695312,-0.15553347766399384
1772727789528329500,20.95032958984375,-2.746960401535034,9.365508079528809,-0.14356936514377594
1772727789545675300,20.96767529296875,-2.754138946533203,9.322437286376953,-0.14356936514377594
1772727789563020800,20.985020751953126,-2.7326035499572754,9.322437286376953,-0.13160525262355804
1772727789580366600,21.00236669921875,-2.7397818565368652,9.322437286376953,-0.1052841991186142
1772727789597712100,21.019712158203124,-2.7421748638153076,9.351150512695312,-0.09810572862625122
1772727789615057700,21.0370576171875,-2.7397818565368652,9.324830055236816,-0.15074782073497772
1772727789632403500,21.054403564453125,-2.744567632675171,9.29611587524414,-0.16510476171970367
1772727789649749000,21.0717490234375,-2.7182464599609375,9.308079719543457,-0.1698904037475586
1772727789667094500,21.089094482421874,-2.754138946533203,9.324830055236816,-0.19142581522464752
1772727789684440300,21.1064404296875,-2.7182464599609375,9.358329772949219,-0.19381862878799438
1772727789701785900,21.123785888671875,-2.715853691101074,9.382257461547852,-0.21774685382843018
1772727789719131600,21.141131591796874,-2.7326035499572754,9.343972206115723,-0.20099709928035736
1772727789736477200,21.158477294921877,-2.7349963188171387,9.293723106384277,-0.12442677468061447
1772727789753823000,21.175822998046876,-2.7278177738189697,9.293723106384277,-0.09092725813388824
1772727789771168500,21.19316845703125,-2.699103832244873,9.332008361816406,-0.08614161610603333
1772727789788514000,21.21051416015625,-2.7254250049591064,9.365508079528809,-0.09571290761232376
1772727789805859800,21.22785986328125,-2.7254250049591064,9.375079154968262,-0.14356936514377594
1772727789823205400,21.245205322265626,-2.730210542678833,9.336793899536133,-0.1698904037475586
1772727789840551200,21.26255126953125,-2.6847469806671143,9.329615592956543,-0.12681959569454193
1772727789857896700,21.279896728515624,-2.6967110633850098,9.346364974975586,-0.07657032459974289
1772727789875242200,21.2972421875,-2.7086751461029053,9.34157943725586,-0.035892341285943985
1772727789892588000,21.314588134765625,-2.7086751461029053,9.322437286376953,-0.064606212079525
1772727789909933600,21.33193359375,-2.7565317153930664,9.394221305847168,-0.10049854964017868
1772727789927279400,21.349279296875,-2.7326035499572754,9.403793334960938,-0.1339980661869049
1772727789944625000,21.366625,-2.715853691101074,9.360722541809082,-0.08135596662759781
1772727789961970700,21.383970703125,-2.7038896083831787,9.343972206115723,-0.031106693670153618
1772727789979316200,21.401316162109374,-2.7014968395233154,9.329615592956543,0.004785645287483931
1772727789996661800,21.418661865234377,-2.713460922241211,9.308079719543457,-0.007178467698395252
1772727790014007600,21.436007568359376,-2.6967110633850098,9.343972206115723,-0.03349951654672623
1772727790031353000,21.45335302734375,-2.7254250049591064,9.382257461547852,-0.059820566326379776
1772727790048699000,21.470698974609373,-2.723032236099243,9.399007797241211,-0.10049854964017868
1772727790066044400,21.48804443359375,-2.699103832244873,9.365508079528809,-0.10289137065410614
1772727790083390000,21.505389892578126,-2.7326035499572754,9.312865257263184,-0.09092725813388824
1772727790100735700,21.52273583984375,-2.7397818565368652,9.312865257263184,-0.04785645380616188
1772727790118081300,21.540081298828124,-2.7110681533813477,9.32722282409668,-0.02392822690308094
1772727790135427000,21.557427001953126,-2.720639228820801,9.34875774383545,-0.031106693670153618
1772727790152772600,21.574772705078125,-2.7038896083831787,9.355937004089355,-0.062213387340307236
1772727790170118100,21.5921181640625,-2.723032236099243,9.34157943725586,-0.08135596662759781
1772727790187464000,21.6094638671875,-2.746960401535034,9.305686950683594,-0.11246266216039658
1772727790204809500,21.6268095703125,-2.7038896083831787,9.300901412963867,-0.13160525262355804
1772727790222155300,21.6441552734375,-2.730210542678833,9.31047248840332,-0.064606212079525
1772727790239500800,21.661500732421874,-2.713460922241211,9.34157943725586,0.007178467698395252
1772727790256846600,21.6788466796875,-2.7254250049591064,9.33440113067627,-0.02871387079358101
1772727790274192100,21.696192138671876,-2.7517459392547607,9.315258979797363,-0.09571290761232376
1772727790291537700,21.71353759765625,-2.713460922241211,9.31047248840332,-0.0933200865983963
1772727790308883500,21.730883544921873,-2.723032236099243,9.308079719543457,-0.062213387340307236
1772727790326229000,21.74822900390625,-2.723032236099243,9.332008361816406,-0.01196411345154047
1772727790343574800,21.76557470703125,-2.713460922241211,9.33440113067627,-0.009571290574967861
1772727790360920300,21.78292041015625,-2.7254250049591064,9.332008361816406,-0.040677983313798904
1772727790378266000,21.80026611328125,-2.7254250049591064,9.324830055236816,-0.064606212079525
1772727790395611600,21.817611572265626,-2.7254250049591064,9.32004451751709,-0.02632104977965355
1772727790412957200,21.834957275390625,-2.7086751461029053,9.339186668395996,-0.007178467698395252
1772727790430303000,21.852302978515624,-2.723032236099243,9.358329772949219,0.004785645287483931
1772727790447648500,21.8696484375,-2.715853691101074,9.343972206115723,0.014356935396790504
1772727790464994000,21.886994140625,-2.7254250049591064,9.329615592956543,-0.02153540402650833
1772727790482339800,21.90433984375,-2.7397818565368652,9.329615592956543,-0.007178467698395252
1772727790499685400,21.921685302734375,-2.7421748638153076,9.346364974975586,0.007178467698395252
1772727790517031200,21.93903125,-2.720639228820801,9.367900848388672,-0.0023928226437419653
1772727790534376700,21.956376708984376,-2.720639228820801,9.389435768127441,-0.031106693670153618
1772727790551722500,21.973722412109375,-2.7086751461029053,9.339186668395996,-0.004785645287483931
