time,seconds_elapsed,z,y,x
1772727768661609500,0.083609375,6.427418231964111,7.376636505126953,0.6662719249725342
1772727768671609600,0.093609619140625,6.119126796722412,7.610816478729248,0.8956241011619568
1772727768681609500,0.103609375,5.860987663269043,7.790060997009277,1.0649667978286743
1772727768691609600,0.113609619140625,5.688122749328613,7.908112525939941,1.1302244663238525
1772727768701609500,0.123609375,5.702964782714844,7.900063991546631,1.1115612983703613
1772727768711609600,0.133609619140625,5.9030961990356445,7.763648986816406,1.0244930982589722
1772727768721609500,0.143609375,6.135931968688965,7.593179702758789,0.929699718952179
1772727768731609600,0.153609619140625,6.312060356140137,7.4558634757995605,0.8592926263809204
1772727768741609500,0.163609375,6.427131652832031,7.363443374633789,0.8012977838516235
1772727768751609600,0.173609619140625,6.505781173706055,7.298673629760742,0.7579931616783142
1772727768761609500,0.183609375,6.55544900894165,7.258151054382324,0.7181261777877808
1772727768771609600,0.193609619140625,6.592153072357178,7.231029510498047,0.6527796983718872
1772727768781609500,0.203609375,6.648871898651123,7.186707019805908,0.5604715347290039
1772727768791609600,0.213609619140625,6.709187984466553,7.135929107666016,0.4854918122291565
1772727768801609500,0.223609375,6.742093086242676,7.10636568069458,0.46275004744529724
1772727768811609600,0.233609619140625,6.750391960144043,7.094449043273926,0.5209500789642334
1772727768821609500,0.243609375,6.7378458976745605,7.093106269836426,0.6779733896255493
1772727768831609600,0.253609619140625,6.700252532958984,7.104636192321777,0.8950707316398621
1772727768841609500,0.263609375,6.637235641479492,7.133382797241211,1.1101043224334717
1772727768851609600,0.273609619140625,6.5600457191467285,7.17078161239624,1.309995174407959
1772727768861609500,0.283609375,6.472179889678955,7.210951328277588,1.5111114978790283
1772727768871609600,0.293609619140625,6.372259616851807,7.249404430389404,1.735173225402832
1772727768881609500,0.303609375,6.250133037567139,7.287423133850098,1.9999195337295532
1772727768891609600,0.313609619140625,6.0752034187316895,7.34048318862915,2.31939435005188
1772727768901609500,0.323609375,5.83335018157959,7.415167331695557,2.6753907203674316
1772727768911609600,0.333609619140625,5.543755054473877,7.51446533203125,2.9949920177459717
1772727768921609500,0.343609375,5.236352443695068,7.6272053718566895,3.2521891593933105
1772727768931609600,0.353609619140625,4.953276634216309,7.745267391204834,3.4126646518707275
1772727768941609500,0.363609375,4.703336715698242,7.871310710906982,3.4772801399230957
1772727768951609600,0.373609619140625,4.493951320648193,8.007004737854004,3.4442226886749268
1772727768961609500,0.383609375,4.327310085296631,8.152379035949707,3.314135789871216
1772727768971609600,0.393609619140625,4.198711395263672,8.30508041381836,3.093031883239746
1772727768981609500,0.403609375,4.103031158447266,8.462943077087402,2.7774319648742676
1772727768991609600,0.413609619140625,4.031224250793457,8.624250411987305,2.3541271686553955
1772727769001609500,0.423609375,3.9713737964630127,8.783286094665527,1.8034534454345703
1772727769011609600,0.433609619140625,3.9120757579803467,8.920866966247559,1.1332190036773682
1772727769021609500,0.443609375,3.8229267597198486,9.021744728088379,0.4046556055545807
1772727769031609600,0.453609619140625,3.6741175651550293,9.085686683654785,-0.34862062335014343
1772727769041609500,0.463609375,3.4492273330688477,9.119804382324219,-1.049953579902649
1772727769051609600,0.473609619140625,3.121669292449951,9.153863906860352,-1.6224522590637207
1772727769061609500,0.483609375,2.7042386531829834,9.224882125854492,-1.9388214349746704
1772727769071609600,0.493609619140625,2.3456010818481445,9.327484130859375,-1.9148361682891846
1772727769081609500,0.503609375,2.034104824066162,9.43673324584961,-1.726515531539917
1772727769091609600,0.513609619140625,1.7159959077835083,9.531745910644531,-1.5399898290634155
1772727769101609500,0.523609375,1.3970180749893188,9.604016304016113,-1.4076918363571167
1772727769111609600,0.533609619140625,1.0876421928405762,9.654114723205566,-1.336221694946289
1772727769121609500,0.543609375,0.7933446764945984,9.686114311218262,-1.3115497827529907
1772727769131609600,0.553609619140625,0.511457622051239,9.706764221191406,-1.2990518808364868
1772727769141609500,0.563609375,0.2298174500465393,9.717239379882812,-1.3010938167572021
1772727769151609600,0.573609619140625,-0.01753840036690235,9.720213890075684,-1.2990554571151733
1772727769161609500,0.583609375,-0.23365728557109833,9.717937469482422,-1.295174241065979
1772727769171609600,0.593609619140625,-0.4468068480491638,9.71200180053711,-1.2836586236953735
1772727769181609500,0.603609375,-0.6910313367843628,9.703801155090332,-1.2365648746490479
1772727769191609600,0.613609619140625,-0.9720717668533325,9.691303253173828,-1.141972303390503
1772727769201609500,0.623609375,-1.2823926210403442,9.67093563079834,-0.9994359612464905
1772727769211609600,0.633609619140625,-1.625441551208496,9.636052131652832,-0.8214797377586365
1772727769221609500,0.643609375,-2.005378484725952,9.577893257141113,-0.6424954533576965
1772727769231609600,0.653609619140625,-2.437490701675415,9.486740112304688,-0.48039647936820984
1772727769241609500,0.663609375,-2.949563980102539,9.346633911132812,-0.33304351568222046
1772727769251609600,0.673609619140625,-3.5325701236724854,9.146509170532227,-0.18090206384658813
1772727769261609500,0.683609375,-4.109935760498047,8.903814315795898,-0.030105343088507652
1772727769271609600,0.693609619140625,-4.6416239738464355,8.637666702270508,0.12812413275241852
1772727769281609500,0.703609375,-5.096494197845459,8.37275505065918,0.3051455616950989
1772727769291609600,0.713609619140625,-5.45037841796875,8.137397766113281,0.4965135157108307
1772727769301609500,0.723609375,-5.705336093902588,7.944020748138428,0.7155890464782715
1772727769311609600,0.733609619140625,-5.883849620819092,7.785051345825195,0.9714221954345703
1772727769321609500,0.743609375,-5.993680477142334,7.688431262969971,1.0649865865707397
1772727769331609600,0.753609619140625,-5.882469177246094,7.774735450744629,1.0585126876831055
1772727769341609500,0.763609375,-5.640552043914795,7.949821472167969,1.0746631622314453
1772727769351609600,0.773609619140625,-5.354612350463867,8.145506858825684,1.0720280408859253
1772727769361609500,0.783609375,-5.055452346801758,8.336181640625,1.058703064918518
1772727769371609600,0.793609619140625,-4.7527923583984375,8.514830589294434,1.0387530326843262
1772727769381609500,0.803609375,-4.466944217681885,8.672731399536133,1.0002741813659668
1772727769391609600,0.813609619140625,-4.222090721130371,8.79476547241211,0.9982154369354248
1772727769401609500,0.823609375,-4.038261890411377,8.877120971679688,1.029350996017456
1772727769411609600,0.833609619140625,-3.9300591945648193,8.927614212036133,1.0112972259521484
1772727769421609500,0.843609375,-3.8961684703826904,8.951743125915527,0.9255055785179138
1772727769431609600,0.853609619140625,-3.913433074951172,8.956269264221191,0.8004153370857239
1772727769441609500,0.863609375,-3.9480695724487305,8.952823638916016,0.6558060646057129
1772727769451609600,0.873609619140625,-3.9826338291168213,8.94787311553955,0.49454087018966675
1772727769461609500,0.883609375,-4.017950534820557,8.940181732177734,0.3156106173992157
1772727769471609600,0.893609619140625,-4.049253940582275,8.930546760559082,0.13880935311317444
1772727769481609500,0.903609375,-4.08890438079834,8.913507461547852,-0.02512572519481182
1772727769491609600,0.913609619140625,-4.149652481079102,8.883346557617188,-0.19213853776454926
1772727769501609500,0.923609375,-4.230052471160889,8.841426849365234,-0.3259159028530121
1772727769511609600,0.933609619140625,-4.315790176391602,8.79753303527832,-0.3843739628791809
1772727769521609500,0.943609375,-4.380600929260254,8.765459060668945,-0.3840014636516571
1772727769531609600,0.953609619140625,-4.401971817016602,8.747965812683105,-0.5158736109733582
1772727769541609500,0.963609375,-4.4525909423828125,8.719060897827148,-0.5681719779968262
1772727769551609600,0.973609619140625,-4.506351947784424,8.692612648010254,-0.5492451786994934
1772727769561609500,0.983609375,-4.525432109832764,8.684467315673828,-0.5204733610153198
1772727769571609600,0.993609619140625,-4.507530689239502,8.69542121887207,-0.4921474754810333
1772727769581609500,1.003609375,-4.46383810043335,8.720259666442871,-0.44902610778808594
1772727769591609600,1.013609619140625,-4.378247261047363,8.767711639404297,-0.3585967421531677
1772727769601609500,1.023609375,-4.25087833404541,8.833316802978516,-0.2700698673725128
1772727769611609600,1.033609619140625,-4.096907138824463,8.9070463180542,-0.22421208024024963
1772727769621609500,1.043609375,-3.8956124782562256,8.998248100280762,-0.16163884103298187
1772727769631609600,1.053609619140625,-3.6180419921875,9.114543914794922,-0.07249709218740463
1772727769641609500,1.063609375,-3.2487354278564453,9.252837181091309,0.0332607701420784
1772727769651609600,1.073609619140625,-2.825007915496826,9.389604568481445,0.15823647379875183
1772727769661609500,1.083609375,-2.4310810565948486,9.498919486999512,0.1753430813550949
1772727769671609600,1.093609619140625,-2.1495168209075928,9.567665100097656,0.09868971258401871
1772727769681609500,1.103609375,-1.9922775030136108,9.602121353149414,0.021878039464354515
1772727769691609600,1.113609619140625,-1.9300743341445923,9.614770889282227,-0.03719593584537506
1772727769701609500,1.123609375,-1.9709737300872803,9.60625171661377,-0.07463390380144119
1772727769711609600,1.133609619140625,-2.071295976638794,9.585248947143555,-0.055880334228277206
1772727769721609500,1.143609375,-2.151221752166748,9.567790985107422,-0.00486514437943697
1772727769731609600,1.153609619140625,-2.206580877304077,9.555060386657715,0.04700238257646561
1772727769741609500,1.163609375,-2.2521417140960693,9.544103622436523,0.09134631603956223
1772727769751609600,1.173609619140625,-2.29172682762146,9.53433609008789,0.12165623158216476
1772727769761609500,1.183609375,-2.3260014057159424,9.525838851928711,0.13599586486816406
1772727769771609600,1.193609619140625,-2.3505706787109375,9.519706726074219,0.14279820024967194
1772727769781609500,1.203609375,-2.362705707550049,9.516646385192871,0.1464861035346985
1772727769791609600,1.213609619140625,-2.3626649379730225,9.516629219055176,0.14822699129581451
1772727769801609500,1.223609375,-2.353182792663574,9.518951416015625,0.14997513592243195
1772727769811609600,1.233609619140625,-2.339766025543213,9.522271156311035,0.1491595357656479
1772727769821609500,1.243609375,-2.3264665603637695,9.525547981262207,0.14788471162319183
1772727769831609600,1.253609619140625,-2.315093517303467,9.528350830078125,0.1458398699760437
1772727769841609500,1.263609375,-2.3038744926452637,9.53111457824707,0.14285840094089508
1772727769851609600,1.273609619140625,-2.289820432662964,9.534589767456055,0.13678273558616638
1772727769861609500,1.283609375,-2.2747642993927,9.53831958770752,0.12766779959201813
1772727769871609600,1.293609619140625,-2.2634153366088867,9.541144371032715,0.11793798208236694
1772727769881609500,1.303609375,-2.261038064956665,9.541837692260742,0.10683895647525787
1772727769891609600,1.313609619140625,-2.2605538368225098,9.54207992553711,0.09481719136238098
1772727769901609500,1.323609375,-2.258939027786255,9.542530059814453,0.08781581372022629
1772727769911609600,1.333609619140625,-2.2544972896575928,9.543587684631348,0.08693905919790268
1772727769921609500,1.343609375,-2.248619794845581,9.544976234436035,0.08674655109643936
1772727769931609600,1.353609619140625,-2.2441353797912598,9.546030044555664,0.08699987083673477
1772727769941609500,1.363609375,-2.2414584159851074,9.546652793884277,0.08757174015045166
1772727769951609600,1.373609619140625,-2.239067316055298,9.547205924987793,0.08849962055683136
1772727769961609500,1.383609375,-2.2359325885772705,9.547927856445312,0.08981022238731384
1772727769971609600,1.393609619140625,-2.232182502746582,9.548792839050293,0.09109615534543991
1772727769981609500,1.403609375,-2.228070020675659,9.549741744995117,0.09230300039052963
1772727769991609600,1.413609619140625,-2.2247095108032227,9.550515174865723,0.0933372750878334
1772727770001609500,1.423609375,-2.2215328216552734,9.551252365112305,0.0936187282204628
1772727770011609600,1.433609619140625,-2.2174246311187744,9.552200317382812,0.09425775706768036
1772727770021609500,1.443609375,-2.212019205093384,9.55344295501709,0.09534900635480881
1772727770031609600,1.453609619140625,-2.2059590816497803,9.554835319519043,0.096281997859478
1772727770041609500,1.463609375,-2.2001240253448486,9.556184768676758,0.0958387553691864
1772727770051609600,1.473609619140625,-2.195624351501465,9.557228088378906,0.09490380436182022
1772727770061609500,1.483609375,-2.1924655437469482,9.557969093322754,0.09329793602228165
1772727770071609600,1.493609619140625,-2.1889617443084717,9.558782577514648,0.09223176538944244
1772727770081609500,1.503609375,-2.1836559772491455,9.560007095336914,0.09113658219575882
1772727770091609600,1.513609619140625,-2.179018020629883,9.561080932617188,0.08933598548173904
1772727770101609500,1.523609375,-2.176722288131714,9.561624526977539,0.08720497786998749
1772727770111609600,1.533609619140625,-2.1764073371887207,9.56171989440918,0.08454924076795578
1772727770121609500,1.543609375,-2.1761410236358643,9.561799049377441,0.0825393944978714
1772727770131609600,1.553609619140625,-2.1744844913482666,9.562183380126953,0.08144029974937439
1772727770141609500,1.563609375,-2.171552896499634,9.562850952148438,0.08148042857646942
1772727770151609600,1.573609619140625,-2.169203281402588,9.56338119506836,0.08176911622285843
1772727770161609500,1.583609375,-2.168024778366089,9.563641548156738,0.082570880651474
1772727770171609600,1.593609619140625,-2.1671431064605713,9.563834190368652,0.08340240269899368
1772727770181609500,1.603609375,-2.166060209274292,9.56407356262207,0.08402328193187714
1772727770191609600,1.613609619140625,-2.165515661239624,9.564194679260254,0.08428860455751419
1772727770201609500,1.623609375,-2.1656923294067383,9.564156532287598,0.0841103345155716
1772727770211609600,1.633609619140625,-2.165710210800171,9.564156532287598,0.08367123454809189
1772727770221609500,1.643609375,-2.165170431137085,9.564284324645996,0.08302205801010132
1772727770231609600,1.653609619140625,-2.1644091606140137,9.564468383789062,0.08160708844661713
1772727770241609500,1.663609375,-2.1638550758361816,9.564608573913574,0.07987312227487564
1772727770251609600,1.673609619140625,-2.1628642082214355,9.564845085144043,0.07846300303936005
1772727770261609500,1.683609375,-2.1631319522857666,9.564794540405273,0.0771937221288681
1772727770271609600,1.693609619140625,-2.1635005474090576,9.564715385437012,0.07654287666082382
1772727770281609500,1.703609375,-2.164555549621582,9.564474105834961,0.076901875436306
1772727770291609600,1.713609619140625,-2.165815591812134,9.564180374145508,0.07789766043424606
1772727770301609500,1.723609375,-2.1660547256469727,9.564107894897461,0.08015777915716171
1772727770311609600,1.733609619140625,-2.1649668216705322,9.564332962036133,0.08275000751018524
1772727770321609500,1.743609375,-2.164557695388794,9.564397811889648,0.08582085371017456
1772727770331609600,1.753609619140625,-2.165076971054077,9.564249038696289,0.08915683627128601
1772727770341609500,1.763609375,-2.165052890777588,9.564226150512695,0.09222924709320068
1772727770351609600,1.773609619140625,-2.16363263130188,9.564529418945312,0.094080850481987
1772727770361609500,1.783609375,-2.1634957790374756,9.564560890197754,0.09405316412448883
1772727770371609600,1.793609619140625,-2.163891315460205,9.56449031829834,0.09209319949150085
1772727770381609500,1.803609375,-2.1637392044067383,9.564550399780273,0.0894441157579422
1772727770391609600,1.813609619140625,-2.1640207767486572,9.564508438110352,0.08711785823106766
1772727770401609500,1.823609375,-2.1647534370422363,9.564353942871094,0.08585257828235626
1772727770411609600,1.833609619140625,-2.1651010513305664,9.564281463623047,0.08508845418691635
1772727770421609500,1.843609375,-2.1653666496276855,9.564225196838379,0.08465498685836792
1772727770431609600,1.853609619140625,-2.164640426635742,9.564386367797852,0.08516152203083038
1772727770441609500,1.863609375,-2.1631574630737305,9.564698219299316,0.08775526285171509
1772727770451609600,1.873609619140625,-2.1612939834594727,9.565091133117676,0.09071873873472214
1772727770461609500,1.883609375,-2.161275863647461,9.565092086791992,0.09105327725410461
1772727770471609600,1.893609619140625,-2.1615726947784424,9.565021514892578,0.09141047298908234
1772727770481609500,1.903609375,-2.1621336936950684,9.564889907836914,0.09190213680267334
1772727770491609600,1.913609619140625,-2.16156005859375,9.565004348754883,0.09352438896894455
1772727770501609500,1.923609375,-2.1601953506469727,9.565301895141602,0.0945274829864502
1772727770511609600,1.933609619140625,-2.1577775478363037,9.565842628479004,0.09502286463975906
1772727770521609500,1.943609375,-2.1555967330932617,9.566336631774902,0.0948329046368599
1772727770531609600,1.953609619140625,-2.1537861824035645,9.566750526428223,0.09413513541221619
1772727770541609500,1.963609375,-2.1520674228668213,9.567151069641113,0.09280464798212051
1772727770551609600,1.973609619140625,-2.150611400604248,9.56749439239502,0.09111902117729187
1772727770561609500,1.983609375,-2.1498665809631348,9.567676544189453,0.08959633857011795
1772727770571609600,1.993609619140625,-2.1486032009124756,9.567977905273438,0.08771435171365738
1772727770581609500,2.003609375,-2.146505832672119,9.568462371826172,0.08616182208061218
1772727770591609600,2.013609619140625,-2.142772674560547,9.56932258605957,0.08351465314626694
1772727770601609500,2.023609375,-2.138362407684326,9.57033920288086,0.08007347583770752
1772727770611609600,2.033609619140625,-2.136850357055664,9.570719718933105,0.07471948117017746
1772727770621609500,2.043609375,-2.1299030780792236,9.572332382202148,0.06589661538600922
1772727770631609600,2.053609619140625,-2.120328664779663,9.57449722290039,0.05998609587550163
1772727770641609500,2.063609375,-2.1175427436828613,9.575143814086914,0.05497535690665245
1772727770651609600,2.073609619140625,-2.1204092502593994,9.57453441619873,0.050291042774915695
1772727770661609500,2.083609375,-2.1210777759552,9.574405670166016,0.04655921086668968
1772727770671609600,2.093609619140625,-2.1172215938568115,9.57526969909668,0.044287022203207016
1772727770681609500,2.103609375,-2.114370346069336,9.575902938842773,0.04382378235459328
1772727770691609600,2.113609619140625,-2.1152379512786865,9.575705528259277,0.04482411593198776
1772727770701609500,2.123609375,-2.1173672676086426,9.575222969055176,0.047398827970027924
1772727770711609600,2.133609619140625,-2.1170847415924072,9.575270652770996,0.05017707869410515
1772727770721609500,2.143609375,-2.114912271499634,9.575740814208984,0.05202215537428856
1772727770731609600,2.153609619140625,-2.1130547523498535,9.576144218444824,0.05336400866508484
1772727770741609500,2.163609375,-2.1132993698120117,9.576087951660156,0.05364895239472389
1772727770751609600,2.173609619140625,-2.1140029430389404,9.575934410095215,0.053584106266498566
1772727770761609500,2.183609375,-2.1125900745391846,9.576252937316895,0.052433665841817856
1772727770771609600,2.193609619140625,-2.11031174659729,9.576772689819336,0.04907338693737984
1772727770781609500,2.203609375,-2.1092851161956787,9.577016830444336,0.045230261981487274
1772727770791609600,2.213609619140625,-2.109306573867798,9.577024459838867,0.042686577886343
1772727770801609500,2.223609375,-2.109246015548706,9.577040672302246,0.041983626782894135
1772727770811609600,2.233609619140625,-2.108696937561035,9.57715892791748,0.042591776698827744
1772727770821609500,2.243609375,-2.108259677886963,9.577247619628906,0.04409025236964226
1772727770831609600,2.253609619140625,-2.10803484916687,9.577291488647461,0.04551529139280319
1772727770841609500,2.263609375,-2.107377052307129,9.577430725097656,0.0465080663561821
1772727770851609600,2.273609619140625,-2.1064612865448,9.577628135681152,0.04732803255319595
1772727770861609500,2.283609375,-2.1060421466827393,9.577715873718262,0.04823163524270058
1772727770871609600,2.293609619140625,-2.106444835662842,9.577624320983887,0.048771463334560394
1772727770881609500,2.303609375,-2.106659412384033,9.577577590942383,0.04872406646609306
1772727770891609600,2.313609619140625,-2.1061174869537354,9.577702522277832,0.04764671251177788
1772727770901609500,2.323609375,-2.1048471927642822,9.577990531921387,0.045876942574977875
1772727770911609600,2.333609619140625,-2.1034300327301025,9.578306198120117,0.04478362202644348
1772727770921609500,2.343609375,-2.102146625518799,9.578588485717773,0.044893812388181686
1772727770931609600,2.353609619140625,-2.1005396842956543,9.578940391540527,0.044980738312006
1772727770941609500,2.363609375,-2.098179578781128,9.579460144042969,0.04449138045310974
1772727770951609600,2.373609619140625,-2.0953619480133057,9.580076217651367,0.04442691057920456
1772727770961609500,2.383609375,-2.0931456089019775,9.580557823181152,0.045134980231523514
1772727770971609600,2.393609619140625,-2.09246826171875,9.58070182800293,0.045986294746398926
1772727770981609500,2.403609375,-2.0923635959625244,9.580723762512207,0.046040184795856476
1772727770991609600,2.413609619140625,-2.0909276008605957,9.581042289733887,0.045101065188646317
1772727771001609500,2.423609375,-2.088287353515625,9.581622123718262,0.04416211321949959
1772727771011609600,2.433609619140625,-2.085364580154419,9.58226490020752,0.043012045323848724
1772727771021609500,2.443609375,-2.082975149154663,9.58278751373291,0.04218857362866402
1772727771031609600,2.453609619140625,-2.080594539642334,9.583309173583984,0.04115854948759079
1772727771041609500,2.463609375,-2.077759265899658,9.583931922912598,0.03943244740366936
1772727771051609600,2.473609619140625,-2.074828624725342,9.584575653076172,0.03729657083749771
1772727771061609500,2.483609375,-2.073758125305176,9.584809303283691,0.03677213564515114
1772727771071609600,2.493609619140625,-2.07234787940979,9.585105895996094,0.038809191435575485
1772727771081609500,2.503609375,-2.0699968338012695,9.585601806640625,0.04187118634581566
1772727771091609600,2.513609619140625,-2.0679759979248047,9.58602523803711,0.04436136409640312
1772727771101609500,2.523609375,-2.0662600994110107,9.586394309997559,0.04469595104455948
1772727771111609600,2.533609619140625,-2.0635416507720947,9.586979866027832,0.04472026973962784
1772727771121609500,2.543609375,-2.0604360103607178,9.587648391723633,0.04485754296183586
1772727771131609600,2.553609619140625,-2.0575735569000244,9.588260650634766,0.0450102873146534
1772727771141609500,2.563609375,-2.0550432205200195,9.588805198669434,0.0446929931640625
1772727771151609600,2.573609619140625,-2.052701950073242,9.589309692382812,0.044098373502492905
1772727771161609500,2.583609375,-2.050236940383911,9.589844703674316,0.042334381490945816
1772727771171609600,2.593609619140625,-2.047680139541626,9.590400695800781,0.04000719264149666
1772727771181609500,2.603609375,-2.044945478439331,9.59099006652832,0.03845689818263054
1772727771191609600,2.613609619140625,-2.042056083679199,9.591608047485352,0.03801100328564644
1772727771201609500,2.623609375,-2.0389351844787598,9.592268943786621,0.038782671093940735
1772727771211609600,2.633609619140625,-2.0362513065338135,9.592833518981934,0.04018136486411095
1772727771221609500,2.643609375,-2.0336360931396484,9.5933837890625,0.04139053821563721
1772727771231609600,2.653609619140625,-2.0317206382751465,9.593785285949707,0.042344603687524796
1772727771241609500,2.663609375,-2.0291357040405273,9.594328880310059,0.04293688386678696
1772727771251609600,2.673609619140625,-2.02666974067688,9.594846725463867,0.04374891519546509
1772727771261609500,2.683609375,-2.023907423019409,9.595430374145508,0.04367151856422424
1772727771271609600,2.693609619140625,-2.0213277339935303,9.59598159790039,0.04186268523335457
1772727771281609500,2.703609375,-2.018568277359009,9.596576690673828,0.038569603115320206
1772727771291609600,2.713609619140625,-2.0161375999450684,9.597102165222168,0.034900061786174774
1772727771301609500,2.723609375,-2.0139284133911133,9.597578048706055,0.03141382336616516
1772727771311609600,2.733609619140625,-2.012053966522217,9.597979545593262,0.02842603623867035
1772727771321609500,2.743609375,-2.010061264038086,9.598403930664062,0.026119982823729515
1772727771331609600,2.753609619140625,-2.0075457096099854,9.598934173583984,0.024452026933431625
1772727771341609500,2.763609375,-2.005631923675537,9.599335670471191,0.02380615845322609
1772727771351609600,2.773609619140625,-2.0040955543518066,9.59965705871582,0.023898284882307053
1772727771361609500,2.783609375,-2.0032715797424316,9.59982681274414,0.024865515530109406
1772727771371609600,2.793609619140625,-2.0035200119018555,9.599766731262207,0.027797533199191093
1772727771381609500,2.803609375,-2.0037128925323486,9.599715232849121,0.031282585114240646
1772727771391609600,2.813609619140625,-2.0037803649902344,9.59969425201416,0.033513497561216354
1772727771401609500,2.823609375,-2.004009246826172,9.599644660949707,0.03403420373797417
1772727771411609600,2.833609619140625,-2.0045793056488037,9.599527359008789,0.033550333231687546
1772727771421609500,2.843609375,-2.0051450729370117,9.599411964416504,0.03277461975812912
1772727771431609600,2.853609619140625,-2.005603075027466,9.599323272705078,0.030624642968177795
1772727771441609500,2.863609375,-2.005525827407837,9.599349021911621,0.027513135224580765
1772727771451609600,2.873609619140625,-2.005496025085449,9.599363327026367,0.024360109120607376
1772727771461609500,2.883609375,-2.005934953689575,9.59927749633789,0.02208600379526615
1772727771471609600,2.893609619140625,-2.006775140762329,9.599103927612305,0.02083675004541874
1772727771481609500,2.903609375,-2.007798910140991,9.59889030456543,0.020736834034323692
1772727771491609600,2.913609619140625,-2.0072693824768066,9.598999977111816,0.02129269577562809
1772727771501609500,2.923609375,-2.0060875415802,9.599246978759766,0.021822253242135048
1772727771511609600,2.933609619140625,-2.0051064491271973,9.599448204040527,0.02285342663526535
1772727771521609500,2.943609375,-2.0040283203125,9.599671363830566,0.023738520219922066
1772727771531609600,2.953609619140625,-2.002504348754883,9.599989891052246,0.02339235506951809
1772727771541609500,2.963609375,-2.0012588500976562,9.600255012512207,0.021475370973348618
1772727771551609600,2.973609619140625,-2.0019876956939697,9.600107192993164,0.01927219144999981
1772727771561609500,2.983609375,-2.0033040046691895,9.599833488464355,0.01863795705139637
1772727771571609600,2.993609619140625,-2.0037035942077637,9.599751472473145,0.01857796683907509
1772727771581609500,3.003609375,-2.003441333770752,9.599806785583496,0.018200496211647987
1772727771591609600,3.013609619140625,-2.0033774375915527,9.599821090698242,0.017915476113557816
1772727771601609500,3.023609375,-2.0030696392059326,9.599885940551758,0.017573628574609756
1772727771611609600,3.033609619140625,-2.0029544830322266,9.599909782409668,0.017403174191713333
1772727771621609500,3.043609375,-2.003028154373169,9.599894523620605,0.01698063127696514
1772727771631609600,3.053609619140625,-2.0026698112487793,9.599970817565918,0.016504129394888878
1772727771641609500,3.063609375,-2.0021064281463623,9.600086212158203,0.016854552552103996
1772727771651609600,3.073609619140625,-2.0017855167388916,9.600151062011719,0.018262727186083794
1772727771661609500,3.083609375,-2.0015323162078857,9.600201606750488,0.01945178210735321
1772727771671609600,3.093609619140625,-2.0008530616760254,9.600341796875,0.019986871629953384
1772727771681609500,3.103609375,-1.9998083114624023,9.600560188293457,0.020116537809371948
1772727771691609600,3.113609619140625,-1.9980034828186035,9.600935935974121,0.019921444356441498
1772727771701609500,3.123609375,-1.996530294418335,9.60124397277832,0.018990224227309227
1772727771711609600,3.133609619140625,-1.9962427616119385,9.60130500793457,0.01844833418726921
1772727771721609500,3.143609375,-1.9954246282577515,9.60147762298584,0.017214743420481682
1772727771731609600,3.153609619140625,-1.994380235671997,9.601699829101562,0.01446214597672224
1772727771741609500,3.163609375,-1.9927570819854736,9.60204029083252,0.011944765225052834
1772727771751609600,3.173609619140625,-1.9925827980041504,9.602078437805176,0.010110532864928246
1772727771761609500,3.183609375,-1.9934135675430298,9.601905822753906,0.009571689181029797
1772727771771609600,3.193609619140625,-1.993300199508667,9.6019287109375,0.00998100358992815
1772727771781609500,3.203609375,-1.9910928010940552,9.602385520935059,0.010694309137761593
1772727771791609600,3.213609619140625,-1.98935067653656,9.60274600982666,0.01163142453879118
1772727771801609500,3.223609375,-1.9891406297683716,9.602788925170898,0.012851662933826447
1772727771811609600,3.233609619140625,-1.9900206327438354,9.602604866027832,0.0140001205727458
1772727771821609500,3.243609375,-1.9907445907592773,9.602453231811523,0.014784472063183784
1772727771831609600,3.253609619140625,-1.9911279678344727,9.602373123168945,0.01505743246525526
1772727771841609500,3.263609375,-1.9917151927947998,9.602251052856445,0.014960762113332748
1772727771851609600,3.273609619140625,-1.9923573732376099,9.602118492126465,0.015087063424289227
1772727771861609500,3.283609375,-1.992447018623352,9.602099418640137,0.015056636184453964
1772727771871609600,3.293609619140625,-1.9916051626205444,9.602275848388672,0.014481010846793652
1772727771881609500,3.303609375,-1.9898350238800049,9.602643966674805,0.013283989392220974
1772727771891609600,3.313609619140625,-1.9888192415237427,9.60285472869873,0.012957148253917694
1772727771901609500,3.323609375,-1.988732933998108,9.602872848510742,0.01305406540632248
1772727771911609600,3.333609619140625,-1.9884268045425415,9.602934837341309,0.013931621797382832
1772727771921609500,3.343609375,-1.987896203994751,9.603042602539062,0.014895522966980934
1772727771931609600,3.353609619140625,-1.9870315790176392,9.60322093963623,0.015448128804564476
1772727771941609500,3.363609375,-1.9862695932388306,9.603379249572754,0.015617837198078632
1772727771951609600,3.373609619140625,-1.9849886894226074,9.603644371032715,0.014929828234016895
1772727771961609500,3.383609375,-1.983393669128418,9.603976249694824,0.013494458980858326
1772727771971609600,3.393609619140625,-1.982011318206787,9.604264259338379,0.011877468787133694
1772727771981609500,3.403609375,-1.9820622205734253,9.604254722595215,0.010676351375877857
1772727771991609600,3.413609619140625,-1.9830753803253174,9.604045867919922,0.010703841224312782
1772727772001609500,3.423609375,-1.9840762615203857,9.603837966918945,0.011444843374192715
1772727772011609600,3.433609619140625,-1.9846569299697876,9.603716850280762,0.012640855275094509
1772727772021609500,3.443609375,-1.984355092048645,9.603776931762695,0.013670056127011776
1772727772031609600,3.453609619140625,-1.9835182428359985,9.603948593139648,0.014683913439512253
1772727772041609500,3.463609375,-1.9821734428405762,9.60422420501709,0.016048278659582138
1772727772051609600,3.473609619140625,-1.9804185628890991,9.604585647583008,0.01605333760380745
1772727772061609500,3.483609375,-1.978555679321289,9.604971885681152,0.01527339592576027
1772727772071609600,3.493609619140625,-1.9770922660827637,9.60527515411377,0.013482409529387951
1772727772081609500,3.503609375,-1.9762673377990723,9.605446815490723,0.011800970882177353
1772727772091609600,3.513609619140625,-1.9757616519927979,9.605552673339844,0.010378304868936539
1772727772101609500,3.523609375,-1.9753024578094482,9.6056489944458,0.008998741395771503
1772727772111609600,3.533609619140625,-1.9737930297851562,9.60595989227295,0.00849573127925396
1772727772121609500,3.543609375,-1.9717038869857788,9.606388092041016,0.00899777002632618
1772727772131609600,3.553609619140625,-1.9698941707611084,9.606759071350098,0.009578783065080643
1772727772141609500,3.563609375,-1.9683730602264404,9.607069969177246,0.010098209604620934
1772727772151609600,3.573609619140625,-1.9674464464187622,9.607258796691895,0.010706189088523388
1772727772161609500,3.583609375,-1.9660050868988037,9.60755443572998,0.011174164712429047
1772727772171609600,3.593609619140625,-1.965999960899353,9.607553482055664,0.01167557667940855
1772727772181609500,3.603609375,-1.9647839069366455,9.607802391052246,0.01199484895914793
1772727772191609600,3.613609619140625,-1.9629008769989014,9.608186721801758,0.012127118185162544
1772727772201609500,3.623609375,-1.9613673686981201,9.608500480651855,0.012059013359248638
1772727772211609600,3.633609619140625,-1.9596869945526123,9.608844757080078,0.010699460282921791
1772727772221609500,3.643609375,-1.9572811126708984,9.60933780670166,0.008313640020787716
1772727772231609600,3.653609619140625,-1.955008864402771,9.609801292419434,0.0057967049069702625
1772727772241609500,3.663609375,-1.9532403945922852,9.610162734985352,0.0033038940746337175
1772727772251609600,3.673609619140625,-1.9509655237197876,9.610626220703125,0.0017410374712198973
1772727772261609500,3.683609375,-1.9485403299331665,9.611117362976074,0.0012378571555018425
1772727772271609600,3.693609619140625,-1.9467357397079468,9.611483573913574,0.0019270662451162934
1772727772281609500,3.703609375,-1.9456192255020142,9.611708641052246,0.003266558051109314
1772727772291609600,3.713609619140625,-1.9430663585662842,9.612224578857422,0.004811699967831373
1772727772301609500,3.723609375,-1.9392080307006836,9.613003730773926,0.005825928878039122
1772727772311609600,3.733609619140625,-1.9357447624206543,9.613700866699219,0.006060871761292219
1772727772321609500,3.743609375,-1.9328683614730835,9.614279747009277,0.005721088498830795
1772727772331609600,3.753609619140625,-1.930908441543579,9.614673614501953,0.00515766954049468
1772727772341609500,3.763609375,-1.9288820028305054,9.615080833435059,0.00460395822301507
1772727772351609600,3.773609619140625,-1.926974892616272,9.615463256835938,0.0036361936945468187
1772727772361609500,3.783609375,-1.9249930381774902,9.615860939025879,0.0019471870036795735
1772727772371609600,3.793609619140625,-1.9231623411178589,9.616227149963379,0.00009551776020089164
1772727772381609500,3.803609375,-1.9215587377548218,9.616548538208008,-0.0015987287042662501
1772727772391609600,3.813609619140625,-1.9194412231445312,9.61697006225586,-0.0031502838246524334
1772727772401609500,3.823609375,-1.9174234867095947,9.617371559143066,-0.004475531168282032
1772727772411609600,3.833609619140625,-1.916087031364441,9.61763858795166,-0.005410913843661547
1772727772421609500,3.843609375,-1.9153637886047363,9.617782592773438,-0.005138664972037077
1772727772431609600,3.853609619140625,-1.9147062301635742,9.617914199829102,-0.003653608961030841
1772727772441609500,3.863609375,-1.9153573513031006,9.617785453796387,-0.001660677371546626
1772727772451609600,3.873609619140625,-1.9151804447174072,9.617819786071777,0.0002768317935988307
1772727772461609500,3.883609375,-1.9134809970855713,9.618158340454102,0.001717533334158361
1772727772471609600,3.893609619140625,-1.9112411737442017,9.618602752685547,0.00291566364467144
1772727772481609500,3.903609375,-1.9099688529968262,9.618855476379395,0.002851431258022785
1772727772491609600,3.913609619140625,-1.909446358680725,9.618959426879883,0.002228120807558298
1772727772501609500,3.923609375,-1.9085373878479004,9.619141578674316,0.0018414140213280916
1772727772511609600,3.933609619140625,-1.9079481363296509,9.619256973266602,0.0022465726360678673
1772727772521609500,3.943609375,-1.9074159860610962,9.619362831115723,0.0029424261301755905
1772727772531609600,3.953609619140625,-1.9072465896606445,9.619396209716797,0.0026413898449391127
1772727772541609500,3.963609375,-1.9065570831298828,9.619532585144043,0.0017860966036096215
1772727772551609600,3.973609619140625,-1.905369520187378,9.619768142700195,0.0007349536172114313
1772727772561609500,3.983609375,-1.9045507907867432,9.6199312210083,0.00009762607078300789
1772727772571609600,3.993609619140625,-1.904506802558899,9.619939804077148,-0.00016041245544329286
1772727772581609500,4.003609375,-1.9041465520858765,9.620010375976562,0.000020229677829775028
1772727772591609600,4.013609619140625,-1.9036047458648682,9.620119094848633,0.0008750896668061614
1772727772601609500,4.023609375,-1.9033468961715698,9.620169639587402,0.001163411303423345
1772727772611609600,4.033609619140625,-1.9032607078552246,9.620185852050781,0.0005593447131104767
1772727772621609500,4.043609375,-1.9032522439956665,9.62018871307373,0.00003286383434897289
1772727772631609600,4.053609619140625,-1.9036955833435059,9.620100975036621,-0.00021831078629475087
1772727772641609500,4.063609375,-1.90478515625,9.619884490966797,0.0001041885043377988
1772727772651609600,4.073609619140625,-1.9065591096878052,9.619532585144043,0.001675939536653459
1772727772661609500,4.083609375,-1.9084339141845703,9.619160652160645,0.0037297431845217943
1772727772671609600,4.093609619140625,-1.909174919128418,9.619012832641602,0.00578315369784832
1772727772681609500,4.103609375,-1.908744215965271,9.619096755981445,0.0073653534054756165
1772727772691609600,4.113609619140625,-1.9087538719177246,9.619095802307129,0.008043930865824223
1772727772701609500,4.123609375,-1.9093507528305054,9.618976593017578,0.007544548716396093
1772727772711609600,4.133609619140625,-1.9104267358779907,9.61876392364502,0.0070536877028644085
1772727772721609500,4.143609375,-1.9117456674575806,9.618501663208008,0.006530465558171272
1772727772731609600,4.153609619140625,-1.9132634401321411,9.618200302124023,0.005942824762314558
1772727772741609500,4.163609375,-1.9148132801055908,9.617891311645508,0.006031785625964403
1772727772751609600,4.173609619140625,-1.9151607751846313,9.617822647094727,0.006503096781671047
1772727772761609500,4.183609375,-1.9134936332702637,9.618154525756836,0.00610631937161088
1772727772771609600,4.193609619140625,-1.911826252937317,9.618486404418945,0.004650092218071222
1772727772781609500,4.203609375,-1.9117369651794434,9.618504524230957,0.003501648548990488
1772727772791609600,4.213609619140625,-1.912100911140442,9.618432998657227,0.0032637487165629864
1772727772801609500,4.223609375,-1.9121431112289429,9.618424415588379,0.0033674691803753376
1772727772811609600,4.233609619140625,-1.9128106832504272,9.618290901184082,0.004375987686216831
1772727772821609500,4.243609375,-1.9137017726898193,9.618112564086914,0.006286463234573603
1772727772831609600,4.253609619140625,-1.9142354726791382,9.618003845214844,0.009356866590678692
1772727772841609500,4.263609375,-1.9136769771575928,9.618112564086914,0.012283199466764927
1772727772851609600,4.273609619140625,-1.9121065139770508,9.618422508239746,0.013514961116015911
1772727772861609500,4.283609375,-1.9099321365356445,9.618856430053711,0.0125956442207098
1772727772871609600,4.293609619140625,-1.907657504081726,9.619309425354004,0.011095109395682812
1772727772881609500,4.303609375,-1.906202793121338,9.619598388671875,0.01003021840006113
1772727772891609600,4.313609619140625,-1.9060912132263184,9.619620323181152,0.009899510070681572
1772727772901609500,4.323609375,-1.9071497917175293,9.619409561157227,0.010847756639122963
1772727772911609600,4.333609619140625,-1.9077162742614746,9.619295120239258,0.01287286076694727
1772727772921609500,4.343609375,-1.9069980382919312,9.619433403015137,0.0156613327562809
1772727772931609600,4.353609619140625,-1.9051259756088257,9.619799613952637,0.018397463485598564
1772727772941609500,4.363609375,-1.903524398803711,9.620111465454102,0.020927749574184418
1772727772951609600,4.373609619140625,-1.9017446041107178,9.62045669555664,0.023574015125632286
1772727772961609500,4.383609375,-1.9006614685058594,9.620662689208984,0.026360077783465385
1772727772971609600,4.393609619140625,-1.900962233543396,9.620595932006836,0.02924302965402603
1772727772981609500,4.403609375,-1.9017974138259888,9.620423316955566,0.03185955807566643
1772727772991609600,4.413609619140625,-1.902295708656311,9.620319366455078,0.03351134434342384
1772727773001609500,4.423609375,-1.9020460844039917,9.620366096496582,0.03391261398792267
1772727773011609600,4.433609619140625,-1.9014499187469482,9.620484352111816,0.03400236368179321
1772727773021609500,4.443609375,-1.9004626274108887,9.62067985534668,0.033683374524116516
1772727773031609600,4.453609619140625,-1.9004391431808472,9.620686531066895,0.03329918533563614
1772727773041609500,4.463609375,-1.9008673429489136,9.620603561401367,0.03282788768410683
1772727773051609600,4.473609619140625,-1.9005563259124756,9.620665550231934,0.0325583890080452
1772727773061609500,4.483609375,-1.8998559713363647,9.620802879333496,0.03280751034617424
1772727773071609600,4.493609619140625,-1.8990620374679565,9.620957374572754,0.033590368926525116
1772727773081609500,4.503609375,-1.897504210472107,9.621261596679688,0.034619804471731186
1772727773091609600,4.513609619140625,-1.8958377838134766,9.621588706970215,0.03501732647418976
1772727773101609500,4.523609375,-1.8949748277664185,9.6217622756958,0.03425728157162666
1772727773111609600,4.533609619140625,-1.8920146226882935,9.622346878051758,0.03341319411993027
1772727773121609500,4.543609375,-1.8911488056182861,9.622516632080078,0.03327928110957146
1772727773131609600,4.553609619140625,-1.8924713134765625,9.622260093688965,0.03258603811264038
1772727773141609500,4.563609375,-1.894757866859436,9.621806144714355,0.03324205428361893
1772727773151609600,4.573609619140625,-1.8954463005065918,9.62166690826416,0.03453411906957626
1772727773161609500,4.583609375,-1.897883415222168,9.621182441711426,0.03554777055978775
1772727773171609600,4.593609619140625,-1.9038907289505005,9.619985580444336,0.038147371262311935
1772727773181609500,4.603609375,-1.9065860509872437,9.619463920593262,0.03493189439177513
1772727773191609600,4.613609619140625,-1.905516505241394,9.6196928024292,0.03013966977596283
1772727773201609500,4.623609375,-1.9096448421478271,9.618866920471191,0.0319502018392086
1772727773211609600,4.633609619140625,-1.9140352010726929,9.617980003356934,0.03635481372475624
1772727773221609500,4.643609375,-1.9135175943374634,9.618074417114258,0.03867876157164574
1772727773231609600,4.653609619140625,-1.9007502794265747,9.620600700378418,0.03977183997631073
1772727773241609500,4.663609375,-1.8856247663497925,9.623573303222656,0.04055909067392349
1772727773251609600,4.673609619140625,-1.8812835216522217,9.624418258666992,0.041659098118543625
1772727773261609500,4.683609375,-1.8878321647644043,9.623126983642578,0.04363153129816055
1772727773271609600,4.693609619140625,-1.8930656909942627,9.622098922729492,0.04352075606584549
1772727773281609500,4.703609375,-1.8875688314437866,9.623193740844727,0.040111664682626724
1772727773291609600,4.713609619140625,-1.879765510559082,9.624734878540039,0.03689556196331978
1772727773301609500,4.723609375,-1.8802342414855957,9.624642372131348,0.03683203458786011
1772727773311609600,4.733609619140625,-1.8870784044265747,9.623294830322266,0.038976963609457016
1772727773321609500,4.743609375,-1.8887709379196167,9.62295150756836,0.041733063757419586
1772727773331609600,4.753609619140625,-1.8834835290908813,9.623982429504395,0.04286084324121475
1772727773341609500,4.763609375,-1.878472924232483,9.624961853027344,0.04280153289437294
1772727773351609600,4.773609619140625,-1.8792506456375122,9.624811172485352,0.042704008519649506
1772727773361609500,4.783609375,-1.8830260038375854,9.624072074890137,0.04283525422215462
1772727773371609600,4.793609619140625,-1.8849616050720215,9.623689651489258,0.04344481974840164
1772727773381609500,4.803609375,-1.8848599195480347,9.623706817626953,0.044246453791856766
1772727773391609600,4.813609619140625,-1.8863002061843872,9.623418807983398,0.04539584368467331
1772727773401609500,4.823609375,-1.8899263143539429,9.622700691223145,0.046960778534412384
1772727773411609600,4.833609619140625,-1.8928709030151367,9.622110366821289,0.04921652004122734
1772727773421609500,4.843609375,-1.8934895992279053,9.621979713439941,0.050919171422719955
1772727773431609600,4.853609619140625,-1.8929669857025146,9.622079849243164,0.051427487283945084
1772727773441609500,4.863609375,-1.8931007385253906,9.622052192687988,0.05186304450035095
1772727773451609600,4.873609619140625,-1.893353819847107,9.621994972229004,0.05294013395905495
1772727773461609500,4.883609375,-1.8932805061340332,9.622003555297852,0.05418407917022705
1772727773471609600,4.893609619140625,-1.8928465843200684,9.622086524963379,0.054510101675987244
1772727773481609500,4.903609375,-1.8921030759811401,9.622232437133789,0.05455861613154411
1772727773491609600,4.913609619140625,-1.8905619382858276,9.622535705566406,0.05458498001098633
1772727773501609500,4.923609375,-1.8895472288131714,9.622732162475586,0.05496244132518768
1772727773511609600,4.933609619140625,-1.889922022819519,9.62265396118164,0.05577360838651657
1772727773521609500,4.943609375,-1.8912932872772217,9.622376441955566,0.05714584141969681
1772727773531609600,4.953609619140625,-1.8896348476409912,9.622698783874512,0.057806119322776794
1772727773541609500,4.963609375,-1.8880501985549927,9.623006820678711,0.058409977704286575
1772727773551609600,4.973609619140625,-1.8877581357955933,9.623064994812012,0.058134887367486954
1772727773561609500,4.983609375,-1.8875346183776855,9.623112678527832,0.05744928866624832
1772727773571609600,4.993609619140625,-1.8867350816726685,9.623275756835938,0.05634588003158569
1772727773581609500,5.003609375,-1.8859970569610596,9.623427391052246,0.05515963211655617
1772727773591609600,5.013609619140625,-1.886418104171753,9.62335205078125,0.05401730164885521
1772727773601609500,5.023609375,-1.8872339725494385,9.623194694519043,0.053429827094078064
1772727773611609600,5.033609619140625,-1.887413501739502,9.623161315917969,0.05313638597726822
1772727773621609500,5.043609375,-1.8872017860412598,9.623200416564941,0.053625334054231644
1772727773631609600,5.053609619140625,-1.8873015642166138,9.623174667358398,0.05465470626950264
1772727773641609500,5.063609375,-1.8884507417678833,9.622941017150879,0.055976759642362595
1772727773651609600,5.073609619140625,-1.8896098136901855,9.62270736694336,0.0572323314845562
1772727773661609500,5.083609375,-1.8905936479568481,9.622503280639648,0.05887092277407646
1772727773671609600,5.093609619140625,-1.891525149345398,9.622307777404785,0.060980986803770065
1772727773681609500,5.103609375,-1.893114447593689,9.621984481811523,0.0625995472073555
1772727773691609600,5.113609619140625,-1.8944209814071655,9.621722221374512,0.06337954103946686
1772727773701609500,5.123609375,-1.8955069780349731,9.621511459350586,0.06302081048488617
1772727773711609600,5.133609619140625,-1.8963667154312134,9.62135124206543,0.06143806502223015
1772727773721609500,5.143609375,-1.8976894617080688,9.621103286743164,0.05943279713392258
1772727773731609600,5.153609619140625,-1.8991578817367554,9.620823860168457,0.05790484696626663
1772727773741609500,5.163609375,-1.9008046388626099,9.620500564575195,0.057386137545108795
1772727773751609600,5.173609619140625,-1.9019103050231934,9.620282173156738,0.057356953620910645
1772727773761609500,5.183609375,-1.9025936126708984,9.620145797729492,0.0577210932970047
1772727773771609600,5.193609619140625,-1.9035718441009521,9.619946479797363,0.058731529861688614
1772727773781609500,5.203609375,-1.9047991037368774,9.619691848754883,0.060441866517066956
1772727773791609600,5.213609619140625,-1.9049532413482666,9.619649887084961,0.062295738607645035
1772727773801609500,5.223609375,-1.9047106504440308,9.619688987731934,0.06376482546329498
1772727773811609600,5.233609619140625,-1.9046616554260254,9.619685173034668,0.06572273373603821
1772727773821609500,5.243609375,-1.9049605131149292,9.619613647460938,0.06740383058786392
1772727773831609600,5.253609619140625,-1.9050054550170898,9.619596481323242,0.06860191375017166
1772727773841609500,5.263609375,-1.9047608375549316,9.619646072387695,0.06828130781650543
1772727773851609600,5.273609619140625,-1.9053629636764526,9.619538307189941,0.06680916249752045
1772727773861609500,5.283609375,-1.9066321849822998,9.61929988861084,0.06483034789562225
1772727773871609600,5.293609619140625,-1.908085823059082,9.619027137756348,0.06253360211849213
1772727773881609500,5.303609375,-1.9094334840774536,9.618769645690918,0.06099379435181618
1772727773891609600,5.313609619140625,-1.9115115404129028,9.618355751037598,0.06115228682756424
1772727773901609500,5.323609375,-1.9140357971191406,9.617846488952637,0.06241996958851814
1772727773911609600,5.333609619140625,-1.9159587621688843,9.617450714111328,0.06416958570480347
1772727773921609500,5.343609375,-1.9169625043869019,9.617236137390137,0.06631015986204147
1772727773931609600,5.353609619140625,-1.9173264503479004,9.617142677307129,0.06924273073673248
1772727773941609500,5.363609375,-1.9181058406829834,9.616960525512695,0.07295861095190048
1772727773951609600,5.373609619140625,-1.9192887544631958,9.616698265075684,0.07631805539131165
1772727773961609500,5.383609375,-1.9196585416793823,9.61661148071289,0.0780181735754013
1772727773971609600,5.393609619140625,-1.918976068496704,9.616747856140137,0.07794301211833954
1772727773981609500,5.403609375,-1.9176421165466309,9.617023468017578,0.07679995149374008
1772727773991609600,5.413609619140625,-1.9158939123153687,9.617383003234863,0.07537968456745148
1772727774001609500,5.423609375,-1.9143496751785278,9.617701530456543,0.07397349178791046
1772727774011609600,5.433609619140625,-1.914069414138794,9.617758750915527,0.07374423742294312
1772727774021609500,5.443609375,-1.9141188859939575,9.617744445800781,0.07434587925672531
1772727774031609600,5.453609619140625,-1.9138619899749756,9.617786407470703,0.0754944458603859
1772727774041609500,5.463609375,-1.913111925125122,9.617928504943848,0.07640242576599121
1772727774051609600,5.473609619140625,-1.912680745124817,9.618006706237793,0.07737894356250763
1772727774061609500,5.483609375,-1.9118398427963257,9.618171691894531,0.07768312096595764
1772727774071609600,5.493609619140625,-1.9089832305908203,9.618739128112793,0.07752108573913574
1772727774081609500,5.503609375,-1.9068735837936401,9.619157791137695,0.07755830138921738
1772727774091609600,5.513609619140625,-1.9063358306884766,9.619268417358398,0.07710913568735123
1772727774101609500,5.523609375,-1.906233310699463,9.619290351867676,0.07691138982772827
1772727774111609600,5.533609619140625,-1.9050571918487549,9.619521141052246,0.07722148299217224
1772727774121609500,5.543609375,-1.9026005268096924,9.620004653930664,0.0774492546916008
1772727774131609600,5.553609619140625,-1.9008725881576538,9.620343208312988,0.07778719067573547
1772727774141609500,5.563609375,-1.9001610279083252,9.620484352111816,0.07779805362224579
1772727774151609600,5.573609619140625,-1.8989847898483276,9.620711326599121,0.07848463207483292
1772727774161609500,5.583609375,-1.8978060483932495,9.620935440063477,0.07957085222005844
1772727774171609600,5.593609619140625,-1.8967983722686768,9.621118545532227,0.08129444718360901
1772727774181609500,5.603609375,-1.8962329626083374,9.621217727661133,0.08289986103773117
1772727774191609600,5.613609619140625,-1.8942748308181763,9.62159538269043,0.08378138393163681
1772727774201609500,5.623609375,-1.8908543586730957,9.622273445129395,0.0831448882818222
1772727774211609600,5.633609619140625,-1.8863238096237183,9.623177528381348,0.08146245777606964
1772727774221609500,5.643609375,-1.883243203163147,9.623795509338379,0.07975953072309494
1772727774231609600,5.653609619140625,-1.8813881874084473,9.624170303344727,0.0782373771071434
1772727774241609500,5.663609375,-1.8796308040618896,9.624526977539062,0.07658633589744568
1772727774251609600,5.673609619140625,-1.8779891729354858,9.624856948852539,0.0752246156334877
1772727774261609500,5.683609375,-1.8778057098388672,9.624897956848145,0.07468615472316742
1772727774271609600,5.693609619140625,-1.8777155876159668,9.624914169311523,0.07483887672424316
1772727774281609500,5.703609375,-1.8776189088821411,9.624934196472168,0.07463156431913376
1772727774291609600,5.713609619140625,-1.8766874074935913,9.625107765197754,0.07576118409633636
1772727774301609500,5.723609375,-1.876546859741211,9.625134468078613,0.07574614882469177
1772727774311609600,5.733609619140625,-1.8769621849060059,9.625056266784668,0.07542825490236282
1772727774321609500,5.743609375,-1.8758870363235474,9.625258445739746,0.07632928341627121
1772727774331609600,5.753609619140625,-1.8748847246170044,9.625441551208496,0.07783502340316772
1772727774341609500,5.763609375,-1.8761082887649536,9.625190734863281,0.0795256569981575
1772727774351609600,5.773609619140625,-1.8768893480300903,9.62502384185791,0.0812186449766159
1772727774361609500,5.783609375,-1.8761231899261475,9.625177383422852,0.08067290484905243
1772727774371609600,5.793609619140625,-1.875602126121521,9.625287055969238,0.07973670959472656
1772727774381609500,5.803609375,-1.876278281211853,9.625155448913574,0.07967104762792587
1772727774391609600,5.813609619140625,-1.8788248300552368,9.624659538269043,0.07951493561267853
1772727774401609500,5.823609375,-1.8807811737060547,9.62427806854248,0.07945451885461807
1772727774411609600,5.833609619140625,-1.8821053504943848,9.624027252197266,0.07847683876752853
1772727774421609500,5.843609375,-1.883724570274353,9.623713493347168,0.07805905491113663
1772727774431609600,5.853609619140625,-1.8859457969665527,9.623278617858887,0.07817400991916656
1772727774441609500,5.863609375,-1.8878129720687866,9.622912406921387,0.07811888307332993
1772727774451609600,5.873609619140625,-1.8891701698303223,9.62264633178711,0.07808244973421097
1772727774461609500,5.883609375,-1.8907177448272705,9.622334480285645,0.07903089374303818
1772727774471609600,5.893609619140625,-1.893108606338501,9.621854782104492,0.08027281612157822
1772727774481609500,5.903609375,-1.8957700729370117,9.621316909790039,0.08192726224660873
1772727774491609600,5.913609619140625,-1.8978804349899292,9.620885848999023,0.08359911292791367
1772727774501609500,5.923609375,-1.8991014957427979,9.620628356933594,0.08549899607896805
1772727774511609600,5.933609619140625,-1.9003664255142212,9.620357513427734,0.0878460705280304
1772727774521609500,5.943609375,-1.901939868927002,9.620036125183105,0.08903351426124573
1772727774531609600,5.953609619140625,-1.903409719467163,9.61974811553955,0.08874669671058655
1772727774541609500,5.963609375,-1.9049458503723145,9.619449615478516,0.08804178982973099
1772727774551609600,5.973609619140625,-1.906529426574707,9.61913776397705,0.08787801116704941
1772727774561609500,5.983609375,-1.9085923433303833,9.618730545043945,0.08757247775793076
1772727774571609600,5.993609619140625,-1.9106653928756714,9.618325233459473,0.08695443719625473
1772727774581609500,6.003609375,-1.9125617742538452,9.617951393127441,0.08663320541381836
1772727774591609600,6.013609619140625,-1.913601040840149,9.617741584777832,0.08692038804292679
1772727774601609500,6.023609375,-1.9145853519439697,9.617536544799805,0.08784507215023041
1772727774611609600,6.033609619140625,-1.9152352809906006,9.617400169372559,0.08871310949325562
1772727774621609500,6.043609375,-1.9163249731063843,9.617181777954102,0.08886242657899857
1772727774631609600,6.053609619140625,-1.917051911354065,9.617040634155273,0.08845805376768112
1772727774641609500,6.063609375,-1.917769432067871,9.616908073425293,0.0873577743768692
1772727774651609600,6.073609619140625,-1.9192777872085571,9.616615295410156,0.08643336594104767
1772727774661609500,6.083609375,-1.9205561876296997,9.616354942321777,0.08692735433578491
1772727774671609600,6.093609619140625,-1.9220738410949707,9.616035461425781,0.08870445191860199
1772727774681609500,6.103609375,-1.9234907627105713,9.61572551727295,0.09161582589149475
1772727774691609600,6.113609619140625,-1.9238530397415161,9.615619659423828,0.09509887546300888
1772727774701609500,6.123609375,-1.923487663269043,9.615659713745117,0.09832372516393661
1772727774711609600,6.133609619140625,-1.9237513542175293,9.615582466125488,0.10065750777721405
1772727774721609500,6.143609375,-1.9228836297988892,9.615755081176758,0.10086572170257568
1772727774731609600,6.153609619140625,-1.92096745967865,9.616148948669434,0.09968557953834534
1772727774741609500,6.163609375,-1.919384241104126,9.61648178100586,0.09816165268421173
1772727774751609600,6.173609619140625,-1.918910264968872,9.616588592529297,0.09695451706647873
1772727774761609500,6.183609375,-1.9188017845153809,9.616621017456055,0.09587902575731277
1772727774771609600,6.193609619140625,-1.9186217784881592,9.616657257080078,0.09571166336536407
1772727774781609500,6.203609375,-1.9184571504592896,9.616703987121582,0.0943998172879219
1772727774791609600,6.213609619140625,-1.9180858135223389,9.616789817810059,0.09323213249444962
1772727774801609500,6.223609375,-1.918469786643982,9.616724014282227,0.09211493283510208
1772727774811609600,6.233609619140625,-1.9185106754302979,9.616710662841797,0.09256184846162796
1772727774821609500,6.243609375,-1.9179837703704834,9.616808891296387,0.09338582307100296
1772727774831609600,6.253609619140625,-1.9165905714035034,9.617083549499512,0.0936947613954544
1772727774841609500,6.263609375,-1.9157536029815674,9.617241859436035,0.0945214331150055
1772727774851609600,6.273609619140625,-1.9153825044631958,9.617325782775879,0.09340670704841614
1772727774861609500,6.283609375,-1.9146769046783447,9.617478370666504,0.0922509953379631
1772727774871609600,6.293609619140625,-1.9145947694778442,9.6174898147583,0.09277106821537018
1772727774881609500,6.303609375,-1.9160878658294678,9.617166519165039,0.09543445706367493
1772727774891609600,6.313609619140625,-1.9185124635696411,9.616656303405762,0.09801436960697174
1772727774901609500,6.323609375,-1.9199110269546509,9.616363525390625,0.09938795864582062
1772727774911609600,6.333609619140625,-1.9202358722686768,9.616302490234375,0.09906447678804398
1772727774921609500,6.343609375,-1.9199804067611694,9.616360664367676,0.09826881438493729
1772727774931609600,6.353609619140625,-1.9197365045547485,9.616411209106445,0.09821201860904694
1772727774941609500,6.363609375,-1.919831395149231,9.6163911819458,0.09832765907049179
1772727774951609600,6.373609619140625,-1.9198259115219116,9.616388320922852,0.09865615516901016
1772727774961609500,6.383609375,-1.9197909832000732,9.616389274597168,0.09926967322826385
1772727774971609600,6.393609619140625,-1.9200552701950073,9.616332054138184,0.09969552606344223
1772727774981609500,6.403609375,-1.9205297231674194,9.616239547729492,0.09945381432771683
1772727774991609600,6.413609619140625,-1.9216327667236328,9.616033554077148,0.0979810506105423
1772727775001609500,6.423609375,-1.9236633777618408,9.615641593933105,0.09660674631595612
1772727775011609600,6.433609619140625,-1.9258372783660889,9.615208625793457,0.09641512483358383
1772727775021609500,6.443609375,-1.9277760982513428,9.614824295043945,0.09605897963047028
1772727775031609600,6.453609619140625,-1.9297363758087158,9.614439964294434,0.09517177939414978
1772727775041609500,6.463609375,-1.9319859743118286,9.613990783691406,0.09496156871318817
1772727775051609600,6.473609619140625,-1.933768391609192,9.613614082336426,0.09668361395597458
1772727775061609500,6.483609375,-1.934814691543579,9.61337947845459,0.09907647967338562
1772727775071609600,6.493609619140625,-1.9353749752044678,9.61324691772461,0.10090286284685135
1772727775081609500,6.503609375,-1.9356800317764282,9.61318588256836,0.10097603499889374
1772727775091609600,6.513609619140625,-1.935692310333252,9.613184928894043,0.10069339722394943
1772727775101609500,6.523609375,-1.9359910488128662,9.613120079040527,0.10125953704118729
1772727775111609600,6.533609619140625,-1.9369295835494995,9.612931251525879,0.10126710683107376
1772727775121609500,6.543609375,-1.9384324550628662,9.612632751464844,0.10087272524833679
1772727775131609600,6.553609619140625,-1.9393084049224854,9.612465858459473,0.09979451447725296
1772727775141609500,6.563609375,-1.9400849342346191,9.612322807312012,0.09852851182222366
1772727775151609600,6.573609619140625,-1.9407657384872437,9.612203598022461,0.09677726030349731
1772727775161609500,6.583609375,-1.9419854879379272,9.611968994140625,0.09551358968019485
1772727775171609600,6.593609619140625,-1.9432919025421143,9.611709594726562,0.09513857215642929
1772727775181609500,6.603609375,-1.9447290897369385,9.611410140991211,0.09596539288759232
1772727775191609600,6.613609619140625,-1.946421504020691,9.611055374145508,0.0971638485789299
1772727775201609500,6.623609375,-1.9481226205825806,9.610697746276855,0.0984354317188263
1772727775211609600,6.633609619140625,-1.9494624137878418,9.610422134399414,0.09884605556726456
1772727775221609500,6.643609375,-1.9500055313110352,9.610321044921875,0.09804461896419525
1772727775231609600,6.653609619140625,-1.9504891633987427,9.6102294921875,0.09724648296833038
1772727775241609500,6.663609375,-1.9507142305374146,9.610183715820312,0.0972663089632988
1772727775251609600,6.673609619140625,-1.9511523246765137,9.610088348388672,0.09787920117378235
1772727775261609500,6.683609375,-1.9516127109527588,9.609979629516602,0.09947530180215836
1772727775271609600,6.693609619140625,-1.9509934186935425,9.610081672668457,0.10160674899816513
1772727775281609500,6.703609375,-1.9490774869918823,9.61046028137207,0.10265839844942093
1772727775291609600,6.713609619140625,-1.9464415311813354,9.610998153686523,0.10230562090873718
1772727775301609500,6.723609375,-1.9434242248535156,9.61161994934082,0.10127928853034973
1772727775311609600,6.733609619140625,-1.9406111240386963,9.612198829650879,0.10027062892913818
1772727775321609500,6.743609375,-1.9383225440979004,9.61267375946045,0.09893567115068436
1772727775331609600,6.753609619140625,-1.937487244606018,9.612869262695312,0.09633104503154755
1772727775341609500,6.763609375,-1.93777334690094,9.612841606140137,0.0933312475681305
1772727775351609600,6.773609619140625,-1.9383796453475952,9.612733840942383,0.09175887703895569
1772727775361609500,6.783609375,-1.9391018152236938,9.612588882446289,0.091607466340065
1772727775371609600,6.793609619140625,-1.939098596572876,9.612581253051758,0.0925695151090622
1772727775381609500,6.803609375,-1.9384502172470093,9.612703323364258,0.09337400645017624
1772727775391609600,6.813609619140625,-1.9375925064086914,9.612871170043945,0.09404930472373962
1772727775401609500,6.823609375,-1.9372702836990356,9.612918853759766,0.0957513079047203
1772727775411609600,6.833609619140625,-1.9381526708602905,9.612716674804688,0.0981636717915535
1772727775421609500,6.843609375,-1.9391720294952393,9.612495422363281,0.09967228770256042
1772727775431609600,6.853609619140625,-1.939436674118042,9.612442970275879,0.09949202835559845
1772727775441609500,6.863609375,-1.9391720294952393,9.612506866455078,0.09858796745538712
1772727775451609600,6.873609619140625,-1.9394328594207764,9.612454414367676,0.09856656193733215
1772727775461609500,6.883609375,-1.9400296211242676,9.612332344055176,0.09872240573167801
1772727775471609600,6.893609619140625,-1.9408437013626099,9.612161636352539,0.09931141883134842
1772727775481609500,6.903609375,-1.9412314891815186,9.612075805664062,0.10014699399471283
1772727775491609600,6.913609619140625,-1.9411368370056152,9.61208724975586,0.10075781494379044
1772727775501609500,6.923609375,-1.9412490129470825,9.61205768585205,0.10139866918325424
1772727775511609600,6.933609619140625,-1.9415737390518188,9.611994743347168,0.10124476999044418
1772727775521609500,6.943609375,-1.9424041509628296,9.611833572387695,0.10060287266969681
1772727775531609600,6.953609619140625,-1.9436525106430054,9.611588478088379,0.09974448382854462
1772727775541609500,6.963609375,-1.9452898502349854,9.611271858215332,0.09845957905054092
1772727775551609600,6.973609619140625,-1.9467531442642212,9.610974311828613,0.09857401996850967
1772727775561609500,6.983609375,-1.9491742849349976,9.61047649383545,0.09929394721984863
1772727775571609600,6.993609619140625,-1.9532068967819214,9.609648704528809,0.10005968809127808
1772727775581609500,7.003609375,-1.9560894966125488,9.609053611755371,0.10096399486064911
1772727775591609600,7.013609619140625,-1.957402229309082,9.608783721923828,0.10118845105171204
1772727775601609500,7.023609375,-1.9584248065948486,9.608575820922852,0.10109853744506836
1772727775611609600,7.033609619140625,-1.9605830907821655,9.608124732971191,0.1021389588713646
1772727775621609500,7.043609375,-1.9631543159484863,9.607577323913574,0.10414781421422958
1772727775631609600,7.053609619140625,-1.9650636911392212,9.607171058654785,0.10564488917589188
1772727775641609500,7.063609375,-1.966528296470642,9.606863021850586,0.10644128173589706
1772727775651609600,7.073609619140625,-1.9681531190872192,9.606522560119629,0.10713869333267212
1772727775661609500,7.083609375,-1.9701073169708252,9.606119155883789,0.1075318306684494
1772727775671609600,7.093609619140625,-1.9717212915420532,9.60578441619873,0.10770252346992493
1772727775681609500,7.103609375,-1.9719369411468506,9.605738639831543,0.10783245414495468
1772727775691609600,7.113609619140625,-1.97300124168396,9.605531692504883,0.10684147477149963
1772727775701609500,7.123609375,-1.9763914346694946,9.604832649230957,0.10704480856657028
1772727775711609600,7.133609619140625,-1.979609727859497,9.60416316986084,0.10761894285678864
1772727775721609500,7.143609375,-1.9824552536010742,9.603568077087402,0.10837520658969879
1772727775731609600,7.153609619140625,-1.9845731258392334,9.603128433227539,0.10856948792934418
1772727775741609500,7.163609375,-1.986375331878662,9.602761268615723,0.10813961178064346
1772727775751609600,7.173609619140625,-1.988587737083435,9.602310180664062,0.10746125131845474
1772727775761609500,7.183609375,-1.990415096282959,9.601940155029297,0.10680271685123444
1772727775771609600,7.193609619140625,-1.9923533201217651,9.60153865814209,0.10660364478826523
1772727775781609500,7.203609375,-1.9950330257415771,9.600974082946777,0.10734369605779648
1772727775791609600,7.213609619140625,-1.9983282089233398,9.600272178649902,0.1088036596775055
1772727775801609500,7.223609375,-2.00095272064209,9.599710464477539,0.11016274988651276
1772727775811609600,7.233609619140625,-2.002492666244507,9.59937572479248,0.11135303229093552
1772727775821609500,7.243609375,-2.00309157371521,9.599226951599121,0.11332552134990692
1772727775831609600,7.253609619140625,-2.0042176246643066,9.598974227905273,0.114796943962574
1772727775841609500,7.263609375,-2.005300760269165,9.598745346069336,0.11513472348451614
1772727775851609600,7.273609619140625,-2.0059304237365723,9.598618507385254,0.11468730121850967
1772727775861609500,7.283609375,-2.0062661170959473,9.598553657531738,0.11422478407621384
1772727775871609600,7.293609619140625,-2.006716728210449,9.598456382751465,0.1144978255033493
1772727775881609500,7.303609375,-2.0071334838867188,9.598371505737305,0.11433333158493042
1772727775891609600,7.313609619140625,-2.007662534713745,9.598276138305664,0.11301582306623459
1772727775901609500,7.323609375,-2.0074753761291504,9.598335266113281,0.11133942753076553
1772727775911609600,7.333609619140625,-2.0077741146087646,9.598289489746094,0.10980759561061859
1772727775921609500,7.343609375,-2.008394956588745,9.598156929016113,0.11001862585544586
1772727775931609600,7.353609619140625,-2.0089848041534424,9.598026275634766,0.11075868457555771
1772727775941609500,7.363609375,-2.009622812271118,9.597879409790039,0.1118619292974472
1772727775951609600,7.373609619140625,-2.0100297927856445,9.59777545928955,0.1134716272354126
1772727775961609500,7.383609375,-2.010472536087036,9.597661018371582,0.11532972007989883
1772727775971609600,7.393609619140625,-2.0109317302703857,9.597555160522461,0.11611465364694595
1772727775981609500,7.403609375,-2.0109894275665283,9.597553253173828,0.11529043316841125
1772727775991609600,7.413609619140625,-2.010847568511963,9.597602844238281,0.11356018483638763
1772727776001609500,7.423609375,-2.010425329208374,9.597705841064453,0.11225218325853348
1772727776011609600,7.433609619140625,-2.010565996170044,9.597687721252441,0.11144279688596725
1772727776021609500,7.443609375,-2.0108981132507324,9.597620964050293,0.11111950129270554
1772727776031609600,7.453609619140625,-2.0105299949645996,9.597683906555176,0.11236514151096344
1772727776041609500,7.463609375,-2.0092825889587402,9.597923278808594,0.1141565814614296
1772727776051609600,7.473609619140625,-2.0080039501190186,9.598172187805176,0.11579499393701553
1772727776061609500,7.483609375,-2.007199287414551,9.598329544067383,0.11662968248128891
1772727776071609600,7.493609619140625,-2.00606632232666,9.598567962646484,0.1165742501616478
1772727776081609500,7.503609375,-2.0043227672576904,9.59894847869873,0.11523192375898361
1772727776091609600,7.513609619140625,-2.0030758380889893,9.599227905273438,0.11358976364135742
1772727776101609500,7.523609375,-2.002098321914673,9.599446296691895,0.11241757124662399
1772727776111609600,7.533609619140625,-2.000671148300171,9.599754333496094,0.11137616634368896
1772727776121609500,7.543609375,-1.9987194538116455,9.600170135498047,0.11064112186431885
1772727776131609600,7.553609619140625,-1.9965723752975464,9.600631713867188,0.10937520861625671
1772727776141609500,7.563609375,-1.9950225353240967,9.600966453552246,0.10827185213565826
1772727776151609600,7.573609619140625,-1.9936844110488892,9.601247787475586,0.10780203342437744
1772727776161609500,7.583609375,-1.9927678108215332,9.601435661315918,0.10815747082233429
1772727776171609600,7.593609619140625,-1.992055058479309,9.601572036743164,0.10918953269720078
1772727776181609500,7.603609375,-1.991723656654358,9.601627349853516,0.11041933298110962
1772727776191609600,7.613609619140625,-1.9920576810836792,9.601551055908203,0.11098858714103699
1772727776201609500,7.623609375,-1.9927120208740234,9.601418495178223,0.11066175252199173
1772727776211609600,7.633609619140625,-1.9925236701965332,9.601465225219727,0.10999350249767303
1772727776221609500,7.643609375,-1.991228699684143,9.6017484664917,0.10875110328197479
1772727776231609600,7.653609619140625,-1.9898127317428589,9.602052688598633,0.10771263390779495
1772727776241609500,7.663609375,-1.989297866821289,9.602168083190918,0.10706470161676407
1772727776251609600,7.673609619140625,-1.9892823696136475,9.602167129516602,0.10741422325372696
1772727776261609500,7.683609375,-1.9886713027954102,9.60229778289795,0.106999970972538
1772727776271609600,7.693609619140625,-1.9880378246307373,9.602439880371094,0.10608422756195068
1772727776281609500,7.703609375,-1.9874393939971924,9.602571487426758,0.10533355921506882
1772727776291609600,7.713609619140625,-1.9873175621032715,9.602604866027832,0.10456976294517517
1772727776301609500,7.723609375,-1.9868966341018677,9.602705955505371,0.10335556417703629
1772727776311609600,7.733609619140625,-1.9868688583374023,9.602727890014648,0.10181428492069244
1772727776321609500,7.743609375,-1.9875630140304565,9.602595329284668,0.10072145611047745
1772727776331609600,7.753609619140625,-1.9890638589859009,9.602289199829102,0.1002751886844635
1772727776341609500,7.763609375,-1.990744709968567,9.601950645446777,0.09938862174749374
1772727776351609600,7.773609619140625,-1.992500901222229,9.601601600646973,0.09786637872457504
1772727776361609500,7.783609375,-1.994642972946167,9.601171493530273,0.09638752043247223
1772727776371609600,7.793609619140625,-1.9964196681976318,9.600815773010254,0.09498081356287003
1772727776381609500,7.803609375,-1.9980441331863403,9.600495338439941,0.09322534501552582
1772727776391609600,7.813609619140625,-1.9996750354766846,9.60016918182373,0.09183768928050995
1772727776401609500,7.823609375,-2.001702070236206,9.599753379821777,0.0912337675690651
1772727776411609600,7.833609619140625,-2.0053553581237793,9.598980903625488,0.09225389361381531
1772727776421609500,7.843609375,-2.009819269180298,9.598028182983398,0.09419183433055878
1772727776431609600,7.853609619140625,-2.0134501457214355,9.597250938415527,0.09578543901443481
1772727776441609500,7.863609375,-2.015385866165161,9.596840858459473,0.0961582139134407
1772727776451609600,7.873609619140625,-2.0171873569488525,9.596458435058594,0.09653937071561813
1772727776461609500,7.883609375,-2.019601821899414,9.595945358276367,0.09717949479818344
1772727776471609600,7.893609619140625,-2.0223329067230225,9.59536075592041,0.09791611135005951
1772727776481609500,7.903609375,-2.024972677230835,9.594802856445312,0.09812566637992859
1772727776491609600,7.913609619140625,-2.027071237564087,9.594366073608398,0.09750894457101822
1772727776501609500,7.923609375,-2.0292322635650635,9.593920707702637,0.09636727720499039
1772727776511609600,7.933609619140625,-2.031484842300415,9.59345531463623,0.09521889686584473
1772727776521609500,7.943609375,-2.033292055130005,9.593079566955566,0.09462957829236984
1772727776531609600,7.953609619140625,-2.0340092182159424,9.592931747436523,0.09409529715776443
1772727776541609500,7.963609375,-2.037229299545288,9.59224796295166,0.09415821731090546
1772727776551609600,7.973609619140625,-2.0421526432037354,9.591198921203613,0.09437119215726852
1772727776561609500,7.983609375,-2.046422004699707,9.59028148651123,0.09505259990692139
1772727776571609600,7.993609619140625,-2.0499866008758545,9.589509963989258,0.09611164033412933
1772727776581609500,8.003609375,-2.0541815757751465,9.588603973388672,0.09699127823114395
1772727776591609600,8.013609619140626,-2.0582921504974365,9.587712287902832,0.09785701334476471
1772727776601609500,8.023609375,-2.0624239444732666,9.586821556091309,0.09822448343038559
1772727776611609600,8.033609619140625,-2.066603183746338,9.585912704467773,0.09910225868225098
1772727776621609500,8.043609375,-2.0716631412506104,9.584807395935059,0.10032165795564651
1772727776631609600,8.053609619140625,-2.0767674446105957,9.58369255065918,0.10128630697727203
1772727776641609500,8.063609375,-2.080880880355835,9.582786560058594,0.10255325585603714
1772727776651609600,8.073609619140624,-2.0839157104492188,9.582110404968262,0.10419126600027084
1772727776661609500,8.083609375,-2.0865590572357178,9.58150863647461,0.10646195709705353
1772727776671609600,8.093609619140626,-2.0882046222686768,9.581124305725098,0.10880767554044724
1772727776681609500,8.103609375,-2.089390754699707,9.580846786499023,0.1105145737528801
1772727776691609600,8.113609619140625,-2.0911691188812256,9.5804443359375,0.11172038316726685
1772727776701609500,8.123609375,-2.093290090560913,9.579970359802246,0.11262542009353638
1772727776711609600,8.133609619140625,-2.0949745178222656,9.579607963562012,0.11218062788248062
1772727776721609500,8.143609375,-2.09590482711792,9.579414367675781,0.1113564744591713
1772727776731609600,8.153609619140624,-2.0968708992004395,9.579217910766602,0.1099993884563446
1772727776741609500,8.163609375,-2.097794532775879,9.579034805297852,0.10833743959665298
1772727776751609600,8.173609619140626,-2.0989534854888916,9.578797340393066,0.10685001313686371
1772727776761609500,8.183609375,-2.0998594760894775,9.578614234924316,0.10557103902101517
1772727776771609600,8.193609619140625,-2.100220203399658,9.57853889465332,0.1051344946026802
1772727776781609500,8.203609375,-2.100691556930542,9.578425407409668,0.10599935054779053
1772727776791609600,8.213609619140625,-2.1019060611724854,9.578137397766113,0.10800639539957047
1772727776801609500,8.223609375,-2.1035423278808594,9.577750205993652,0.11047837138175964
1772727776811609600,8.233609619140625,-2.1046178340911865,9.577486991882324,0.1127532348036766
1772727776821609500,8.243609375,-2.1048336029052734,9.577424049377441,0.11412022262811661
1772727776831609600,8.253609619140626,-2.1050186157226562,9.577375411987305,0.11473030596971512
1772727776841609500,8.263609375,-2.1059322357177734,9.577170372009277,0.11509743332862854
1772727776851609600,8.273609619140625,-2.1073544025421143,9.576849937438965,0.11572853475809097
1772727776861609500,8.283609375,-2.1079463958740234,9.576704025268555,0.11699646711349487
1772727776871609600,8.293609619140625,-2.1078670024871826,9.57669734954834,0.1189289465546608
1772727776881609500,8.303609375,-2.107887029647827,9.57667064666748,0.12081785500049591
1772727776891609600,8.313609619140625,-2.1080474853515625,9.576613426208496,0.12246153503656387
1772727776901609500,8.323609375,-2.1081366539001465,9.57658576965332,0.12307669222354889
1772727776911609600,8.333609619140624,-2.1079940795898438,9.576618194580078,0.12299345433712006
1772727776921609500,8.343609375,-2.1087188720703125,9.57647705078125,0.12157230079174042
1772727776931609600,8.353609619140625,-2.109926223754883,9.576228141784668,0.12019054591655731
1772727776941609500,8.363609375,-2.111147165298462,9.575969696044922,0.11938593536615372
1772727776951609600,8.373609619140625,-2.1115803718566895,9.575876235961914,0.11920680850744247
1772727776961609500,8.383609375,-2.1118216514587402,9.575811386108398,0.12013811618089676
1772727776971609600,8.393609619140625,-2.1127846240997314,9.575589179992676,0.12098132073879242
1772727776981609500,8.403609375,-2.114030599594116,9.575300216674805,0.12200354039669037
1772727776991609600,8.413609619140624,-2.114820957183838,9.575115203857422,0.12285767495632172
1772727777001609500,8.423609375,-2.1149892807006836,9.575081825256348,0.12250138074159622
1772727777011609600,8.433609619140626,-2.1153769493103027,9.575008392333984,0.1215876117348671
1772727777021609500,8.443609375,-2.1172590255737305,9.57459545135498,0.1214231550693512
1772727777031609600,8.453609619140625,-2.119443416595459,9.574101448059082,0.1222061812877655
1772727777041609500,8.463609375,-2.1195712089538574,9.574057579040527,0.12340465188026428
1772727777051609600,8.473609619140625,-2.1184892654418945,9.574289321899414,0.12400352954864502
1772727777061609500,8.483609375,-2.118464231491089,9.57430362701416,0.12321454286575317
1772727777071609600,8.493609619140624,-2.1192431449890137,9.574156761169434,0.12132863700389862
1772727777081609500,8.503609375,-2.1201698780059814,9.57397747039795,0.11926759034395218
1772727777091609600,8.513609619140626,-2.120206594467163,9.573966026306152,0.11951429396867752
1772727777101609500,8.523609375,-2.120866060256958,9.573806762695312,0.12053386867046356
1772727777111609600,8.533609619140625,-2.1223089694976807,9.57348918914795,0.12035653740167618
1772727777121609500,8.543609375,-2.1236417293548584,9.573205947875977,0.11945083737373352
1772727777131609600,8.553609619140625,-2.124318838119507,9.573066711425781,0.1185772716999054
1772727777141609500,8.563609375,-2.1252338886260986,9.572866439819336,0.11824505031108856
1772727777151609600,8.573609619140624,-2.1263175010681152,9.5726318359375,0.11782418191432953
1772727777161609500,8.583609375,-2.1269328594207764,9.572495460510254,0.11780303716659546
1772727777171609600,8.593609619140626,-2.1268327236175537,9.572509765625,0.11844035983085632
1772727777181609500,8.603609375,-2.1276581287384033,9.572305679321289,0.12007831782102585
1772727777191609600,8.613609619140625,-2.1285197734832764,9.572093963623047,0.12169653177261353
1772727777201609500,8.623609375,-2.1291282176971436,9.57194995880127,0.12234436720609665
1772727777211609600,8.633609619140625,-2.1299569606781006,9.57177734375,0.12144899368286133
1772727777221609500,8.643609375,-2.130445718765259,9.571693420410156,0.11946328729391098
1772727777231609600,8.653609619140624,-2.1304829120635986,9.571712493896484,0.11729219555854797
1772727777241609500,8.663609375,-2.1303439140319824,9.57176399230957,0.11560167372226715
1772727777251609600,8.673609619140626,-2.130094051361084,9.571836471557617,0.11416679620742798
1772727777261609500,8.683609375,-2.130889654159546,9.571661949157715,0.11398814618587494
1772727777271609600,8.693609619140625,-2.1322121620178223,9.571341514587402,0.11604059487581253
1772727777281609500,8.703609375,-2.132596492767334,9.571223258972168,0.11877089738845825
1772727777291609600,8.713609619140625,-2.131861448287964,9.571359634399414,0.1209583580493927
1772727777301609500,8.723609375,-2.130685806274414,9.571602821350098,0.12243930250406265
1772727777311609600,8.733609619140625,-2.1299519538879395,9.57175350189209,0.1233803778886795
1772727777321609500,8.743609375,-2.1302995681762695,9.571671485900879,0.12381080538034439
1772727777331609600,8.753609619140626,-2.1312716007232666,9.571455001831055,0.1238032877445221
1772727777341609500,8.763609375,-2.1321773529052734,9.57126235961914,0.12310780584812164
1772727777351609600,8.773609619140625,-2.1327743530273438,9.571148872375488,0.12153207510709763
1772727777361609500,8.783609375,-2.1334846019744873,9.571017265319824,0.11946828663349152
1772727777371609600,8.793609619140625,-2.133707046508789,9.570980072021484,0.11842331290245056
1772727777381609500,8.803609375,-2.1328377723693848,9.571181297302246,0.1178542897105217
1772727777391609600,8.813609619140625,-2.1311440467834473,9.571569442749023,0.11691004782915115
1772727777401609500,8.823609375,-2.130033254623413,9.571830749511719,0.11571629345417023
1772727777411609600,8.833609619140624,-2.129757881164551,9.571901321411133,0.11507432162761688
1772727777421609500,8.843609375,-2.128971576690674,9.572066307067871,0.11578105390071869
1772727777431609600,8.853609619140625,-2.1276769638061523,9.572340965270996,0.11691982299089432
1772727777441609500,8.863609375,-2.1263036727905273,9.572638511657715,0.1175844743847847
1772727777451609600,8.873609619140625,-2.126072883605957,9.572688102722168,0.1176154762506485
1772727777461609500,8.883609375,-2.126140594482422,9.572687149047852,0.11660969257354736
1772727777471609600,8.893609619140625,-2.1254332065582275,9.572868347167969,0.11457303911447525
1772727777481609500,8.903609375,-2.12420654296875,9.573173522949219,0.11182330548763275
1772727777491609600,8.913609619140624,-2.1231467723846436,9.573432922363281,0.1095346137881279
1772727777501609500,8.923609375,-2.122673511505127,9.573554992675781,0.1080695241689682
1772727777511609600,8.933609619140626,-2.123039960861206,9.573476791381836,0.10781383514404297
1772727777521609500,8.943609375,-2.1232309341430664,9.573431968688965,0.10806185007095337
1772727777531609600,8.953609619140625,-2.1237614154815674,9.573307037353516,0.10869160294532776
1772727777541609500,8.963609375,-2.1246652603149414,9.573099136352539,0.10939803719520569
1772727777551609600,8.973609619140625,-2.1250460147857666,9.57302188873291,0.1086309403181076
1772727777561609500,8.983609375,-2.125415563583374,9.57295036315918,0.1077684760093689
1772727777571609600,8.993609619140624,-2.12548565864563,9.572933197021484,0.10791777819395065
1772727777581609500,9.003609375,-2.125917434692383,9.572829246520996,0.10858826339244843
1772727777591609600,9.013609619140626,-2.126642942428589,9.572662353515625,0.10919365286827087
1772727777601609500,9.023609375,-2.126955509185791,9.57259464263916,0.10903583467006683
1772727777611609600,9.033609619140625,-2.1271896362304688,9.572540283203125,0.10919095575809479
1772727777621609500,9.043609375,-2.1279428005218506,9.572368621826172,0.10962454229593277
1772727777631609600,9.053609619140625,-2.1291539669036865,9.572098731994629,0.10964836180210114
1772727777641609500,9.063609375,-2.1311123371124268,9.571672439575195,0.1087479218840599
1772727777651609600,9.073609619140624,-2.13258695602417,9.571354866027832,0.10778212547302246
1772727777661609500,9.083609375,-2.1337521076202393,9.571105003356934,0.1069660633802414
1772727777671609600,9.093609619140626,-2.1356005668640137,9.570700645446777,0.10619151592254639
1772727777681609500,9.103609375,-2.1375479698181152,9.570265769958496,0.10619688779115677
1772727777691609600,9.113609619140625,-2.1391708850860596,9.56990909576416,0.10573475807905197
1772727777701609500,9.123609375,-2.140998125076294,9.569507598876953,0.10495419055223465
1772727777711609600,9.133609619140625,-2.1430649757385254,9.569048881530762,0.10471615195274353
1772727777721609500,9.143609375,-2.1454310417175293,9.568510055541992,0.10555949062108994
1772727777731609600,9.153609619140624,-2.1467082500457764,9.568202018737793,0.10737505555152893
1772727777741609500,9.163609375,-2.1484320163726807,9.567818641662598,0.1071021631360054
1772727777751609600,9.173609619140626,-2.1524171829223633,9.56692123413086,0.10734744369983673
1772727777761609500,9.183609375,-2.154796600341797,9.566389083862305,0.10698404163122177
1772727777771609600,9.193609619140625,-2.1564416885375977,9.566020011901855,0.10677864402532578
1772727777781609500,9.203609375,-2.158950090408325,9.565461158752441,0.10624358057975769
1772727777791609600,9.213609619140625,-2.1615428924560547,9.564888000488281,0.10504893213510513
1772727777801609500,9.223609375,-2.1642098426818848,9.56429386138916,0.10426897555589676
1772727777811609600,9.233609619140625,-2.167268753051758,9.563594818115234,0.10480239242315292
1772727777821609500,9.243609375,-2.17038631439209,9.562875747680664,0.1058633103966713
1772727777831609600,9.253609619140626,-2.1736154556274414,9.5621337890625,0.10667385905981064
1772727777841609500,9.263609375,-2.176635265350342,9.561434745788574,0.10777967423200607
1772727777851609600,9.273609619140625,-2.179344892501831,9.560807228088379,0.10860063135623932
1772727777861609500,9.283609375,-2.182608127593994,9.560064315795898,0.10855048894882202
1772727777871609600,9.293609619140625,-2.1864142417907715,9.559197425842285,0.10826683789491653
1772727777881609500,9.303609375,-2.1900835037231445,9.558361053466797,0.10793415457010269
1772727777891609600,9.313609619140625,-2.19305682182312,9.557689666748047,0.10697628557682037
1772727777901609500,9.323609375,-2.1954851150512695,9.557146072387695,0.1058625653386116
1772727777911609600,9.333609619140624,-2.1981775760650635,9.556534767150879,0.10512205958366394
1772727777921609500,9.343609375,-2.201357841491699,9.555801391601562,0.10517624020576477
1772727777931609600,9.353609619140625,-2.204314708709717,9.55511474609375,0.10568434745073318
1772727777941609500,9.363609375,-2.207313299179077,9.55440902709961,0.10678628832101822
1772727777951609600,9.373609619140625,-2.2105424404144287,9.55364990234375,0.10793684422969818
1772727777961609500,9.383609375,-2.21406888961792,9.55282211303711,0.1090688705444336
1772727777971609600,9.393609619140625,-2.2175023555755615,9.552016258239746,0.10975270718336105
1772727777981609500,9.403609375,-2.22054123878479,9.551307678222656,0.10991810262203217
1772727777991609600,9.413609619140624,-2.2232506275177,9.550682067871094,0.1095595583319664
1772727778001609500,9.423609375,-2.2256155014038086,9.550138473510742,0.10896630585193634
1772727778011609600,9.433609619140626,-2.227771520614624,9.549639701843262,0.10859047621488571
1772727778021609500,9.443609375,-2.229771375656128,9.549177169799805,0.10828880965709686
1772727778031609600,9.453609619140625,-2.2318549156188965,9.548689842224121,0.10838799923658371
1772727778041609500,9.463609375,-2.234090805053711,9.5481595993042,0.10893989354372025
1772727778051609600,9.473609619140625,-2.2359883785247803,9.547714233398438,0.10905510187149048
1772727778061609500,9.483609375,-2.2379448413848877,9.547259330749512,0.1087934672832489
1772727778071609600,9.493609619140624,-2.2396445274353027,9.546858787536621,0.10904257744550705
1772727778081609500,9.503609375,-2.2411162853240967,9.546507835388184,0.10945253074169159
1772727778091609600,9.513609619140626,-2.2417678833007812,9.546356201171875,0.10927791893482208
1772727778101609500,9.523609375,-2.241953134536743,9.5463228225708,0.1084359884262085
1772727778111609600,9.533609619140625,-2.2424099445343018,9.546225547790527,0.10744976252317429
1772727778121609500,9.543609375,-2.242544412612915,9.5462064743042,0.10645817965269089
1772727778131609600,9.553609619140625,-2.2417380809783936,9.546415328979492,0.10460704565048218
1772727778141609500,9.563609375,-2.2414567470550537,9.546501159667969,0.10283960402011871
1772727778151609600,9.573609619140624,-2.2412350177764893,9.5465726852417,0.1010139063000679
1772727778161609500,9.583609375,-2.2407870292663574,9.5466890335083,0.09986628592014313
1772727778171609600,9.593609619140626,-2.2407002449035645,9.546708106994629,0.10007058829069138
1772727778181609500,9.603609375,-2.2412264347076416,9.546574592590332,0.1010001003742218
1772727778191609600,9.613609619140625,-2.2417922019958496,9.54643726348877,0.1014302596449852
1772727778201609500,9.623609375,-2.2417755126953125,9.546445846557617,0.10101652890443802
1772727778211609600,9.633609619140625,-2.241170644760132,9.54660415649414,0.09947230666875839
1772727778221609500,9.643609375,-2.241041898727417,9.546643257141113,0.09866365790367126
1772727778231609600,9.653609619140624,-2.240687608718872,9.54672622680664,0.09857895225286484
1772727778241609500,9.663609375,-2.2401950359344482,9.54684829711914,0.09798697382211685
1772727778251609600,9.673609619140626,-2.239978313446045,9.546907424926758,0.09713135659694672
1772727778261609500,9.683609375,-2.240422487258911,9.54680347442627,0.09713903814554214
1772727778271609600,9.693609619140625,-2.240806818008423,9.546706199645996,0.09787264466285706
1772727778281609500,9.703609375,-2.241206169128418,9.546602249145508,0.09881503880023956
1772727778291609600,9.713609619140625,-2.240920305252075,9.54666519165039,0.09920202940702438
1772727778301609500,9.723609375,-2.239309549331665,9.547050476074219,0.09852209687232971
1772727778311609600,9.733609619140625,-2.2376904487609863,9.547442436218262,0.09735357761383057
1772727778321609500,9.743609375,-2.236834764480591,9.547656059265137,0.09601961076259613
1772727778331609600,9.753609619140626,-2.23653507232666,9.547740936279297,0.09452470391988754
1772727778341609500,9.763609375,-2.2354679107666016,9.548005104064941,0.09301162511110306
1772727778351609600,9.773609619140625,-2.233663558959961,9.548442840576172,0.09155557304620743
1772727778361609500,9.783609375,-2.232144355773926,9.548813819885254,0.08993387967348099
1772727778371609600,9.793609619140625,-2.2319631576538086,9.54886531829834,0.08877325057983398
1772727778381609500,9.803609375,-2.2325713634490967,9.548727035522461,0.08846535533666611
1772727778391609600,9.813609619140625,-2.2331340312957764,9.548593521118164,0.0887339860200882
1772727778401609500,9.823609375,-2.2335197925567627,9.548501014709473,0.08898145705461502
1772727778411609600,9.833609619140624,-2.2344348430633545,9.548288345336914,0.08873740583658218
1772727778421609500,9.843609375,-2.235257863998413,9.548099517822266,0.0882408544421196
1772727778431609600,9.853609619140625,-2.2357285022735596,9.547988891601562,0.08834628760814667
1772727778441609500,9.863609375,-2.2360472679138184,9.547913551330566,0.08843845129013062
1772727778451609600,9.873609619140625,-2.236454963684082,9.547821044921875,0.08819501847028732
1772727778461609500,9.883609375,-2.237485408782959,9.547578811645508,0.08831369131803513
1772727778471609600,9.893609619140625,-2.2389910221099854,9.547225952148438,0.0881555899977684
1772727778481609500,9.903609375,-2.240187883377075,9.54694652557373,0.08805592358112335
1772727778491609600,9.913609619140624,-2.2409636974334717,9.546761512756348,0.08847508579492569
1772727778501609500,9.923609375,-2.241403579711914,9.546651840209961,0.08913515508174896
1772727778511609600,9.933609619140626,-2.2420217990875244,9.546497344970703,0.09008483588695526
1772727778521609500,9.943609375,-2.2430570125579834,9.546244621276855,0.09113693982362747
1772727778531609600,9.953609619140625,-2.244330883026123,9.545937538146973,0.09186100214719772
1772727778541609500,9.963609375,-2.2448928356170654,9.545799255371094,0.09253453463315964
1772727778551609600,9.973609619140625,-2.24519944190979,9.545735359191895,0.09171377867460251
1772727778561609500,9.983609375,-2.2459874153137207,9.545561790466309,0.09036095440387726
1772727778571609600,9.993609619140624,-2.2470452785491943,9.545330047607422,0.08863075822591782
1772727778581609500,10.003609375,-2.248114585876465,9.545089721679688,0.08734018355607986
1772727778591609600,10.013609619140626,-2.2495977878570557,9.544745445251465,0.086713045835495
1772727778601609500,10.023609375,-2.2511165142059326,9.544388771057129,0.08671552687883377
1772727778611609600,10.033609619140625,-2.2528200149536133,9.543983459472656,0.08701128512620926
1772727778621609500,10.043609375,-2.254822015762329,9.543498992919922,0.0881967842578888
1772727778631609600,10.053609619140625,-2.25700044631958,9.542966842651367,0.09014096856117249
1772727778641609500,10.063609375,-2.2595012187957764,9.542365074157715,0.09117426723241806
1772727778651609600,10.073609619140624,-2.261596918106079,9.541869163513184,0.09113802015781403
1772727778661609500,10.083609375,-2.263232707977295,9.541484832763672,0.09071500599384308
1772727778671609600,10.093609619140626,-2.2657017707824707,9.540908813476562,0.08970612287521362
1772727778681609500,10.103609375,-2.2689223289489746,9.540145874023438,0.08935815095901489
1772727778691609600,10.113609619140625,-2.269901752471924,9.539916038513184,0.08911766111850739
1772727778701609500,10.123609375,-2.2722504138946533,9.53935718536377,0.0889764353632927
1772727778711609600,10.133609619140625,-2.2747559547424316,9.538759231567383,0.08908446878194809
1772727778721609500,10.143609375,-2.276337146759033,9.538381576538086,0.08918482810258865
1772727778731609600,10.153609619140624,-2.278320789337158,9.537898063659668,0.09020406007766724
1772727778741609500,10.163609375,-2.2806732654571533,9.537323951721191,0.0914747342467308
1772727778751609600,10.173609619140626,-2.2828400135040283,9.53679084777832,0.09307923167943954
1772727778761609500,10.183609375,-2.2844245433807373,9.536397933959961,0.09442257881164551
1772727778771609600,10.193609619140625,-2.285480260848999,9.53614330291748,0.094537653028965
1772727778781609500,10.203609375,-2.2869274616241455,9.53580093383789,0.09413325786590576
1772727778791609600,10.213609619140625,-2.2889816761016846,9.535314559936523,0.09343934059143066
1772727778801609500,10.223609375,-2.290337562561035,9.534997940063477,0.09253925085067749
1772727778811609600,10.233609619140625,-2.2906417846679688,9.534936904907227,0.09123412519693375
1772727778821609500,10.243609375,-2.2917239665985107,9.534686088562012,0.0902976542711258
1772727778831609600,10.253609619140626,-2.2935984134674072,9.534231185913086,0.09078601747751236
1772727778841609500,10.263609375,-2.296004295349121,9.533637046813965,0.09222866594791412
1772727778851609600,10.273609619140625,-2.297884702682495,9.533169746398926,0.0937766581773758
1772727778861609500,10.283609375,-2.2989723682403564,9.532894134521484,0.09518199414014816
1772727778871609600,10.293609619140625,-2.299849510192871,9.532676696777344,0.09566321223974228
1772727778881609500,10.303609375,-2.3008484840393066,9.532435417175293,0.09568363428115845
1772727778891609600,10.313609619140625,-2.3023521900177,9.532075881958008,0.09532156586647034
1772727778901609500,10.323609375,-2.3032889366149902,9.53185749053955,0.09457229822874069
1772727778911609600,10.333609619140624,-2.3036420345306396,9.531780242919922,0.09372889995574951
1772727778921609500,10.343609375,-2.304490804672241,9.531585693359375,0.09265173226594925
1772727778931609600,10.353609619140625,-2.3054440021514893,9.531363487243652,0.0917898416519165
1772727778941609500,10.363609375,-2.3061087131500244,9.531198501586914,0.09221669286489487
1772727778951609600,10.373609619140625,-2.3071277141571045,9.5309419631958,0.0932103842496872
1772727778961609500,10.383609375,-2.3081490993499756,9.530682563781738,0.0944366306066513
1772727778971609600,10.393609619140625,-2.3091394901275635,9.530436515808105,0.09510025382041931
1772727778981609500,10.403609375,-2.3098108768463135,9.530265808105469,0.09584085643291473
1772727778991609600,10.413609619140624,-2.3108181953430176,9.530016899108887,0.09633792191743851
1772727779001609500,10.423609375,-2.3122825622558594,9.529650688171387,0.097396120429039
1772727779011609600,10.433609619140626,-2.3129749298095703,9.5294771194458,0.09797968715429306
1772727779021609500,10.443609375,-2.3127341270446777,9.529541969299316,0.09726274013519287
1772727779031609600,10.453609619140625,-2.312284231185913,9.529664993286133,0.09595591574907303
1772727779041609500,10.463609375,-2.31276535987854,9.52956485748291,0.09422363340854645
1772727779051609600,10.473609619140625,-2.3138363361358643,9.529321670532227,0.09262693673372269
1772727779061609500,10.483609375,-2.314530849456787,9.529160499572754,0.0918041542172432
1772727779071609600,10.493609619140624,-2.315253257751465,9.528985977172852,0.0918421670794487
1772727779081609500,10.503609375,-2.3164427280426025,9.528690338134766,0.09241073578596115
1772727779091609600,10.513609619140626,-2.3176300525665283,9.528389930725098,0.09368737041950226
1772727779101609500,10.523609375,-2.3187448978424072,9.528103828430176,0.09502599388360977
1772727779111609600,10.533609619140625,-2.3185880184173584,9.528130531311035,0.09618864208459854
1772727779121609500,10.543609375,-2.318798303604126,9.52807331085205,0.09689290821552277
1772727779131609600,10.553609619140625,-2.3192927837371826,9.52795124053955,0.09697284549474716
1772727779141609500,10.563609375,-2.319655656814575,9.527868270874023,0.09651034325361252
1772727779151609600,10.573609619140624,-2.319654703140259,9.527877807617188,0.09549804776906967
1772727779161609500,10.583609375,-2.319401502609253,9.527952194213867,0.094267837703228
1772727779171609600,10.593609619140626,-2.3193271160125732,9.527982711791992,0.09300687164068222
1772727779181609500,10.603609375,-2.318986654281616,9.528077125549316,0.09197042882442474
1772727779191609600,10.613609619140625,-2.3191025257110596,9.528054237365723,0.09128940105438232
1772727779201609500,10.623609375,-2.3196914196014404,9.527911186218262,0.09124630689620972
1772727779211609600,10.633609619140625,-2.3202624320983887,9.527769088745117,0.09161214530467987
1772727779221609500,10.643609375,-2.3210959434509277,9.527563095092773,0.09190049767494202
1772727779231609600,10.653609619140624,-2.3221774101257324,9.527284622192383,0.09339199960231781
1772727779241609500,10.663609375,-2.3234732151031494,9.526948928833008,0.09538774192333221
1772727779251609600,10.673609619140626,-2.3251190185546875,9.526535987854004,0.096603624522686
1772727779261609500,10.683609375,-2.3264644145965576,9.526202201843262,0.09702452272176743
1772727779271609600,10.693609619140625,-2.327075719833374,9.526056289672852,0.09676659852266312
1772727779281609500,10.703609375,-2.3278512954711914,9.525874137878418,0.09599095582962036
1772727779291609600,10.713609619140625,-2.3282525539398193,9.525788307189941,0.0947178453207016
1772727779301609500,10.723609375,-2.3289339542388916,9.525630950927734,0.09382900595664978
1772727779311609600,10.733609619140625,-2.329822540283203,9.52541446685791,0.09381157904863358
1772727779321609500,10.743609375,-2.330991506576538,9.52512264251709,0.09436386078596115
1772727779331609600,10.753609619140626,-2.3326761722564697,9.524703025817871,0.09507139027118683
1772727779341609500,10.763609375,-2.333690881729126,9.524442672729492,0.09621568024158478
1772727779351609600,10.773609619140625,-2.3341362476348877,9.524312973022461,0.09826787561178207
1772727779361609500,10.783609375,-2.3352622985839844,9.524020195007324,0.09992856532335281
1772727779371609600,10.793609619140625,-2.337587594985962,9.523445129394531,0.10028915852308273
1772727779381609500,10.803609375,-2.3397624492645264,9.522905349731445,0.1008119136095047
1772727779391609600,10.813609619140625,-2.340991497039795,9.522604942321777,0.10061726719141006
1772727779401609500,10.823609375,-2.341306209564209,9.52253246307373,0.1002034842967987
1772727779411609600,10.833609619140624,-2.341189384460449,9.52256965637207,0.09948424994945526
1772727779421609500,10.843609375,-2.344496965408325,9.521759033203125,0.09908631443977356
1772727779431609600,10.853609619140625,-2.347409248352051,9.521038055419922,0.09944864362478256
1772727779441609500,10.863609375,-2.3491015434265137,9.520612716674805,0.1002097800374031
1772727779451609600,10.873609619140625,-2.3501429557800293,9.520343780517578,0.10130640119314194
1772727779461609500,10.883609375,-2.350701093673706,9.52020263671875,0.10160350799560547
1772727779471609600,10.893609619140625,-2.3506765365600586,9.520204544067383,0.1020856648683548
1772727779481609500,10.903609375,-2.3517322540283203,9.519935607910156,0.10279349982738495
1772727779491609600,10.913609619140624,-2.3530449867248535,9.519604682922363,0.10334751009941101
1772727779501609500,10.923609375,-2.354724645614624,9.519187927246094,0.10346627235412598
1772727779511609600,10.933609619140626,-2.3569979667663574,9.518625259399414,0.10352020710706711
1772727779521609500,10.943609375,-2.359231948852539,9.518064498901367,0.10422374308109283
1772727779531609600,10.953609619140625,-2.360642910003662,9.5177001953125,0.10554583370685577
1772727779541609500,10.963609375,-2.3617031574249268,9.517414093017578,0.10761643946170807
1772727779551609600,10.973609619140625,-2.3618204593658447,9.51736068725586,0.10979870706796646
1772727779561609500,10.983609375,-2.3611607551574707,9.517508506774902,0.1110142394900322
1772727779571609600,10.993609619140624,-2.361145257949829,9.517513275146484,0.11102953553199768
1772727779581609500,11.003609375,-2.3625268936157227,9.517178535461426,0.11031211912631989
1772727779591609600,11.013609619140626,-2.3642735481262207,9.516756057739258,0.10941044241189957
1772727779601609500,11.023609375,-2.36503529548645,9.516570091247559,0.10901640355587006
1772727779611609600,11.033609619140625,-2.366008758544922,9.516325950622559,0.10920035094022751
1772727779621609500,11.043609375,-2.36711049079895,9.516045570373535,0.10980100184679031
1772727779631609600,11.053609619140625,-2.3674263954162598,9.515958786010742,0.11052099615335464
1772727779641609500,11.063609375,-2.367064952850342,9.516039848327637,0.11123032122850418
1772727779651609600,11.073609619140624,-2.367098093032837,9.516021728515625,0.11208824068307877
1772727779661609500,11.083609375,-2.367093086242676,9.516016006469727,0.11265472322702408
1772727779671609600,11.093609619140626,-2.367572546005249,9.515901565551758,0.1122777909040451
1772727779681609500,11.103609375,-2.3687732219696045,9.515610694885254,0.11162032186985016
1772727779691609600,11.113609619140625,-2.370741844177246,9.515121459960938,0.11141056567430496
1772727779701609500,11.123609375,-2.3728458881378174,9.514593124389648,0.11175405234098434
1772727779711609600,11.133609619140625,-2.3747005462646484,9.514123916625977,0.11244925111532211
1772727779721609500,11.143609375,-2.373795509338379,9.5143404006958,0.11312863230705261
1772727779731609600,11.153609619140624,-2.374338388442993,9.514204978942871,0.11322594434022903
1772727779741609500,11.163609375,-2.376847743988037,9.513581275939941,0.11292681843042374
1772727779751609600,11.173609619140626,-2.3783371448516846,9.513216972351074,0.11232608556747437
1772727779761609500,11.183609375,-2.3787424564361572,9.513117790222168,0.11211501061916351
1772727779771609600,11.193609619140625,-2.3799424171447754,9.512825965881348,0.1113496944308281
1772727779781609500,11.203609375,-2.381011724472046,9.512561798095703,0.11113844066858292
1772727779791609600,11.213609619140625,-2.3819491863250732,9.512317657470703,0.11180304735898972
1772727779801609500,11.223609375,-2.382423162460327,9.512190818786621,0.11253625899553299
1772727779811609600,11.233609619140625,-2.3830511569976807,9.512027740478516,0.11309781670570374
1772727779821609500,11.243609375,-2.3841590881347656,9.51174545288086,0.11342868953943253
1772727779831609600,11.253609619140626,-2.3849570751190186,9.511542320251465,0.1136993020772934
1772727779841609500,11.263609375,-2.385585069656372,9.511384963989258,0.1136278584599495
1772727779851609600,11.273609619140625,-2.386401653289795,9.511186599731445,0.11322169750928879
1772727779861609500,11.283609375,-2.3871724605560303,9.510995864868164,0.11302047967910767
1772727779871609600,11.293609619140625,-2.3878087997436523,9.51082706451416,0.11367985606193542
1772727779881609500,11.303609375,-2.3885085582733154,9.51064682006836,0.1140894740819931
1772727779891609600,11.313609619140625,-2.389233112335205,9.510470390319824,0.11353907734155655
1772727779901609500,11.323609375,-2.389680862426758,9.510370254516602,0.11263679713010788
1772727779911609600,11.333609619140624,-2.3898794651031494,9.510330200195312,0.11173364520072937
1772727779921609500,11.343609375,-2.3899152278900146,9.510333061218262,0.11075162887573242
1772727779931609600,11.353609619140625,-2.3906445503234863,9.510157585144043,0.10996872931718826
1772727779941609500,11.363609375,-2.391512632369995,9.50993537902832,0.1103651374578476
1772727779951609600,11.373609619140625,-2.392103910446167,9.509777069091797,0.11127040535211563
1772727779961609500,11.383609375,-2.393120050430298,9.509506225585938,0.11253344267606735
1772727779971609600,11.393609619140625,-2.394282579421997,9.509193420410156,0.11421295255422592
1772727779981609500,11.403609375,-2.3953001499176025,9.508912086486816,0.11625464260578156
1772727779991609600,11.413609619140624,-2.3963940143585205,9.508622169494629,0.11739550530910492
1772727780001609500,11.423609375,-2.3976244926452637,9.508305549621582,0.11787523329257965
1772727780011609600,11.433609619140626,-2.3981752395629883,9.508163452148438,0.11825627088546753
1772727780021609500,11.443609375,-2.3970870971679688,9.508442878723145,0.11777936667203903
1772727780031609600,11.453609619140625,-2.3990445137023926,9.507959365844727,0.11702918261289597
1772727780041609500,11.463609375,-2.400775194168091,9.50753402709961,0.11602462083101273
1772727780051609600,11.473609619140625,-2.4021599292755127,9.507196426391602,0.11499849706888199
1772727780061609500,11.483609375,-2.4035537242889404,9.506851196289062,0.11441374570131302
1772727780071609600,11.493609619140624,-2.4056167602539062,9.506331443786621,0.11429465562105179
1772727780081609500,11.503609375,-2.407681465148926,9.505797386169434,0.11510718613862991
1772727780091609600,11.513609619140626,-2.40978741645813,9.505241394042969,0.11701717972755432
1772727780101609500,11.523609375,-2.4118125438690186,9.5047025680542,0.11903798580169678
1772727780111609600,11.533609619140625,-2.413661479949951,9.504212379455566,0.12068389356136322
1772727780121609500,11.543609375,-2.4152920246124268,9.503782272338867,0.12190116941928864
1772727780131609600,11.553609619140625,-2.4169764518737793,9.503345489501953,0.12263547629117966
1772727780141609500,11.563609375,-2.4180471897125244,9.503068923950195,0.12290426343679428
1772727780151609600,11.573609619140624,-2.4198708534240723,9.502601623535156,0.12320651113986969
1772727780161609500,11.583609375,-2.422593832015991,9.501900672912598,0.12374375760555267
1772727780171609600,11.593609619140626,-2.4258949756622314,9.501046180725098,0.12466975301504135
1772727780181609500,11.603609375,-2.4285271167755127,9.500368118286133,0.1251092404127121
1772727780191609600,11.613609619140625,-2.430203437805176,9.4999361038208,0.12535524368286133
1772727780201609500,11.623609375,-2.431918144226074,9.499493598937988,0.12565501034259796
1772727780211609600,11.633609619140625,-2.4338536262512207,9.498993873596191,0.12593764066696167
1772727780221609500,11.643609375,-2.435290813446045,9.498621940612793,0.1261879801750183
1772727780231609600,11.653609619140624,-2.4367682933807373,9.49824047088623,0.12646150588989258
1772727780241609500,11.663609375,-2.438730478286743,9.497732162475586,0.12671716511249542
1772727780251609600,11.673609619140626,-2.4404585361480713,9.497295379638672,0.12617453932762146
1772727780261609500,11.683609375,-2.441865921020508,9.496936798095703,0.1259670853614807
1772727780271609600,11.693609619140625,-2.4432480335235596,9.49656867980957,0.12691834568977356
1772727780281609500,11.703609375,-2.444713592529297,9.496166229248047,0.12886597216129303
1772727780291609600,11.713609619140625,-2.4461753368377686,9.495774269104004,0.12991513311862946
1772727780301609500,11.723609375,-2.4474477767944336,9.495443344116211,0.13021820783615112
1772727780311609600,11.733609619140625,-2.4482548236846924,9.495232582092285,0.13036389648914337
1772727780321609500,11.743609375,-2.448561429977417,9.495156288146973,0.13012786209583282
1772727780331609600,11.753609619140626,-2.4502172470092773,9.494739532470703,0.12941187620162964
1772727780341609500,11.763609375,-2.4520585536956787,9.494269371032715,0.12898816168308258
1772727780351609600,11.773609619140625,-2.4531688690185547,9.493985176086426,0.12881936132907867
1772727780361609500,11.783609375,-2.4540717601776123,9.493751525878906,0.1288100779056549
1772727780371609600,11.793609619140625,-2.4555370807647705,9.49337387084961,0.12873469293117523
1772727780381609500,11.803609375,-2.457242012023926,9.492921829223633,0.12949703633785248
1772727780391609600,11.813609619140625,-2.458706855773926,9.492530822753906,0.13043412566184998
1772727780401609500,11.823609375,-2.4596641063690186,9.49227237701416,0.13119088113307953
1772727780411609600,11.833609619140624,-2.4605214595794678,9.492044448852539,0.13165710866451263
1772727780421609500,11.843609375,-2.461621046066284,9.491753578186035,0.1319562941789627
1772727780431609600,11.853609619140625,-2.46264910697937,9.491480827331543,0.13235688209533691
1772727780441609500,11.863609375,-2.463228225708008,9.491324424743652,0.13287025690078735
1772727780451609600,11.873609619140625,-2.463815212249756,9.491162300109863,0.13353654742240906
1772727780461609500,11.883609375,-2.4650216102600098,9.490842819213867,0.1339295208454132
1772727780471609600,11.893609619140625,-2.466087818145752,9.490564346313477,0.13412150740623474
1772727780481609500,11.903609375,-2.4665117263793945,9.490452766418457,0.13419726490974426
1772727780491609600,11.913609619140624,-2.466597557067871,9.490425109863281,0.1345609426498413
1772727780501609500,11.923609375,-2.4660210609436035,9.49056625366211,0.13523267209529877
1772727780511609600,11.933609619140626,-2.465723752975464,9.490642547607422,0.13528837263584137
1772727780521609500,11.943609375,-2.4655463695526123,9.490691184997559,0.13498392701148987
1772727780531609600,11.953609619140625,-2.4651215076446533,9.49081039428711,0.13452240824699402
1772727780541609500,11.963609375,-2.4648354053497314,9.49089527130127,0.1337563544511795
1772727780551609600,11.973609619140625,-2.4651975631713867,9.490811347961426,0.13295063376426697
1772727780561609500,11.983609375,-2.465554714202881,9.490715026855469,0.13326719403266907
1772727780571609600,11.993609619140624,-2.465397834777832,9.490742683410645,0.1341271698474884
1772727780581609500,12.003609375,-2.46527099609375,9.490777015686035,0.13407231867313385
1772727780591609600,12.013609619140626,-2.4649648666381836,9.49086856842041,0.13321149349212646
1772727780601609500,12.023609375,-2.4639828205108643,9.491141319274902,0.13193313777446747
1772727780611609600,12.033609619140625,-2.4625940322875977,9.491518020629883,0.13081064820289612
1772727780621609500,12.043609375,-2.4618382453918457,9.491713523864746,0.1308308243751526
1772727780631609600,12.053609619140625,-2.4623196125030518,9.491570472717285,0.13214872777462006
1772727780641609500,12.063609375,-2.4632205963134766,9.491312980651855,0.13389462232589722
1772727780651609600,12.073609619140624,-2.4635250568389893,9.49122428894043,0.13453321158885956
1772727780661609500,12.083609375,-2.462993860244751,9.491368293762207,0.13402913510799408
1772727780671609600,12.093609619140626,-2.4618477821350098,9.491686820983887,0.1326153427362442
1772727780681609500,12.103609375,-2.460578680038452,9.492036819458008,0.13116073608398438
1772727780691609600,12.113609619140625,-2.4599883556365967,9.492205619812012,0.1299201399087906
1772727780701609500,12.123609375,-2.460232973098755,9.492148399353027,0.12941308319568634
1772727780711609600,12.133609619140625,-2.4607045650482178,9.492026329040527,0.1295090764760971
1772727780721609500,12.143609375,-2.459810733795166,9.492243766784668,0.13046793639659882
1772727780731609600,12.153609619140624,-2.4589853286743164,9.49245834350586,0.13049231469631195
1772727780741609500,12.163609375,-2.458569288253784,9.492568016052246,0.13032589852809906
1772727780751609600,12.173609619140626,-2.4579052925109863,9.4927339553833,0.13071849942207336
1772727780761609500,12.183609375,-2.4567177295684814,9.49304485321045,0.13040010631084442
1772727780771609600,12.193609619140625,-2.4550046920776367,9.493502616882324,0.1294032782316208
1772727780781609500,12.203609375,-2.4530181884765625,9.494027137756348,0.12857350707054138
1772727780791609600,12.213609619140625,-2.4511866569519043,9.494495391845703,0.12895874679088593
1772727780801609500,12.223609375,-2.451051950454712,9.494524002075195,0.12944136559963226
1772727780811609600,12.233609619140625,-2.4520180225372314,9.494272232055664,0.12955500185489655
1772727780821609500,12.243609375,-2.452402353286743,9.494163513183594,0.13033056259155273
1772727780831609600,12.253609619140626,-2.451514959335327,9.494388580322266,0.1306016892194748
1772727780841609500,12.263609375,-2.451998472213745,9.494282722473145,0.12922567129135132
1772727780851609600,12.273609619140625,-2.4532413482666016,9.49399471282959,0.12676215171813965
1772727780861609500,12.283609375,-2.4532546997070312,9.494014739990234,0.12493494153022766
1772727780871609600,12.293609619140625,-2.4513936042785645,9.494503021240234,0.12439977377653122
1772727780881609500,12.303609375,-2.450157642364502,9.494819641113281,0.12453130632638931
1772727780891609600,12.313609619140625,-2.4506232738494873,9.4946870803833,0.12542963027954102
1772727780901609500,12.323609375,-2.4511728286743164,9.494524955749512,0.1270066201686859
1772727780911609600,12.333609619140624,-2.451526403427124,9.49441146850586,0.12861675024032593
1772727780921609500,12.343609375,-2.452031373977661,9.494261741638184,0.13014422357082367
1772727780931609600,12.353609619140625,-2.451902389526367,9.494274139404297,0.1316368728876114
1772727780941609500,12.363609375,-2.452481508255005,9.494107246398926,0.13286440074443817
1772727780951609600,12.373609619140625,-2.454026937484741,9.493690490722656,0.13408184051513672
1772727780961609500,12.383609375,-2.4553263187408447,9.4933500289917,0.13443079590797424
1772727780971609600,12.393609619140625,-2.456740140914917,9.492985725402832,0.13423264026641846
1772727780981609500,12.403609375,-2.4580979347229004,9.492639541625977,0.13394330441951752
1772727780991609600,12.413609619140624,-2.4575533866882324,9.492785453796387,0.1335851550102234
1772727781001609500,12.423609375,-2.4569244384765625,9.492960929870605,0.1326240748167038
1772727781011609600,12.433609619140626,-2.4579501152038574,9.492708206176758,0.1316760927438736
1772727781021609500,12.443609375,-2.459770441055298,9.492240905761719,0.13150155544281006
1772727781031609600,12.453609619140625,-2.460747241973877,9.491989135742188,0.13138630986213684
1772727781041609500,12.463609375,-2.4608185291290283,9.491968154907227,0.13152718544006348
1772727781051609600,12.473609619140625,-2.460566759109497,9.492023468017578,0.13226035237312317
1772727781061609500,12.483609375,-2.4603404998779297,9.492071151733398,0.13301868736743927
1772727781071609600,12.493609619140624,-2.461308002471924,9.491825103759766,0.13270533084869385
1772727781081609500,12.503609375,-2.463209390640259,9.491341590881348,0.13194705545902252
1772727781091609600,12.513609619140626,-2.4645841121673584,9.490991592407227,0.13150084018707275
1772727781101609500,12.523609375,-2.4655277729034424,9.490756034851074,0.13084110617637634
1772727781111609600,12.533609619140625,-2.4661498069763184,9.490601539611816,0.13029034435749054
1772727781121609500,12.543609375,-2.467068910598755,9.490370750427246,0.12967199087142944
1772727781131609600,12.553609619140625,-2.467921257019043,9.490165710449219,0.1284562200307846
1772727781141609500,12.563609375,-2.46822190284729,9.49010944366455,0.12682482600212097
1772727781151609600,12.573609619140624,-2.4680960178375244,9.490168571472168,0.12485381960868835
1772727781161609500,12.583609375,-2.468477249145508,9.490095138549805,0.12291707843542099
1772727781171609600,12.593609619140626,-2.470125198364258,9.489679336547852,0.12184850871562958
1772727781181609500,12.603609375,-2.472170829772949,9.48914909362793,0.12169583141803741
1772727781191609600,12.613609619140625,-2.471845865249634,9.489236831665039,0.1214127168059349
1772727781201609500,12.623609375,-2.4735169410705566,9.488798141479492,0.12175098061561584
1772727781211609600,12.633609619140625,-2.4759552478790283,9.488147735595703,0.12286212295293808
1772727781221609500,12.643609375,-2.4768478870391846,9.487899780273438,0.12395360320806503
1772727781231609600,12.653609619140624,-2.4777026176452637,9.487662315368652,0.12506532669067383
1772727781241609500,12.663609375,-2.4796690940856934,9.487139701843262,0.12575285136699677
1772727781251609600,12.673609619140626,-2.4820919036865234,9.486491203308105,0.12682659924030304
1772727781261609500,12.683609375,-2.4844589233398438,9.485857009887695,0.12789824604988098
1772727781271609600,12.693609619140625,-2.4866912364959717,9.485261917114258,0.12870502471923828
1772727781281609500,12.703609375,-2.4893221855163574,9.484565734863281,0.12913653254508972
1772727781291609600,12.713609619140625,-2.4914677143096924,9.484001159667969,0.12919504940509796
1772727781301609500,12.723609375,-2.492875337600708,9.483642578125,0.12840643525123596
1772727781311609600,12.733609619140625,-2.4946444034576416,9.483195304870605,0.1270027756690979
1772727781321609500,12.743609375,-2.496980905532837,9.482599258422852,0.1256255954504013
1772727781331609600,12.753609619140626,-2.4990832805633545,9.482061386108398,0.12446145713329315
1772727781341609500,12.763609375,-2.5006425380706787,9.481656074523926,0.12399274110794067
1772727781351609600,12.773609619140625,-2.5018932819366455,9.481328010559082,0.12382210791110992
1772727781361609500,12.783609375,-2.503051519393921,9.481025695800781,0.12359123677015305
1772727781371609600,12.793609619140625,-2.5037477016448975,9.48084545135498,0.1234002485871315
1772727781381609500,12.803609375,-2.503965139389038,9.480791091918945,0.1230088472366333
1772727781391609600,12.813609619140625,-2.503992795944214,9.480790138244629,0.1226511225104332
1772727781401609500,12.823609375,-2.504805564880371,9.480575561523438,0.12255411595106125
1772727781411609600,12.833609619140624,-2.506392002105713,9.480156898498535,0.12259960174560547
1772727781421609500,12.843609375,-2.5075929164886475,9.479840278625488,0.12241557240486145
1772727781431609600,12.853609619140625,-2.508605480194092,9.479578971862793,0.12196630239486694
1772727781441609500,12.863609375,-2.5097594261169434,9.479276657104492,0.12165676802396774
1772727781451609600,12.873609619140625,-2.510491132736206,9.479087829589844,0.12137382477521896
1772727781461609500,12.883609375,-2.5112433433532715,9.478894233703613,0.12086324393749237
1772727781471609600,12.893609619140625,-2.5126404762268066,9.478527069091797,0.12059564143419266
1772727781481609500,12.903609375,-2.5137264728546143,9.47823715209961,0.120733842253685
1772727781491609600,12.913609619140624,-2.5145654678344727,9.478017807006836,0.12054223567247391
1772727781501609500,12.923609375,-2.5155107975006104,9.477770805358887,0.12020193040370941
1772727781511609600,12.933609619140626,-2.516711950302124,9.477449417114258,0.12046969681978226
1772727781521609500,12.943609375,-2.5177149772644043,9.477174758911133,0.12104965001344681
1772727781531609600,12.953609619140625,-2.518256187438965,9.477030754089355,0.12117883563041687
1772727781541609500,12.963609375,-2.5191876888275146,9.476787567138672,0.12073652446269989
1772727781551609600,12.973609619140625,-2.520512580871582,9.4764404296875,0.12035449594259262
1772727781561609500,12.983609375,-2.5214879512786865,9.476184844970703,0.11995312571525574
1772727781571609600,12.993609619140624,-2.522240161895752,9.475995063781738,0.11918193101882935
1772727781581609500,13.003609375,-2.5236666202545166,9.475625991821289,0.11840660870075226
1772727781591609600,13.013609619140626,-2.5253920555114746,9.475171089172363,0.1179623156785965
1772727781601609500,13.023609375,-2.526620626449585,9.474848747253418,0.11748714745044708
