time,seconds_elapsed,z,y,x
1772727768665148400,0.0871484375,-0.22036947309970856,-3.036761522293091,0.39141160249710083
1772727768682494000,0.104493896484375,-0.5545125007629395,-2.399629592895508,0.6504182815551758
1772727768699839200,0.121839111328125,-0.8996511101722717,-1.6360485553741455,0.671187698841095
1772727768717184800,0.139184814453125,-1.200196623802185,-1.726456642150879,0.44577857851982117
1772727768734530300,0.1565302734375,-1.0810779333114624,-2.5492913722991943,0.09453132748603821
1772727768751875600,0.17387548828125,-0.26251915097236633,-2.8345654010772705,-0.30253079533576965
1772727768769221000,0.19122119140625,0.643393337726593,-2.29150652885437,-0.3831649422645569
1772727768786566400,0.20856640625,1.2640318870544434,-1.1950042247772217,-0.033139415085315704
1772727768803912000,0.225911865234375,1.3923135995864868,-0.5988001823425293,0.6015490889549255
1772727768821257200,0.24325732421875,0.6940951347351074,-1.4161372184753418,0.8880446553230286
1772727768838602800,0.260602783203125,0.14798198640346527,-2.679405689239502,0.9216422438621521
1772727768855948000,0.277947998046875,0.14492766559123993,-3.0190465450286865,1.1562143564224243
1772727768873293600,0.29529345703125,0.34834563732147217,-3.207192897796631,1.4976876974105835
1772727768890639000,0.31263916015625,0.37461283802986145,-3.4576473236083984,1.8923063278198242
1772727768907984400,0.329984375,-0.064598947763443,-3.118006467819214,2.2453861236572266
1772727768925330000,0.347329833984375,-0.9472985863685608,-2.5529565811157227,2.0810635089874268
1772727768942675200,0.36467529296875,-2.1311545372009277,-1.9201006889343262,1.5905392169952393
1772727768960020700,0.382020751953125,-3.35593843460083,-1.0734421014785767,1.235015869140625
1772727768977366300,0.3993662109375,-4.547124862670898,-0.5963567495346069,1.0914626121520996
1772727768994711600,0.416711669921875,-5.701659202575684,-0.3935496211051941,1.1879792213439941
1772727769012057000,0.43405712890625,-6.575195789337158,-0.3721693754196167,1.5435025691986084
1772727769029402400,0.45140234375,-6.425533771514893,-1.080161690711975,2.086561441421509
1772727769046748000,0.468747802734375,-4.688234329223633,-1.6836960315704346,2.7310237884521484
1772727769064093200,0.48609326171875,-0.6809614896774292,-1.5370885133743286,3.2618651390075684
1772727769081438700,0.503438720703125,1.3238966464996338,-1.0166317224502563,3.1421356201171875
1772727769098784300,0.5207841796875,0.7509055137634277,-0.9555452466011047,3.0028586387634277
1772727769116129500,0.538129638671875,0.2133445292711258,-0.4448622763156891,2.6418373584747314
1772727769133475000,0.55547509765625,0.025809036567807198,0.12202023714780807,2.233168840408325
1772727769150820400,0.5728203125,0.10094540566205978,0.7066178321838379,2.020587921142578
1772727769168166000,0.590165771484375,0.3110828995704651,0.699287474155426,2.015090227127075
1772727769185511400,0.607511474609375,0.8565851449966431,1.4530946016311646,2.4769039154052734
1772727769202856700,0.624856689453125,1.5560252666473389,1.965610146522522,3.296684503555298
1772727769220202200,0.6422021484375,1.769827961921692,1.4060579538345337,4.453662395477295
1772727769237547500,0.659547607421875,1.4130829572677612,-0.011148282326757908,5.463421821594238
1772727769254893000,0.67689306640625,0.8199332356452942,0.6058251261711121,6.03763484954834
1772727769272238600,0.694238525390625,0.6110175251960754,1.9564471244812012,5.4725847244262695
1772727769289583900,0.711583984375,0.911562979221344,2.702313184738159,4.129292964935303
1772727769306929400,0.728929443359375,1.4992148876190186,2.48117995262146,2.3455679416656494
1772727769324275000,0.74627490234375,0.5187768936157227,-0.9518800377845764,-1.3599376678466797
1772727769341620200,0.7636201171875,-0.12935061752796173,0.1568395346403122,-3.2059710025787354
1772727769358965800,0.7809658203125,0.03375028073787689,-0.5462658405303955,-3.663508892059326
1772727769376311000,0.79831103515625,-0.09453132748603821,-1.1070396900177002,-3.6671741008758545
1772727769393656600,0.815656494140625,-0.42012226581573486,0.6113229393959045,-2.5889976024627686
1772727769411002000,0.833002197265625,-0.7243329286575317,1.2124139070510864,-0.25060728192329407
1772727769428347400,0.850347412109375,-1.143997073173523,-0.27687445282936096,0.3871355652809143
1772727769445693000,0.86769287109375,-1.570380687713623,-0.3263545036315918,0.43722647428512573
1772727769463038500,0.88503857421875,-1.8959715366363525,-0.11316270381212234,0.42134398221969604
1772727769480383700,0.9023837890625,-1.9466733932495117,0.1311832070350647,0.5178605914115906
1772727769497729300,0.919729248046875,-1.9167410135269165,0.8330668210983276,0.6638572812080383
1772727769515074800,0.93707470703125,-1.2594504356384277,2.626565933227539,0.6076577305793762
1772727769532420000,0.954420166015625,-0.7841976881027222,-1.38192880153656,-0.64278244972229
1772727769549765600,0.971765625,-0.12018764764070511,0.3761399984359741,0.14217877388000488
1772727769567111000,0.98911083984375,-0.01511890348047018,0.4433351159095764,-0.22128576040267944
1772727769584456400,1.00645654296875,0.13759729266166687,0.9955568909645081,-1.0099122524261475
1772727769601802000,1.023802001953125,0.3727802336215973,0.9246965646743774,-1.530979871749878
1772727769619147300,1.041147216796875,0.4338667094707489,0.39629852771759033,-2.2670719623565674
1772727769636492800,1.058492919921875,0.8327614068984985,0.4744892120361328,-3.5193448066711426
1772727769653838300,1.07583837890625,0.23228132724761963,1.3535236120224,-3.686110734939575
1772727769671183600,1.09318359375,-0.5618428587913513,-0.6287325620651245,-1.9530874490737915
1772727769688529200,1.110529052734375,-0.31261005997657776,0.125074565410614,-0.42592546343803406
1772727769705874700,1.127874755859375,0.15241076052188873,-0.304974228143692,0.8295543789863586
1772727769723220000,1.145219970703125,0.5488619804382324,0.15561780333518982,0.8222240209579468
1772727769740565500,1.1625654296875,0.41386088728904724,-0.06979130208492279,0.32009315490722656
1772727769757911000,1.1799111328125,0.11392628401517868,0.09147699922323227,0.287106454372406
1772727769775256300,1.19725634765625,0.010690134018659592,0.043829549103975296,0.13072505593299866
1772727769792601900,1.214601806640625,-0.019853105768561363,0.040775224566459656,-0.07574722915887833
1772727769809947100,1.231947021484375,-0.032681263983249664,-0.012370011769235134,-0.13988803327083588
1772727769827292700,1.249292724609375,-0.03634645417332649,-0.027030766010284424,-0.12217295914888382
1772727769844638200,1.26663818359375,-0.054672397673130035,-0.049632761627435684,-0.14233149588108063
1772727769861983500,1.2839833984375,-0.10170898586511612,-0.030695954337716103,-0.1484401375055313
1772727769879329000,1.3013291015625,-0.08949168771505356,-0.07040216773748398,-0.01954767294228077
1772727769896674600,1.318674560546875,-0.04734202101826668,-0.033139415085315704,-0.025045456364750862
1772727769914020000,1.33602001953125,0.006414080038666725,-0.009926552884280682,-0.050090912729501724
1772727769931365400,1.353365478515625,0.005192350596189499,-0.01908952370285988,-0.034208428114652634
1772727769948711000,1.3707109375,0.016798781231045723,-0.026419902220368385,-0.01954767294228077
1772727769966056400,1.388056396484375,0.013133592903614044,-0.008704823441803455,-0.034208428114652634
1772727769983401700,1.405401611328125,0.007635809946805239,-0.008093958720564842,-0.02871064469218254
1772727770000747300,1.422747314453125,0.0015271619195118546,-0.01908952370285988,-0.026878049597144127
1772727770018092800,1.4400927734375,0.008857538923621178,-0.022754713892936707,-0.04764745384454727
1772727770035438000,1.45743798828125,0.003970621153712273,-0.036193739622831345,-0.05192350596189499
1772727770052783600,1.47478369140625,-0.0015271619195118546,-0.042913250625133514,-0.039706211537122726
1772727770070129200,1.492129150390625,-0.000305432389723137,-0.033139415085315704,-0.03298669680953026
1772727770087474400,1.509474365234375,-0.012522728182375431,-0.017867794260382652,-0.043371398001909256
1772727770104820000,1.526820068359375,-0.016798781231045723,-0.009926552884280682,-0.000610864779446274
1772727770122165500,1.54416552734375,-0.008246674202382565,-0.0038179049734026194,-0.007330377586185932
1772727770139511000,1.561510986328125,-0.0021380267571657896,0.008399390615522861,-0.024434590712189674
1772727770156856300,1.578856201171875,0.000305432389723137,0.005955931730568409,-0.009162971749901772
1772727770174201900,1.596201904296875,-0.000305432389723137,0.007788525894284248,-0.006108647678047419
1772727770191547400,1.61354736328125,-0.003359756199643016,0.005345067009329796,-0.003665188793092966
1772727770208892700,1.630892578125,-0.011300998739898205,0.0102319847792387,-0.0054977829568088055
1772727770226238200,1.64823828125,-0.016187917441129684,0.008399390615522861,-0.01282816007733345
1772727770243583700,1.665583740234375,-0.016187917441129684,0.003512472379952669,-0.014049889519810677
1772727770260929300,1.68292919921875,-0.005803215317428112,0.005955931730568409,-0.01649334840476513
1772727770278274600,1.700274658203125,0.003359756199643016,0.005955931730568409,-0.004886918235570192
1772727770295620000,1.7176201171875,0.00946840364485979,0.011453714221715927,-0.003665188793092966
1772727770312965600,1.734965576171875,0.008246674202382565,0.009621120058000088,-0.007330377586185932
1772727770330311000,1.752310791015625,0.003970621153712273,0.009621120058000088,0.001221729558892548
1772727770347656400,1.769656494140625,-0.005192350596189499,0.003512472379952669,-0.007941242307424545
1772727770365002000,1.787001953125,-0.014966187067329884,-0.0007635809597559273,-0.002443459117785096
1772727770382347500,1.804347412109375,-0.012522728182375431,-0.0001527161948615685,-0.010384701192378998
1772727770399692800,1.82169287109375,-0.005192350596189499,0.007788525894284248,-0.001221729558892548
1772727770417038300,1.839038330078125,0.0015271619195118546,0.005955931730568409,-0.009773836471140385
1772727770434384000,1.8563837890625,0.0027488914784044027,0.013897174037992954,-0.011606430634856224
1772727770451729400,1.8737294921875,0.003359756199643016,0.017562363296747208,-0.008552107028663158
1772727770469074700,1.89107470703125,-0.0021380267571657896,0.005955931730568409,0.0030543238390237093
1772727770486420200,1.908420166015625,-0.0027488914784044027,0.002290742937475443,-0.01282816007733345
1772727770503765800,1.925765869140625,-0.007024944759905338,0.0010690133785828948,-0.01954767294228077
1772727770521111000,1.943111083984375,-0.013133592903614044,-0.0032070400193333626,-0.020769402384757996
1772727770538456600,1.96045654296875,-0.016187917441129684,-0.0025961752980947495,-0.015271619893610477
1772727770555802000,1.977802001953125,-0.025350889191031456,-0.0001527161948615685,-0.018325943499803543
1772727770573147600,1.995147705078125,-0.03756818547844887,0.004734201822429895,-0.030543239787220955
1772727770590493200,2.0124931640625,-0.05283980444073677,-0.0019853105768561363,-0.05070177838206291
1772727770607838500,2.02983837890625,-0.06750056147575378,-0.0013744457392022014,-0.053145237267017365
1772727770625184000,2.04718408203125,-0.057726722210645676,0.004123337101191282,-0.05803215503692627
1772727770642529500,2.064529541015625,-0.038789913058280945,-0.011759147047996521,-0.015271619893610477
1772727770659875000,2.081875,-0.02107483521103859,0.0010690133785828948,-0.01954767294228077
1772727770677220400,2.099220458984375,-0.005192350596189499,0.004123337101191282,-0.021991131827235222
1772727770694566000,2.11656591796875,0.00946840364485979,-0.0025961752980947495,0.004886918235570192
1772727770711911400,2.133911376953125,0.007024944759905338,0.0010690133785828948,-0.01893680728971958
1772727770729257000,2.151257080078125,-0.0009162971982732415,-0.0025961752980947495,-0.01588248461484909
1772727770746602200,2.168602294921875,-0.00946840364485979,0.0010690133785828948,-0.009162971749901772
1772727770763947800,2.18594775390625,-0.01740964688360691,0.002901607658714056,-0.028099779039621353
1772727770781293300,2.203293212890625,-0.016187917441129684,0.005345067009329796,-0.017715077847242355
1772727770798638800,2.220638916015625,-0.005803215317428112,0.012675444595515728,-0.014049889519810677
1772727770815984400,2.237984375,-0.0021380267571657896,0.013897174037992954,-0.01954767294228077
1772727770833329700,2.25532958984375,-0.0027488914784044027,0.013286309316754341,-0.018325943499803543
1772727770850675200,2.27267529296875,-0.005803215317428112,0.014508038759231567,-0.020769402384757996
1772727770868020700,2.290020751953125,-0.007635809946805239,0.01206457894295454,-0.014049889519810677
1772727770885366300,2.3073662109375,-0.010079269297420979,0.006566796451807022,-0.025045456364750862
1772727770902711600,2.324711669921875,-0.01435532234609127,0.009010255336761475,-0.027488915249705315
1772727770920057000,2.34205712890625,-0.007024944759905338,0.005955931730568409,-0.020769402384757996
1772727770937402600,2.359402587890625,-0.003359756199643016,0.004734201822429895,-0.024434590712189674
1772727770954748200,2.376748046875,-0.0015271619195118546,0.010842849500477314,-0.021380268037319183
1772727770972093400,2.394093505859375,-0.0009162971982732415,0.008399390615522861,-0.009162971749901772
1772727770989439000,2.41143896484375,-0.005192350596189499,0.007177661173045635,-0.02260199747979641
1772727771006784500,2.428784423828125,-0.006414080038666725,0.012675444595515728,-0.026878049597144127
1772727771024130000,2.446130126953125,-0.008857538923621178,0.013286309316754341,-0.024434590712189674
1772727771041475600,2.4634755859375,-0.008857538923621178,0.009621120058000088,-0.023823726922273636
1772727771058821000,2.480821044921875,-0.0015271619195118546,0.0102319847792387,-0.014049889519810677
1772727771076166400,2.49816650390625,0.003359756199643016,0.012675444595515728,-0.014660755172371864
1772727771093512000,2.515511962890625,-0.000305432389723137,0.006566796451807022,-0.01649334840476513
1772727771110857500,2.532857421875,-0.004581485874950886,0.005955931730568409,-0.024434590712189674
1772727771128203000,2.550203125,-0.004581485874950886,0.007788525894284248,-0.020158538594841957
1772727771145548500,2.567548583984375,-0.007635809946805239,0.003512472379952669,-0.020769402384757996
1772727771162893800,2.584893798828125,-0.010079269297420979,0.004734201822429895,-0.023212861269712448
1772727771180239400,2.6022392578125,-0.008857538923621178,0.007177661173045635,-0.023212861269712448
1772727771197585000,2.6195849609375,-0.0021380267571657896,0.015729768201708794,-0.015271619893610477
1772727771214930400,2.636930419921875,0.0009162971982732415,0.007788525894284248,-0.015271619893610477
1772727771232276000,2.65427587890625,-0.0027488914784044027,0.001679878099821508,-0.010995565913617611
1772727771249621200,2.671621337890625,-0.010079269297420979,-0.0001527161948615685,-0.017104214057326317
1772727771266966800,2.688966796875,-0.019242240116000175,-0.0013744457392022014,-0.01893680728971958
1772727771284312300,2.706312255859375,-0.021685699000954628,-0.0007635809597559273,-0.017104214057326317
1772727771301657900,2.723657958984375,-0.019853105768561363,0.002290742937475443,-0.017715077847242355
1772727771319003400,2.74100341796875,-0.013133592903614044,0.005955931730568409,-0.015271619893610477
1772727771336349000,2.758348876953125,-0.004581485874950886,0.010842849500477314,-0.01588248461484909
1772727771353694200,2.775694091796875,0.0015271619195118546,0.013286309316754341,-0.008552107028663158
1772727771371039700,2.793039794921875,0.006414080038666725,0.014508038759231567,-0.004276053514331579
1772727771388385300,2.81038525390625,-0.0009162971982732415,0.008399390615522861,-0.009773836471140385
1772727771405730800,2.827730712890625,-0.011911863461136818,0.005345067009329796,-0.010384701192378998
1772727771423076400,2.845076416015625,-0.016187917441129684,0.00045814859913662076,-0.008552107028663158
1772727771440422000,2.862421875,-0.015577051788568497,-0.0019853105768561363,-0.011606430634856224
1772727771457767200,2.87976708984375,-0.007024944759905338,0.001679878099821508,-0.004886918235570192
1772727771475112700,2.89711279296875,-0.000305432389723137,0.005345067009329796,-0.004276053514331579
1772727771492458200,2.914458251953125,0.0015271619195118546,0.009010255336761475,-0.013439024798572063
1772727771509803800,2.9318037109375,-0.0009162971982732415,0.011453714221715927,-0.013439024798572063
1772727771527149300,2.9491494140625,-0.006414080038666725,0.011453714221715927,-0.013439024798572063
1772727771544494800,2.966494873046875,-0.010690134018659592,0.009010255336761475,-0.009773836471140385
1772727771561840400,2.98384033203125,-0.006414080038666725,0.013897174037992954,-0.004276053514331579
1772727771579185700,3.001185546875,-0.005803215317428112,0.011453714221715927,-0.01588248461484909
1772727771596531200,3.01853125,-0.004581485874950886,0.009621120058000088,-0.010384701192378998
1772727771613876700,3.035876708984375,-0.003970621153712273,0.007788525894284248,-0.009773836471140385
1772727771631222300,3.05322216796875,-0.005192350596189499,0.0102319847792387,-0.010995565913617611
1772727771648567800,3.07056787109375,-0.003359756199643016,0.01206457894295454,-0.012217295356094837
1772727771665913300,3.087913330078125,-0.005803215317428112,0.007788525894284248,-0.013439024798572063
1772727771683259000,3.1052587890625,-0.008246674202382565,0.005955931730568409,-0.013439024798572063
1772727771700604200,3.122604248046875,-0.00946840364485979,0.004123337101191282,-0.011606430634856224
1772727771717949700,3.13994970703125,-0.012522728182375431,0.013897174037992954,-0.0054977829568088055
1772727771735295200,3.157295166015625,-0.013744457624852657,0.007788525894284248,-0.015271619893610477
1772727771752640800,3.174640869140625,-0.003970621153712273,0.008399390615522861,-0.001832594396546483
1772727771769986300,3.191986328125,0.000305432389723137,0.010842849500477314,-0.010995565913617611
1772727771787331800,3.209331787109375,0.0015271619195118546,0.01206457894295454,-0.01649334840476513
1772727771804677400,3.226677490234375,-0.000305432389723137,0.014508038759231567,-0.000610864779446274
1772727771822022700,3.244022705078125,-0.004581485874950886,0.01206457894295454,-0.006719512399286032
1772727771839368200,3.2613681640625,-0.008246674202382565,0.009010255336761475,-0.009162971749901772
1772727771856713700,3.278713623046875,-0.010690134018659592,0.009621120058000088,-0.010995565913617611
1772727771874059300,3.296059326171875,-0.011300998739898205,0.008399390615522861,-0.018325943499803543
1772727771891404800,3.31340478515625,-0.003359756199643016,0.009621120058000088,-0.007330377586185932
1772727771908750300,3.330750244140625,-0.000305432389723137,0.010842849500477314,-0.007330377586185932
1772727771926096000,3.348095947265625,-0.003970621153712273,0.009010255336761475,-0.011606430634856224
1772727771943441400,3.36544140625,-0.008857538923621178,0.006566796451807022,-0.015271619893610477
1772727771960787000,3.382786865234375,-0.011300998739898205,0.007177661173045635,-0.015271619893610477
1772727771978132200,3.40013232421875,-0.005803215317428112,0.007788525894284248,-0.006719512399286032
1772727771995477800,3.417477783203125,-0.0009162971982732415,0.01206457894295454,-0.004886918235570192
1772727772012823300,3.4348232421875,0.000305432389723137,0.012675444595515728,-0.010995565913617611
1772727772030168800,3.4521689453125,-0.003359756199643016,0.012675444595515728,-0.013439024798572063
1772727772047514400,3.469514404296875,-0.006414080038666725,0.009010255336761475,-0.015271619893610477
1772727772064860000,3.48685986328125,-0.008857538923621178,0.005955931730568409,-0.01588248461484909
1772727772082205400,3.504205322265625,-0.008246674202382565,0.007177661173045635,-0.009162971749901772
1772727772099551000,3.521551025390625,-0.006414080038666725,0.005955931730568409,-0.01282816007733345
1772727772116896500,3.538896484375,-0.0027488914784044027,0.009621120058000088,-0.017715077847242355
1772727772134242000,3.556241943359375,-0.0015271619195118546,0.010842849500477314,-0.013439024798572063
1772727772151587300,3.57358740234375,0.000305432389723137,0.009010255336761475,-0.010384701192378998
1772727772168932900,3.590932861328125,-0.0015271619195118546,0.004734201822429895,-0.008552107028663158
1772727772186278400,3.6082783203125,-0.005192350596189499,0.006566796451807022,-0.018325943499803543
1772727772203624000,3.6256240234375,-0.011911863461136818,0.007177661173045635,-0.01588248461484909
1772727772220969500,3.642969482421875,-0.014966187067329884,0.004734201822429895,-0.021991131827235222
1772727772238315000,3.66031494140625,-0.010079269297420979,0.004123337101191282,-0.01282816007733345
1772727772255660500,3.67766064453125,-0.0021380267571657896,0.005345067009329796,-0.014660755172371864
1772727772273006000,3.695006103515625,0.003359756199643016,0.005345067009329796,-0.010384701192378998
1772727772290351600,3.7123515625,-0.000305432389723137,0.006566796451807022,-0.018325943499803543
1772727772307697200,3.729697265625,-0.003359756199643016,0.005345067009329796,-0.017715077847242355
1772727772325042400,3.74704248046875,-0.004581485874950886,0.003512472379952669,-0.009773836471140385
1772727772342388000,3.764387939453125,-0.006414080038666725,0.004734201822429895,-0.012217295356094837
1772727772359733500,3.7817333984375,-0.012522728182375431,0.005345067009329796,-0.011606430634856224
1772727772377079000,3.7990791015625,-0.011300998739898205,0.007788525894284248,-0.011606430634856224
1772727772394424600,3.816424560546875,-0.007024944759905338,0.007788525894284248,-0.014049889519810677
1772727772411770000,3.83377001953125,-0.000305432389723137,0.0102319847792387,-0.006108647678047419
1772727772429115600,3.85111572265625,0.0021380267571657896,0.012675444595515728,-0.0054977829568088055
1772727772446461200,3.868461181640625,-0.0009162971982732415,0.011453714221715927,-0.004276053514331579
1772727772463806700,3.885806640625,-0.003359756199643016,0.007177661173045635,-0.01893680728971958
1772727772481152300,3.90315234375,-0.003970621153712273,0.005955931730568409,-0.006719512399286032
1772727772498497800,3.920497802734375,-0.0027488914784044027,0.006566796451807022,-0.004886918235570192
1772727772515843300,3.93784326171875,-0.0027488914784044027,0.006566796451807022,-0.006719512399286032
1772727772533188900,3.95518896484375,-0.006414080038666725,0.005345067009329796,-0.0054977829568088055
1772727772550534400,3.972534423828125,-0.005192350596189499,0.005955931730568409,-0.006108647678047419
1772727772567880000,3.9898798828125,0.000305432389723137,0.007177661173045635,-0.001221729558892548
1772727772585225500,4.0072255859375,0.0009162971982732415,0.01206457894295454,-0.004886918235570192
1772727772602571000,4.024571044921875,-0.005192350596189499,0.013286309316754341,-0.0054977829568088055
1772727772619916300,4.041916259765625,-0.005192350596189499,0.014508038759231567,-0.004276053514331579
1772727772637261800,4.05926171875,0.0015271619195118546,0.013286309316754341,0.004886918235570192
1772727772654607400,4.076607421875,0.007635809946805239,0.010842849500477314,0.0054977829568088055
1772727772671953200,4.093953125,0.003359756199643016,0.010842849500477314,-0.002443459117785096
1772727772689298400,4.11129833984375,-0.0027488914784044027,0.009010255336761475,-0.002443459117785096
1772727772706644000,4.12864404296875,-0.004581485874950886,0.009010255336761475,0.002443459117785096
1772727772723989500,4.145989501953125,-0.003359756199643016,0.007177661173045635,0.003665188793092966
1772727772741335000,4.1633349609375,-0.0021380267571657896,0.009010255336761475,-0.000610864779446274
1772727772758680600,4.1806806640625,-0.006414080038666725,0.012675444595515728,-0.011606430634856224
1772727772776026000,4.198026123046875,-0.006414080038666725,0.01511890348047018,-0.004886918235570192
1772727772793371600,4.21537158203125,0.0009162971982732415,0.0206166859716177,0.0030543238390237093
1772727772810717200,4.23271728515625,0.005192350596189499,0.02000582218170166,-0.000610864779446274
1772727772828062700,4.250062744140625,0.004581485874950886,0.021838415414094925,-0.0030543238390237093
1772727772845408300,4.267408203125,-0.003359756199643016,0.01695149764418602,-0.011606430634856224
1772727772862753800,4.28475390625,-0.006414080038666725,0.013897174037992954,-0.009773836471140385
1772727772880099300,4.302099365234375,0.0009162971982732415,0.018173227086663246,0.001221729558892548
1772727772897444900,4.31944482421875,0.006414080038666725,0.018784092739224434,0.004276053514331579
1772727772914790400,4.336790283203125,0.006414080038666725,0.021838415414094925,-0.004276053514331579
1772727772932136000,4.354135986328125,0.004581485874950886,0.021227551624178886,-0.01282816007733345
1772727772949481500,4.3714814453125,0.006414080038666725,0.018784092739224434,-0.006108647678047419
1772727772966827000,4.388826904296875,0.006414080038666725,0.015729768201708794,-0.000610864779446274
1772727772984172500,4.406172607421875,0.0009162971982732415,0.011453714221715927,-0.001221729558892548
1772727773001518000,4.42351806640625,-0.007635809946805239,0.006566796451807022,-0.010995565913617611
1772727773018863600,4.440863525390625,-0.007635809946805239,0.005955931730568409,-0.009162971749901772
1772727773036209200,4.458209228515625,-0.003970621153712273,0.003512472379952669,0
1772727773053554700,4.4755546875,-0.0021380267571657896,0.004734201822429895,-0.007941242307424545
1772727773070900200,4.492900146484375,-0.0021380267571657896,0.006566796451807022,-0.006108647678047419
1772727773088245800,4.510245849609375,-0.003970621153712273,0.007177661173045635,-0.010995565913617611
1772727773105591300,4.52759130859375,-0.005192350596189499,0.011453714221715927,-0.007330377586185932
1772727773122936800,4.544936767578125,-0.000305432389723137,0.00045814859913662076,0.013439024798572063
1772727773140282400,4.562282470703125,0.003970621153712273,-0.0025961752980947495,0.025045456364750862
1772727773157628000,4.5796279296875,0.0027488914784044027,-0.0007635809597559273,0.01893680728971958
1772727773174973400,4.596973388671875,-0.010079269297420979,-0.011759147047996521,0.03481929376721382
1772727773192319000,4.614319091796875,0.00946840364485979,-0.014202605932950974,-0.017104214057326317
1772727773209664500,4.63166455078125,0.019853105768561363,0.015729768201708794,0.0054977829568088055
1772727773227010000,4.649010009765625,-0.005192350596189499,-0.005650499369949102,-0.08429934084415436
1772727773244355600,4.66635546875,-0.010690134018659592,0.0010690133785828948,-0.015271619893610477
1772727773261701000,4.683701171875,-0.004581485874950886,0.003512472379952669,0.0513126403093338
1772727773279046700,4.701046630859375,-0.007635809946805239,0.013286309316754341,-0.037262752652168274
1772727773296392200,4.71839208984375,0.010079269297420979,0.012675444595515728,0.018325943499803543
1772727773313737700,4.73573779296875,0.006414080038666725,0.009621120058000088,0.017715077847242355
1772727773331083300,4.753083251953125,-0.005192350596189499,0.011453714221715927,-0.02932151034474373
1772727773348428800,4.7704287109375,-0.003359756199643016,0.009010255336761475,0.015271619893610477
1772727773365774300,4.7877744140625,-0.005803215317428112,0.012675444595515728,0.020769402384757996
1772727773383120000,4.805119873046875,-0.0027488914784044027,0.013897174037992954,0.01282816007733345
1772727773400465400,4.82246533203125,0.000305432389723137,0.0102319847792387,0.024434590712189674
1772727773417811000,4.83981103515625,0.000305432389723137,0.009621120058000088,0.002443459117785096
1772727773435156500,4.857156494140625,-0.003359756199643016,0.006566796451807022,0.001221729558892548
1772727773452502000,4.874501953125,0.000305432389723137,0.009621120058000088,0.004886918235570192
1772727773469847600,4.89184765625,-0.0009162971982732415,0.009621120058000088,-0.003665188793092966
1772727773487193000,4.909193115234375,0.000305432389723137,0.0102319847792387,-0.001221729558892548
1772727773504538600,4.92653857421875,0.0015271619195118546,0.009010255336761475,0.004276053514331579
1772727773521884200,4.94388427734375,-0.0009162971982732415,0.006566796451807022,0.006108647678047419
1772727773539229700,4.961229736328125,-0.006414080038666725,0.004123337101191282,-0.0054977829568088055
1772727773556575200,4.9785751953125,-0.011300998739898205,0.005955931730568409,0.0054977829568088055
1772727773573920800,4.995920654296875,-0.011300998739898205,0.009010255336761475,-0.001832594396546483
1772727773591266300,5.013266357421875,-0.007024944759905338,0.008399390615522861,0.006719512399286032
1772727773608611800,5.03061181640625,-0.004581485874950886,0.011453714221715927,0.000610864779446274
1772727773625957400,5.047957275390625,-0.000305432389723137,0.014508038759231567,0
1772727773643303000,5.065302978515625,0.003359756199643016,0.013897174037992954,0.006719512399286032
1772727773660648400,5.0826484375,0.0021380267571657896,0.01511890348047018,0.0030543238390237093
1772727773677994200,5.099994140625,-0.0015271619195118546,0.012675444595515728,0.002443459117785096
1772727773695339500,5.117339599609375,-0.010079269297420979,0.009621120058000088,-0.000610864779446274
1772727773712685300,5.134685302734375,-0.013133592903614044,0.009010255336761475,0.000610864779446274
1772727773730030800,5.15203076171875,-0.010079269297420979,0.008399390615522861,0.003665188793092966
1772727773747376400,5.16937646484375,-0.004581485874950886,0.010842849500477314,0.001832594396546483
1772727773764722000,5.186721923828125,-0.0015271619195118546,0.009010255336761475,-0.000610864779446274
1772727773782067500,5.2040673828125,0.0015271619195118546,0.012675444595515728,0.004276053514331579
1772727773799413000,5.2214130859375,0.003970621153712273,0.010842849500477314,0
1772727773816758500,5.238758544921875,0.0009162971982732415,0.011453714221715927,0.001832594396546483
1772727773834104000,5.25610400390625,-0.003359756199643016,0.0102319847792387,-0.001832594396546483
1772727773851449600,5.27344970703125,-0.008246674202382565,0.006566796451807022,0.002443459117785096
1772727773868795100,5.290795166015625,-0.00946840364485979,0.009010255336761475,0.004886918235570192
1772727773886140700,5.308140625,-0.000305432389723137,0.01511890348047018,0.007941242307424545
1772727773903486200,5.325486328125,0.007024944759905338,0.013897174037992954,0.009162971749901772
1772727773920831700,5.342831787109375,0.00946840364485979,0.015729768201708794,0.004886918235570192
1772727773938177300,5.36017724609375,0.008246674202382565,0.013897174037992954,0.004886918235570192
1772727773955522800,5.377522705078125,-0.0021380267571657896,0.010842849500477314,-0.001221729558892548
1772727773972868400,5.394868408203125,-0.00946840364485979,0.005955931730568409,-0.009773836471140385
1772727773990214100,5.412214111328125,-0.005192350596189499,0.004123337101191282,-0.002443459117785096
1772727774007559700,5.4295595703125,0.0027488914784044027,0.004123337101191282,0.008552107028663158
1772727774024905200,5.4469052734375,0.005803215317428112,0.005955931730568409,0.004276053514331579
1772727774042250800,5.464250732421875,-0.000305432389723137,0.007788525894284248,-0.001221729558892548
1772727774059596300,5.48159619140625,-0.003970621153712273,0.009010255336761475,0.000610864779446274
1772727774076941800,5.49894189453125,-0.0015271619195118546,0.007788525894284248,-0.006108647678047419
1772727774094287400,5.516287353515625,-0.003359756199643016,0.006566796451807022,0.004886918235570192
1772727774111633000,5.5336328125,-0.0015271619195118546,0.009621120058000088,-0.001221729558892548
1772727774128978400,5.550978515625,0.0021380267571657896,0.005345067009329796,0
1772727774146324000,5.568323974609375,0.007635809946805239,0.004734201822429895,0.008552107028663158
1772727774163669500,5.58566943359375,0.005803215317428112,0.004123337101191282,0.004276053514331579
1772727774181015000,5.60301513671875,-0.0021380267571657896,0.004123337101191282,0.001832594396546483
1772727774198360600,5.620360595703125,-0.008857538923621178,0.003512472379952669,-0.013439024798572063
1772727774215706000,5.6377060546875,-0.008857538923621178,0.002901607658714056,-0.009162971749901772
1772727774233052000,5.655052001953125,-0.004581485874950886,0.004734201822429895,0.000610864779446274
1772727774250397400,5.6723974609375,-0.003970621153712273,0.004734201822429895,0.001832594396546483
1772727774267743000,5.689742919921875,-0.003359756199643016,0.007788525894284248,0.009773836471140385
1772727774285088500,5.707088623046875,-0.003359756199643016,0.01206457894295454,0.003665188793092966
1772727774302434000,5.72443408203125,-0.000305432389723137,0.004734201822429895,0.006108647678047419
1772727774319779600,5.741779541015625,0.004581485874950886,0.011453714221715927,0.000610864779446274
1772727774337125000,5.759125,0.003359756199643016,0.008399390615522861,0.009773836471140385
1772727774354470700,5.776470703125,-0.0015271619195118546,0.006566796451807022,0.006719512399286032
1772727774371816200,5.793816162109375,-0.0015271619195118546,0.007788525894284248,0.012217295356094837
1772727774389161700,5.81116162109375,0.000305432389723137,0.005955931730568409,0.020158538594841957
1772727774406507300,5.82850732421875,-0.0009162971982732415,0.006566796451807022,0.007941242307424545
1772727774423853000,5.84585302734375,-0.0021380267571657896,0.0102319847792387,0.014049889519810677
1772727774441198600,5.863198486328125,0.000305432389723137,0.010842849500477314,0.011606430634856224
1772727774458544000,5.880544189453125,0.004581485874950886,0.013897174037992954,0.012217295356094837
1772727774475889700,5.8978896484375,0.007635809946805239,0.01206457894295454,0.018325943499803543
1772727774493235200,5.915235107421875,0.006414080038666725,0.01206457894295454,0.014049889519810677
1772727774510580700,5.932580810546875,0.004581485874950886,0.009621120058000088,0.012217295356094837
1772727774527926300,5.94992626953125,-0.0015271619195118546,0.006566796451807022,0.013439024798572063
1772727774545271800,5.967271728515625,-0.0021380267571657896,0.008399390615522861,0.013439024798572063
1772727774562617300,5.984617431640625,-0.0021380267571657896,0.007788525894284248,0.015271619893610477
1772727774579963000,6.001962890625,0.0009162971982732415,0.007177661173045635,0.012217295356094837
1772727774597308700,6.01930859375,0.0027488914784044027,0.008399390615522861,0.009162971749901772
1772727774614654200,6.036654296875,-0.0009162971982732415,0.009010255336761475,0.007330377586185932
1772727774631999700,6.053999755859375,-0.0021380267571657896,0.010842849500477314,0.007330377586185932
1772727774649345300,6.07134521484375,0.003359756199643016,0.011453714221715927,0.013439024798572063
1772727774666690800,6.08869091796875,0.011911863461136818,0.013286309316754341,0.011606430634856224
1772727774684036400,6.106036376953125,0.013133592903614044,0.013897174037992954,0.011606430634856224
1772727774701382000,6.1233818359375,0.006414080038666725,0.01206457894295454,0.006108647678047419
1772727774718727700,6.140727783203125,-0.003359756199643016,0.007177661173045635,0.003665188793092966
1772727774736073000,6.158072998046875,-0.008246674202382565,0.003512472379952669,-0.001221729558892548
1772727774753418800,6.175418701171875,-0.008857538923621178,0.007788525894284248,0.009162971749901772
1772727774770764300,6.192764404296875,-0.007024944759905338,0.007177661173045635,0.003665188793092966
1772727774788109800,6.21010986328125,-0.005192350596189499,0.007788525894284248,0.004276053514331579
1772727774805455400,6.227455322265625,-0.0015271619195118546,0.009010255336761475,0.004886918235570192
1772727774822801000,6.24480078125,-0.005192350596189499,0.0102319847792387,-0.000610864779446274
1772727774840146400,6.262146484375,-0.0027488914784044027,0.007177661173045635,0.0030543238390237093
1772727774857492000,6.279491943359375,0.0015271619195118546,0.005345067009329796,0.002443459117785096
1772727774874837800,6.296837646484375,0.008857538923621178,0.010842849500477314,0.014660755172371864
1772727774892183300,6.314183349609375,0.0015271619195118546,0.009010255336761475,0.012217295356094837
1772727774909528800,6.33152880859375,-0.005192350596189499,0.007177661173045635,0.001221729558892548
1772727774926874400,6.348874267578125,-0.0009162971982732415,0.006566796451807022,0.0054977829568088055
1772727774944220000,6.366219970703125,0.003970621153712273,0.004734201822429895,0.011606430634856224
1772727774961565400,6.3835654296875,0.0009162971982732415,0.002290742937475443,0.0054977829568088055
1772727774978911000,6.400910888671875,-0.005192350596189499,0.005955931730568409,0.008552107028663158
1772727774996256500,6.418256591796875,-0.00946840364485979,0.007177661173045635,0.012217295356094837
1772727775013602300,6.435602294921875,-0.003359756199643016,0.009621120058000088,0.012217295356094837
1772727775030947800,6.45294775390625,-0.0009162971982732415,0.006566796451807022,0.009162971749901772
1772727775048293400,6.47029345703125,0.003359756199643016,0.010842849500477314,0.014049889519810677
1772727775065639000,6.487638916015625,0.003970621153712273,0.005955931730568409,0.011606430634856224
1772727775082984400,6.504984375,0.0015271619195118546,0.002290742937475443,0.010384701192378998
1772727775100330000,6.522330078125,0.0021380267571657896,0.005345067009329796,0.014660755172371864
1772727775117675500,6.539675537109375,-0.0027488914784044027,0.003512472379952669,0.013439024798572063
1772727775135021300,6.557021240234375,-0.005192350596189499,0.005955931730568409,0.007941242307424545
1772727775152366800,6.574366943359375,-0.0027488914784044027,0.007788525894284248,0.014049889519810677
1772727775169712400,6.59171240234375,0.003359756199643016,0.008399390615522861,0.015271619893610477
1772727775187058000,6.609057861328125,0.005192350596189499,0.008399390615522861,0.01282816007733345
1772727775204403500,6.626403564453125,-0.0021380267571657896,0.008399390615522861,0.009162971749901772
1772727775221749200,6.643749267578125,-0.005803215317428112,0.005955931730568409,0.003665188793092966
1772727775239094500,6.661094482421875,-0.0015271619195118546,0.006566796451807022,0.011606430634856224
1772727775256440300,6.6784404296875,0.0027488914784044027,0.004123337101191282,0.010995565913617611
1772727775273785900,6.695785888671875,0.0021380267571657896,0.004734201822429895,0.0030543238390237093
1772727775291131400,6.71313134765625,-0.0027488914784044027,0.002290742937475443,-0.001832594396546483
1772727775308477000,6.730476806640625,-0.005192350596189499,0.002901607658714056,0.002443459117785096
1772727775325822500,6.747822509765625,-0.008246674202382565,0.002901607658714056,0.004276053514331579
1772727775343168300,6.765168212890625,-0.007024944759905338,0.006566796451807022,0.010384701192378998
1772727775360513800,6.782513671875,-0.000305432389723137,0.011453714221715927,0.008552107028663158
1772727775377859300,6.799859375,0.005192350596189499,0.009010255336761475,0.0054977829568088055
1772727775395204900,6.817204833984375,0.006414080038666725,0.009010255336761475,0.010384701192378998
1772727775412550400,6.83455029296875,0.003359756199643016,0.008399390615522861,0.014660755172371864
1772727775429896000,6.85189599609375,-0.004581485874950886,0.005955931730568409,0.0054977829568088055
1772727775447241700,6.86924169921875,-0.0027488914784044027,0.005955931730568409,0.011606430634856224
1772727775464587300,6.886587158203125,0.003359756199643016,0.004734201822429895,0.014660755172371864
1772727775481932800,6.903932861328125,0.006414080038666725,0.003512472379952669,0.014660755172371864
1772727775499278300,6.9212783203125,0.0021380267571657896,0.002290742937475443,0.012217295356094837
1772727775516624000,6.938623779296875,-0.003359756199643016,0.005955931730568409,0.010995565913617611
1772727775533969400,6.955969482421875,-0.0009162971982732415,0.005955931730568409,0.014660755172371864
1772727775551315000,6.97331494140625,0.0027488914784044027,0.007788525894284248,0.01649334840476513
1772727775568660700,6.99066064453125,0.003970621153712273,0.006566796451807022,0.02260199747979641
1772727775586006300,7.00800634765625,0.003970621153712273,0.010842849500477314,0.015271619893610477
1772727775603351800,7.025351806640625,0.006414080038666725,0.009621120058000088,0.020158538594841957
1772727775620697300,7.042697265625,0.010079269297420979,0.008399390615522861,0.021991131827235222
1772727775638043000,7.06004296875,0.005803215317428112,0.005345067009329796,0.01282816007733345
1772727775655388700,7.077388671875,0.0021380267571657896,0.004734201822429895,0.01954767294228077
1772727775672734200,7.094734130859375,0.0009162971982732415,0.004734201822429895,0.015271619893610477
1772727775690079700,7.112079833984375,0.0021380267571657896,0.005345067009329796,0.017104214057326317
1772727775707425300,7.12942529296875,0.004581485874950886,0.009621120058000088,0.029932374134659767
1772727775724770800,7.146770751953125,0.0021380267571657896,0.006566796451807022,0.01588248461484909
1772727775742116400,7.164116455078125,0.000305432389723137,0.005955931730568409,0.01282816007733345
1772727775759462100,7.181462158203125,0.0015271619195118546,0.008399390615522861,0.01588248461484909
1772727775776807700,7.1988076171875,0.004581485874950886,0.009010255336761475,0.017104214057326317
1772727775794153200,7.2161533203125,0.004581485874950886,0.009621120058000088,0.017715077847242355
1772727775811498800,7.233498779296875,0.0027488914784044027,0.009621120058000088,0.008552107028663158
1772727775828844300,7.25084423828125,0.0027488914784044027,0.007788525894284248,0.009773836471140385
1772727775846190000,7.268190185546875,-0.0009162971982732415,0.003512472379952669,0.006108647678047419
1772727775863535600,7.28553564453125,-0.0021380267571657896,0.005345067009329796,0.007941242307424545
1772727775880881200,7.302881103515625,-0.004581485874950886,0.001679878099821508,0.004276053514331579
1772727775898226700,7.320226806640625,-0.006414080038666725,0.004123337101191282,0.000610864779446274
1772727775915572200,7.337572265625,-0.0009162971982732415,0.008399390615522861,0.009162971749901772
1772727775932918000,7.35491796875,0.004581485874950886,0.005955931730568409,0.009162971749901772
1772727775950263600,7.372263671875,0.003970621153712273,0.007788525894284248,0.0054977829568088055
1772727775967609000,7.389609130859375,-0.003970621153712273,0.006566796451807022,0.0030543238390237093
1772727775984954600,7.40695458984375,-0.010690134018659592,0.002901607658714056,-0.002443459117785096
1772727776002300200,7.424300048828125,-0.005192350596189499,0.003512472379952669,0.004276053514331579
1772727776019646000,7.44164599609375,0.0021380267571657896,0.001679878099821508,0.007941242307424545
1772727776036991500,7.458991455078125,0.003970621153712273,0.005955931730568409,0.004276053514331579
1772727776054337000,7.4763369140625,0.000305432389723137,0.003512472379952669,0.004886918235570192
1772727776071682600,7.4936826171875,-0.003359756199643016,0.001679878099821508,0.0030543238390237093
1772727776089028400,7.5110283203125,-0.005192350596189499,-0.0001527161948615685,0.0030543238390237093
1772727776106374000,7.528373779296875,-0.005803215317428112,0.002290742937475443,0.003665188793092966
1772727776123719400,7.545719482421875,-0.003970621153712273,0.00045814859913662076,0.0030543238390237093
1772727776141065000,7.56306494140625,0.0015271619195118546,0.002290742937475443,0.012217295356094837
1772727776158410500,7.580410400390625,0.007024944759905338,0.003512472379952669,0.01649334840476513
1772727776175756000,7.597756103515625,0.004581485874950886,0.004734201822429895,0.01649334840476513
1772727776193101800,7.615101806640625,-0.003359756199643016,0.002901607658714056,0.015271619893610477
1772727776210447400,7.632447265625,-0.006414080038666725,0.0010690133785828948,0.012217295356094837
1772727776227793000,7.64979296875,-0.0027488914784044027,-0.0032070400193333626,0.013439024798572063
1772727776245138400,7.667138427734375,-0.000305432389723137,-0.004428769461810589,0.01649334840476513
1772727776262484000,7.68448388671875,-0.005803215317428112,-0.0032070400193333626,0.009773836471140385
1772727776279829800,7.701829833984375,-0.008857538923621178,0.0010690133785828948,0.01282816007733345
1772727776297175300,7.71917529296875,-0.007635809946805239,-0.0013744457392022014,0.01588248461484909
1772727776314520800,7.736520751953125,-0.005192350596189499,-0.0007635809597559273,0.015271619893610477
1772727776331866400,7.753866455078125,-0.005192350596189499,0.002290742937475443,0.020158538594841957
1772727776349212200,7.771212158203125,-0.00946840364485979,0.002290742937475443,0.015271619893610477
1772727776366557700,7.7885576171875,-0.007635809946805239,0.003512472379952669,0.01588248461484909
1772727776383903200,7.8059033203125,-0.003970621153712273,0.002290742937475443,0.014049889519810677
1772727776401248800,7.823248779296875,0.000305432389723137,0.004123337101191282,0.02260199747979641
1772727776418594600,7.840594482421875,0.003970621153712273,0.006566796451807022,0.028099779039621353
1772727776435940000,7.857940185546875,0.0015271619195118546,0.004734201822429895,0.01588248461484909
1772727776453285600,7.87528564453125,0.0027488914784044027,0.003512472379952669,0.020769402384757996
1772727776470631200,7.892631103515625,0.003359756199643016,0.003512472379952669,0.021991131827235222
1772727776487976700,7.909976806640625,-0.0009162971982732415,0.002901607658714056,0.01649334840476513
1772727776505322500,7.927322509765625,-0.003359756199643016,0.004123337101191282,0.01588248461484909
1772727776522668000,7.94466796875,0.0009162971982732415,0.005955931730568409,0.01893680728971958
1772727776540013600,7.962013671875,0.003359756199643016,0.003512472379952669,0.023823726922273636
1772727776557359000,7.979359130859375,0.003359756199643016,0.0102319847792387,0.027488915249705315
1772727776574705000,7.996704833984375,0.0027488914784044027,0.009621120058000088,0.023212861269712448
1772727776592050400,8.014050537109375,0.0027488914784044027,0.008399390615522861,0.021380268037319183
1772727776609396000,8.03139599609375,0.005192350596189499,0.011453714221715927,0.025045456364750862
1772727776626741500,8.048741455078124,0.005803215317428112,0.009010255336761475,0.023823726922273636
1772727776644087300,8.06608740234375,0.007024944759905338,0.009010255336761475,0.018325943499803543
1772727776661432800,8.083432861328125,0.010079269297420979,0.005955931730568409,0.01893680728971958
1772727776678778400,8.1007783203125,0.007635809946805239,0.0010690133785828948,0.017104214057326317
1772727776696124000,8.1181240234375,0.006414080038666725,-0.0013744457392022014,0.020769402384757996
1772727776713469400,8.135469482421875,0.0021380267571657896,-0.0007635809597559273,0.014660755172371864
1772727776730815200,8.152815185546874,-0.0015271619195118546,-0.0001527161948615685,0.013439024798572063
1772727776748160800,8.170160888671875,0.0009162971982732415,0.004123337101191282,0.017104214057326317
1772727776765506300,8.18750634765625,0.008246674202382565,0.004734201822429895,0.01649334840476513
1772727776782852000,8.20485205078125,0.014966187067329884,0.007177661173045635,0.015271619893610477
1772727776800197600,8.22219775390625,0.012522728182375431,0.010842849500477314,0.01649334840476513
1772727776817543200,8.239543212890625,0.006414080038666725,0.009621120058000088,0.007330377586185932
1772727776834888700,8.256888671875,0.007635809946805239,0.009010255336761475,0.011606430634856224
1772727776852234500,8.274234375,0.013133592903614044,0.008399390615522861,0.014049889519810677
1772727776869580000,8.291580078125,0.013744457624852657,0.007177661173045635,0.008552107028663158
1772727776886925600,8.308925537109374,0.008857538923621178,0.004734201822429895,0.008552107028663158
1772727776904271000,8.32627099609375,0.000305432389723137,0.003512472379952669,0.008552107028663158
1772727776921617000,8.343616943359375,-0.0027488914784044027,0.00045814859913662076,0.009773836471140385
1772727776938962400,8.36096240234375,0.0009162971982732415,0.004123337101191282,0.011606430634856224
1772727776956308000,8.378307861328125,0.003359756199643016,0.004123337101191282,0.008552107028663158
1772727776973653500,8.395653564453125,0.003359756199643016,0.003512472379952669,0.012217295356094837
1772727776990999300,8.412999267578124,0.0009162971982732415,0.002901607658714056,0.008552107028663158
1772727777008344800,8.4303447265625,0.0027488914784044027,0.00045814859913662076,0.006719512399286032
1772727777025690400,8.4476904296875,0.004581485874950886,0.0010690133785828948,0.012217295356094837
1772727777043036000,8.465035888671874,-0.0027488914784044027,0.002901607658714056,-0.001832594396546483
1772727777060381700,8.482381591796875,-0.003970621153712273,0.001679878099821508,0.010384701192378998
1772727777077727200,8.499727294921875,0.0021380267571657896,-0.0019853105768561363,0.006719512399286032
1772727777095072800,8.51707275390625,0.003970621153712273,0.006566796451807022,0.008552107028663158
1772727777112418300,8.534418212890625,-0.000305432389723137,0.00045814859913662076,0.010384701192378998
1772727777129764000,8.55176416015625,-0.0009162971982732415,0.004123337101191282,0.004276053514331579
1772727777147109600,8.569109619140624,0.0009162971982732415,0.005345067009329796,0.008552107028663158
1772727777164455200,8.586455078125,0.006414080038666725,0.005955931730568409,0.007330377586185932
1772727777181801000,8.603801025390625,0.008246674202382565,0.004734201822429895,0.01282816007733345
1772727777199146500,8.621146484375,0.0021380267571657896,0.00045814859913662076,0.008552107028663158
1772727777216492000,8.638491943359375,-0.0009162971982732415,-0.0007635809597559273,0.006719512399286032
1772727777233837600,8.655837646484375,0.0015271619195118546,0.002290742937475443,0.003665188793092966
1772727777251183400,8.673183349609374,0.007635809946805239,0.004123337101191282,0.009773836471140385
1772727777268529000,8.69052880859375,0.013744457624852657,0.009010255336761475,0.014660755172371864
1772727777285874400,8.70787451171875,0.013133592903614044,0.005955931730568409,0.0054977829568088055
1772727777303220000,8.725219970703124,0.008246674202382565,0.004123337101191282,0.007330377586185932
1772727777320565800,8.742565673828125,0.004581485874950886,0.003512472379952669,0.012217295356094837
1772727777337911300,8.759911376953125,-0.000305432389723137,0.002901607658714056,0.009773836471140385
1772727777355256800,8.7772568359375,-0.004581485874950886,-0.0013744457392022014,0.004886918235570192
1772727777372602400,8.794602294921875,-0.0021380267571657896,0.002901607658714056,0.0054977829568088055
1772727777389948200,8.8119482421875,0.0021380267571657896,-0.0001527161948615685,0.004276053514331579
1772727777407293700,8.829293701171874,0.006414080038666725,0.0010690133785828948,0.01282816007733345
1772727777424639200,8.84663916015625,0.010079269297420979,0.003512472379952669,0.009162971749901772
1772727777441985000,8.863985107421875,0.003970621153712273,0.0010690133785828948,0.011606430634856224
1772727777459330600,8.88133056640625,-0.003970621153712273,0.001679878099821508,0.009773836471140385
1772727777476676000,8.898676025390625,-0.005803215317428112,0.0010690133785828948,0.003665188793092966
1772727777494021600,8.916021728515625,0.0009162971982732415,0.003512472379952669,0.010384701192378998
1772727777511367400,8.933367431640624,0.008857538923621178,0.003512472379952669,0.020158538594841957
1772727777528713000,8.950712890625,0.010079269297420979,0.003512472379952669,0.01649334840476513
1772727777546058500,8.96805859375,0.006414080038666725,0.003512472379952669,0.01649334840476513
1772727777563404000,8.985404052734374,0.004581485874950886,0.005345067009329796,0.01649334840476513
1772727777580749800,9.002749755859375,0.005192350596189499,0.004734201822429895,0.01649334840476513
1772727777598095400,9.020095458984375,0.004581485874950886,0.003512472379952669,0.014660755172371864
1772727777615441000,9.03744091796875,0.005192350596189499,0.004123337101191282,0.017104214057326317
1772727777632786700,9.05478662109375,0.005803215317428112,0.0010690133785828948,0.021380268037319183
1772727777650132200,9.07213232421875,0.003970621153712273,0.002290742937475443,0.020158538594841957
1772727777667477800,9.089477783203124,0.0027488914784044027,0.001679878099821508,0.018325943499803543
1772727777684823300,9.1068232421875,0.003970621153712273,0.003512472379952669,0.021380268037319183
1772727777702169000,9.124169189453125,0.005192350596189499,0.002901607658714056,0.021380268037319183
1772727777719514600,9.1415146484375,0.007635809946805239,0.005955931730568409,0.025045456364750862
1772727777736860200,9.158860107421875,0.006414080038666725,0.003512472379952669,0.01588248461484909
1772727777754206000,9.1762060546875,0.0021380267571657896,0.007177661173045635,0.025045456364750862
1772727777771551500,9.193551513671874,0.0015271619195118546,0.003512472379952669,0.012217295356094837
1772727777788897000,9.21089697265625,0.0015271619195118546,0.002901607658714056,0.023823726922273636
1772727777806242600,9.22824267578125,0.005803215317428112,0.005955931730568409,0.020158538594841957
1772727777823588400,9.24558837890625,0.007024944759905338,0.005345067009329796,0.021991131827235222
1772727777840934000,9.262933837890625,0.005192350596189499,0.005955931730568409,0.01893680728971958
1772727777858279400,9.280279541015625,0.0015271619195118546,0.002901607658714056,0.018325943499803543
1772727777875625200,9.297625244140624,-0.0015271619195118546,0.002901607658714056,0.01893680728971958
1772727777892970800,9.314970703125,-0.005192350596189499,0.002290742937475443,0.012217295356094837
1772727777910316300,9.33231640625,-0.0015271619195118546,0.004123337101191282,0.013439024798572063
1772727777927662000,9.349662109375,0.003970621153712273,0.004734201822429895,0.015271619893610477
1772727777945007600,9.367007568359375,0.005192350596189499,0.005345067009329796,0.01588248461484909
1772727777962353200,9.384353271484375,0.0021380267571657896,0.002290742937475443,0.01588248461484909
1772727777979698700,9.40169873046875,-0.0009162971982732415,0.001679878099821508,0.011606430634856224
1772727777997044500,9.41904443359375,-0.0015271619195118546,0.00045814859913662076,0.010384701192378998
1772727778014390000,9.43639013671875,0.000305432389723137,0.0010690133785828948,0.010384701192378998
1772727778031735800,9.45373583984375,0.0021380267571657896,0.001679878099821508,0.009773836471140385
1772727778049081300,9.471081298828125,0.0015271619195118546,0.00045814859913662076,0.010995565913617611
1772727778066427000,9.488427001953125,0.0015271619195118546,-0.0001527161948615685,0.009162971749901772
1772727778083772400,9.5057724609375,0.000305432389723137,-0.0001527161948615685,0.007330377586185932
1772727778101118200,9.5231181640625,-0.0027488914784044027,-0.0038179049734026194,0.0054977829568088055
1772727778118463700,9.540463623046875,-0.003970621153712273,-0.004428769461810589,0.006719512399286032
1772727778135809300,9.557809326171874,-0.003359756199643016,-0.004428769461810589,0.003665188793092966
1772727778153155000,9.575155029296875,0.0021380267571657896,-0.0032070400193333626,0.009773836471140385
1772727778170500600,9.59250048828125,0.006414080038666725,0.001679878099821508,0.010384701192378998
1772727778187846100,9.60984619140625,0.003359756199643016,0.00045814859913662076,0.010995565913617611
1772727778205192000,9.62719189453125,-0.000305432389723137,0.0010690133785828948,0.004886918235570192
1772727778222537500,9.644537353515625,0.0009162971982732415,0.00045814859913662076,0.007330377586185932
1772727778239883000,9.661883056640624,0.0027488914784044027,-0.0007635809597559273,0.007941242307424545
1772727778257228500,9.679228515625,0.005803215317428112,-0.0007635809597559273,0.015271619893610477
1772727778274574300,9.69657421875,0.003970621153712273,-0.0001527161948615685,0.012217295356094837
1772727778291920000,9.713919921875,0.000305432389723137,-0.0025961752980947495,0.006108647678047419
1772727778309265400,9.731265380859375,-0.0021380267571657896,-0.004428769461810589,0.004276053514331579
1772727778326611200,9.748611083984375,-0.003359756199643016,-0.004428769461810589,0.010995565913617611
1772727778343956700,9.765956787109374,-0.0015271619195118546,-0.004428769461810589,0.006108647678047419
1772727778361302500,9.783302490234375,0.000305432389723137,-0.0038179049734026194,0.011606430634856224
1772727778378648000,9.80064794921875,0.003970621153712273,0.00045814859913662076,0.01893680728971958
1772727778395993600,9.81799365234375,0.0027488914784044027,0.002290742937475443,0.014660755172371864
1772727778413339100,9.835339111328125,0.0015271619195118546,0.001679878099821508,0.01588248461484909
1772727778430685000,9.852684814453125,0.0027488914784044027,0.002290742937475443,0.01282816007733345
1772727778448030500,9.870030517578124,0.0015271619195118546,-0.0007635809597559273,0.013439024798572063
1772727778465376000,9.8873759765625,0.003359756199643016,-0.0001527161948615685,0.017715077847242355
1772727778482721800,9.9047216796875,0.003359756199643016,0.001679878099821508,0.015271619893610477
1772727778500067300,9.9220673828125,0.005803215317428112,0.002290742937475443,0.014660755172371864
1772727778517412900,9.939412841796875,0.006414080038666725,-0.0025961752980947495,0.017715077847242355
1772727778534758700,9.956758544921875,0.005803215317428112,-0.005650499369949102,0.014049889519810677
1772727778552104200,9.974104248046874,-0.0009162971982732415,-0.0062613640911877155,0.013439024798572063
1772727778569449700,9.99144970703125,-0.0027488914784044027,-0.008093958720564842,0.01893680728971958
1772727778586795500,10.00879541015625,-0.000305432389723137,-0.0019853105768561363,0.01649334840476513
1772727778604141000,10.02614111328125,0.0027488914784044027,0.004123337101191282,0.01893680728971958
1772727778621486600,10.043486572265625,0.005192350596189499,0.004123337101191282,0.018325943499803543
1772727778638832400,10.060832275390625,0.003970621153712273,0.003512472379952669,0.01649334840476513
1772727778656178000,10.078177978515624,-0.0015271619195118546,0.004123337101191282,0.013439024798572063
1772727778673523500,10.0955234375,-0.0021380267571657896,-0.0007635809597559273,0.017715077847242355
1772727778690869200,10.112869140625,0.0009162971982732415,0.004123337101191282,0.009162971749901772
1772727778708214800,10.13021484375,0.0021380267571657896,0.004734201822429895,0.021380268037319183
1772727778725560300,10.147560302734375,0.005803215317428112,0.0010690133785828948,0.012217295356094837
1772727778742906000,10.164906005859375,0.004581485874950886,0.003512472379952669,0.017715077847242355
1772727778760251600,10.182251708984374,0.0009162971982732415,0.001679878099821508,0.010995565913617611
1772727778777597200,10.19959716796875,-0.003970621153712273,-0.0019853105768561363,0.007941242307424545
1772727778794943000,10.21694287109375,-0.003970621153712273,0.00045814859913662076,0.011606430634856224
1772727778812288500,10.23428857421875,-0.0015271619195118546,-0.0013744457392022014,0.010384701192378998
1772727778829634000,10.251634033203125,0.005192350596189499,0.003512472379952669,0.017715077847242355
1772727778846979800,10.268979736328125,0.005803215317428112,0.003512472379952669,0.011606430634856224
1772727778864325400,10.286325439453124,0.003359756199643016,0.002290742937475443,0.006719512399286032
1772727778881671000,10.3036708984375,0.0015271619195118546,-0.0007635809597559273,0.009162971749901772
1772727778899016400,10.321016357421875,-0.000305432389723137,-0.0007635809597559273,0.009162971749901772
1772727778916362200,10.3383623046875,-0.000305432389723137,-0.0038179049734026194,0.008552107028663158
1772727778933707800,10.355707763671875,0.003970621153712273,-0.0019853105768561363,0.011606430634856224
1772727778951053600,10.373053466796875,0.005803215317428112,0.0010690133785828948,0.014660755172371864
1772727778968399000,10.390399169921874,0.006414080038666725,0.00045814859913662076,0.015271619893610477
1772727778985744600,10.40774462890625,0.004581485874950886,0.0010690133785828948,0.011606430634856224
1772727779003090400,10.42509033203125,0.0021380267571657896,0.0010690133785828948,0.009773836471140385
1772727779020436000,10.44243603515625,-0.004581485874950886,-0.0019853105768561363,0.0030543238390237093
1772727779037781500,10.459781494140625,-0.0021380267571657896,-0.0038179049734026194,0.009162971749901772
1772727779055127300,10.477127197265625,0.0009162971982732415,-0.0007635809597559273,0.012217295356094837
1772727779072472800,10.494472900390624,0.005192350596189499,0.0010690133785828948,0.015271619893610477
1772727779089818400,10.511818359375,0.006414080038666725,0.002901607658714056,0.012217295356094837
1772727779107164200,10.5291640625,0.003359756199643016,0.002290742937475443,0.006719512399286032
1772727779124509700,10.546509765625,0.0009162971982732415,-0.0001527161948615685,0.0054977829568088055
1772727779141855500,10.56385546875,-0.0015271619195118546,-0.004428769461810589,0.006108647678047419
1772727779159201000,10.581200927734375,-0.0027488914784044027,-0.004428769461810589,0.0054977829568088055
1772727779176546600,10.598546630859374,-0.000305432389723137,-0.0032070400193333626,0.007941242307424545
1772727779193892400,10.615892333984375,0.0027488914784044027,-0.0013744457392022014,0.010995565913617611
1772727779211238000,10.63323779296875,0.005192350596189499,0.0010690133785828948,0.011606430634856224
1772727779228583400,10.65058349609375,0.007635809946805239,0.004123337101191282,0.013439024798572063
1772727779245929200,10.66792919921875,0.004581485874950886,0.00045814859913662076,0.013439024798572063
1772727779263274800,10.685274658203125,-0.0027488914784044027,-0.0013744457392022014,0.009162971749901772
1772727779280620300,10.702620361328124,-0.003359756199643016,-0.005039634648710489,0.009162971749901772
1772727779297966000,10.719966064453125,0.000305432389723137,-0.004428769461810589,0.013439024798572063
1772727779315311600,10.7373115234375,0.008246674202382565,-0.0038179049734026194,0.01649334840476513
1772727779332657200,10.7546572265625,0.008857538923621178,-0.0025961752980947495,0.01649334840476513
1772727779350003000,10.7720029296875,0.008246674202382565,-0.0019853105768561363,0.014660755172371864
1772727779367348500,10.789348388671876,0.0021380267571657896,-0.004428769461810589,0.018325943499803543
1772727779384694000,10.806694091796874,-0.000305432389723137,-0.0032070400193333626,0.015271619893610477
1772727779402039800,10.824039794921875,-0.000305432389723137,-0.0038179049734026194,0.014660755172371864
1772727779419385300,10.84138525390625,-0.000305432389723137,-0.008093958720564842,0.023823726922273636
1772727779436731000,10.85873095703125,0.003970621153712273,-0.0001527161948615685,0.014049889519810677
1772727779454076700,10.87607666015625,0.003359756199643016,0.0010690133785828948,0.011606430634856224
1772727779471422200,10.893422119140626,0.004581485874950886,0.001679878099821508,0.006108647678047419
1772727779488768000,10.91076806640625,0.006414080038666725,0.002290742937475443,0.01649334840476513
1772727779506113500,10.928113525390625,0.007635809946805239,-0.0007635809597559273,0.01893680728971958
1772727779523459000,10.945458984375,0.00946840364485979,-0.0013744457392022014,0.021380268037319183
1772727779540804900,10.962804931640624,0.007635809946805239,-0.0025961752980947495,0.014049889519810677
1772727779558150400,10.980150390625,0.003970621153712273,-0.0013744457392022014,0.008552107028663158
1772727779575496000,10.997495849609376,-0.000305432389723137,-0.004428769461810589,0.01588248461484909
1772727779592841700,11.014841796875,0.0009162971982732415,-0.0001527161948615685,0.015271619893610477
1772727779610187300,11.032187255859375,0.0027488914784044027,0.0010690133785828948,0.010384701192378998
1772727779627532800,11.04953271484375,0.003359756199643016,-0.0007635809597559273,0.006719512399286032
1772727779644878600,11.066878662109374,0.0021380267571657896,-0.0007635809597559273,0.006719512399286032
1772727779662224100,11.08422412109375,0.000305432389723137,-0.0013744457392022014,0.010995565913617611
1772727779679570000,11.10156982421875,0.0009162971982732415,-0.0013744457392022014,0.01893680728971958
1772727779696915500,11.11891552734375,0.003970621153712273,-0.0013744457392022014,0.01954767294228077
1772727779714261000,11.136260986328125,0.0021380267571657896,0.0010690133785828948,0.012217295356094837
1772727779731606800,11.153606689453126,-0.0009162971982732415,-0.004428769461810589,0.011606430634856224
1772727779748952300,11.170952392578124,-0.0027488914784044027,0.002290742937475443,0.01649334840476513
1772727779766297900,11.1882978515625,-0.0009162971982732415,0.003512472379952669,0.010384701192378998
1772727779783643600,11.2056435546875,0.003359756199643016,0.002901607658714056,0.010384701192378998
1772727779800989200,11.2229892578125,0.0021380267571657896,0.003512472379952669,0.009773836471140385
1772727779818335000,11.2403349609375,-0.000305432389723137,0.00045814859913662076,0.011606430634856224
1772727779835680500,11.257680419921876,-0.000305432389723137,-0.0001527161948615685,0.011606430634856224
1772727779853026000,11.275026123046874,-0.0009162971982732415,-0.0019853105768561363,0.014049889519810677
1772727779870371800,11.292371826171875,0.0015271619195118546,-0.0019853105768561363,0.01282816007733345
1772727779887717400,11.30971728515625,-0.0015271619195118546,-0.004428769461810589,0.011606430634856224
1772727779905063000,11.32706298828125,-0.0015271619195118546,-0.0025961752980947495,0.008552107028663158
1772727779922408700,11.34440869140625,0.0015271619195118546,-0.0019853105768561363,0.008552107028663158
1772727779939754200,11.361754150390626,0.007024944759905338,0.001679878099821508,0.014660755172371864
1772727779957099800,11.379099853515624,0.008857538923621178,0.0010690133785828948,0.013439024798572063
1772727779974445600,11.396445556640625,0.007635809946805239,0.001679878099821508,0.015271619893610477
1772727779991791000,11.413791015625,0.003359756199643016,-0.0019853105768561363,0.014049889519810677
1772727780009137000,11.431136962890625,-0.000305432389723137,-0.0013744457392022014,0.012217295356094837
1772727780026482400,11.448482421875,-0.003359756199643016,-0.005039634648710489,0.007330377586185932
1772727780043828000,11.465827880859376,-0.0027488914784044027,0.00045814859913662076,0.015271619893610477
1772727780061173800,11.483173828125,0.003970621153712273,0.003512472379952669,0.014660755172371864
1772727780078519300,11.500519287109375,0.007635809946805239,0.004734201822429895,0.014660755172371864
1772727780095864800,11.51786474609375,0.004581485874950886,0.006566796451807022,0.012217295356094837
1772727780113210600,11.535210693359375,-0.000305432389723137,0.004123337101191282,0.007941242307424545
1772727780130556200,11.55255615234375,-0.0015271619195118546,0.002901607658714056,0.007941242307424545
1772727780147902000,11.56990185546875,-0.0015271619195118546,0.001679878099821508,0.011606430634856224
1772727780165247500,11.58724755859375,0.000305432389723137,0.00045814859913662076,0.017715077847242355
1772727780182593300,11.60459326171875,0.000305432389723137,-0.0019853105768561363,0.010995565913617611
1772727780199938800,11.621938720703126,0.0015271619195118546,-0.0025961752980947495,0.010384701192378998
1772727780217284400,11.639284423828125,0.0009162971982732415,-0.0038179049734026194,0.009773836471140385
1772727780234630100,11.656630126953125,0.0015271619195118546,-0.0025961752980947495,0.01282816007733345
1772727780251975700,11.6739755859375,0.0027488914784044027,-0.0038179049734026194,0.009773836471140385
1772727780269321200,11.6913212890625,0.004581485874950886,-0.0007635809597559273,0.009773836471140385
1772727780286667000,11.7086669921875,0.003359756199643016,-0.0025961752980947495,0.008552107028663158
1772727780304012500,11.726012451171876,0.000305432389723137,-0.0032070400193333626,0.007941242307424545
1772727780321358300,11.7433583984375,-0.000305432389723137,-0.0032070400193333626,0.007330377586185932
1772727780338704000,11.760703857421875,-0.0009162971982732415,-0.0013744457392022014,0.01282816007733345
1772727780356049400,11.77804931640625,0.0015271619195118546,-0.0019853105768561363,0.0054977829568088055
1772727780373395200,11.795395263671875,0.0027488914784044027,-0.0013744457392022014,0.007941242307424545
1772727780390740700,11.81274072265625,0.0021380267571657896,0.00045814859913662076,0.004276053514331579
1772727780408086500,11.83008642578125,0.0015271619195118546,0.00045814859913662076,0.0030543238390237093
1772727780425432000,11.84743212890625,0.003359756199643016,-0.0013744457392022014,0.0054977829568088055
1772727780442777600,11.864777587890625,0.004581485874950886,-0.0025961752980947495,0.004886918235570192
1772727780460123400,11.882123291015626,0.0027488914784044027,-0.0025961752980947495,0.007330377586185932
1772727780477469000,11.899468994140625,0.0015271619195118546,-0.004428769461810589,0.004276053514331579
1772727780494814500,11.916814453125,0.0027488914784044027,-0.0025961752980947495,0.001832594396546483
1772727780512160300,11.93416015625,0.000305432389723137,-0.005039634648710489,0.001832594396546483
1772727780529505800,11.951505859375,0.000305432389723137,-0.0032070400193333626,0.003665188793092966
1772727780546851600,11.9688515625,0.0009162971982732415,-0.005650499369949102,0.0054977829568088055
1772727780564197000,11.986197021484376,0.0015271619195118546,-0.0025961752980947495,0.006108647678047419
1772727780581542700,12.003542724609375,-0.0021380267571657896,-0.005650499369949102,0.000610864779446274
1772727780598888400,12.020888427734375,-0.0009162971982732415,-0.0025961752980947495,0.001832594396546483
1772727780616234000,12.03823388671875,0.004581485874950886,-0.0013744457392022014,0.009773836471140385
1772727780633579800,12.055579833984375,0.007635809946805239,-0.0025961752980947495,0.01649334840476513
1772727780650925300,12.07292529296875,-0.000305432389723137,-0.0062613640911877155,0.003665188793092966
1772727780668270800,12.090270751953126,-0.004581485874950886,-0.004428769461810589,0.001221729558892548
1772727780685616600,12.10761669921875,-0.0015271619195118546,-0.005039634648710489,0.004886918235570192
1772727780702962200,12.124962158203125,0.003359756199643016,-0.0007635809597559273,0.007941242307424545
1772727780720308000,12.142307861328124,0.005192350596189499,-0.0007635809597559273,0.002443459117785096
1772727780737653500,12.159653564453125,0.000305432389723137,-0.0013744457392022014,0.006719512399286032
1772727780754999000,12.1769990234375,0.000305432389723137,-0.0001527161948615685,0.001221729558892548
1772727780772344800,12.1943447265625,-0.000305432389723137,0.00045814859913662076,-0.004886918235570192
1772727780789690400,12.2116904296875,0.003359756199643016,0.00045814859913662076,0.006108647678047419
1772727780807036200,12.2290361328125,0.003359756199643016,-0.005650499369949102,0.009162971749901772
1772727780824381700,12.246381591796874,0.0021380267571657896,-0.0007635809597559273,0.006108647678047419
1772727780841727200,12.263727294921875,-0.0015271619195118546,-0.005039634648710489,0.010384701192378998
1772727780859073000,12.281072998046875,-0.0021380267571657896,0.004123337101191282,0.002443459117785096
1772727780876418600,12.29841845703125,0.003359756199643016,0.008399390615522861,0.000610864779446274
1772727780893764400,12.315764404296875,0.008246674202382565,0.007177661173045635,0.011606430634856224
1772727780911110000,12.33310986328125,0.010079269297420979,0.005345067009329796,0.007330377586185932
1772727780928455400,12.350455322265624,0.006414080038666725,0.004123337101191282,0.008552107028663158
1772727780945801200,12.36780126953125,0.0021380267571657896,0.00045814859913662076,0.015271619893610477
1772727780963146800,12.385146728515625,-0.003359756199643016,-0.006872228812426329,0.011606430634856224
1772727780980492500,12.402492431640624,-0.006414080038666725,-0.0032070400193333626,0.009162971749901772
1772727780997838000,12.419838134765625,-0.005192350596189499,-0.004428769461810589,0.001832594396546483
1772727781015183600,12.43718359375,0.0021380267571657896,-0.005039634648710489,0.01954767294228077
1772727781032529400,12.454529296875,0.005192350596189499,-0.0062613640911877155,0.0054977829568088055
1772727781049875000,12.471875,0.003970621153712273,-0.0019853105768561363,0.006719512399286032
1772727781067220700,12.489220703125,-0.000305432389723137,-0.005039634648710489,0.01282816007733345
1772727781084566300,12.506566162109374,-0.0021380267571657896,-0.0032070400193333626,0.01649334840476513
1772727781101911800,12.523911865234375,-0.004581485874950886,-0.0038179049734026194,0.008552107028663158
1772727781119257600,12.541257568359375,-0.008246674202382565,-0.0032070400193333626,0.009773836471140385
1772727781136603100,12.55860302734375,-0.008857538923621178,-0.0038179049734026194,0.006719512399286032
1772727781153949000,12.575948974609375,-0.003970621153712273,-0.0038179049734026194,0.007941242307424545
1772727781171294500,12.59329443359375,0.005192350596189499,-0.0013744457392022014,0.015271619893610477
1772727781188640000,12.610639892578124,0.008246674202382565,0.004123337101191282,0.006108647678047419
1772727781205985800,12.62798583984375,0.005803215317428112,0.002290742937475443,0.013439024798572063
1772727781223331300,12.645331298828125,0.006414080038666725,0.003512472379952669,0.004276053514331579
1772727781240677000,12.662677001953124,0.003970621153712273,-0.0007635809597559273,0.01588248461484909
1772727781258022700,12.680022705078125,0.0027488914784044027,-0.0019853105768561363,0.011606430634856224
1772727781275368400,12.697368408203126,-0.0015271619195118546,-0.005039634648710489,0.010384701192378998
1772727781292714000,12.7147138671875,-0.004581485874950886,-0.0062613640911877155,0.0054977829568088055
1772727781310059500,12.7320595703125,-0.003970621153712273,-0.008704823441803455,0.007330377586185932
1772727781327405300,12.7494052734375,0.000305432389723137,-0.0062613640911877155,0.011606430634856224
1772727781344750800,12.766750732421874,0.003359756199643016,-0.005039634648710489,0.006108647678047419
1772727781362096600,12.7840966796875,0.003970621153712273,-0.004428769461810589,0.0054977829568088055
1772727781379442200,12.801442138671876,0.003359756199643016,-0.0025961752980947495,0.003665188793092966
1772727781396787700,12.81878759765625,0.0027488914784044027,-0.0025961752980947495,0.007330377586185932
1772727781414133500,12.836133544921875,0.0021380267571657896,-0.0007635809597559273,0.010384701192378998
1772727781431479000,12.85347900390625,-0.000305432389723137,-0.0025961752980947495,0.007330377586185932
1772727781448824800,12.870824951171874,0.000305432389723137,-0.0019853105768561363,0.008552107028663158
1772727781466170400,12.88817041015625,0.0009162971982732415,-0.0019853105768561363,0.008552107028663158
1772727781483516200,12.90551611328125,0.0021380267571657896,-0.0013744457392022014,0.007941242307424545
1772727781500861700,12.92286181640625,0.0021380267571657896,-0.0038179049734026194,0.006719512399286032
1772727781518207200,12.940207275390625,0.0027488914784044027,-0.0038179049734026194,0.009162971749901772
1772727781535553000,12.957552978515626,0.0021380267571657896,-0.0062613640911877155,0.006719512399286032
1772727781552898600,12.974898681640624,0.0021380267571657896,-0.0062613640911877155,0.013439024798572063
1772727781570244400,12.992244384765625,0.004581485874950886,-0.009926552884280682,0.010995565913617611
1772727781587590000,13.00958984375,0.007024944759905338,-0.008093958720564842,0.01649334840476513
1772727781604935400,13.026935302734374,0.01435532234609127,-0.012370011769235134,0.01649334840476513
1772727781622281200,13.04428125,0.03756818547844887,-0.014813470654189587,0.023823726922273636
1772727781639626800,13.061626708984376,0.05894844979047775,-0.005650499369949102,0.049480047076940536
1772727781656972500,13.07897265625,0.04917461425065994,-0.0062613640911877155,0.07391463965177536
1772727781674318000,13.096318115234375,0.03390299528837204,-0.010537417605519295,0.06597339361906052
1772727781691663600,13.11366357421875,0.013133592903614044,-0.016035201027989388,0.04153880476951599
1772727781709009400,13.131009521484375,0.0009162971982732415,0.003512472379952669,-0.014049889519810677
1772727781726355000,13.14835498046875,-0.0027488914784044027,-0.006872228812426329,0.0030543238390237093
1772727781743700700,13.16570068359375,0.000305432389723137,-0.0025961752980947495,0.014049889519810677
1772727781761046300,13.18304638671875,0.010690134018659592,0.002901607658714056,0.01954767294228077
1772727781778391800,13.200391845703125,0.016798781231045723,0.00045814859913662076,0.020769402384757996
1772727781795737600,13.217737548828126,0.013744457624852657,-0.0001527161948615685,0.01282816007733345
1772727781813083100,13.235083251953125,0.004581485874950886,-0.0062613640911877155,0.003665188793092966
1772727781830429000,13.252428955078125,0.000305432389723137,-0.010537417605519295,0.004276053514331579
1772727781847774500,13.2697744140625,-0.000305432389723137,-0.011759147047996521,0.002443459117785096
1772727781865120300,13.287120361328125,0.0021380267571657896,-0.010537417605519295,0.009162971749901772
1772727781882465800,13.3044658203125,0.003970621153712273,-0.008704823441803455,0.013439024798572063
1772727781899811300,13.321811279296876,0.003970621153712273,-0.004428769461810589,0.009773836471140385
1772727781917157000,13.3391572265625,0.0009162971982732415,-0.0032070400193333626,0.004886918235570192
1772727781934502700,13.356502685546875,0.0009162971982732415,-0.0013744457392022014,0.004886918235570192
1772727781951848400,13.373848388671876,0.004581485874950886,0.002290742937475443,0.01282816007733345
1772727781969194000,13.391194091796875,0.007024944759905338,0.002901607658714056,0.014660755172371864
1772727781986539500,13.40853955078125,0.003359756199643016,0.0010690133785828948,0.012217295356094837
1772727782003885300,13.42588525390625,0.0021380267571657896,-0.0032070400193333626,0.009162971749901772
1772727782021230800,13.44323095703125,0.0015271619195118546,-0.004428769461810589,0.008552107028663158
1772727782038576600,13.46057666015625,0.0021380267571657896,-0.004428769461810589,0.006719512399286032
1772727782055922200,13.477922119140626,0.0015271619195118546,-0.005039634648710489,0.0054977829568088055
1772727782073268000,13.49526806640625,0.004581485874950886,-0.0019853105768561363,0.008552107028663158
1772727782090613500,13.512613525390625,0.0027488914784044027,-0.004428769461810589,-0.000610864779446274
1772727782107959300,13.529959228515626,0.005192350596189499,-0.0019853105768561363,0.008552107028663158
1772727782125304800,13.547304931640625,0.005803215317428112,-0.0025961752980947495,0.006108647678047419
1772727782142650400,13.564650390625,0.007024944759905338,-0.0001527161948615685,0.007941242307424545
1772727782159996200,13.58199609375,0.004581485874950886,-0.0025961752980947495,0.0054977829568088055
1772727782177341700,13.599341796875,0.0015271619195118546,-0.0032070400193333626,0.002443459117785096
1772727782194687200,13.616687255859375,-0.000305432389723137,-0.0025961752980947495,0.001832594396546483
1772727782212033000,13.634032958984376,0.0009162971982732415,-0.0025961752980947495,0.006108647678047419
1772727782229378600,13.651378662109375,-0.000305432389723137,-0.0038179049734026194,0.006719512399286032
1772727782246724400,13.668724365234375,0.000305432389723137,-0.0025961752980947495,0.000610864779446274
1772727782264070000,13.68606982421875,0.0015271619195118546,-0.0025961752980947495,0.002443459117785096
1772727782281415700,13.703415771484375,0.0027488914784044027,-0.0019853105768561363,0.004276053514331579
1772727782298761200,13.72076123046875,0.003970621153712273,-0.0038179049734026194,0.0054977829568088055
1772727782316107000,13.73810693359375,0.0015271619195118546,-0.0025961752980947495,0.006719512399286032
1772727782333452500,13.75545263671875,-0.0015271619195118546,-0.006872228812426329,-0.0030543238390237093
1772727782350798000,13.772798095703125,-0.0027488914784044027,-0.005650499369949102,0.0030543238390237093
1772727782368144000,13.790143798828124,-0.000305432389723137,-0.005039634648710489,0.001832594396546483
1772727782385489400,13.807489501953125,0.003359756199643016,-0.0032070400193333626,0.004886918235570192
1772727782402835200,13.824835205078125,0.003970621153712273,-0.0032070400193333626,0.0030543238390237093
1772727782420180700,13.8421806640625,0.003359756199643016,-0.0032070400193333626,0.002443459117785096
1772727782437526500,13.859526611328125,0.0027488914784044027,-0.0013744457392022014,0.006108647678047419
1772727782454872000,13.8768720703125,0.0009162971982732415,-0.005650499369949102,0.001221729558892548
1772727782472217600,13.894217529296874,-0.0015271619195118546,-0.005650499369949102,0.000610864779446274
1772727782489563400,13.9115634765625,-0.0027488914784044027,-0.0062613640911877155,-0.002443459117785096
1772727782506909000,13.928908935546875,-0.0009162971982732415,-0.009315688163042068,0.001832594396546483
1772727782524254700,13.946254638671874,0.0021380267571657896,-0.005650499369949102,0.006719512399286032
1772727782541600300,13.963600341796875,0.005192350596189499,-0.005650499369949102,0.006108647678047419
1772727782558945800,13.98094580078125,0.005192350596189499,-0.005650499369949102,0.006719512399286032
1772727782576291600,13.99829150390625,0.005192350596189499,-0.005039634648710489,0.003665188793092966
1772727782593637000,14.01563720703125,0.0027488914784044027,-0.009926552884280682,0.006108647678047419
1772727782610983000,14.03298291015625,0.0021380267571657896,-0.006872228812426329,0.009162971749901772
1772727782628328400,14.050328369140624,-0.0021380267571657896,-0.006872228812426329,-0.003665188793092966
1772727782645674200,14.06767431640625,0.0021380267571657896,-0.0025961752980947495,-0.0030543238390237093
1772727782663019800,14.085019775390625,0.005803215317428112,-0.0007635809597559273,0.004886918235570192
1772727782680365300,14.102365234375,0.008857538923621178,0.00045814859913662076,0.010384701192378998
1772727782697711000,14.119711181640625,0.005192350596189499,-0.0007635809597559273,0.010384701192378998
1772727782715056600,14.137056640625,0.0009162971982732415,-0.005039634648710489,0.008552107028663158
1772727782732402400,14.15440234375,-0.0021380267571657896,-0.005039634648710489,0.004276053514331579
1772727782749748000,14.171748046875,-0.003359756199643016,-0.005039634648710489,0.003665188793092966
1772727782767093800,14.18909375,-0.007024944759905338,-0.006872228812426329,0.002443459117785096
1772727782784439300,14.206439208984374,-0.005192350596189499,-0.0038179049734026194,0.011606430634856224
1772727782801784800,14.223784912109375,0.005803215317428112,-0.0025961752980947495,0.009773836471140385
1772727782819130600,14.241130615234376,0.008246674202382565,0.001679878099821508,0.001832594396546483
1772727782836476200,14.25847607421875,0.005803215317428112,0.002290742937475443,-0.004886918235570192
1772727782853822000,14.275822021484375,-0.0009162971982732415,-0.0007635809597559273,0.012217295356094837
1772727782871167500,14.29316748046875,0.0009162971982732415,-0.0007635809597559273,-0.000610864779446274
1772727782888513300,14.31051318359375,0.0015271619195118546,-0.0019853105768561363,0.007330377586185932
1772727782905858800,14.32785888671875,0.003359756199643016,0.00045814859913662076,0.001221729558892548
1772727782923204600,14.34520458984375,-0.000305432389723137,-0.0038179049734026194,-0.003665188793092966
1772727782940550100,14.362550048828124,-0.004581485874950886,-0.007483093533664942,-0.001221729558892548
1772727782957895700,14.379895751953125,-0.008857538923621178,-0.007483093533664942,0.002443459117785096
1772727782975241500,14.397241455078126,-0.010079269297420979,-0.0032070400193333626,0.001221729558892548
1772727782992587000,14.4145869140625,-0.004581485874950886,0.00045814859913662076,0.009162971749901772
1772727783009932800,14.431932861328125,0.0015271619195118546,0.005955931730568409,0
1772727783027278300,14.4492783203125,0.006414080038666725,0.0010690133785828948,0.004886918235570192
1772727783044624000,14.466623779296874,0.005192350596189499,0.0010690133785828948,0.007330377586185932
1772727783061969700,14.4839697265625,0.005192350596189499,-0.0013744457392022014,0.007941242307424545
1772727783079315200,14.501315185546876,0.003970621153712273,-0.0013744457392022014,0.004886918235570192
1772727783096661000,14.518660888671874,0.005192350596189499,-0.004428769461810589,0.006719512399286032
1772727783114006500,14.536006591796875,0.005192350596189499,-0.005650499369949102,0
1772727783131352300,14.553352294921876,0.008246674202382565,-0.0025961752980947495,0
1772727783148697900,14.57069775390625,0.005192350596189499,-0.0032070400193333626,-0.000610864779446274
1772727783166043600,14.588043701171875,0.005192350596189499,-0.0032070400193333626,0.006719512399286032
1772727783183389200,14.60538916015625,0.0027488914784044027,-0.0032070400193333626,0.003665188793092966
1772727783200735000,14.62273486328125,-0.000305432389723137,-0.0038179049734026194,0.0054977829568088055
1772727783218080500,14.64008056640625,0.000305432389723137,-0.0025961752980947495,0.003665188793092966
1772727783235426000,14.657426025390626,0.0021380267571657896,-0.0013744457392022014,0.006719512399286032
1772727783252771800,14.674771728515625,0.007024944759905338,-0.0019853105768561363,0.008552107028663158
1772727783270117400,14.692117431640625,0.007635809946805239,0.00045814859913662076,0.001221729558892548
1772727783287463200,14.709463134765626,0.004581485874950886,-0.005039634648710489,0.000610864779446274
1772727783304808700,14.72680859375,0.0021380267571657896,-0.005039634648710489,0.003665188793092966
1772727783322154200,14.744154296875,0.000305432389723137,-0.005039634648710489,0.0054977829568088055
1772727783339500000,14.7615,0.000305432389723137,-0.0062613640911877155,0.001221729558892548
1772727783356845600,14.778845458984375,0.0027488914784044027,-0.0038179049734026194,0.007330377586185932
1772727783374191400,14.79619140625,0.003970621153712273,-0.0032070400193333626,0.002443459117785096
1772727783391537000,14.813536865234376,0.003970621153712273,0.00045814859913662076,0.0054977829568088055
1772727783408882400,14.83088232421875,0.004581485874950886,-0.0013744457392022014,0.000610864779446274
1772727783426228200,14.848228271484375,0.0027488914784044027,-0.0013744457392022014,0.006108647678047419
1772727783443573800,14.86557373046875,0.003359756199643016,-0.0025961752980947495,0.001221729558892548
1772727783460919600,14.88291943359375,-0.000305432389723137,-0.0038179049734026194,0.003665188793092966
1772727783478265000,14.90026513671875,0.000305432389723137,-0.0038179049734026194,0.004276053514331579
1772727783495611000,14.91761083984375,0.0015271619195118546,-0.005650499369949102,0.004886918235570192
1772727783512956400,14.934956298828125,0.003970621153712273,-0.0025961752980947495,0.006108647678047419
1772727783530302200,14.95230224609375,0.003359756199643016,-0.0025961752980947495,0.001832594396546483
1772727783547647700,14.969647705078126,0.0021380267571657896,-0.0019853105768561363,0
1772727783564993300,14.9869931640625,0.000305432389723137,-0.005039634648710489,0.000610864779446274
1772727783582339000,15.004339111328125,-0.0009162971982732415,-0.004428769461810589,0.004886918235570192
1772727783599684600,15.0216845703125,0.0021380267571657896,-0.0032070400193333626,0.002443459117785096
1772727783617030400,15.039030517578125,0.0021380267571657896,-0.0025961752980947495,0.003665188793092966
1772727783634376000,15.0563759765625,0.003970621153712273,-0.0025961752980947495,0.0054977829568088055
1772727783651721700,15.0737216796875,0.0015271619195118546,-0.005039634648710489,0
1772727783669067300,15.0910673828125,0.0015271619195118546,-0.005039634648710489,0.002443459117785096
1772727783686412800,15.108412841796875,-0.0027488914784044027,-0.0062613640911877155,-0.002443459117785096
1772727783703758600,15.125758544921876,-0.003359756199643016,-0.005039634648710489,0.004886918235570192
1772727783721104100,15.143104248046875,0.0027488914784044027,-0.0025961752980947495,0.0030543238390237093
1772727783738450000,15.160449951171875,0.006414080038666725,-0.0013744457392022014,0.007330377586185932
1772727783755795500,15.17779541015625,0.003970621153712273,-0.0007635809597559273,0
1772727783773141200,15.195141357421875,0.0009162971982732415,-0.0025961752980947495,0.001832594396546483
1772727783790486800,15.21248681640625,-0.0009162971982732415,-0.005039634648710489,0.001832594396546483
1772727783807832600,15.22983251953125,-0.0015271619195118546,-0.006872228812426329,0.0030543238390237093
1772727783825178000,15.24717822265625,-0.0009162971982732415,-0.005650499369949102,0.001832594396546483
1772727783842523600,15.264523681640625,-0.000305432389723137,-0.005039634648710489,0.000610864779446274
1772727783859869400,15.281869384765624,0.005192350596189499,-0.0025961752980947495,0.004276053514331579
1772727783877215000,15.299215087890625,0.008246674202382565,-0.0001527161948615685,0.001832594396546483
1772727783894560800,15.316560791015625,0.0027488914784044027,-0.0013744457392022014,-0.001221729558892548
1772727783911906300,15.33390625,-0.0021380267571657896,-0.0025961752980947495,-0.002443459117785096
1772727783929252000,15.351252197265625,-0.003359756199643016,-0.007483093533664942,-0.001832594396546483
1772727783946597600,15.36859765625,0.000305432389723137,-0.0032070400193333626,0.006108647678047419
1772727783963943400,15.385943359375,0.003970621153712273,-0.0019853105768561363,0.001832594396546483
1772727783981289000,15.4032890625,0.003970621153712273,0.003512472379952669,-0.008552107028663158
1772727783998634500,15.420634521484375,0.0015271619195118546,0.003512472379952669,0.010995565913617611
1772727784015980300,15.437980224609374,0.0009162971982732415,-0.0025961752980947495,-0.010384701192378998
1772727784033325800,15.455325927734375,-0.0009162971982732415,-0.006872228812426329,0.007941242307424545
1772727784050671600,15.472671630859375,-0.003970621153712273,-0.0062613640911877155,-0.010384701192378998
1772727784068017200,15.49001708984375,-0.0015271619195118546,-0.0032070400193333626,0.002443459117785096
1772727784085363000,15.507363037109375,0.0015271619195118546,-0.0019853105768561363,0.003665188793092966
1772727784102708500,15.52470849609375,0.005803215317428112,-0.0013744457392022014,-0.001832594396546483
1772727784120054000,15.542053955078124,0.004581485874950886,-0.0025961752980947495,-0.000610864779446274
1772727784137399800,15.55939990234375,0.0027488914784044027,-0.004428769461810589,-0.001221729558892548
1772727784154745300,15.576745361328125,0.000305432389723137,-0.0032070400193333626,0.000610864779446274
1772727784172091100,15.594091064453124,0.000305432389723137,-0.005039634648710489,-0.004276053514331579
1772727784189436700,15.611436767578125,-0.0015271619195118546,-0.005039634648710489,-0.0054977829568088055
1772727784206782500,15.628782470703126,0.000305432389723137,-0.0032070400193333626,-0.001221729558892548
1772727784224128000,15.6461279296875,0.005192350596189499,-0.0038179049734026194,-0.000610864779446274
1772727784241473500,15.6634736328125,0.007024944759905338,-0.0007635809597559273,0.000610864779446274
1772727784258819300,15.6808193359375,0.007024944759905338,-0.0007635809597559273,-0.004276053514331579
1772727784276164900,15.698164794921874,0.003359756199643016,-0.004428769461810589,-0.004276053514331579
1772727784293510700,15.7155107421875,-0.0021380267571657896,-0.005650499369949102,-0.0030543238390237093
1772727784310856200,15.732856201171876,-0.0027488914784044027,-0.005039634648710489,-0.003665188793092966
1772727784328202000,15.750201904296874,-0.004581485874950886,-0.006872228812426329,-0.004276053514331579
1772727784345547500,15.767547607421875,0.000305432389723137,-0.0032070400193333626,-0.001832594396546483
1772727784362893300,15.784893310546876,0.00946840364485979,0.002290742937475443,0.0030543238390237093
1772727784380238800,15.80223876953125,0.008857538923621178,-0.0001527161948615685,0
1772727784397584600,15.819584716796875,0.005192350596189499,0.00045814859913662076,-0.000610864779446274
1772727784414930200,15.83693017578125,0.000305432389723137,-0.0032070400193333626,-0.007330377586185932
1772727784432275700,15.854275634765624,-0.0021380267571657896,-0.005650499369949102,-0.001221729558892548
1772727784449621500,15.87162158203125,0.0009162971982732415,-0.0038179049734026194,0.000610864779446274
1772727784466967000,15.888967041015626,0.003970621153712273,-0.0038179049734026194,0
1772727784484312800,15.906312744140624,0.006414080038666725,-0.0019853105768561363,0
1772727784501658400,15.923658447265625,0.006414080038666725,-0.0001527161948615685,-0.001221729558892548
1772727784519004000,15.94100390625,0.0027488914784044027,-0.0013744457392022014,0
1772727784536349700,15.958349609375,0.0015271619195118546,-0.0025961752980947495,0.004886918235570192
1772727784553695200,15.9756953125,0.0009162971982732415,-0.0062613640911877155,0
1772727784571041000,15.993041015625,0.000305432389723137,-0.0062613640911877155,0.001221729558892548
1772727784588386600,16.010386474609376,-0.0027488914784044027,-0.007483093533664942,0.000610864779446274
1772727784605732400,16.027732421875,-0.0027488914784044027,-0.007483093533664942,0.004276053514331579
1772727784623078000,16.045077880859374,0.003970621153712273,-0.005039634648710489,0.001832594396546483
1772727784640423700,16.062423583984376,0.005803215317428112,-0.0032070400193333626,0.0030543238390237093
1772727784657769200,16.079769287109375,0.005803215317428112,-0.0001527161948615685,0.000610864779446274
1772727784675115000,16.097114990234374,-0.000305432389723137,-0.005039634648710489,-0.001221729558892548
1772727784692460500,16.11446044921875,-0.0009162971982732415,-0.007483093533664942,0.007330377586185932
1772727784709806000,16.13180615234375,-0.0015271619195118546,-0.0062613640911877155,0.002443459117785096
1772727784727151900,16.14915185546875,-0.0027488914784044027,-0.007483093533664942,0.002443459117785096
1772727784744497400,16.166497314453125,-0.0015271619195118546,-0.0062613640911877155,0
1772727784761843200,16.18384326171875,0.0015271619195118546,-0.0038179049734026194,0.0030543238390237093
1772727784779188700,16.201188720703126,0.004581485874950886,-0.0032070400193333626,0.004886918235570192
1772727784796534500,16.218534423828125,0.005803215317428112,-0.0013744457392022014,0.009162971749901772
1772727784813880000,16.235880126953123,0.004581485874950886,-0.0025961752980947495,0.004276053514331579
1772727784831225600,16.2532255859375,0.0015271619195118546,-0.0019853105768561363,0.003665188793092966
1772727784848571400,16.2705712890625,0.0015271619195118546,-0.0025961752980947495,-0.001832594396546483
1772727784865917000,16.2879169921875,0.000305432389723137,-0.0038179049734026194,0.004886918235570192
1772727784883262700,16.3052626953125,0.000305432389723137,-0.0038179049734026194,0.0054977829568088055
1772727784900608300,16.322608154296876,0.003359756199643016,-0.0032070400193333626,0.006719512399286032
1772727784917954000,16.3399541015625,0.007635809946805239,0.00045814859913662076,0.0054977829568088055
1772727784935299600,16.357299560546874,0.005803215317428112,-0.0019853105768561363,0.001832594396546483
1772727784952645400,16.374645263671876,0.000305432389723137,-0.005650499369949102,0.004886918235570192
1772727784969991000,16.391990966796875,-0.0021380267571657896,-0.005039634648710489,0.004276053514331579
1772727784987336400,16.40933642578125,-0.003359756199643016,-0.005039634648710489,0.0054977829568088055
1772727785004682200,16.42668212890625,0.0015271619195118546,-0.0032070400193333626,0.0054977829568088055
1772727785022027800,16.44402783203125,0.005192350596189499,-0.0001527161948615685,0.001832594396546483
1772727785039373600,16.46137353515625,0.007635809946805239,-0.0001527161948615685,0.007941242307424545
1772727785056719000,16.478718994140625,0.004581485874950886,-0.0025961752980947495,0.004886918235570192
1772727785074065000,16.49606494140625,0.0015271619195118546,-0.0025961752980947495,0.0054977829568088055
1772727785091410400,16.513410400390626,-0.0027488914784044027,-0.0062613640911877155,0.001221729558892548
1772727785108756200,16.530756103515625,-0.004581485874950886,-0.008093958720564842,0.001221729558892548
1772727785126101800,16.548101806640624,-0.0009162971982732415,-0.006872228812426329,0.004276053514331579
1772727785143447300,16.565447265625,0.0009162971982732415,-0.005039634648710489,0.008552107028663158
1772727785160793000,16.58279296875,0.005192350596189499,-0.0007635809597559273,0.002443459117785096
1772727785178138600,16.600138671875,0.003970621153712273,-0.007483093533664942,0
1772727785195484400,16.617484375,0.004581485874950886,-0.0001527161948615685,0.0054977829568088055
1772727785212830000,16.634829833984377,0.003359756199643016,0.0010690133785828948,0.003665188793092966
1772727785230175700,16.65217578125,0.0015271619195118546,-0.0013744457392022014,0.004886918235570192
1772727785247521300,16.669521240234374,-0.0021380267571657896,-0.0019853105768561363,-0.003665188793092966
1772727785264866800,16.68686669921875,-0.0021380267571657896,-0.008093958720564842,-0.001221729558892548
1772727785282212600,16.704212646484375,0.0021380267571657896,-0.0038179049734026194,0.001221729558892548
1772727785299558100,16.72155810546875,0.003359756199643016,-0.0038179049734026194,-0.000610864779446274
1772727785316904000,16.738904052734377,0.0015271619195118546,-0.0038179049734026194,0.000610864779446274
1772727785334249500,16.75624951171875,0.0015271619195118546,-0.0025961752980947495,-0.001221729558892548
1772727785351595300,16.77359521484375,0.0021380267571657896,-0.0007635809597559273,0.001221729558892548
1772727785368940800,16.79094091796875,0.000305432389723137,-0.0038179049734026194,-0.004276053514331579
1772727785386286600,16.80828662109375,-0.0021380267571657896,-0.0013744457392022014,-0.001832594396546483
1772727785403632000,16.825632080078126,-0.0027488914784044027,-0.0025961752980947495,-0.003665188793092966
1772727785420977700,16.842977783203125,-0.0027488914784044027,-0.004428769461810589,-0.002443459117785096
1772727785438323500,16.860323486328124,0.0021380267571657896,-0.0013744457392022014,-0.001221729558892548
1772727785455669000,16.8776689453125,0.0027488914784044027,-0.0032070400193333626,-0.004886918235570192
1772727785473014800,16.895014892578125,-0.0009162971982732415,-0.0032070400193333626,-0.004886918235570192
1772727785490360300,16.9123603515625,-0.0021380267571657896,-0.0038179049734026194,-0.0030543238390237093
1772727785507706000,16.9297060546875,-0.003359756199643016,-0.005650499369949102,0
1772727785525051600,16.9470517578125,-0.0009162971982732415,-0.0013744457392022014,-0.0030543238390237093
1772727785542397200,16.964397216796876,0.000305432389723137,-0.0032070400193333626,-0.006108647678047419
1772727785559743000,16.981742919921874,0.0015271619195118546,-0.0007635809597559273,-0.004276053514331579
1772727785577088500,16.999088623046877,0.0027488914784044027,-0.0032070400193333626,-0.003665188793092966
1772727785594434300,17.016434326171876,0.0015271619195118546,-0.0038179049734026194,0.002443459117785096
1772727785611779800,17.03377978515625,0.0015271619195118546,-0.0032070400193333626,0
1772727785629125600,17.051125732421873,-0.0015271619195118546,-0.0032070400193333626,-0.002443459117785096
1772727785646471200,17.06847119140625,-0.0027488914784044027,-0.005039634648710489,-0.003665188793092966
1772727785663816700,17.085816650390626,-0.0015271619195118546,-0.0038179049734026194,-0.0030543238390237093
1772727785681162500,17.10316259765625,0.0009162971982732415,-0.0007635809597559273,-0.0030543238390237093
1772727785698508000,17.120508056640624,0.0009162971982732415,-0.0013744457392022014,-0.002443459117785096
1772727785715853800,17.137853759765626,0.0027488914784044027,-0.0019853105768561363,0.000610864779446274
1772727785733199400,17.155199462890625,0.004581485874950886,0.00045814859913662076,-0.002443459117785096
1772727785750545200,17.172545166015624,0.0021380267571657896,-0.0032070400193333626,-0.003665188793092966
1772727785767890700,17.189890625,-0.000305432389723137,-0.0019853105768561363,-0.004276053514331579
1772727785785236500,17.207236572265625,-0.0021380267571657896,-0.0038179049734026194,-0.0054977829568088055
1772727785802582000,17.22458203125,-0.0015271619195118546,-0.0038179049734026194,0.000610864779446274
1772727785819927600,17.241927490234374,0.0009162971982732415,-0.0019853105768561363,-0.001221729558892548
1772727785837273300,17.2592734375,0.000305432389723137,-0.0013744457392022014,-0.0030543238390237093
1772727785854619000,17.276618896484376,0.0021380267571657896,-0.0007635809597559273,-0.002443459117785096
1772727785871964700,17.293964599609374,0.0021380267571657896,-0.0019853105768561363,-0.006108647678047419
1772727785889310200,17.311310302734373,0.0015271619195118546,-0.0013744457392022014,-0.000610864779446274
1772727785906656000,17.328656005859376,-0.000305432389723137,-0.0025961752980947495,-0.0030543238390237093
1772727785924001500,17.34600146484375,-0.003970621153712273,-0.0032070400193333626,-0.004886918235570192
1772727785941347000,17.36334716796875,0.000305432389723137,-0.0025961752980947495,-0.000610864779446274
1772727785958692900,17.38069287109375,0.003359756199643016,-0.0007635809597559273,-0.002443459117785096
1772727785976038400,17.398038330078126,0.0015271619195118546,-0.0019853105768561363,-0.002443459117785096
1772727785993384200,17.41538427734375,0.000305432389723137,-0.0032070400193333626,-0.000610864779446274
1772727786010729700,17.432729736328124,-0.000305432389723137,-0.0032070400193333626,-0.001221729558892548
1772727786028075500,17.450075439453126,0.0015271619195118546,-0.0007635809597559273,-0.001832594396546483
1772727786045421000,17.467421142578125,0.0015271619195118546,-0.0025961752980947495,-0.000610864779446274
1772727786062766800,17.484766845703124,0.0021380267571657896,-0.0013744457392022014,0.000610864779446274
1772727786080112400,17.5021123046875,0.003359756199643016,-0.0019853105768561363,0.003665188793092966
1772727786097458200,17.519458251953125,0.0009162971982732415,-0.0038179049734026194,-0.001221729558892548
1772727786114803700,17.5368037109375,-0.0009162971982732415,-0.0025961752980947495,-0.006108647678047419
1772727786132149200,17.554149169921875,0.0009162971982732415,-0.0032070400193333626,-0.000610864779446274
1772727786149495000,17.5714951171875,0.003970621153712273,-0.0019853105768561363,0.003665188793092966
1772727786166840600,17.588840576171876,0.005803215317428112,-0.0001527161948615685,0.004276053514331579
1772727786184186400,17.606186279296875,0.0009162971982732415,-0.0007635809597559273,-0.000610864779446274
1772727786201532000,17.623531982421873,-0.0015271619195118546,-0.0025961752980947495,-0.004886918235570192
1772727786218877400,17.64087744140625,0.0009162971982732415,-0.0032070400193333626,-0.004276053514331579
1772727786236223200,17.65822314453125,0.0027488914784044027,-0.004428769461810589,0.0054977829568088055
1772727786253568800,17.67556884765625,0.004581485874950886,-0.0001527161948615685,0.004276053514331579
1772727786270914600,17.69291455078125,0.003359756199643016,0.00045814859913662076,-0.001832594396546483
1772727786288260000,17.710260009765626,-0.000305432389723137,-0.0007635809597559273,-0.0030543238390237093
1772727786305606000,17.72760595703125,0.0009162971982732415,-0.0032070400193333626,-0.002443459117785096
1772727786322951400,17.744951416015624,0.004581485874950886,-0.0019853105768561363,0.006108647678047419
1772727786340297200,17.762297119140626,0.006414080038666725,-0.0019853105768561363,0.0030543238390237093
1772727786357642800,17.779642822265625,0.0021380267571657896,-0.0025961752980947495,-0.001832594396546483
1772727786374988300,17.79698828125,0.000305432389723137,0.00045814859913662076,-0.0030543238390237093
1772727786392334000,17.814333984375,-0.000305432389723137,-0.0019853105768561363,-0.002443459117785096
1772727786409679600,17.8316796875,-0.0009162971982732415,-0.0025961752980947495,0.001832594396546483
1772727786427025400,17.849025390625,0.003359756199643016,-0.0007635809597559273,0.004276053514331579
1772727786444371000,17.866370849609375,0.007024944759905338,-0.0025961752980947495,0
1772727786461716700,17.883716796875,0.003359756199643016,-0.0032070400193333626,-0.0030543238390237093
1772727786479062300,17.901062255859376,-0.003359756199643016,-0.0062613640911877155,-0.002443459117785096
1772727786496407800,17.91840771484375,-0.005192350596189499,-0.0062613640911877155,0.002443459117785096
1772727786513753600,17.935753662109374,0.0015271619195118546,-0.0025961752980947495,0.004276053514331579
1772727786531099100,17.95309912109375,0.005192350596189499,-0.0013744457392022014,-0.000610864779446274
1772727786548445000,17.97044482421875,0.0027488914784044027,-0.0013744457392022014,-0.004886918235570192
1772727786565790500,17.98779052734375,0.000305432389723137,-0.0038179049734026194,-0.000610864779446274
1772727786583136300,18.00513623046875,-0.0015271619195118546,-0.005039634648710489,0.001221729558892548
1772727786600481800,18.022481689453127,-0.0027488914784044027,-0.0062613640911877155,0.0030543238390237093
1772727786617827300,18.039827392578125,-0.0021380267571657896,-0.0025961752980947495,0.000610864779446274
1772727786635173000,18.057173095703124,0.000305432389723137,-0.0019853105768561363,-0.003665188793092966
1772727786652518700,18.0745185546875,0.000305432389723137,-0.004428769461810589,-0.0030543238390237093
1772727786669864400,18.091864501953125,-0.0015271619195118546,-0.005039634648710489,-0.000610864779446274
1772727786687210000,18.1092099609375,-0.0009162971982732415,-0.0025961752980947495,0.003665188793092966
1772727786704555800,18.1265556640625,0.000305432389723137,-0.0038179049734026194,0.002443459117785096
1772727786721901300,18.1439013671875,0.0015271619195118546,-0.0019853105768561363,-0.002443459117785096
1772727786739247000,18.1612470703125,0.000305432389723137,-0.0038179049734026194,-0.002443459117785096
1772727786756592600,18.178592529296875,-0.0015271619195118546,-0.004428769461810589,-0.001221729558892548
1772727786773938200,18.195938232421874,-0.0021380267571657896,-0.005039634648710489,0.000610864779446274
1772727786791284000,18.213283935546876,0.000305432389723137,-0.004428769461810589,0.000610864779446274
1772727786808629500,18.23062939453125,0.0027488914784044027,-0.0025961752980947495,0.003665188793092966
1772727786825975300,18.247975341796874,0.0021380267571657896,-0.0038179049734026194,0.001221729558892548
1772727786843320800,18.26532080078125,-0.0027488914784044027,-0.0038179049734026194,-0.003665188793092966
1772727786860666600,18.28266650390625,-0.003970621153712273,-0.0025961752980947495,0.001221729558892548
1772727786878012200,18.30001220703125,0.0009162971982732415,-0.0019853105768561363,0.0030543238390237093
1772727786895358000,18.31735791015625,0.005192350596189499,-0.0001527161948615685,0.001832594396546483
1772727786912703500,18.334703369140627,0.005192350596189499,-0.0001527161948615685,0
1772727786930049000,18.352049072265626,0.000305432389723137,-0.0038179049734026194,0
1772727786947394800,18.369394775390624,-0.0027488914784044027,-0.005650499369949102,0
1772727786964740400,18.386740234375,-0.0021380267571657896,-0.004428769461810589,-0.000610864779446274
1772727786982086100,18.404086181640626,-0.0021380267571657896,-0.0062613640911877155,-0.002443459117785096
1772727786999431700,18.421431640625,-0.000305432389723137,-0.0032070400193333626,0.000610864779446274
1772727787016777500,18.438777587890623,0.005803215317428112,-0.0007635809597559273,0.003665188793092966
1772727787034123000,18.456123046875,0.004581485874950886,-0.0013744457392022014,0.000610864779446274
1772727787051468500,18.473468505859376,-0.0021380267571657896,-0.004428769461810589,-0.001221729558892548
1772727787068814300,18.490814453125,-0.005192350596189499,-0.005039634648710489,-0.000610864779446274
1772727787086160000,18.508159912109374,-0.005192350596189499,-0.006872228812426329,-0.002443459117785096
1772727787103505700,18.525505615234376,0.0009162971982732415,-0.004428769461810589,0.000610864779446274
1772727787120851200,18.542851318359375,0.007635809946805239,-0.0007635809597559273,0.003665188793092966
1772727787138197000,18.560197021484374,0.005192350596189499,-0.0019853105768561363,0.003665188793092966
1772727787155542500,18.57754248046875,-0.000305432389723137,-0.0038179049734026194,0.003665188793092966
1772727787172888000,18.59488818359375,-0.005192350596189499,-0.005039634648710489,-0.001832594396546483
1772727787190233900,18.61223388671875,-0.005803215317428112,-0.005039634648710489,-0.000610864779446274
1772727787207579400,18.629579345703124,0.000305432389723137,-0.0025961752980947495,0.003665188793092966
1772727787224925200,18.64692529296875,0.005192350596189499,-0.0001527161948615685,0.0030543238390237093
1772727787242270700,18.664270751953126,0.0027488914784044027,-0.0013744457392022014,0.001832594396546483
1772727787259616500,18.681616455078125,-0.0015271619195118546,-0.0032070400193333626,0.001832594396546483
1772727787276962000,18.698962158203123,-0.0021380267571657896,-0.0038179049734026194,0
1772727787294307800,18.716307861328126,0.0009162971982732415,-0.004428769461810589,0.003665188793092966
1772727787311653400,18.7336533203125,0.0015271619195118546,-0.0019853105768561363,0.0030543238390237093
1772727787328999000,18.7509990234375,0.0009162971982732415,-0.0025961752980947495,-0.000610864779446274
1772727787346344700,18.7683447265625,-0.000305432389723137,-0.0025961752980947495,0.002443459117785096
1772727787363690200,18.785690185546876,0.003970621153712273,-0.0007635809597559273,0.004886918235570192
1772727787381036000,18.8030361328125,0.003970621153712273,-0.0019853105768561363,0.003665188793092966
1772727787398381600,18.820381591796874,-0.000305432389723137,-0.0032070400193333626,0.001221729558892548
1772727787415727400,18.837727294921876,-0.003970621153712273,-0.0062613640911877155,0.001221729558892548
1772727787433073000,18.855072998046875,0.0009162971982732415,-0.0019853105768561363,0.004886918235570192
1772727787450418400,18.87241845703125,0.003970621153712273,-0.0007635809597559273,0.004276053514331579
1772727787467764200,18.88976416015625,0.0009162971982732415,-0.0025961752980947495,-0.001221729558892548
1772727787485109800,18.90710986328125,-0.003359756199643016,-0.004428769461810589,-0.000610864779446274
1772727787502455600,18.92445556640625,-0.0015271619195118546,-0.0019853105768561363,0.001832594396546483
1772727787519801000,18.941801025390625,0.004581485874950886,-0.0007635809597559273,0.003665188793092966
1772727787537147000,18.95914697265625,0.006414080038666725,0.00045814859913662076,0.000610864779446274
1772727787554492400,18.976492431640626,0.003359756199643016,-0.0007635809597559273,0.000610864779446274
1772727787571838000,18.993837890625,-0.000305432389723137,-0.0019853105768561363,0.003665188793092966
1772727787589183700,19.011183837890623,-0.003359756199643016,-0.006872228812426329,0
1772727787606529300,19.028529296875,-0.0021380267571657896,-0.005650499369949102,-0.002443459117785096
1772727787623875000,19.045875,0.0009162971982732415,-0.0032070400193333626,-0.001832594396546483
1772727787641220600,19.063220703125,0.0027488914784044027,-0.0032070400193333626,0.001832594396546483
1772727787658566400,19.08056640625,0.0015271619195118546,-0.0025961752980947495,-0.000610864779446274
1772727787675912000,19.097911865234376,0.000305432389723137,-0.0025961752980947495,0.001832594396546483
1772727787693257700,19.1152578125,-0.000305432389723137,-0.0019853105768561363,0.001832594396546483
1772727787710603300,19.132603271484374,-0.000305432389723137,-0.0032070400193333626,-0.002443459117785096
1772727787727948800,19.14994873046875,-0.0027488914784044027,-0.004428769461810589,-0.002443459117785096
1772727787745294600,19.167294677734375,-0.0015271619195118546,-0.0019853105768561363,0
1772727787762640100,19.18464013671875,0.000305432389723137,-0.0025961752980947495,0
1772727787779986000,19.20198583984375,0.003359756199643016,-0.0025961752980947495,0.002443459117785096
1772727787797331500,19.21933154296875,0.005803215317428112,-0.0013744457392022014,0.0030543238390237093
1772727787814677000,19.236677001953126,0.0015271619195118546,-0.0013744457392022014,0
1772727787832022800,19.254022705078125,-0.005192350596189499,-0.004428769461810589,-0.004276053514331579
1772727787849368300,19.271368408203124,-0.006414080038666725,-0.005039634648710489,-0.000610864779446274
1772727787866714000,19.288714111328126,0.0015271619195118546,-0.0007635809597559273,0.001221729558892548
1772727787884059600,19.3060595703125,0.005803215317428112,0.002901607658714056,0.006719512399286032
1772727787901405400,19.323405517578124,0.005192350596189499,0.0010690133785828948,-0.004886918235570192
1772727787918751000,19.3407509765625,-0.0015271619195118546,-0.0019853105768561363,-0.000610864779446274
1772727787936096500,19.358096435546877,-0.0027488914784044027,-0.0025961752980947495,-0.000610864779446274
1772727787953442300,19.3754423828125,0.0009162971982732415,0.005345067009329796,-0.007941242307424545
1772727787970787800,19.392787841796874,0.000305432389723137,0.009010255336761475,0.017104214057326317
1772727787988133600,19.410133544921877,0.003359756199643016,0.003512472379952669,-0.010995565913617611
1772727788005479200,19.427479248046875,0.0009162971982732415,-0.0007635809597559273,0.007941242307424545
1772727788022825000,19.444824951171874,-0.000305432389723137,-0.0007635809597559273,-0.0054977829568088055
1772727788040170500,19.46217041015625,-0.0009162971982732415,-0.0019853105768561363,0.003665188793092966
1772727788057516000,19.47951611328125,-0.000305432389723137,-0.0001527161948615685,0.001221729558892548
1772727788074861800,19.49686181640625,0.0015271619195118546,-0.0025961752980947495,-0.001832594396546483
1772727788092207400,19.514207275390625,0.0015271619195118546,-0.0025961752980947495,-0.0030543238390237093
1772727788109553200,19.53155322265625,0.0021380267571657896,-0.0019853105768561363,-0.000610864779446274
1772727788126898700,19.548898681640626,0.0015271619195118546,-0.004428769461810589,0
1772727788144244500,19.566244384765625,0.0015271619195118546,-0.0032070400193333626,0
1772727788161590000,19.583590087890624,-0.000305432389723137,-0.004428769461810589,-0.0054977829568088055
1772727788178935800,19.600935791015626,-0.0027488914784044027,-0.0038179049734026194,-0.003665188793092966
1772727788196281300,19.61828125,-0.000305432389723137,-0.0013744457392022014,0.001221729558892548
1772727788213627000,19.635626953125,0.003359756199643016,0.00045814859913662076,-0.000610864779446274
1772727788230972700,19.65297265625,0.004581485874950886,0.0010690133785828948,-0.002443459117785096
1772727788248318200,19.670318115234377,0.003970621153712273,-0.0013744457392022014,-0.001221729558892548
1772727788265664000,19.6876640625,0.0009162971982732415,-0.0038179049734026194,0.001221729558892548
1772727788283009500,19.705009521484374,-0.003359756199643016,-0.005650499369949102,-0.003665188793092966
1772727788300355000,19.72235498046875,-0.005803215317428112,-0.006872228812426329,-0.000610864779446274
1772727788317700900,19.739700927734376,-0.0027488914784044027,-0.005039634648710489,-0.000610864779446274
1772727788335046400,19.75704638671875,0.003359756199643016,-0.0013744457392022014,-0.0030543238390237093
1772727788352392200,19.77439208984375,0.006414080038666725,0.001679878099821508,0.002443459117785096
1772727788369737700,19.79173779296875,0.005803215317428112,0.001679878099821508,0.001221729558892548
1772727788387083300,19.809083251953126,0.000305432389723137,-0.0025961752980947495,-0.001832594396546483
1772727788404429000,19.826428955078125,-0.004581485874950886,-0.004428769461810589,0.000610864779446274
1772727788421774600,19.843774658203124,-0.005803215317428112,-0.005650499369949102,-0.001221729558892548
1772727788439120400,19.861120361328126,-0.003970621153712273,-0.0038179049734026194,-0.003665188793092966
1772727788456466000,19.8784658203125,0.0021380267571657896,-0.0013744457392022014,0
1772727788473811700,19.895811767578124,0.006414080038666725,0.00045814859913662076,0.001221729558892548
1772727788491157200,19.9131572265625,0.004581485874950886,0.0010690133785828948,0.001221729558892548
1772727788508503000,19.9305029296875,-0.0015271619195118546,-0.0013744457392022014,-0.0030543238390237093
1772727788525848600,19.9478486328125,-0.004581485874950886,-0.0032070400193333626,-0.001221729558892548
1772727788543194000,19.965194091796874,-0.0027488914784044027,-0.0038179049734026194,0
1772727788560540000,19.982539794921873,-0.000305432389723137,-0.0025961752980947495,-0.002443459117785096
1772727788577885400,19.999885498046876,0.0021380267571657896,-0.0013744457392022014,-0.0030543238390237093
1772727788595231200,20.017231201171874,0.0027488914784044027,-0.0007635809597559273,0.001832594396546483
1772727788612576800,20.03457666015625,0.0021380267571657896,-0.0019853105768561363,0.000610864779446274
1772727788629922600,20.051922607421876,-0.000305432389723137,-0.0032070400193333626,-0.000610864779446274
1772727788647268000,20.06926806640625,-0.006414080038666725,-0.004428769461810589,-0.003665188793092966
1772727788664613600,20.086613525390625,-0.005803215317428112,-0.004428769461810589,-0.0054977829568088055
1772727788681959400,20.10395947265625,-0.0009162971982732415,-0.0013744457392022014,0
1772727788699305000,20.121304931640626,0.003359756199643016,-0.0007635809597559273,0
1772727788716650800,20.138650634765625,0.004581485874950886,0.001679878099821508,0.001221729558892548
1772727788733996300,20.155996337890624,0.003359756199643016,0.002290742937475443,0.000610864779446274
1772727788751342000,20.173342041015626,0.0009162971982732415,-0.0013744457392022014,-0.002443459117785096
1772727788768687600,20.1906875,-0.0015271619195118546,-0.0025961752980947495,-0.0030543238390237093
1772727788786033200,20.208033203125,-0.0027488914784044027,-0.005039634648710489,-0.001832594396546483
1772727788803379000,20.22537890625,-0.000305432389723137,-0.0025961752980947495,0.004276053514331579
1772727788820724500,20.242724365234373,0.0027488914784044027,-0.0007635809597559273,0.001221729558892548
1772727788838070300,20.2600703125,0.0015271619195118546,-0.0025961752980947495,-0.001832594396546483
1772727788855415800,20.277415771484375,0.000305432389723137,-0.0025961752980947495,-0.000610864779446274
1772727788872761300,20.29476123046875,0.000305432389723137,-0.0019853105768561363,0.000610864779446274
1772727788890107100,20.312107177734376,0.000305432389723137,-0.0032070400193333626,0
1772727788907452700,20.32945263671875,0.0021380267571657896,-0.0019853105768561363,0.001832594396546483
1772727788924798500,20.346798583984373,0.003970621153712273,0.00045814859913662076,-0.001221729558892548
1772727788942144000,20.36414404296875,0.0027488914784044027,-0.0001527161948615685,-0.000610864779446274
1772727788959489800,20.38148974609375,0.0009162971982732415,-0.0007635809597559273,-0.000610864779446274
1772727788976835300,20.39883544921875,0.0015271619195118546,-0.0007635809597559273,0.002443459117785096
1772727788994181000,20.41618115234375,0.0027488914784044027,-0.0019853105768561363,0.001832594396546483
1772727789011526700,20.433526611328126,0.0027488914784044027,-0.0013744457392022014,-0.001221729558892548
1772727789028872200,20.4508720703125,-0.000305432389723137,-0.0013744457392022014,-0.003665188793092966
1772727789046218000,20.468218017578124,-0.0021380267571657896,-0.0025961752980947495,0
1772727789063563500,20.4855634765625,-0.0009162971982732415,-0.0019853105768561363,0.0030543238390237093
1772727789080909000,20.502908935546873,0.003359756199643016,-0.0001527161948615685,0.002443459117785096
1772727789098254800,20.5202548828125,0.007024944759905338,0.001679878099821508,0.000610864779446274
1772727789115600400,20.537600341796875,0.005803215317428112,-0.0001527161948615685,-0.003665188793092966
1772727789132946200,20.5549462890625,0.000305432389723137,-0.0013744457392022014,-0.002443459117785096
