time,seconds_elapsed,z,y,x
1772727768673821200,0.0958212890625,-0.3640754222869873,-2.7733261585235596,0.5430588126182556
1772727768691166700,0.113166748046875,-0.7360920310020447,-2.003025531768799,0.7147117853164673
1772727768708512000,0.130511962890625,-1.0781763792037964,-1.5131120681762695,0.5894845128059387
1772727768725857500,0.147857421875,-1.2021819353103638,-2.160017967224121,0.3042106628417969
1772727768743202800,0.165202880859375,-0.7629700899124146,-2.8093671798706055,-0.10384701192378998
1772727768760548400,0.18254833984375,0.24251331388950348,-2.7085745334625244,-0.37629270553588867
1772727768777893600,0.1998935546875,0.9706641435623169,-1.7091996669769287,-0.24984370172023773
1772727768795239200,0.2172392578125,1.4440842866897583,-0.8008437156677246,0.29504770040512085
1772727768812584700,0.234584716796875,1.1013891696929932,-0.8197805285453796,0.8374956250190735
1772727768829930000,0.251929931640625,0.35185810923576355,-2.126420259475708,0.9022472500801086
1772727768847275500,0.269275634765625,0.09468404203653336,-2.9431464672088623,1.0299180746078491
1772727768864620800,0.286620849609375,0.2522871494293213,-3.084867238998413,1.3420698642730713
1772727768881966300,0.30396630859375,0.4013381600379944,-3.375638723373413,1.6884303092956543
1772727768899311600,0.3213115234375,0.22968515753746033,-3.3713626861572266,2.1313071250915527
1772727768916657200,0.3386572265625,-0.45448338985443115,-2.855792760848999,2.2479825019836426
1772727768934002700,0.356002685546875,-1.5167772769927979,-2.274860382080078,1.8545855283737183
1772727768951348000,0.373347900390625,-2.748891592025757,-1.488066554069519,1.4007129669189453
1772727768968693500,0.390693603515625,-3.948629856109619,-0.7825177907943726,1.1545344591140747
1772727768986038800,0.408038818359375,-5.133707523345947,-0.5009090900421143,1.1142174005508423
1772727769003384300,0.42538427734375,-6.206996917724609,-0.32620179653167725,1.3726131916046143
1772727769020729900,0.442729736328125,-6.691412925720215,-0.5827649831771851,1.8099923133850098
1772727769038075100,0.4600751953125,-5.7238030433654785,-1.349400281906128,2.4483461380004883
1772727769055420700,0.477420654296875,-2.9443681240081787,-1.9089524745941162,3.009730815887451
1772727769072766000,0.494765869140625,1.0458004474639893,-1.0739002227783203,3.2504115104675293
1772727769090111500,0.512111572265625,1.0806198120117188,-1.0690133571624756,3.1062474250793457
1772727769107456800,0.529456787109375,0.45326167345046997,-0.7312051653862,2.863734006881714
1772727769124802300,0.54680224609375,0.06780599057674408,-0.1386663019657135,2.44468092918396
1772727769142147800,0.56414794921875,0.047036588191986084,0.44409868121147156,2.100764036178589
1772727769159493000,0.5814931640625,0.18142683804035187,0.7006618976593018,2.0073015689849854
1772727769176838700,0.598838623046875,0.5430588126182556,0.9712749719619751,2.199113130569458
1772727769194184000,0.616183837890625,1.2302817106246948,1.8753548860549927,2.874729633331299
1772727769211529500,0.633529541015625,1.7434080839157104,1.7910555601119995,3.8441720008850098
1772727769228875000,0.650875,1.6499457359313965,0.6261364221572876,5.015810489654541
1772727769246220300,0.66822021484375,1.1087195873260498,-0.008552107028663158,5.8942341804504395
1772727769263565800,0.68556591796875,0.6444623470306396,1.304807186126709,5.882627964019775
1772727769280911000,0.7029111328125,0.6976075768470764,2.4379613399505615,4.903411388397217
1772727769298256600,0.720256591796875,1.2260055541992188,2.7006332874298096,3.2809548377990723
1772727769315602200,0.737602294921875,1.4129302501678467,1.119104266166687,1.0488548278808594
1772727769332947500,0.754947509765625,-0.02626718580722809,-0.20158538222312927,-2.637714147567749
1772727769350293000,0.77229296875,-0.053145237267017365,-0.12522727251052856,-3.5057530403137207
1772727769367638500,0.789638427734375,0.04276053607463837,-0.9083559513092041,-3.6810710430145264
1772727769384983800,0.80698388671875,-0.30604326725006104,-0.833219587802887,-3.470933675765991
1772727769402329300,0.824329345703125,-0.5369501113891602,1.5528182983398438,-1.2363903522491455
1772727769419674600,0.841674560546875,-0.9236275553703308,0.29565855860710144,0.23396120965480804
1772727769437020200,0.859020263671875,-1.360395908355713,-0.40744680166244507,0.45448338985443115
1772727769454365700,0.87636572265625,-1.757457971572876,-0.25961753726005554,0.4373791813850403
1772727769471711000,0.8937109375,-1.9181153774261475,0.05253437161445618,0.4685332775115967
1772727769489056500,0.911056396484375,-2.0024147033691406,0.27488914132118225,0.6224712133407593
1772727769506402000,0.928402099609375,-1.6169590950012207,1.7232495546340942,0.667064368724823
1772727769523747300,0.945747314453125,-0.9731075763702393,2.2284348011016846,0.33719736337661743
1772727769541092900,0.9630927734375,-0.3756818473339081,-0.6340776681900024,-0.2993237376213074
1772727769558438400,0.9804384765625,-0.031154103577136993,0.5485565662384033,0.12522727251052856
1772727769575783700,0.99778369140625,0.01649334840476513,0.544891357421875,-0.6145299673080444
1772727769593129200,1.015129150390625,0.38728827238082886,1.414151906967163,-1.2889246940612793
1772727769610474800,1.032474853515625,0.32131487131118774,0.20769402384757996,-1.8741331100463867
1772727769627820000,1.049820068359375,0.648127555847168,0.6304124593734741,-2.822195291519165
1772727769645165600,1.06716552734375,0.8753692507743835,0.26511532068252563,-4.079354763031006
1772727769662510800,1.0845107421875,-0.39278605580329895,1.12765634059906,-2.7763805389404297
1772727769679856400,1.1018564453125,-0.4355465769767761,-0.9352339506149292,-1.2534945011138916
1772727769697202000,1.119201904296875,-0.18570289015769958,0.01588248461484909,0.3249800503253937
1772727769714547200,1.136547119140625,0.4324922561645508,0.12034036219120026,1.0177006721496582
1772727769731892700,1.153892822265625,0.5351175665855408,-0.12217295914888382,0.5326740741729736
1772727769749238300,1.17123828125,0.25411975383758545,0.07147117704153061,0.29504770040512085
1772727769766583600,1.18858349609375,0.040317077189683914,0.056199558079242706,0.2528980076313019
1772727769783929000,1.20592919921875,-0.008552107028663158,0.020158538594841957,0.023212861269712448
1772727769801274600,1.223274658203125,-0.021991131827235222,0.01954767294228077,-0.10506874322891235
1772727769818620000,1.240619873046875,-0.03543015569448471,-0.021991131827235222,-0.12400554865598679
1772727769835965400,1.25796533203125,-0.0360410213470459,-0.06780599057674408,-0.10629047453403473
1772727769853311000,1.27531103515625,-0.08368847519159317,-0.08613193035125732,-0.15027274191379547
1772727769870656300,1.29265625,-0.09346231073141098,-0.014049889519810677,-0.05925388261675835
1772727769888001800,1.310001708984375,-0.08429934084415436,-0.05253437161445618,0.004276053514331579
1772727769905347300,1.327347412109375,-0.006108647678047419,-0.03543015569448471,-0.0256563201546669
1772727769922692600,1.344692626953125,0.0030543238390237093,-0.023823726922273636,-0.03481929376721382
1772727769940038100,1.3620380859375,0.014049889519810677,-0.034208428114652634,-0.003665188793092966
1772727769957383700,1.3793837890625,0.020769402384757996,-0.02626718580722809,-0.01282816007733345
1772727769974729000,1.39672900390625,0.013439024798572063,-0.009162971749901772,-0.01893680728971958
1772727769992074500,1.414074462890625,0.006108647678047419,-0.020769402384757996,-0.009162971749901772
1772727770009420000,1.431419921875,0.007941242307424545,-0.031154103577136993,-0.02260199747979641
1772727770026765600,1.448765625,0.011606430634856224,-0.034208428114652634,-0.036651886999607086
1772727770044110800,1.46611083984375,0.001221729558892548,-0.05436696484684944,-0.03543015569448471
1772727770061456400,1.483456298828125,-0.004276053514331579,-0.047036588191986084,-0.014660755172371864
1772727770078802000,1.500802001953125,-0.002443459117785096,-0.03298669680953026,-0.031154103577136993
1772727770096147200,1.518147216796875,-0.01588248461484909,-0.014660755172371864,-0.006719512399286032
1772727770113492700,1.53549267578125,-0.010995565913617611,-0.021380268037319183,0.017104214057326317
1772727770130838300,1.55283837890625,-0.0030543238390237093,-0.0054977829568088055,-0.0030543238390237093
1772727770148183600,1.57018359375,0.000610864779446274,-0.001221729558892548,-0.004276053514331579
1772727770165529000,1.587529052734375,0.002443459117785096,0.001221729558892548,0.011606430634856224
1772727770182874600,1.60487451171875,0.000610864779446274,-0.001221729558892548,0.007330377586185932
1772727770200220000,1.622219970703125,-0.0054977829568088055,0,0.01282816007733345
1772727770217565400,1.6395654296875,-0.011606430634856224,0,0.0054977829568088055
1772727770234911000,1.656910888671875,-0.015271619893610477,-0.0054977829568088055,0.001832594396546483
1772727770252256500,1.674256591796875,-0.009773836471140385,-0.004886918235570192,-0.003665188793092966
1772727770269601800,1.691601806640625,0.001221729558892548,-0.0030543238390237093,0.004276053514331579
1772727770286947300,1.708947265625,0.007941242307424545,0,0.012217295356094837
1772727770304292900,1.72629296875,0.014660755172371864,0.003665188793092966,0.009773836471140385
1772727770321638400,1.743638427734375,0.007941242307424545,0,0.011606430634856224
1772727770338983700,1.760983642578125,0.003665188793092966,-0.000610864779446274,0.014660755172371864
1772727770356329200,1.7783291015625,-0.008552107028663158,-0.010995565913617611,0.009162971749901772
1772727770373674800,1.7956748046875,-0.013439024798572063,-0.009773836471140385,0.010995565913617611
1772727770391020300,1.813020263671875,-0.007330377586185932,-0.003665188793092966,0.008552107028663158
1772727770408365600,1.830365478515625,0.000610864779446274,-0.003665188793092966,0.010384701192378998
1772727770425711000,1.847711181640625,0.004886918235570192,0.001221729558892548,0.004276053514331579
1772727770443056600,1.865056640625,0.006719512399286032,0.003665188793092966,0.003665188793092966
1772727770460402000,1.88240185546875,0.001221729558892548,-0.014660755172371864,0.015271619893610477
1772727770477747500,1.89974755859375,-0.001832594396546483,-0.009162971749901772,0.011606430634856224
1772727770495093000,1.917093017578125,-0.001832594396546483,-0.007330377586185932,-0.000610864779446274
1772727770512438500,1.9344384765625,-0.009773836471140385,-0.009162971749901772,-0.007330377586185932
1772727770529783800,1.95178369140625,-0.012217295356094837,-0.010384701192378998,0
1772727770547129300,1.96912939453125,-0.017104214057326317,-0.011606430634856224,-0.001832594396546483
1772727770564475000,1.986474853515625,-0.02871064469218254,-0.004276053514331579,-0.004886918235570192
1772727770581820400,2.0038203125,-0.04214967042207718,-0.009162971749901772,-0.026878049597144127
1772727770599165700,2.021165771484375,-0.05742128938436508,-0.014660755172371864,-0.039706211537122726
1772727770616511200,2.03851123046875,-0.08063415437936783,0.015271619893610477,-0.037262752652168274
1772727770633856800,2.055856689453125,-0.043371398001909256,-0.018325943499803543,-0.034208428114652634
1772727770651202300,2.073202392578125,-0.026878049597144127,-0.01954767294228077,0.013439024798572063
1772727770668547800,2.0905478515625,-0.010995565913617611,-0.003665188793092966,-0.01893680728971958
1772727770685893000,2.10789306640625,0.006108647678047419,-0.009162971749901772,0.015271619893610477
1772727770703238700,2.12523876953125,0.01282816007733345,-0.007941242307424545,0.007941242307424545
1772727770720584200,2.142584228515625,0.004886918235570192,-0.008552107028663158,-0.0054977829568088055
1772727770737929500,2.159929443359375,-0.003665188793092966,-0.009773836471140385,0.006108647678047419
1772727770755275000,2.17727490234375,-0.010995565913617611,-0.0054977829568088055,-0.003665188793092966
1772727770772620500,2.19462060546875,-0.01649334840476513,-0.0054977829568088055,-0.012217295356094837
1772727770789966000,2.211966064453125,-0.008552107028663158,0.001221729558892548,0.004276053514331579
1772727770807311600,2.2293115234375,0.000610864779446274,0.003665188793092966,-0.003665188793092966
1772727770824657000,2.246656982421875,0,0.006719512399286032,-0.0030543238390237093
1772727770842002400,2.26400244140625,-0.002443459117785096,0.006719512399286032,-0.004886918235570192
1772727770859348000,2.281347900390625,-0.004276053514331579,0.0030543238390237093,-0.002443459117785096
1772727770876693500,2.298693603515625,-0.0054977829568088055,0.000610864779446274,-0.0030543238390237093
1772727770894038800,2.316038818359375,-0.010384701192378998,-0.0030543238390237093,-0.01282816007733345
1772727770911384300,2.33338427734375,-0.009162971749901772,0.000610864779446274,-0.009773836471140385
1772727770928729900,2.350729736328125,-0.001832594396546483,-0.0030543238390237093,-0.006108647678047419
1772727770946075400,2.368075439453125,0,-0.001832594396546483,-0.009773836471140385
1772727770963421000,2.3854208984375,0.001832594396546483,0,0.000610864779446274
1772727770980766200,2.40276611328125,-0.001221729558892548,-0.001832594396546483,0.001832594396546483
1772727770998111700,2.42011181640625,-0.0030543238390237093,0.000610864779446274,-0.010995565913617611
1772727771015457300,2.437457275390625,-0.004886918235570192,0.001832594396546483,-0.007941242307424545
1772727771032802800,2.454802734375,-0.007330377586185932,0.000610864779446274,-0.009162971749901772
1772727771050148400,2.4721484375,-0.003665188793092966,-0.001221729558892548,-0.006719512399286032
1772727771067493600,2.48949365234375,0.004886918235570192,0.004886918235570192,0.007330377586185932
1772727771084839200,2.506839111328125,0.0054977829568088055,-0.0030543238390237093,-0.003665188793092966
1772727771102184700,2.524184814453125,-0.001832594396546483,-0.006719512399286032,-0.004276053514331579
1772727771119530200,2.5415302734375,-0.0030543238390237093,-0.0030543238390237093,-0.007330377586185932
1772727771136875800,2.558875732421875,-0.0030543238390237093,-0.001832594396546483,-0.003665188793092966
1772727771154221000,2.576220947265625,-0.007941242307424545,-0.004886918235570192,-0.008552107028663158
1772727771171566600,2.593566650390625,-0.008552107028663158,-0.0054977829568088055,-0.007941242307424545
1772727771188912000,2.610912109375,-0.006719512399286032,0.002443459117785096,-0.004276053514331579
1772727771206257700,2.628257568359375,0.0030543238390237093,-0.009162971749901772,-0.001221729558892548
1772727771223603200,2.645603271484375,0.001221729558892548,-0.008552107028663158,0.0054977829568088055
1772727771240948500,2.662948486328125,-0.004886918235570192,-0.009162971749901772,0
1772727771258294000,2.6802939453125,-0.01282816007733345,-0.007330377586185932,-0.002443459117785096
1772727771275639600,2.6976396484375,-0.020158538594841957,-0.008552107028663158,-0.003665188793092966
1772727771292985000,2.714985107421875,-0.01893680728971958,-0.010995565913617611,-0.0030543238390237093
1772727771310330600,2.73233056640625,-0.015271619893610477,-0.004886918235570192,0
1772727771327676200,2.74967626953125,-0.006719512399286032,0,-0.002443459117785096
1772727771345021700,2.767021728515625,0.001221729558892548,0.002443459117785096,0.003665188793092966
1772727771362367000,2.784366943359375,0.006719512399286032,0.003665188793092966,0.008552107028663158
1772727771379712500,2.80171240234375,0.006719512399286032,0.003665188793092966,0.009773836471140385
1772727771397058000,2.81905810546875,-0.004886918235570192,-0.001221729558892548,0.001832594396546483
1772727771414403600,2.836403564453125,-0.012217295356094837,-0.004276053514331579,0.007941242307424545
1772727771431749000,2.8537490234375,-0.014049889519810677,-0.010384701192378998,0.003665188793092966
1772727771449094700,2.8710947265625,-0.009162971749901772,-0.009162971749901772,0.006108647678047419
1772727771466440000,2.88843994140625,-0.000610864779446274,-0.003665188793092966,0.010384701192378998
1772727771483785500,2.905785400390625,0.002443459117785096,0.000610864779446274,0.009162971749901772
1772727771501131000,2.923131103515625,0.0030543238390237093,0,-0.000610864779446274
1772727771518476500,2.9404765625,-0.000610864779446274,0.004276053514331579,0.0030543238390237093
1772727771535822000,2.957822021484375,-0.007941242307424545,0,0
1772727771553167600,2.975167724609375,-0.006719512399286032,0.0030543238390237093,0.011606430634856224
1772727771570513200,2.99251318359375,-0.003665188793092966,0.003665188793092966,0.002443459117785096
1772727771587858400,3.0098583984375,-0.0030543238390237093,0.001832594396546483,0.001221729558892548
1772727771605204000,3.027203857421875,-0.001832594396546483,-0.000610864779446274,0.004276053514331579
1772727771622549500,3.044549560546875,-0.001221729558892548,-0.000610864779446274,0.006719512399286032
1772727771639895000,3.06189501953125,-0.002443459117785096,0.002443459117785096,0.001221729558892548
1772727771657240600,3.079240478515625,-0.001832594396546483,0.001832594396546483,0.004276053514331579
1772727771674586000,3.096586181640625,-0.004886918235570192,-0.001832594396546483,0.001221729558892548
1772727771691931400,3.113931396484375,-0.006719512399286032,-0.004276053514331579,0.000610864779446274
1772727771709277000,3.13127685546875,-0.008552107028663158,-0.0054977829568088055,0.007330377586185932
1772727771726622500,3.14862255859375,-0.013439024798572063,-0.009773836471140385,0.0030543238390237093
1772727771743968000,3.165968017578125,-0.008552107028663158,-0.003665188793092966,0.0054977829568088055
1772727771761313500,3.1833134765625,0.000610864779446274,0.002443459117785096,0.01282816007733345
1772727771778659000,3.2006591796875,0.002443459117785096,0.004886918235570192,-0.002443459117785096
1772727771796004600,3.218004638671875,0.002443459117785096,0.004276053514331579,0.008552107028663158
1772727771813350000,3.235349853515625,-0.000610864779446274,0.0030543238390237093,0.01282816007733345
1772727771830695400,3.2526953125,-0.004276053514331579,-0.000610864779446274,0.0054977829568088055
1772727771848041000,3.270041015625,-0.007330377586185932,-0.001221729558892548,0.006108647678047419
1772727771865386500,3.287386474609375,-0.009162971749901772,-0.001221729558892548,0.000610864779446274
1772727771882732000,3.30473193359375,-0.006108647678047419,0,0.000610864779446274
1772727771900077600,3.32207763671875,0.001832594396546483,0,0.011606430634856224
1772727771917423000,3.339423095703125,0.000610864779446274,-0.001221729558892548,0.0030543238390237093
1772727771934768600,3.3567685546875,-0.004276053514331579,0,0.002443459117785096
1772727771952114200,3.3741142578125,-0.009162971749901772,-0.001221729558892548,-0.001832594396546483
1772727771969459700,3.391459716796875,-0.006719512399286032,0,0.0030543238390237093
1772727771986805000,3.408804931640625,-0.000610864779446274,0.002443459117785096,0.01282816007733345
1772727772004150500,3.426150634765625,0.001832594396546483,0.0030543238390237093,0.006719512399286032
1772727772021496000,3.44349609375,0.001221729558892548,0.0030543238390237093,0.001832594396546483
1772727772038841600,3.460841552734375,-0.001221729558892548,0.001832594396546483,0
1772727772056187100,3.478187255859375,-0.0054977829568088055,-0.004276053514331579,-0.001221729558892548
1772727772073532700,3.49553271484375,-0.006719512399286032,-0.0030543238390237093,0.004276053514331579
1772727772090878200,3.512878173828125,-0.004886918235570192,-0.004276053514331579,0.0054977829568088055
1772727772108223700,3.5302236328125,-0.001832594396546483,0.000610864779446274,0
1772727772125569300,3.5475693359375,-0.000610864779446274,0.002443459117785096,-0.000610864779446274
1772727772142914800,3.564914794921875,0.001221729558892548,0.002443459117785096,0.004276053514331579
1772727772160260000,3.582260009765625,0.000610864779446274,0.0030543238390237093,0.003665188793092966
1772727772177605600,3.599605712890625,-0.000610864779446274,0.001221729558892548,0.006108647678047419
1772727772194951200,3.616951171875,-0.006719512399286032,-0.0054977829568088055,-0.004886918235570192
1772727772212296700,3.634296630859375,-0.012217295356094837,-0.006719512399286032,-0.003665188793092966
1772727772229642200,3.651642333984375,-0.010384701192378998,-0.004276053514331579,-0.002443459117785096
1772727772246987800,3.66898779296875,-0.004886918235570192,-0.0030543238390237093,0.001221729558892548
1772727772264333300,3.686333251953125,0.003665188793092966,-0.001832594396546483,0.003665188793092966
1772727772281678800,3.703678955078125,0.0030543238390237093,-0.0030543238390237093,0.002443459117785096
1772727772299024400,3.7210244140625,0,-0.003665188793092966,-0.006719512399286032
1772727772316370000,3.738369873046875,-0.001832594396546483,-0.004276053514331579,0.002443459117785096
1772727772333715200,3.755715087890625,-0.002443459117785096,-0.0054977829568088055,0.004276053514331579
1772727772351060700,3.773060791015625,-0.007941242307424545,-0.004276053514331579,0.003665188793092966
1772727772368406300,3.79040625,-0.009773836471140385,-0.0030543238390237093,0.002443459117785096
1772727772385751800,3.807751708984375,-0.007330377586185932,-0.000610864779446274,0.002443459117785096
1772727772403097300,3.825097412109375,-0.001832594396546483,-0.000610864779446274,0.004886918235570192
1772727772420443000,3.84244287109375,0.004886918235570192,0.001832594396546483,0.010995565913617611
1772727772437788400,3.859788330078125,0.002443459117785096,0.001221729558892548,0.011606430634856224
1772727772455134000,3.877134033203125,0,0.0030543238390237093,0.002443459117785096
1772727772472479500,3.8944794921875,-0.002443459117785096,0.001221729558892548,0.001832594396546483
1772727772489825000,3.911824951171875,-0.000610864779446274,-0.004276053514331579,0.009773836471140385
1772727772507170600,3.929170654296875,-0.000610864779446274,-0.0030543238390237093,0.007330377586185932
1772727772524516000,3.94651611328125,-0.001832594396546483,-0.004886918235570192,0.009162971749901772
1772727772541861600,3.963861572265625,-0.003665188793092966,-0.002443459117785096,0.008552107028663158
1772727772559207200,3.981207275390625,0,-0.001221729558892548,0.010384701192378998
1772727772576552700,3.998552734375,0.004276053514331579,0.003665188793092966,0.014049889519810677
1772727772593898200,4.015898193359375,-0.001221729558892548,0.004886918235570192,0.008552107028663158
1772727772611243800,4.033243896484375,-0.004886918235570192,0.004276053514331579,0.009773836471140385
1772727772628589000,4.050589111328125,0,0.002443459117785096,0.01649334840476513
1772727772645934800,4.067934814453125,0.007941242307424545,0.001221729558892548,0.020769402384757996
1772727772663280400,4.0852802734375,0.007941242307424545,0.001832594396546483,0.020158538594841957
1772727772680625700,4.102625732421875,0.001832594396546483,0.000610864779446274,0.008552107028663158
1772727772697971200,4.11997119140625,-0.002443459117785096,0.001832594396546483,0.015271619893610477
1772727772715316700,4.137316650390625,-0.001832594396546483,0.000610864779446274,0.018325943499803543
1772727772732662300,4.154662353515625,0,-0.000610864779446274,0.015271619893610477
1772727772750007800,4.1720078125,-0.001832594396546483,0,0.009162971749901772
1772727772767353300,4.189353271484375,-0.006108647678047419,0.001832594396546483,0.001221729558892548
1772727772784699000,4.206698974609375,0,0.009162971749901772,0.01893680728971958
1772727772802044400,4.22404443359375,0.006719512399286032,0.009773836471140385,0.014049889519810677
1772727772819390000,4.241389892578125,0.008552107028663158,0.010995565913617611,0.01588248461484909
1772727772836735500,4.258735595703125,0.002443459117785096,0.011606430634856224,0.007330377586185932
1772727772854081000,4.2760810546875,-0.004276053514331579,0.006719512399286032,0.004886918235570192
1772727772871426600,4.293426513671875,-0.001832594396546483,0.006719512399286032,0.008552107028663158
1772727772888772000,4.310772216796875,0.0054977829568088055,0.010384701192378998,0.01954767294228077
1772727772906117600,4.32811767578125,0.007330377586185932,0.010384701192378998,0.01649334840476513
1772727772923463200,4.345463134765625,0.007330377586185932,0.012217295356094837,0.003665188793092966
1772727772940808700,4.36280859375,0.007941242307424545,0.008552107028663158,0.007330377586185932
1772727772958154200,4.380154296875,0.009773836471140385,0.006719512399286032,0.010384701192378998
1772727772975499800,4.397499755859375,0.006108647678047419,0.0054977829568088055,0.017104214057326317
1772727772992845300,4.41484521484375,-0.002443459117785096,0,0.007330377586185932
1772727773010190800,4.43219091796875,-0.0054977829568088055,-0.001832594396546483,0.0054977829568088055
1772727773027536400,4.449536376953125,-0.004276053514331579,-0.004276053514331579,0.009162971749901772
1772727773044882000,4.4668818359375,-0.001221729558892548,-0.004276053514331579,0.013439024798572063
1772727773062227500,4.4842275390625,0,-0.002443459117785096,0.006108647678047419
1772727773079573000,4.501572998046875,-0.000610864779446274,-0.002443459117785096,0.007330377586185932
1772727773096918500,4.51891845703125,-0.003665188793092966,-0.003665188793092966,0.006719512399286032
1772727773114264000,4.53626416015625,0,-0.003665188793092966,0.010995565913617611
1772727773131609600,4.553609619140625,0.002443459117785096,-0.001832594396546483,0.043371398001909256
1772727773148955100,4.570955078125,0.004276053514331579,-0.0054977829568088055,0.03237583488225937
1772727773166300700,4.58830078125,0.003665188793092966,-0.008552107028663158,0.05070177838206291
1772727773183646200,4.605646240234375,-0.02260199747979641,-0.004886918235570192,0.010995565913617611
1772727773200991700,4.62299169921875,0.03298669680953026,-0.0054977829568088055,0.02871064469218254
1772727773218337300,4.640337158203125,0.013439024798572063,-0.007330377586185932,-0.02932151034474373
1772727773235682800,4.657682861328125,-0.009773836471140385,0.006719512399286032,-0.06414080411195755
1772727773253028400,4.6750283203125,-0.004886918235570192,0.010384701192378998,0.06902772188186646
1772727773270374000,4.692373779296875,-0.006108647678047419,-0.004886918235570192,0.013439024798572063
1772727773287719400,4.709719482421875,0.004276053514331579,0.004886918235570192,-0.006719512399286032
1772727773305065000,4.72706494140625,0.013439024798572063,-0.004886918235570192,0.053756099194288254
1772727773322410500,4.744410400390625,0.001832594396546483,0.001832594396546483,-0.0030543238390237093
1772727773339756000,4.761756103515625,-0.002443459117785096,0.001221729558892548,0.006108647678047419
1772727773357101600,4.7791015625,-0.001221729558892548,0.001221729558892548,0.04214967042207718
1772727773374447000,4.796447021484375,-0.001832594396546483,0.0054977829568088055,0.027488915249705315
1772727773391792600,4.813792724609375,0.001221729558892548,0.001832594396546483,0.03787361457943916
1772727773409138200,4.83113818359375,0.003665188793092966,0.001221729558892548,0.029932374134659767
1772727773426483700,4.848483642578125,0.000610864779446274,-0.000610864779446274,0.014049889519810677
1772727773443829200,4.865829345703125,0.000610864779446274,-0.000610864779446274,0.020769402384757996
1772727773461174800,4.8831748046875,0.001832594396546483,0.000610864779446274,0.014660755172371864
1772727773478520300,4.900520263671875,0.001832594396546483,0,0.013439024798572063
1772727773495865900,4.917865966796875,0.003665188793092966,-0.001832594396546483,0.01588248461484909
1772727773513211400,4.93521142578125,0.0030543238390237093,-0.0030543238390237093,0.023212861269712448
1772727773530557000,4.952556884765625,-0.002443459117785096,0.002443459117785096,0.01282816007733345
1772727773547902500,4.96990234375,-0.008552107028663158,-0.001832594396546483,0.01893680728971958
1772727773565248000,4.987248046875,-0.009162971749901772,-0.001221729558892548,0.014049889519810677
1772727773582593500,5.004593505859375,-0.006719512399286032,0,0.01893680728971958
1772727773599939000,5.02193896484375,-0.0030543238390237093,0,0.020158538594841957
1772727773617284600,5.03928466796875,0.000610864779446274,0.003665188793092966,0.014660755172371864
1772727773634630100,5.056630126953125,0.003665188793092966,0.0054977829568088055,0.01893680728971958
1772727773651975700,5.0739755859375,0.004276053514331579,0.0054977829568088055,0.020769402384757996
1772727773669321500,5.091321533203125,0.0030543238390237093,0.006108647678047419,0.017715077847242355
1772727773686667000,5.1086669921875,-0.0030543238390237093,0.002443459117785096,0.01893680728971958
1772727773704012300,5.12601220703125,-0.010384701192378998,-0.000610864779446274,0.012217295356094837
1772727773721358000,5.143358154296875,-0.009773836471140385,-0.001832594396546483,0.018325943499803543
1772727773738703600,5.16070361328125,-0.0054977829568088055,-0.002443459117785096,0.017715077847242355
1772727773756049200,5.178049072265625,-0.000610864779446274,-0.000610864779446274,0.015271619893610477
1772727773773394700,5.195394775390625,0.002443459117785096,0.002443459117785096,0.017104214057326317
1772727773790740200,5.212740234375,0.0054977829568088055,0.003665188793092966,0.01649334840476513
1772727773808085800,5.230085693359375,0.006108647678047419,0.004276053514331579,0.017104214057326317
1772727773825431300,5.247431396484375,0.001832594396546483,0.000610864779446274,0.01588248461484909
1772727773842776800,5.26477685546875,-0.0054977829568088055,-0.003665188793092966,0.014049889519810677
1772727773860122400,5.282122314453125,-0.007330377586185932,-0.000610864779446274,0.020158538594841957
1772727773877468000,5.299468017578125,-0.003665188793092966,0.003665188793092966,0.020158538594841957
1772727773894813400,5.3168134765625,0.006108647678047419,0.006108647678047419,0.0256563201546669
1772727773912159000,5.334158935546875,0.011606430634856224,0.006108647678047419,0.020769402384757996
1772727773929504500,5.35150439453125,0.01282816007733345,0.007941242307424545,0.01954767294228077
1772727773946850000,5.36885009765625,0.0054977829568088055,0.003665188793092966,0.01954767294228077
1772727773964195600,5.386195556640625,-0.004886918235570192,-0.002443459117785096,0.007941242307424545
1772727773981541400,5.403541259765625,-0.006719512399286032,-0.004276053514331579,0.007330377586185932
1772727773998886700,5.42088671875,0.001221729558892548,-0.004276053514331579,0.01893680728971958
1772727774016232400,5.438232421875,0.007941242307424545,-0.004276053514331579,0.0256563201546669
1772727774033578000,5.455577880859375,0.004886918235570192,-0.002443459117785096,0.015271619893610477
1772727774050923500,5.472923583984375,-0.001221729558892548,-0.004276053514331579,0.015271619893610477
1772727774068269000,5.49026904296875,-0.001221729558892548,0.001221729558892548,0.009162971749901772
1772727774085614600,5.507614501953125,-0.000610864779446274,0.001221729558892548,0.01893680728971958
1772727774102960000,5.524960205078125,0,-0.000610864779446274,0.01649334840476513
1772727774120305700,5.5423056640625,0.001832594396546483,-0.002443459117785096,0.010995565913617611
1772727774137651200,5.559651123046875,0.006719512399286032,-0.0054977829568088055,0.021991131827235222
1772727774154996700,5.576996826171875,0.010995565913617611,-0.0054977829568088055,0.01954767294228077
1772727774172342300,5.59434228515625,0.004886918235570192,-0.004886918235570192,0.020158538594841957
1772727774189687800,5.611687744140625,-0.0030543238390237093,-0.004886918235570192,0.007941242307424545
1772727774207033300,5.629033447265625,-0.008552107028663158,-0.0030543238390237093,0.001832594396546483
1772727774224379100,5.646379150390625,-0.004886918235570192,-0.0054977829568088055,0.013439024798572063
1772727774241724700,5.663724609375,-0.001221729558892548,-0.006719512399286032,0.01649334840476513
1772727774259070200,5.6810703125,0,-0.0030543238390237093,0.02260199747979641
1772727774276415700,5.698415771484375,-0.001221729558892548,0.000610864779446274,0.023212861269712448
1772727774293761300,5.71576123046875,0.001832594396546483,0.004276053514331579,0.020158538594841957
1772727774311106800,5.73310693359375,0.004886918235570192,0.000610864779446274,0.020158538594841957
1772727774328452400,5.750452392578125,0.004886918235570192,0.003665188793092966,0.01588248461484909
1772727774345798000,5.7677978515625,0.0054977829568088055,0.001832594396546483,0.030543239787220955
1772727774363143400,5.785143310546875,-0.001221729558892548,-0.004886918235570192,0.01588248461484909
1772727774380489000,5.802489013671875,0.001832594396546483,0.001221729558892548,0.037262752652168274
1772727774397834500,5.81983447265625,0.0030543238390237093,-0.000610864779446274,0.031154103577136993
1772727774415180300,5.83718017578125,0.001221729558892548,0,0.023823726922273636
1772727774432525800,5.85452587890625,0.000610864779446274,0.002443459117785096,0.030543239787220955
1772727774449871400,5.871871337890625,0.004276053514331579,0.002443459117785096,0.024434590712189674
1772727774467217000,5.889216796875,0.008552107028663158,0.0030543238390237093,0.03237583488225937
1772727774484562400,5.9065625,0.009773836471140385,0.003665188793092966,0.03176496922969818
1772727774501908000,5.923907958984375,0.007330377586185932,0.001832594396546483,0.026878049597144127
1772727774519253500,5.94125341796875,0.004276053514331579,0,0.02932151034474373
1772727774536599000,5.95859912109375,-0.000610864779446274,-0.001221729558892548,0.027488915249705315
1772727774553944600,5.975944580078125,-0.001221729558892548,0,0.030543239787220955
1772727774571290000,5.9932900390625,0.000610864779446274,-0.002443459117785096,0.029932374134659767
1772727774588636000,6.010635986328125,0.004276053514331579,0.000610864779446274,0.02626718580722809
1772727774605981400,6.0279814453125,0.003665188793092966,-0.001221729558892548,0.024434590712189674
1772727774623327000,6.045326904296875,0,0.001832594396546483,0.021991131827235222
1772727774640672500,6.062672607421875,0.001221729558892548,0.0030543238390237093,0.025045456364750862
1772727774658018000,6.08001806640625,0.010995565913617611,0.0054977829568088055,0.028099779039621353
1772727774675363600,6.097363525390625,0.01588248461484909,0.006108647678047419,0.026878049597144127
1772727774692709000,6.114709228515625,0.010995565913617611,0.004886918235570192,0.023212861269712448
1772727774710054700,6.1320546875,0.0030543238390237093,-0.002443459117785096,0.02260199747979641
1772727774727400200,6.149400146484375,-0.004276053514331579,-0.0030543238390237093,0.01282816007733345
1772727774744746000,6.16674609375,-0.007330377586185932,-0.001832594396546483,0.020769402384757996
1772727774762091500,6.184091552734375,-0.0054977829568088055,-0.000610864779446274,0.020158538594841957
1772727774779437000,6.20143701171875,-0.006719512399286032,-0.001832594396546483,0.020158538594841957
1772727774796782600,6.218782470703125,-0.001221729558892548,-0.0030543238390237093,0.020158538594841957
1772727774814128000,6.236128173828125,0.000610864779446274,0.001832594396546483,0.018325943499803543
1772727774831473700,6.2534736328125,-0.0030543238390237093,0.0030543238390237093,0.013439024798572063
1772727774848819200,6.270819091796875,0,-0.004886918235570192,0.01954767294228077
1772727774866164700,6.288164794921875,0.008552107028663158,-0.001221729558892548,0.023212861269712448
1772727774883510500,6.305510498046875,0.009773836471140385,0.000610864779446274,0.03298669680953026
1772727774900856000,6.32285595703125,-0.000610864779446274,0,0.021380268037319183
1772727774918201600,6.34020166015625,-0.0030543238390237093,-0.000610864779446274,0.017104214057326317
1772727774935547100,6.357547119140625,0.003665188793092966,-0.001832594396546483,0.023823726922273636
1772727774952892700,6.374892578125,0.004886918235570192,-0.003665188793092966,0.023212861269712448
1772727774970238200,6.39223828125,0,-0.0030543238390237093,0.02260199747979641
1772727774987583700,6.409583740234375,-0.006108647678047419,-0.004276053514331579,0.023823726922273636
1772727775004929500,6.426929443359375,-0.004276053514331579,0.001221729558892548,0.02932151034474373
1772727775022275000,6.444275146484375,0,-0.002443459117785096,0.025045456364750862
1772727775039620600,6.46162060546875,0.0030543238390237093,-0.000610864779446274,0.028099779039621353
1772727775056966100,6.478966064453125,0.0054977829568088055,0,0.026878049597144127
1772727775074311700,6.496311767578125,0.004886918235570192,-0.0054977829568088055,0.02626718580722809
1772727775091657200,6.5136572265625,0.004886918235570192,-0.003665188793092966,0.0256563201546669
1772727775109002800,6.531002685546875,0.001832594396546483,-0.003665188793092966,0.029932374134659767
1772727775126348500,6.5483486328125,-0.002443459117785096,-0.001221729558892548,0.025045456364750862
1772727775143694000,6.565694091796875,-0.002443459117785096,-0.000610864779446274,0.025045456364750862
1772727775161039600,6.58303955078125,0.002443459117785096,0,0.030543239787220955
1772727775178385200,6.60038525390625,0.007941242307424545,0,0.02932151034474373
1772727775195730700,6.617730712890625,0.004276053514331579,-0.001221729558892548,0.0256563201546669
1772727775213076200,6.635076171875,-0.001832594396546483,-0.0030543238390237093,0.020158538594841957
1772727775230421800,6.652421875,-0.001832594396546483,-0.002443459117785096,0.023212861269712448
1772727775247767600,6.669767578125,0.003665188793092966,-0.004276053514331579,0.027488915249705315
1772727775265113000,6.687113037109375,0.006108647678047419,-0.002443459117785096,0.023823726922273636
1772727775282458600,6.704458740234375,0.001832594396546483,-0.006719512399286032,0.013439024798572063
1772727775299804200,6.72180419921875,-0.0030543238390237093,-0.004276053514331579,0.01588248461484909
1772727775317149700,6.739149658203125,-0.004276053514331579,-0.004886918235570192,0.018325943499803543
1772727775334495500,6.75649560546875,-0.006108647678047419,-0.004886918235570192,0.024434590712189674
1772727775351841000,6.773841064453125,-0.001832594396546483,0.001221729558892548,0.023212861269712448
1772727775369186600,6.7911865234375,0.004886918235570192,0.0030543238390237093,0.021991131827235222
1772727775386532000,6.808531982421875,0.008552107028663158,-0.000610864779446274,0.021991131827235222
1772727775403877600,6.825877685546875,0.009162971749901772,-0.000610864779446274,0.030543239787220955
1772727775421223200,6.84322314453125,0.001221729558892548,-0.003665188793092966,0.025045456364750862
1772727775438568700,6.860568603515625,-0.0030543238390237093,-0.003665188793092966,0.020769402384757996
1772727775455914500,6.87791455078125,0.002443459117785096,-0.001832594396546483,0.029932374134659767
1772727775473260000,6.895260009765625,0.007941242307424545,-0.0030543238390237093,0.030543239787220955
1772727775490605600,6.91260546875,0.006719512399286032,-0.0030543238390237093,0.02932151034474373
1772727775507951000,6.929951171875,0.000610864779446274,-0.004886918235570192,0.0256563201546669
1772727775525296600,6.947296630859375,0,-0.0030543238390237093,0.027488915249705315
1772727775542642200,6.96464208984375,0.001832594396546483,-0.003665188793092966,0.031154103577136993
1772727775559988000,6.981988037109375,0.006108647678047419,-0.001221729558892548,0.034208428114652634
1772727775577333500,6.99933349609375,0.006719512399286032,0.002443459117785096,0.03787361457943916
1772727775594679000,7.016678955078125,0.006719512399286032,-0.000610864779446274,0.029932374134659767
1772727775612024600,7.034024658203125,0.01282816007733345,0.000610864779446274,0.039706211537122726
1772727775629370000,7.0513701171875,0.010384701192378998,-0.001221729558892548,0.03298669680953026
1772727775646715600,7.068715576171875,0.004276053514331579,-0.002443459117785096,0.030543239787220955
1772727775664061400,7.0860615234375,0.002443459117785096,-0.0030543238390237093,0.033597562462091446
1772727775681407000,7.103406982421875,0.003665188793092966,-0.002443459117785096,0.029932374134659767
1772727775698752500,7.12075244140625,0.006108647678047419,-0.002443459117785096,0.043371398001909256
1772727775716098000,7.13809814453125,0.004886918235570192,-0.003665188793092966,0.03543015569448471
1772727775733443600,7.155443603515625,0.003665188793092966,-0.0030543238390237093,0.029932374134659767
1772727775750789400,7.172789306640625,0.003665188793092966,-0.003665188793092966,0.02932151034474373
1772727775768135000,7.190135009765625,0.0054977829568088055,0,0.031154103577136993
1772727775785480400,7.20748046875,0.007330377586185932,0.001221729558892548,0.033597562462091446
1772727775802826000,7.224825927734375,0.004886918235570192,0.000610864779446274,0.026878049597144127
1772727775820171500,7.242171630859375,0.0054977829568088055,0.002443459117785096,0.02260199747979641
1772727775837517300,7.259517333984375,0.002443459117785096,-0.0030543238390237093,0.023823726922273636
1772727775854862800,7.27686279296875,0.001221729558892548,-0.004886918235570192,0.021380268037319183
1772727775872208400,7.29420849609375,-0.000610864779446274,-0.006719512399286032,0.021991131827235222
1772727775889554000,7.311553955078125,-0.004886918235570192,-0.007330377586185932,0.017715077847242355
1772727775906899500,7.3288994140625,-0.001832594396546483,-0.003665188793092966,0.018325943499803543
1772727775924245000,7.346244873046875,0.0054977829568088055,-0.001832594396546483,0.02626718580722809
1772727775941590800,7.3635908203125,0.007330377586185932,-0.0030543238390237093,0.023212861269712448
1772727775958936300,7.380936279296875,0.0030543238390237093,-0.001832594396546483,0.020769402384757996
1772727775976281900,7.39828173828125,-0.006719512399286032,-0.004886918235570192,0.013439024798572063
1772727775993627400,7.41562744140625,-0.0054977829568088055,-0.004276053514331579,0.014660755172371864
1772727776010973200,7.43297314453125,0.001221729558892548,-0.007330377586185932,0.023212861269712448
1772727776028318700,7.450318603515625,0.006108647678047419,-0.0054977829568088055,0.020769402384757996
1772727776045664300,7.467664306640625,0.004276053514331579,-0.0054977829568088055,0.01893680728971958
1772727776063009800,7.485009765625,0,-0.006719512399286032,0.021991131827235222
1772727776080355300,7.502355224609375,-0.002443459117785096,-0.009773836471140385,0.01588248461484909
1772727776097701000,7.519701171875,-0.0030543238390237093,-0.006719512399286032,0.021991131827235222
1772727776115046700,7.537046630859375,-0.003665188793092966,-0.007941242307424545,0.017104214057326317
1772727776132392200,7.55439208984375,0,-0.007941242307424545,0.021991131827235222
1772727776149737700,7.57173779296875,0.006719512399286032,-0.004276053514331579,0.029932374134659767
1772727776167083300,7.589083251953125,0.007941242307424545,-0.0054977829568088055,0.031154103577136993
1772727776184429000,7.606428955078125,0.0030543238390237093,-0.006108647678047419,0.031154103577136993
1772727776201774600,7.623774658203125,-0.003665188793092966,-0.004886918235570192,0.028099779039621353
1772727776219120000,7.6411201171875,-0.003665188793092966,-0.010384701192378998,0.026878049597144127
1772727776236465700,7.658465576171875,0.000610864779446274,-0.01282816007733345,0.03176496922969818
1772727776253811200,7.675811279296875,-0.000610864779446274,-0.012217295356094837,0.029932374134659767
1772727776271157000,7.693156982421875,-0.006108647678047419,-0.011606430634856224,0.0256563201546669
1772727776288502500,7.71050244140625,-0.006108647678047419,-0.010995565913617611,0.030543239787220955
1772727776305848000,7.72784814453125,-0.003665188793092966,-0.012217295356094837,0.029932374134659767
1772727776323193600,7.745193603515625,-0.001221729558892548,-0.008552107028663158,0.033597562462091446
1772727776340539400,7.762539306640625,-0.006108647678047419,-0.007941242307424545,0.03298669680953026
1772727776357885000,7.779885009765625,-0.006719512399286032,-0.007330377586185932,0.030543239787220955
1772727776375230500,7.79723046875,-0.003665188793092966,-0.006108647678047419,0.02932151034474373
1772727776392576000,7.814575927734375,0.000610864779446274,-0.004886918235570192,0.033597562462091446
1772727776409921500,7.831921630859375,0.004886918235570192,-0.0030543238390237093,0.04276053607463837
1772727776427267300,7.849267333984375,0.006719512399286032,-0.001832594396546483,0.03909534588456154
1772727776444612900,7.86661279296875,0.004276053514331579,-0.006108647678047419,0.029932374134659767
1772727776461958400,7.88395849609375,0.0054977829568088055,-0.004276053514331579,0.040317077189683914
1772727776479304000,7.901303955078125,0.004276053514331579,-0.006719512399286032,0.034208428114652634
1772727776496649700,7.918649658203125,-0.000610864779446274,-0.006719512399286032,0.02932151034474373
1772727776513995300,7.935995361328125,0,-0.004276053514331579,0.033597562462091446
1772727776531340800,7.9533408203125,0.004886918235570192,-0.001221729558892548,0.03237583488225937
1772727776548686300,7.970686279296875,0.0054977829568088055,0.001221729558892548,0.049480047076940536
1772727776566032000,7.988031982421875,0.0054977829568088055,0.002443459117785096,0.0360410213470459
1772727776583377700,8.005377685546875,0.004886918235570192,0,0.040317077189683914
1772727776600723200,8.02272314453125,0.0054977829568088055,0.001832594396546483,0.03848448023200035
1772727776618068700,8.04006884765625,0.007941242307424545,0.001221729558892548,0.04214967042207718
1772727776635414300,8.057414306640625,0.007941242307424545,0,0.0360410213470459
1772727776652760000,8.074760009765624,0.010384701192378998,-0.002443459117785096,0.033597562462091446
1772727776670105600,8.092105712890625,0.011606430634856224,-0.004886918235570192,0.03176496922969818
1772727776687451100,8.109451171875,0.009773836471140385,-0.007941242307424545,0.0360410213470459
1772727776704796700,8.126796630859374,0.006108647678047419,-0.009773836471140385,0.03237583488225937
1772727776722142500,8.144142578125,0.002443459117785096,-0.009162971749901772,0.02871064469218254
1772727776739488000,8.161488037109375,0.000610864779446274,-0.006108647678047419,0.029932374134659767
1772727776756833500,8.17883349609375,0.006719512399286032,-0.002443459117785096,0.033597562462091446
1772727776774179000,8.196178955078125,0.014660755172371864,-0.0030543238390237093,0.030543239787220955
1772727776791524900,8.21352490234375,0.017104214057326317,0.000610864779446274,0.03176496922969818
1772727776808870400,8.230870361328124,0.011606430634856224,0.0030543238390237093,0.026878049597144127
1772727776826216000,8.2482158203125,0.007941242307424545,0.002443459117785096,0.023212861269712448
1772727776843561500,8.2655615234375,0.011606430634856224,0,0.02932151034474373
1772727776860907300,8.2829072265625,0.015271619893610477,0.000610864779446274,0.02626718580722809
1772727776878252800,8.300252685546875,0.014049889519810677,-0.003665188793092966,0.02260199747979641
1772727776895598300,8.317598388671875,0.0054977829568088055,-0.004886918235570192,0.023212861269712448
1772727776912943900,8.33494384765625,-0.000610864779446274,-0.006719512399286032,0.023212861269712448
1772727776930289700,8.35228955078125,0.000610864779446274,-0.006719512399286032,0.027488915249705315
1772727776947635200,8.36963525390625,0.003665188793092966,-0.006719512399286032,0.023212861269712448
1772727776964980700,8.386980712890624,0.006719512399286032,-0.0054977829568088055,0.0256563201546669
1772727776982326300,8.404326171875,0.0054977829568088055,-0.006108647678047419,0.0256563201546669
1772727776999672000,8.421672119140625,0.0030543238390237093,-0.008552107028663158,0.020158538594841957
1772727777017017600,8.439017578125,0.007941242307424545,-0.008552107028663158,0.02626718580722809
1772727777034363100,8.456363037109375,0.003665188793092966,-0.006108647678047419,0.021991131827235222
1772727777051708700,8.473708740234375,-0.003665188793092966,-0.007941242307424545,0.01649334840476513
1772727777069054500,8.491054443359374,0.002443459117785096,-0.012217295356094837,0.02626718580722809
1772727777086400000,8.50839990234375,0.006108647678047419,-0.004276053514331579,0.021380268037319183
1772727777103745500,8.52574560546875,0.004276053514331579,-0.006719512399286032,0.026878049597144127
1772727777121091300,8.54309130859375,0.000610864779446274,-0.006719512399286032,0.021380268037319183
1772727777138436900,8.560436767578125,0.001832594396546483,-0.0030543238390237093,0.02260199747979641
1772727777155782400,8.577782470703125,0.004886918235570192,-0.0054977829568088055,0.023823726922273636
1772727777173128000,8.5951279296875,0.009162971749901772,-0.0054977829568088055,0.023823726922273636
1772727777190473700,8.6124736328125,0.008552107028663158,-0.006108647678047419,0.027488915249705315
1772727777207819300,8.6298193359375,0.001832594396546483,-0.010384701192378998,0.021991131827235222
1772727777225164800,8.647164794921874,0.001221729558892548,-0.008552107028663158,0.020158538594841957
1772727777242510300,8.66451025390625,0.006719512399286032,-0.0054977829568088055,0.023823726922273636
1772727777259856100,8.681856201171875,0.013439024798572063,-0.003665188793092966,0.027488915249705315
1772727777277201700,8.69920166015625,0.01649334840476513,-0.001221729558892548,0.02626718580722809
1772727777294547200,8.716547119140625,0.012217295356094837,-0.001832594396546483,0.01893680728971958
1772727777311892700,8.733892822265625,0.007941242307424545,-0.0030543238390237093,0.024434590712189674
1772727777329238500,8.751238525390624,0.003665188793092966,-0.004276053514331579,0.028099779039621353
1772727777346584000,8.768583984375,-0.000610864779446274,-0.009162971749901772,0.023212861269712448
1772727777363929600,8.7859296875,-0.001832594396546483,-0.008552107028663158,0.020769402384757996
1772727777381275400,8.803275390625,0.0030543238390237093,-0.007330377586185932,0.01954767294228077
1772727777398621000,8.820620849609375,0.006108647678047419,-0.008552107028663158,0.023823726922273636
1772727777415966500,8.837966552734375,0.010384701192378998,-0.0054977829568088055,0.027488915249705315
1772727777433312000,8.85531201171875,0.009162971749901772,-0.006108647678047419,0.023823726922273636
1772727777450657800,8.87265771484375,0.001832594396546483,-0.009162971749901772,0.02626718580722809
1772727777468003300,8.89000341796875,-0.003665188793092966,-0.007330377586185932,0.021991131827235222
1772727777485348900,8.907348876953124,-0.000610864779446274,-0.007941242307424545,0.020158538594841957
1772727777502694700,8.924694580078125,0.007330377586185932,-0.006108647678047419,0.030543239787220955
1772727777520040200,8.942040283203125,0.012217295356094837,-0.004886918235570192,0.03298669680953026
1772727777537385700,8.9593857421875,0.011606430634856224,-0.0054977829568088055,0.033597562462091446
1772727777554731300,8.976731201171875,0.006108647678047419,-0.004886918235570192,0.029932374134659767
1772727777572077000,8.9940771484375,0.007330377586185932,-0.001221729558892548,0.03298669680953026
1772727777589422600,9.011422607421874,0.007941242307424545,-0.003665188793092966,0.031154103577136993
1772727777606768000,9.02876806640625,0.007330377586185932,-0.0054977829568088055,0.02871064469218254
1772727777624113700,9.04611376953125,0.008552107028663158,-0.006719512399286032,0.036651886999607086
1772727777641459500,9.06345947265625,0.006108647678047419,-0.007330377586185932,0.03543015569448471
1772727777658805000,9.080804931640625,0.0054977829568088055,-0.007330377586185932,0.033597562462091446
1772727777676150500,9.098150634765625,0.006108647678047419,-0.0054977829568088055,0.037262752652168274
1772727777693496300,9.115496337890624,0.004886918235570192,-0.007941242307424545,0.03543015569448471
1772727777710841900,9.132841796875,0.008552107028663158,-0.004886918235570192,0.03848448023200035
1772727777728187400,9.1501875,0.011606430634856224,-0.0054977829568088055,0.03787361457943916
1772727777745533200,9.167533203125,0.006108647678047419,-0.011606430634856224,0.03543015569448471
1772727777762878700,9.184878662109375,0.003665188793092966,-0.006108647678047419,0.03176496922969818
1772727777780224300,9.202224365234375,0.0030543238390237093,-0.006108647678047419,0.03787361457943916
1772727777797569800,9.21956982421875,0.0054977829568088055,-0.0054977829568088055,0.03298669680953026
1772727777814915600,9.23691552734375,0.009162971749901772,-0.001221729558892548,0.03909534588456154
1772727777832261000,9.25426123046875,0.007330377586185932,-0.003665188793092966,0.034208428114652634
1772727777849606700,9.271606689453124,0.006108647678047419,-0.004886918235570192,0.033597562462091446
1772727777866952400,9.288952392578125,0.001832594396546483,-0.006108647678047419,0.03543015569448471
1772727777884298000,9.306298095703125,-0.0030543238390237093,-0.006719512399286032,0.030543239787220955
1772727777901643500,9.3236435546875,-0.001832594396546483,-0.006719512399286032,0.02626718580722809
1772727777918989000,9.340989013671875,0.003665188793092966,-0.0054977829568088055,0.03176496922969818
1772727777936334800,9.3583349609375,0.007330377586185932,-0.003665188793092966,0.029932374134659767
1772727777953680400,9.375680419921874,0.0054977829568088055,-0.006108647678047419,0.031154103577136993
1772727777971026000,9.39302587890625,0.0030543238390237093,-0.006719512399286032,0.028099779039621353
1772727777988371700,9.410371826171875,0.000610864779446274,-0.008552107028663158,0.025045456364750862
1772727778005717200,9.42771728515625,0.001221729558892548,-0.009773836471140385,0.0256563201546669
1772727778023062800,9.445062744140625,0.0030543238390237093,-0.008552107028663158,0.024434590712189674
1772727778040408600,9.46240869140625,0.004276053514331579,-0.007330377586185932,0.026878049597144127
1772727778057754000,9.479754150390624,0.003665188793092966,-0.008552107028663158,0.024434590712189674
1772727778075099600,9.497099609375,0.0030543238390237093,-0.007330377586185932,0.024434590712189674
1772727778092445400,9.514445556640625,0.000610864779446274,-0.010995565913617611,0.020769402384757996
1772727778109791000,9.531791015625,-0.001221729558892548,-0.013439024798572063,0.021380268037319183
1772727778127136500,9.549136474609375,-0.0030543238390237093,-0.011606430634856224,0.017715077847242355
1772727778144482300,9.566482421875,0.001221729558892548,-0.011606430634856224,0.023823726922273636
1772727778161827800,9.583827880859374,0.006108647678047419,-0.007941242307424545,0.02260199747979641
1772727778179173400,9.60117333984375,0.007330377586185932,-0.007330377586185932,0.02932151034474373
1772727778196519000,9.618518798828125,0.003665188793092966,-0.009773836471140385,0.021380268037319183
1772727778213864700,9.63586474609375,0.001221729558892548,-0.009773836471140385,0.021380268037319183
1772727778231210200,9.653210205078125,0.004276053514331579,-0.006719512399286032,0.023212861269712448
1772727778248555800,9.6705556640625,0.0054977829568088055,-0.010384701192378998,0.026878049597144127
1772727778265901600,9.687901611328124,0.007330377586185932,-0.007330377586185932,0.030543239787220955
1772727778283247000,9.7052470703125,0.004886918235570192,-0.010384701192378998,0.023823726922273636
1772727778300592600,9.722592529296875,0.000610864779446274,-0.013439024798572063,0.018325943499803543
1772727778317938400,9.7399384765625,0,-0.014049889519810677,0.0256563201546669
1772727778335284000,9.757283935546875,-0.001221729558892548,-0.01282816007733345,0.023212861269712448
1772727778352629500,9.77462939453125,0.001832594396546483,-0.011606430634856224,0.02260199747979641
1772727778369975300,9.791975341796874,0.004276053514331579,-0.010995565913617611,0.031154103577136993
1772727778387320800,9.80932080078125,0.0054977829568088055,-0.006719512399286032,0.03237583488225937
1772727778404666400,9.826666259765625,0.004276053514331579,-0.007941242307424545,0.031154103577136993
1772727778422012200,9.84401220703125,0.003665188793092966,-0.007330377586185932,0.028099779039621353
1772727778439357700,9.861357666015625,0.004886918235570192,-0.007941242307424545,0.029932374134659767
1772727778456703200,9.878703125,0.004886918235570192,-0.009773836471140385,0.031154103577136993
1772727778474049000,9.896049072265624,0.004886918235570192,-0.010384701192378998,0.03237583488225937
1772727778491394600,9.91339453125,0.006719512399286032,-0.007330377586185932,0.029932374134659767
1772727778508740000,9.930739990234375,0.007941242307424545,-0.009162971749901772,0.03176496922969818
1772727778526086000,9.9480859375,0.008552107028663158,-0.014049889519810677,0.03237583488225937
1772727778543431400,9.965431396484375,0.003665188793092966,-0.014049889519810677,0.027488915249705315
1772727778560777000,9.98277685546875,-0.000610864779446274,-0.014660755172371864,0.03237583488225937
1772727778578122500,10.00012255859375,0,-0.01282816007733345,0.03298669680953026
1772727778595468300,10.01746826171875,0.003665188793092966,-0.0054977829568088055,0.033597562462091446
1772727778612813800,10.034813720703125,0.006108647678047419,-0.004886918235570192,0.033597562462091446
1772727778630159400,10.052159423828124,0.008552107028663158,-0.006719512399286032,0.03176496922969818
1772727778647505200,10.069505126953125,0.0030543238390237093,-0.006108647678047419,0.028099779039621353
1772727778664850700,10.0868505859375,0,-0.007941242307424545,0.029932374134659767
1772727778682196500,10.104196533203124,0.001832594396546483,-0.006719512399286032,0.033597562462091446
1772727778699542000,10.1215419921875,0.0030543238390237093,-0.011606430634856224,0.02626718580722809
1772727778716887600,10.138887451171875,0.006108647678047419,-0.007330377586185932,0.03176496922969818
1772727778734233000,10.156233154296874,0.008552107028663158,-0.0054977829568088055,0.03298669680953026
1772727778751579000,10.173578857421875,0.0054977829568088055,-0.006719512399286032,0.028099779039621353
1772727778768924400,10.19092431640625,0.000610864779446274,-0.009162971749901772,0.025045456364750862
1772727778786270000,10.20827001953125,-0.002443459117785096,-0.010384701192378998,0.02626718580722809
1772727778803615700,10.22561572265625,-0.001221729558892548,-0.010384701192378998,0.024434590712189674
1772727778820961300,10.242961181640625,0.003665188793092966,-0.009773836471140385,0.030543239787220955
1772727778838306800,10.260306884765624,0.009162971749901772,-0.006108647678047419,0.031154103577136993
1772727778855652600,10.277652587890625,0.006719512399286032,-0.006108647678047419,0.02260199747979641
1772727778872998100,10.294998046875,0.003665188793092966,-0.007330377586185932,0.024434590712189674
1772727778890344000,10.312343994140624,0.002443459117785096,-0.009773836471140385,0.0256563201546669
1772727778907689500,10.329689453125,0.001832594396546483,-0.010384701192378998,0.021991131827235222
1772727778925035000,10.347034912109375,0.004276053514331579,-0.010995565913617611,0.02626718580722809
1772727778942380500,10.364380615234374,0.007941242307424545,-0.009773836471140385,0.028099779039621353
1772727778959726300,10.381726318359375,0.009162971749901772,-0.008552107028663158,0.029932374134659767
1772727778977071900,10.39907177734375,0.008552107028663158,-0.009162971749901772,0.028099779039621353
1772727778994417700,10.416417724609374,0.004886918235570192,-0.008552107028663158,0.026878049597144127
1772727779011763200,10.43376318359375,0.000610864779446274,-0.009773836471140385,0.020769402384757996
1772727779029108700,10.451108642578125,-0.001832594396546483,-0.012217295356094837,0.01954767294228077
1772727779046454500,10.46845458984375,0.001832594396546483,-0.011606430634856224,0.02871064469218254
1772727779063800000,10.485800048828125,0.006108647678047419,-0.009162971749901772,0.02871064469218254
1772727779081145600,10.5031455078125,0.007941242307424545,-0.007941242307424545,0.029932374134659767
1772727779098491400,10.520491455078124,0.007330377586185932,-0.006719512399286032,0.02626718580722809
1772727779115837000,10.5378369140625,0.004276053514331579,-0.007941242307424545,0.018325943499803543
1772727779133182500,10.555182373046875,0.001221729558892548,-0.012217295356094837,0.023212861269712448
1772727779150528300,10.5725283203125,-0.001221729558892548,-0.014049889519810677,0.020769402384757996
1772727779167873800,10.589873779296875,0.000610864779446274,-0.012217295356094837,0.023212861269712448
1772727779185219300,10.60721923828125,0.002443459117785096,-0.010995565913617611,0.023212861269712448
1772727779202565000,10.624565185546874,0.006719512399286032,-0.008552107028663158,0.027488915249705315
1772727779219910700,10.64191064453125,0.008552107028663158,-0.006719512399286032,0.0256563201546669
1772727779237256200,10.659256103515625,0.009162971749901772,-0.004886918235570192,0.030543239787220955
1772727779254602000,10.67660205078125,0.0030543238390237093,-0.009773836471140385,0.027488915249705315
1772727779271947500,10.693947509765625,-0.001832594396546483,-0.01282816007733345,0.021380268037319183
1772727779289293300,10.711293212890626,-0.001221729558892548,-0.01282816007733345,0.02626718580722809
1772727779306638800,10.728638916015624,0.006719512399286032,-0.013439024798572063,0.03176496922969818
1772727779323984400,10.745984375,0.012217295356094837,-0.013439024798572063,0.03176496922969818
1772727779341330200,10.763330078125,0.010995565913617611,-0.009773836471140385,0.03298669680953026
1772727779358675700,10.78067578125,0.007330377586185932,-0.012217295356094837,0.030543239787220955
1772727779376021200,10.798021240234375,0.0030543238390237093,-0.013439024798572063,0.03298669680953026
1772727779393367000,10.815366943359376,0.001221729558892548,-0.014660755172371864,0.029932374134659767
1772727779410712600,10.832712646484374,0.001221729558892548,-0.010384701192378998,0.031154103577136993
1772727779428058000,10.85005810546875,0.0030543238390237093,-0.009162971749901772,0.04153880476951599
1772727779445404000,10.86740380859375,0.006108647678047419,-0.008552107028663158,0.021991131827235222
1772727779462749400,10.88474951171875,0.004886918235570192,-0.007941242307424545,0.0256563201546669
1772727779480095000,10.902094970703125,0.007330377586185932,-0.008552107028663158,0.02626718580722809
1772727779497440800,10.919440673828126,0.009162971749901772,-0.009773836471140385,0.03237583488225937
1772727779514786300,10.936786376953124,0.010384701192378998,-0.009773836471140385,0.03787361457943916
1772727779532132000,10.954132080078125,0.010384701192378998,-0.012217295356094837,0.029932374134659767
1772727779549477600,10.9714775390625,0.008552107028663158,-0.009162971749901772,0.026878049597144127
1772727779566823200,10.9888232421875,0.003665188793092966,-0.014049889519810677,0.0256563201546669
1772727779584169000,11.0061689453125,0.001832594396546483,-0.011606430634856224,0.033597562462091446
1772727779601514500,11.023514404296876,0.003665188793092966,-0.006719512399286032,0.027488915249705315
1772727779618860000,11.040860107421874,0.0054977829568088055,-0.008552107028663158,0.0256563201546669
1772727779636205800,11.058205810546875,0.004886918235570192,-0.009162971749901772,0.01954767294228077
1772727779653551400,11.07555126953125,0.003665188793092966,-0.009773836471140385,0.0256563201546669
1772727779670897000,11.09289697265625,0.002443459117785096,-0.012217295356094837,0.029932374134659767
1772727779688242700,11.11024267578125,0.003665188793092966,-0.011606430634856224,0.036651886999607086
1772727779705588200,11.127588134765626,0.0054977829568088055,-0.010995565913617611,0.03176496922969818
1772727779722934000,11.14493408203125,0.0030543238390237093,-0.004886918235570192,0.021380268037319183
1772727779740279600,11.162279541015625,-0.001221729558892548,-0.001832594396546483,0.037262752652168274
1772727779757625000,11.179625,0.000610864779446274,-0.0054977829568088055,0.021991131827235222
1772727779774971000,11.196970947265624,0.0030543238390237093,-0.008552107028663158,0.02932151034474373
1772727779792316400,11.21431640625,0.004886918235570192,-0.006719512399286032,0.023212861269712448
1772727779809662000,11.231661865234376,0.0030543238390237093,-0.007941242307424545,0.026878049597144127
1772727779827007700,11.2490078125,0.001221729558892548,-0.009773836471140385,0.026878049597144127
1772727779844353300,11.266353271484375,0.001221729558892548,-0.011606430634856224,0.028099779039621353
1772727779861699000,11.283698974609376,0.0030543238390237093,-0.009773836471140385,0.030543239787220955
1772727779879044600,11.301044677734374,0.002443459117785096,-0.010995565913617611,0.02871064469218254
1772727779896390100,11.31839013671875,0,-0.012217295356094837,0.024434590712189674
1772727779913736000,11.33573583984375,0.001221729558892548,-0.010995565913617611,0.023823726922273636
1772727779931081500,11.35308154296875,0.0054977829568088055,-0.009162971749901772,0.027488915249705315
1772727779948427000,11.370427001953125,0.010384701192378998,-0.007330377586185932,0.029932374134659767
1772727779965772800,11.387772705078126,0.010384701192378998,-0.006719512399286032,0.02932151034474373
1772727779983118300,11.405118408203125,0.008552107028663158,-0.008552107028663158,0.029932374134659767
1772727780000464100,11.422464111328125,0.0030543238390237093,-0.010995565913617611,0.02932151034474373
1772727780017809700,11.4398095703125,0.000610864779446274,-0.006719512399286032,0.021991131827235222
1772727780035155200,11.4571552734375,-0.001832594396546483,-0.009773836471140385,0.03298669680953026
1772727780052501000,11.4745009765625,0.0030543238390237093,-0.009162971749901772,0.0256563201546669
1772727780069846500,11.491846435546876,0.008552107028663158,-0.006719512399286032,0.033597562462091446
1772727780087192300,11.5091923828125,0.009162971749901772,-0.0054977829568088055,0.027488915249705315
1772727780104537900,11.526537841796875,0.004276053514331579,-0.003665188793092966,0.02626718580722809
1772727780121883400,11.54388330078125,0.001221729558892548,-0.004276053514331579,0.023212861269712448
1772727780139229200,11.561229248046875,0.000610864779446274,-0.006719512399286032,0.023823726922273636
1772727780156574700,11.57857470703125,0.001832594396546483,-0.007330377586185932,0.03237583488225937
1772727780173920300,11.595920166015626,0.002443459117785096,-0.010384701192378998,0.029932374134659767
1772727780191266000,11.61326611328125,0.0030543238390237093,-0.011606430634856224,0.023823726922273636
1772727780208611600,11.630611572265625,0.0030543238390237093,-0.014049889519810677,0.027488915249705315
1772727780225957000,11.64795703125,0.002443459117785096,-0.010995565913617611,0.0256563201546669
1772727780243303000,11.665302978515625,0.004276053514331579,-0.010995565913617611,0.02871064469218254
1772727780260648400,11.6826484375,0.0054977829568088055,-0.010384701192378998,0.02260199747979641
1772727780277994200,11.699994140625,0.007941242307424545,-0.008552107028663158,0.02626718580722809
1772727780295339800,11.71733984375,0.0030543238390237093,-0.012217295356094837,0.023212861269712448
1772727780312685300,11.734685302734375,0.0030543238390237093,-0.011606430634856224,0.023212861269712448
1772727780330031000,11.752031005859376,0.001221729558892548,-0.013439024798572063,0.024434590712189674
1772727780347376600,11.769376708984375,0.0030543238390237093,-0.010384701192378998,0.024434590712189674
1772727780364722200,11.78672216796875,0.004886918235570192,-0.009773836471140385,0.021380268037319183
1772727780382068000,11.80406787109375,0.0054977829568088055,-0.008552107028663158,0.021380268037319183
1772727780399413500,11.82141357421875,0.003665188793092966,-0.007330377586185932,0.01893680728971958
1772727780416759300,11.83875927734375,0.004276053514331579,-0.008552107028663158,0.020769402384757996
1772727780434104800,11.856104736328126,0.006108647678047419,-0.010384701192378998,0.020769402384757996
1772727780451450600,11.87345068359375,0.006108647678047419,-0.010995565913617611,0.021380268037319183
1772727780468796200,11.890796142578125,0.004276053514331579,-0.013439024798572063,0.021991131827235222
1772727780486141700,11.9081416015625,0.004276053514331579,-0.01282816007733345,0.018325943499803543
1772727780503487500,11.925487548828125,0.004276053514331579,-0.01282816007733345,0.017104214057326317
1772727780520833000,11.9428330078125,0.001832594396546483,-0.01282816007733345,0.01893680728971958
1772727780538178800,11.9601787109375,0.003665188793092966,-0.014049889519810677,0.01954767294228077
1772727780555524400,11.9775244140625,0.0030543238390237093,-0.012217295356094837,0.02260199747979641
1772727780572870000,11.994869873046875,0.001832594396546483,-0.010995565913617611,0.017104214057326317
1772727780590215700,12.012215576171876,-0.000610864779446274,-0.011606430634856224,0.015271619893610477
1772727780607561200,12.029561279296875,0.0030543238390237093,-0.009773836471140385,0.01954767294228077
1772727780624906800,12.04690673828125,0.009162971749901772,-0.009773836471140385,0.030543239787220955
1772727780642252500,12.06425244140625,0.006719512399286032,-0.01282816007733345,0.02626718580722809
1772727780659598000,12.08159814453125,-0.000610864779446274,-0.015271619893610477,0.014660755172371864
1772727780676944000,12.09894384765625,-0.002443459117785096,-0.013439024798572063,0.01649334840476513
1772727780694289400,12.116289306640626,0.003665188793092966,-0.012217295356094837,0.023212861269712448
1772727780711635000,12.133635009765625,0.007941242307424545,-0.008552107028663158,0.021991131827235222
1772727780728980700,12.150980712890625,0.003665188793092966,-0.009162971749901772,0.018325943499803543
1772727780746326300,12.168326171875,0.0030543238390237093,-0.008552107028663158,0.01954767294228077
1772727780763671800,12.185671875,0.000610864779446274,-0.010384701192378998,0.013439024798572063
1772727780781017600,12.203017578125,0.0030543238390237093,-0.006719512399286032,0.013439024798572063
1772727780798363100,12.220363037109376,0.006108647678047419,-0.012217295356094837,0.025045456364750862
1772727780815709000,12.237708984375,0.0054977829568088055,-0.010995565913617611,0.023823726922273636
1772727780833054500,12.255054443359375,0.0030543238390237093,-0.012217295356094837,0.01893680728971958
1772727780850400300,12.272400146484374,0,-0.010384701192378998,0.025045456364750862
1772727780867745800,12.289745849609375,0.003665188793092966,-0.001221729558892548,0.014049889519810677
1772727780885091300,12.30709130859375,0.007941242307424545,-0.002443459117785096,0.023212861269712448
1772727780902437000,12.32443701171875,0.010995565913617611,-0.0030543238390237093,0.024434590712189674
1772727780919782700,12.34178271484375,0.010384701192378998,-0.0054977829568088055,0.023823726922273636
1772727780937128400,12.35912841796875,0.006719512399286032,-0.007941242307424545,0.0256563201546669
1772727780954474000,12.376473876953124,0.001832594396546483,-0.010995565913617611,0.03298669680953026
1772727780971819500,12.393819580078125,-0.003665188793092966,-0.014049889519810677,0.024434590712189674
1772727780989165300,12.411165283203125,-0.003665188793092966,-0.013439024798572063,0.01954767294228077
1772727781006510800,12.4285107421875,-0.001221729558892548,-0.012217295356094837,0.028099779039621353
1772727781023856600,12.445856689453125,0.007941242307424545,-0.014049889519810677,0.028099779039621353
1772727781041202200,12.4632021484375,0.007330377586185932,-0.012217295356094837,0.01893680728971958
1772727781058547700,12.480547607421874,0.004276053514331579,-0.01282816007733345,0.025045456364750862
1772727781075893500,12.4978935546875,0.000610864779446274,-0.013439024798572063,0.03176496922969818
1772727781093239000,12.515239013671875,-0.001221729558892548,-0.012217295356094837,0.026878049597144127
1772727781110584800,12.532584716796874,-0.003665188793092966,-0.01282816007733345,0.023823726922273636
1772727781127930400,12.549930419921875,-0.006108647678047419,-0.01282816007733345,0.023823726922273636
1772727781145276000,12.56727587890625,-0.004276053514331579,-0.011606430634856224,0.021380268037319183
1772727781162621700,12.58462158203125,0.001221729558892548,-0.010384701192378998,0.028099779039621353
1772727781179967200,12.60196728515625,0.010384701192378998,-0.009773836471140385,0.031154103577136993
1772727781197313000,12.61931298828125,0.009773836471140385,-0.010995565913617611,0.017104214057326317
1772727781214658600,12.636658447265624,0.007330377586185932,-0.000610864779446274,0.030543239787220955
1772727781232004400,12.65400439453125,0.007941242307424545,-0.006108647678047419,0.023212861269712448
1772727781249350000,12.671349853515625,0.006108647678047419,-0.007941242307424545,0.031154103577136993
1772727781266695400,12.6886953125,0.0030543238390237093,-0.010384701192378998,0.02626718580722809
1772727781284041200,12.706041259765625,-0.001221729558892548,-0.015271619893610477,0.02260199747979641
1772727781301386800,12.72338671875,-0.002443459117785096,-0.017104214057326317,0.01954767294228077
1772727781318732300,12.740732177734374,0.000610864779446274,-0.017104214057326317,0.0256563201546669
1772727781336078000,12.758078125,0.004276053514331579,-0.015271619893610477,0.023212861269712448
1772727781353423600,12.775423583984375,0.0054977829568088055,-0.01282816007733345,0.021380268037319183
1772727781370769400,12.792769287109374,0.006108647678047419,-0.012217295356094837,0.020158538594841957
1772727781388115000,12.810114990234375,0.004886918235570192,-0.010384701192378998,0.020158538594841957
1772727781405460700,12.827460693359376,0.006108647678047419,-0.011606430634856224,0.02626718580722809
1772727781422806300,12.84480615234375,0.0030543238390237093,-0.010384701192378998,0.023212861269712448
1772727781440151800,12.86215185546875,0.001832594396546483,-0.012217295356094837,0.023823726922273636
1772727781457497600,12.87949755859375,0.0030543238390237093,-0.01282816007733345,0.021991131827235222
1772727781474843100,12.896843017578124,0.003665188793092966,-0.011606430634856224,0.0256563201546669
1772727781492189000,12.91418896484375,0.004886918235570192,-0.011606430634856224,0.021380268037319183
1772727781509534500,12.931534423828126,0.0054977829568088055,-0.010995565913617611,0.024434590712189674
1772727781526880000,12.9488798828125,0.004886918235570192,-0.01282816007733345,0.023212861269712448
1772727781544225800,12.966225830078125,0.0030543238390237093,-0.015271619893610477,0.0256563201546669
1772727781561571300,12.9835712890625,0.0054977829568088055,-0.01588248461484909,0.028099779039621353
1772727781578917000,13.000917236328124,0.007941242307424545,-0.018325943499803543,0.028099779039621353
1772727781596262700,13.0182626953125,0.011606430634856224,-0.017104214057326317,0.03176496922969818
1772727781613608400,13.0356083984375,0.0256563201546669,-0.021991131827235222,0.033597562462091446
1772727781630954000,13.0529541015625,0.05864302068948746,-0.0256563201546669,0.047036588191986084
1772727781648299500,13.070299560546875,0.05864302068948746,-0.014049889519810677,0.08552107214927673
1772727781665645300,13.087645263671876,0.04276053607463837,-0.01649334840476513,0.08429934084415436
1772727781682990800,13.104990966796874,0.02871064469218254,-0.02260199747979641,0.07452550530433655
1772727781700336600,13.122336669921875,0.007330377586185932,-0.012217295356094837,0.03237583488225937
1772727781717682200,13.13968212890625,-0.001221729558892548,-0.006108647678047419,-0.009162971749901772
1772727781735027700,13.15702783203125,-0.000610864779446274,-0.008552107028663158,0.03909534588456154
1772727781752373500,13.17437353515625,0.008552107028663158,-0.006108647678047419,0.023212861269712448
1772727781769719000,13.191718994140626,0.01649334840476513,-0.006719512399286032,0.04276053607463837
1772727781787064800,13.20906494140625,0.018325943499803543,-0.008552107028663158,0.029932374134659767
1772727781804410400,13.226410400390625,0.011606430634856224,-0.01282816007733345,0.023212861269712448
1772727781821756000,13.243755859375,0.004276053514331579,-0.01893680728971958,0.01893680728971958
1772727781839101700,13.261101806640625,0.001221729558892548,-0.020158538594841957,0.01893680728971958
1772727781856447200,13.278447265625,0.003665188793092966,-0.01954767294228077,0.020158538594841957
1772727781873793000,13.29579296875,0.004886918235570192,-0.01954767294228077,0.028099779039621353
1772727781891138600,13.313138671875,0.007941242307424545,-0.01588248461484909,0.02871064469218254
1772727781908484400,13.330484375,0.004276053514331579,-0.013439024798572063,0.021380268037319183
1772727781925830000,13.347829833984376,0.002443459117785096,-0.009773836471140385,0.01954767294228077
1772727781943175400,13.365175537109375,0.004276053514331579,-0.008552107028663158,0.023823726922273636
1772727781960521200,13.382521240234375,0.008552107028663158,-0.004886918235570192,0.02932151034474373
1772727781977866800,13.39986669921875,0.007330377586185932,-0.007330377586185932,0.027488915249705315
1772727781995212500,13.417212646484375,0.004276053514331579,-0.010384701192378998,0.026878049597144127
1772727782012558000,13.43455810546875,0.0030543238390237093,-0.015271619893610477,0.02260199747979641
1772727782029904000,13.45190380859375,0.0030543238390237093,-0.013439024798572063,0.023212861269712448
1772727782047249400,13.46924951171875,0.003665188793092966,-0.014049889519810677,0.01893680728971958
1772727782064595000,13.486594970703125,0.004276053514331579,-0.011606430634856224,0.023823726922273636
1772727782081940700,13.503940673828126,0.006108647678047419,-0.012217295356094837,0.01649334840476513
1772727782099286300,13.521286376953125,0.0054977829568088055,-0.012217295356094837,0.020769402384757996
1772727782116631800,13.5386318359375,0.008552107028663158,-0.010995565913617611,0.021991131827235222
1772727782133977600,13.5559775390625,0.008552107028663158,-0.009162971749901772,0.021380268037319183
1772727782151323100,13.5733232421875,0.008552107028663158,-0.009773836471140385,0.023212861269712448
1772727782168669000,13.5906689453125,0.004276053514331579,-0.01282816007733345,0.018325943499803543
1772727782186014500,13.608014404296876,0.002443459117785096,-0.013439024798572063,0.017715077847242355
1772727782203360300,13.6253603515625,0.002443459117785096,-0.012217295356094837,0.018325943499803543
1772727782220705800,13.642705810546875,0.0030543238390237093,-0.014660755172371864,0.02260199747979641
1772727782238051600,13.660051513671876,0.001832594396546483,-0.014049889519810677,0.017715077847242355
1772727782255397000,13.677397216796875,0.004276053514331579,-0.012217295356094837,0.017104214057326317
1772727782272742700,13.69474267578125,0.004886918235570192,-0.012217295356094837,0.017715077847242355
1772727782290088400,13.71208837890625,0.006108647678047419,-0.010995565913617611,0.01893680728971958
1772727782307434000,13.72943408203125,0.004886918235570192,-0.01282816007733345,0.02260199747979641
1772727782324779800,13.74677978515625,0.001832594396546483,-0.014049889519810677,0.01588248461484909
1772727782342125300,13.764125244140626,-0.001221729558892548,-0.017104214057326317,0.014049889519810677
1772727782359471000,13.78147119140625,0.001221729558892548,-0.01588248461484909,0.018325943499803543
1772727782376816600,13.798816650390625,0.004276053514331579,-0.014049889519810677,0.018325943499803543
1772727782394162200,13.816162109375,0.006719512399286032,-0.013439024798572063,0.020158538594841957
1772727782411508000,13.833508056640625,0.006108647678047419,-0.011606430634856224,0.01649334840476513
1772727782428853500,13.850853515625,0.004886918235570192,-0.010995565913617611,0.01893680728971958
1772727782446199300,13.86819921875,0.0030543238390237093,-0.010384701192378998,0.020769402384757996
1772727782463544800,13.885544921875,0.001832594396546483,-0.014049889519810677,0.01588248461484909
1772727782480890600,13.902890625,0,-0.01588248461484909,0.01588248461484909
1772727782498236200,13.920236083984374,0,-0.017104214057326317,0.014049889519810677
1772727782515581700,13.937581787109375,0.0030543238390237093,-0.01588248461484909,0.01954767294228077
1772727782532927500,13.954927490234375,0.007330377586185932,-0.014049889519810677,0.023212861269712448
1772727782550273000,13.97227294921875,0.006719512399286032,-0.014660755172371864,0.020769402384757996
1772727782567618800,13.989618896484375,0.008552107028663158,-0.014049889519810677,0.023212861269712448
1772727782584964400,14.00696435546875,0.0054977829568088055,-0.017104214057326317,0.015271619893610477
1772727782602310000,14.024309814453124,0.004276053514331579,-0.01588248461484909,0.02626718580722809
1772727782619655700,14.04165576171875,0.001832594396546483,-0.017715077847242355,0.01588248461484909
1772727782637001200,14.059001220703125,0.001221729558892548,-0.01282816007733345,0.012217295356094837
1772727782654347000,14.076346923828124,0.006108647678047419,-0.011606430634856224,0.015271619893610477
1772727782671692500,14.093692626953125,0.009773836471140385,-0.010995565913617611,0.025045456364750862
1772727782689038300,14.111038330078125,0.010995565913617611,-0.009162971749901772,0.02626718580722809
1772727782706384000,14.1283837890625,0.004276053514331579,-0.010995565913617611,0.023212861269712448
1772727782723729700,14.145729736328125,0.001221729558892548,-0.013439024798572063,0.021380268037319183
1772727782741075200,14.1630751953125,0,-0.014049889519810677,0.020158538594841957
1772727782758420700,14.180420654296874,-0.0030543238390237093,-0.01588248461484909,0.01649334840476513
1772727782775766500,14.1977666015625,-0.004886918235570192,-0.013439024798572063,0.023212861269712448
1772727782793112000,14.215112060546875,0.000610864779446274,-0.012217295356094837,0.02932151034474373
1772727782810457900,14.232457763671874,0.012217295356094837,-0.007330377586185932,0.021380268037319183
1772727782827803400,14.249803466796875,0.009162971749901772,-0.0054977829568088055,0.010995565913617611
1772727782845149200,14.267149169921876,0.004886918235570192,-0.009162971749901772,0.01954767294228077
1772727782862494700,14.28449462890625,0.001832594396546483,-0.011606430634856224,0.023823726922273636
1772727782879840300,14.30184033203125,0.003665188793092966,-0.012217295356094837,0.015271619893610477
1772727782897186000,14.31918603515625,0.004276053514331579,-0.010995565913617611,0.0256563201546669
1772727782914531600,14.336531494140624,0.003665188793092966,-0.009162971749901772,0.009162971749901772
1772727782931877400,14.35387744140625,-0.001221729558892548,-0.007941242307424545,0.014049889519810677
1772727782949223000,14.371222900390626,-0.003665188793092966,-0.007330377586185932,0.01282816007733345
1772727782966568700,14.388568603515624,-0.008552107028663158,-0.006108647678047419,0.021380268037319183
1772727782983914200,14.405914306640625,-0.004886918235570192,-0.010384701192378998,0.020158538594841957
1772727783001259800,14.423259765625,0.000610864779446274,-0.006719512399286032,0.020769402384757996
1772727783018605600,14.44060546875,0.006719512399286032,-0.006108647678047419,0.017104214057326317
1772727783035951000,14.457951171875,0.007941242307424545,-0.007941242307424545,0.021380268037319183
1772727783053297000,14.475296875,0.007330377586185932,-0.010995565913617611,0.023823726922273636
1772727783070642400,14.492642333984374,0.006719512399286032,-0.010995565913617611,0.020769402384757996
1772727783087988200,14.50998828125,0.006108647678047419,-0.010384701192378998,0.023823726922273636
1772727783105333800,14.527333740234376,0.007330377586185932,-0.014049889519810677,0.01893680728971958
1772727783122679300,14.54467919921875,0.008552107028663158,-0.01282816007733345,0.017104214057326317
1772727783140025000,14.562025146484375,0.009162971749901772,-0.013439024798572063,0.013439024798572063
1772727783157370600,14.57937060546875,0.007330377586185932,-0.011606430634856224,0.01954767294228077
1772727783174716400,14.59671630859375,0.004886918235570192,-0.011606430634856224,0.020769402384757996
1772727783192062000,14.61406201171875,0.001832594396546483,-0.01282816007733345,0.017715077847242355
1772727783209407500,14.631407470703126,0.001832594396546483,-0.010995565913617611,0.021991131827235222
1772727783226753300,14.648753173828124,0.0030543238390237093,-0.010995565913617611,0.01954767294228077
1772727783244099000,14.66609912109375,0.007330377586185932,-0.009773836471140385,0.025045456364750862
1772727783261444600,14.683444580078126,0.009773836471140385,-0.009162971749901772,0.01954767294228077
1772727783278790100,14.7007900390625,0.009162971749901772,-0.009773836471140385,0.01649334840476513
1772727783296136000,14.718135986328125,0.0054977829568088055,-0.014049889519810677,0.014660755172371864
1772727783313481500,14.7354814453125,0.001832594396546483,-0.01282816007733345,0.021380268037319183
1772727783330827300,14.7528271484375,0.002443459117785096,-0.014660755172371864,0.018325943499803543
1772727783348172800,14.7701728515625,0.003665188793092966,-0.013439024798572063,0.020769402384757996
1772727783365518300,14.787518310546876,0.006108647678047419,-0.013439024798572063,0.021380268037319183
1772727783382864100,14.804864013671875,0.0054977829568088055,-0.013439024798572063,0.017715077847242355
1772727783400209700,14.822209716796875,0.007330377586185932,-0.009162971749901772,0.021380268037319183
1772727783417555500,14.839555419921876,0.004276053514331579,-0.010384701192378998,0.017715077847242355
1772727783434901000,14.85690087890625,0.007330377586185932,-0.010995565913617611,0.020158538594841957
1772727783452246800,14.874246826171875,0.003665188793092966,-0.011606430634856224,0.01649334840476513
1772727783469592300,14.89159228515625,0.002443459117785096,-0.01282816007733345,0.021991131827235222
1772727783486937900,14.908937744140625,0.0030543238390237093,-0.011606430634856224,0.018325943499803543
1772727783504283600,14.92628369140625,0.004276053514331579,-0.013439024798572063,0.021380268037319183
1772727783521629200,14.943629150390626,0.006108647678047419,-0.01282816007733345,0.01954767294228077
1772727783538975000,14.96097509765625,0.0054977829568088055,-0.012217295356094837,0.015271619893610477
1772727783556320500,14.978320556640625,0.0030543238390237093,-0.013439024798572063,0.017104214057326317
1772727783573666300,14.995666259765626,0.001221729558892548,-0.015271619893610477,0.018325943499803543
1772727783591011800,15.01301171875,0.0030543238390237093,-0.013439024798572063,0.01954767294228077
1772727783608357600,15.030357666015625,0.004886918235570192,-0.011606430634856224,0.017104214057326317
1772727783625703200,15.047703125,0.006108647678047419,-0.010384701192378998,0.02260199747979641
1772727783643048700,15.065048583984375,0.0054977829568088055,-0.014049889519810677,0.01649334840476513
1772727783660394500,15.08239453125,0.002443459117785096,-0.013439024798572063,0.017104214057326317
1772727783677740000,15.099739990234376,0.000610864779446274,-0.014660755172371864,0.013439024798572063
1772727783695085800,15.1170859375,-0.001221729558892548,-0.018325943499803543,0.017104214057326317
1772727783712431400,15.134431396484375,0.001221729558892548,-0.014660755172371864,0.01893680728971958
1772727783729777200,15.151777099609374,0.006108647678047419,-0.009773836471140385,0.020769402384757996
1772727783747122700,15.169122802734375,0.007330377586185932,-0.008552107028663158,0.021380268037319183
1772727783764468200,15.18646826171875,0.003665188793092966,-0.011606430634856224,0.014660755172371864
1772727783781814000,15.20381396484375,0.001832594396546483,-0.014660755172371864,0.017104214057326317
1772727783799159600,15.22115966796875,0.001221729558892548,-0.017715077847242355,0.01649334840476513
1772727783816505300,15.23850537109375,0.000610864779446274,-0.015271619893610477,0.018325943499803543
1772727783833851000,15.255850830078124,0.001221729558892548,-0.013439024798572063,0.01588248461484909
1772727783851196700,15.27319677734375,0.003665188793092966,-0.014049889519810677,0.018325943499803543
1772727783868542200,15.290542236328125,0.009162971749901772,-0.009773836471140385,0.01954767294228077
1772727783885888000,15.307887939453124,0.007941242307424545,-0.010384701192378998,0.014049889519810677
1772727783903233500,15.325233642578125,0.001832594396546483,-0.013439024798572063,0.012217295356094837
1772727783920579000,15.3425791015625,-0.001221729558892548,-0.014660755172371864,0.012217295356094837
1772727783937924900,15.3599248046875,0,-0.014049889519810677,0.017715077847242355
1772727783955270400,15.3772705078125,0.004886918235570192,-0.010384701192378998,0.020769402384757996
1772727783972616200,15.3946162109375,0.006719512399286032,-0.009162971749901772,0.01282816007733345
1772727783989961700,15.411961669921874,0.006108647678047419,-0.01649334840476513,0.013439024798572063
1772727784007307500,15.4293076171875,0.0030543238390237093,-0.010995565913617611,0.017715077847242355
1772727784024653000,15.446653076171875,0.001832594396546483,-0.013439024798572063,0.014660755172371864
1772727784041998600,15.46399853515625,0,-0.014660755172371864,0.014049889519810677
1772727784059344400,15.481344482421875,-0.000610864779446274,-0.011606430634856224,0.010995565913617611
1772727784076690200,15.498690185546875,0.002443459117785096,-0.013439024798572063,0.01954767294228077
1772727784094035700,15.51603564453125,0.0054977829568088055,-0.010995565913617611,0.01649334840476513
1772727784111381200,15.53338134765625,0.008552107028663158,-0.011606430634856224,0.011606430634856224
1772727784128727000,15.55072705078125,0.006719512399286032,-0.011606430634856224,0.017104214057326317
1772727784146072600,15.568072509765624,0.0030543238390237093,-0.014049889519810677,0.013439024798572063
1772727784163418400,15.58541845703125,0.002443459117785096,-0.012217295356094837,0.015271619893610477
1772727784180764000,15.602763916015626,0.000610864779446274,-0.013439024798572063,0.007941242307424545
1772727784198109400,15.620109375,0.001832594396546483,-0.01282816007733345,0.013439024798572063
1772727784215455200,15.637455322265625,0.004276053514331579,-0.010995565913617611,0.012217295356094837
1772727784232800800,15.65480078125,0.006719512399286032,-0.010384701192378998,0.017715077847242355
1772727784250146600,15.672146484375,0.009773836471140385,-0.009773836471140385,0.011606430634856224
1772727784267492000,15.6894921875,0.007941242307424545,-0.010995565913617611,0.011606430634856224
1772727784284838000,15.706837890625,0.0030543238390237093,-0.014660755172371864,0.011606430634856224
1772727784302183400,15.724183349609374,-0.000610864779446274,-0.014049889519810677,0.011606430634856224
1772727784319529000,15.741529052734375,-0.002443459117785096,-0.015271619893610477,0.010384701192378998
1772727784336874800,15.758874755859376,-0.001221729558892548,-0.014049889519810677,0.011606430634856224
1772727784354220300,15.77622021484375,0.007941242307424545,-0.007941242307424545,0.01588248461484909
1772727784371566000,15.793566162109375,0.011606430634856224,-0.007941242307424545,0.017104214057326317
1772727784388911600,15.81091162109375,0.009162971749901772,-0.008552107028663158,0.01588248461484909
1772727784406257400,15.82825732421875,0.004276053514331579,-0.009773836471140385,0.009773836471140385
1772727784423603000,15.84560302734375,0.000610864779446274,-0.01282816007733345,0.010384701192378998
1772727784440948500,15.862948486328126,0.001221729558892548,-0.015271619893610477,0.015271619893610477
1772727784458294300,15.880294189453124,0.0054977829568088055,-0.013439024798572063,0.017104214057326317
1772727784475639800,15.897639892578125,0.006719512399286032,-0.012217295356094837,0.014049889519810677
1772727784492985600,15.914985595703126,0.008552107028663158,-0.008552107028663158,0.01649334840476513
1772727784510331100,15.9323310546875,0.006719512399286032,-0.010384701192378998,0.01282816007733345
1772727784527677000,15.949677001953125,0.003665188793092966,-0.010384701192378998,0.01954767294228077
1772727784545022500,15.9670224609375,0.0030543238390237093,-0.014049889519810677,0.01649334840476513
1772727784562368300,15.9843681640625,0.002443459117785096,-0.014660755172371864,0.01588248461484909
1772727784579713800,16.0017138671875,0,-0.015271619893610477,0.01588248461484909
1772727784597059600,16.0190595703125,-0.001221729558892548,-0.017104214057326317,0.01588248461484909
1772727784614405000,16.036405029296876,0.001832594396546483,-0.01282816007733345,0.018325943499803543
1772727784631751000,16.0537509765625,0.007330377586185932,-0.01282816007733345,0.018325943499803543
1772727784649096400,16.071096435546874,0.009773836471140385,-0.010995565913617611,0.018325943499803543
1772727784666442000,16.08844189453125,0.0054977829568088055,-0.012217295356094837,0.013439024798572063
1772727784683787800,16.105787841796875,0,-0.01649334840476513,0.01954767294228077
1772727784701133300,16.12313330078125,0.001832594396546483,-0.015271619893610477,0.021991131827235222
1772727784718479000,16.14047900390625,0.000610864779446274,-0.01588248461484909,0.01649334840476513
1772727784735824600,16.15782470703125,0,-0.014660755172371864,0.01588248461484909
1772727784753170400,16.17517041015625,0.001832594396546483,-0.013439024798572063,0.01649334840476513
1772727784770516000,16.192515869140625,0.006108647678047419,-0.012217295356094837,0.020158538594841957
1772727784787861500,16.209861572265623,0.007330377586185932,-0.011606430634856224,0.021991131827235222
1772727784805207300,16.227207275390626,0.007330377586185932,-0.010384701192378998,0.02260199747979641
1772727784822552800,16.244552734375,0.004886918235570192,-0.011606430634856224,0.020158538594841957
1772727784839898600,16.261898681640623,0.003665188793092966,-0.011606430634856224,0.01649334840476513
1772727784857244200,16.279244140625,0.002443459117785096,-0.012217295356094837,0.01588248461484909
1772727784874590000,16.29658984375,0.002443459117785096,-0.01282816007733345,0.02260199747979641
1772727784891935500,16.313935546875,0.003665188793092966,-0.013439024798572063,0.02260199747979641
1772727784909281300,16.33128125,0.006719512399286032,-0.010995565913617611,0.021991131827235222
1772727784926626800,16.348626708984376,0.009162971749901772,-0.009773836471140385,0.018325943499803543
1772727784943972400,16.365972412109375,0.0054977829568088055,-0.012217295356094837,0.018325943499803543
1772727784961318100,16.383318115234374,0,-0.014660755172371864,0.01893680728971958
1772727784978663700,16.40066357421875,-0.000610864779446274,-0.014660755172371864,0.020158538594841957
1772727784996009500,16.418009521484375,0.001221729558892548,-0.015271619893610477,0.020158538594841957
1772727785013355000,16.43535498046875,0.006108647678047419,-0.010384701192378998,0.01954767294228077
1772727785030700800,16.45270068359375,0.009162971749901772,-0.007941242307424545,0.021380268037319183
1772727785048046300,16.47004638671875,0.009162971749901772,-0.010995565913617611,0.021380268037319183
1772727785065391900,16.487391845703126,0.004886918235570192,-0.010995565913617611,0.020158538594841957
1772727785082737700,16.504737548828125,0.001221729558892548,-0.01282816007733345,0.01893680728971958
1772727785100083200,16.522083251953124,-0.002443459117785096,-0.01588248461484909,0.014660755172371864
1772727785117429000,16.539428955078126,0,-0.014049889519810677,0.018325943499803543
1772727785134774500,16.5567744140625,0.001221729558892548,-0.01649334840476513,0.020769402384757996
1772727785152120300,16.574120361328124,0.004276053514331579,-0.010384701192378998,0.021380268037319183
1772727785169465900,16.5914658203125,0.007330377586185932,-0.006719512399286032,0.009162971749901772
1772727785186811400,16.608811279296877,0.0054977829568088055,-0.006108647678047419,0.028099779039621353
1772727785204157200,16.6261572265625,0.007330377586185932,-0.009162971749901772,0.009773836471140385
1772727785221502700,16.643502685546874,0.003665188793092966,-0.009773836471140385,0.02626718580722809
1772727785238848500,16.6608486328125,0.001832594396546483,-0.011606430634856224,0.014049889519810677
1772727785256194000,16.678194091796875,0,-0.01588248461484909,0.011606430634856224
1772727785273539800,16.695539794921874,0.002443459117785096,-0.014660755172371864,0.017715077847242355
1772727785290885400,16.712885498046877,0.0054977829568088055,-0.015271619893610477,0.013439024798572063
1772727785308231200,16.730231201171875,0.004886918235570192,-0.01282816007733345,0.01588248461484909
1772727785325576700,16.74757666015625,0.004276053514331579,-0.012217295356094837,0.014660755172371864
1772727785342922200,16.764922119140625,0.002443459117785096,-0.010995565913617611,0.015271619893610477
1772727785360268000,16.78226806640625,0.003665188793092966,-0.009773836471140385,0.01588248461484909
1772727785377613600,16.799613525390626,0.001832594396546483,-0.012217295356094837,0.008552107028663158
1772727785394959400,16.81695947265625,0,-0.010995565913617611,0.014049889519810677
1772727785412305000,16.834304931640624,-0.000610864779446274,-0.01282816007733345,0.010384701192378998
1772727785429650700,16.851650634765626,0.001832594396546483,-0.012217295356094837,0.015271619893610477
1772727785446996200,16.868996337890625,0.0054977829568088055,-0.010995565913617611,0.011606430634856224
1772727785464341800,16.886341796875,0.0030543238390237093,-0.011606430634856224,0.010995565913617611
1772727785481687600,16.9036875,0.000610864779446274,-0.013439024798572063,0.010995565913617611
1772727785499033000,16.921033203125,-0.001221729558892548,-0.015271619893610477,0.013439024798572063
1772727785516379000,16.93837890625,0.000610864779446274,-0.01282816007733345,0.01649334840476513
1772727785533724400,16.955724365234374,0.002443459117785096,-0.012217295356094837,0.009162971749901772
1772727785551070200,16.9730703125,0.002443459117785096,-0.011606430634856224,0.009773836471140385
1772727785568415700,16.990415771484376,0.004276053514331579,-0.009773836471140385,0.011606430634856224
1772727785585761500,17.007761474609374,0.003665188793092966,-0.012217295356094837,0.013439024798572063
1772727785603107000,17.025107177734377,0.004276053514331579,-0.010995565913617611,0.01588248461484909
1772727785620452600,17.04245263671875,0.002443459117785096,-0.011606430634856224,0.01282816007733345
1772727785637798400,17.05979833984375,0,-0.01282816007733345,0.01282816007733345
1772727785655144000,17.07714404296875,0,-0.01282816007733345,0.011606430634856224
1772727785672489700,17.09448974609375,0.001832594396546483,-0.011606430634856224,0.011606430634856224
1772727785689835300,17.111835205078126,0.003665188793092966,-0.009773836471140385,0.011606430634856224
1772727785707181000,17.12918115234375,0.003665188793092966,-0.010995565913617611,0.014049889519810677
1772727785724526600,17.146526611328124,0.0054977829568088055,-0.008552107028663158,0.015271619893610477
1772727785741872000,17.1638720703125,0.0054977829568088055,-0.009773836471140385,0.010995565913617611
1772727785759218000,17.181218017578125,0.002443459117785096,-0.010995565913617611,0.013439024798572063
1772727785776563500,17.1985634765625,0.001221729558892548,-0.010384701192378998,0.009162971749901772
1772727785793909200,17.2159091796875,-0.001221729558892548,-0.01282816007733345,0.01282816007733345
1772727785811254800,17.2332548828125,0.002443459117785096,-0.011606430634856224,0.01588248461484909
1772727785828600600,17.2506005859375,0.0030543238390237093,-0.010384701192378998,0.011606430634856224
1772727785845946000,17.267946044921874,0.002443459117785096,-0.010384701192378998,0.014049889519810677
1772727785863292000,17.2852919921875,0.004276053514331579,-0.010995565913617611,0.010995565913617611
1772727785880637400,17.302637451171876,0.003665188793092966,-0.01282816007733345,0.010384701192378998
1772727785897983000,17.31998291015625,0.0030543238390237093,-0.010384701192378998,0.014049889519810677
1772727785915328800,17.337328857421873,-0.000610864779446274,-0.012217295356094837,0.010384701192378998
1772727785932674300,17.35467431640625,0.000610864779446274,-0.012217295356094837,0.013439024798572063
1772727785950020000,17.37202001953125,0.004276053514331579,-0.010384701192378998,0.014660755172371864
1772727785967365600,17.38936572265625,0.004886918235570192,-0.009162971749901772,0.012217295356094837
1772727785984711400,17.40671142578125,0.002443459117785096,-0.011606430634856224,0.014049889519810677
1772727786002057000,17.424056884765626,0.001221729558892548,-0.011606430634856224,0.01588248461484909
1772727786019402800,17.44140283203125,0.003665188793092966,-0.010995565913617611,0.012217295356094837
1772727786036748300,17.458748291015624,0.003665188793092966,-0.010384701192378998,0.01588248461484909
1772727786054093800,17.47609375,0.003665188793092966,-0.010995565913617611,0.01588248461484909
1772727786071439600,17.493439697265625,0.0054977829568088055,-0.010995565913617611,0.017715077847242355
1772727786088785200,17.51078515625,0.004886918235570192,-0.012217295356094837,0.017715077847242355
1772727786106131000,17.528130859375,0.001221729558892548,-0.01282816007733345,0.010995565913617611
1772727786123476500,17.5454765625,0.001221729558892548,-0.010995565913617611,0.011606430634856224
1772727786140822300,17.562822265625,0.004886918235570192,-0.011606430634856224,0.017104214057326317
1772727786158167800,17.580167724609375,0.006719512399286032,-0.010384701192378998,0.01954767294228077
1772727786175513300,17.597513427734373,0.006108647678047419,-0.010995565913617611,0.017104214057326317
1772727786192859100,17.614859130859376,0.000610864779446274,-0.01282816007733345,0.010995565913617611
1772727786210204700,17.63220458984375,0.001832594396546483,-0.009773836471140385,0.009773836471140385
1772727786227550500,17.649550537109373,0.0030543238390237093,-0.012217295356094837,0.014660755172371864
1772727786244896000,17.66689599609375,0.0054977829568088055,-0.010384701192378998,0.023823726922273636
1772727786262241800,17.68424169921875,0.007330377586185932,-0.007941242307424545,0.014049889519810677
1772727786279587300,17.70158740234375,0.004276053514331579,-0.008552107028663158,0.012217295356094837
1772727786296933000,17.71893310546875,0.002443459117785096,-0.011606430634856224,0.011606430634856224
1772727786314278700,17.736278564453126,0.004886918235570192,-0.011606430634856224,0.018325943499803543
1772727786331624400,17.75362451171875,0.008552107028663158,-0.010995565913617611,0.020769402384757996
1772727786348970000,17.770969970703124,0.006108647678047419,-0.010995565913617611,0.014660755172371864
1772727786366315500,17.7883154296875,0.0030543238390237093,-0.010995565913617611,0.012217295356094837
1772727786383661300,17.805661376953125,0.001832594396546483,-0.010995565913617611,0.012217295356094837
1772727786401006800,17.8230068359375,0.000610864779446274,-0.011606430634856224,0.015271619893610477
1772727786418352400,17.840352294921875,0.003665188793092966,-0.010995565913617611,0.01893680728971958
1772727786435698200,17.8576982421875,0.007330377586185932,-0.009162971749901772,0.017104214057326317
1772727786453043700,17.875043701171876,0.007941242307424545,-0.011606430634856224,0.013439024798572063
1772727786470389500,17.892389404296875,0.001832594396546483,-0.012217295356094837,0.010995565913617611
1772727786487735000,17.909735107421874,-0.004276053514331579,-0.015271619893610477,0.01588248461484909
1772727786505080800,17.927080810546876,0,-0.014049889519810677,0.01954767294228077
1772727786522426400,17.94442626953125,0.006719512399286032,-0.010384701192378998,0.01954767294228077
1772727786539772200,17.961772216796874,0.006719512399286032,-0.009773836471140385,0.012217295356094837
1772727786557117700,17.97911767578125,0.003665188793092966,-0.010995565913617611,0.013439024798572063
1772727786574463200,17.996463134765627,0.001221729558892548,-0.01282816007733345,0.01588248461484909
1772727786591809000,18.01380908203125,-0.000610864779446274,-0.014049889519810677,0.017715077847242355
1772727786609154600,18.031154541015624,-0.001221729558892548,-0.01282816007733345,0.017104214057326317
1772727786626500400,18.048500244140627,0.0030543238390237093,-0.010995565913617611,0.014049889519810677
1772727786643846000,18.065845947265625,0.0030543238390237093,-0.01282816007733345,0.011606430634856224
1772727786661191700,18.083191650390624,0.001221729558892548,-0.014049889519810677,0.01282816007733345
1772727786678537200,18.100537109375,0.000610864779446274,-0.013439024798572063,0.017104214057326317
1772727786695882800,18.1178828125,0.001221729558892548,-0.012217295356094837,0.01954767294228077
1772727786713228500,18.135228515625,0.002443459117785096,-0.01282816007733345,0.014660755172371864
1772727786730574000,18.152573974609375,0.002443459117785096,-0.011606430634856224,0.013439024798572063
1772727786747920000,18.169919921875,0.001221729558892548,-0.01282816007733345,0.01282816007733345
1772727786765265400,18.187265380859376,0.001221729558892548,-0.014049889519810677,0.015271619893610477
1772727786782611200,18.204611083984375,0.001221729558892548,-0.013439024798572063,0.014049889519810677
1772727786799956700,18.221956787109374,0.003665188793092966,-0.01282816007733345,0.017715077847242355
1772727786817302500,18.239302490234376,0.0054977829568088055,-0.010995565913617611,0.017715077847242355
1772727786834648000,18.25664794921875,0.001832594396546483,-0.01282816007733345,0.013439024798572063
1772727786851993600,18.27399365234375,-0.002443459117785096,-0.013439024798572063,0.014049889519810677
1772727786869339400,18.29133935546875,0.000610864779446274,-0.011606430634856224,0.01649334840476513
1772727786886685000,18.308684814453127,0.0054977829568088055,-0.011606430634856224,0.01893680728971958
1772727786904030700,18.32603076171875,0.008552107028663158,-0.008552107028663158,0.01649334840476513
1772727786921376300,18.343376220703124,0.004276053514331579,-0.009773836471140385,0.014660755172371864
1772727786938722000,18.36072216796875,-0.000610864779446274,-0.013439024798572063,0.01588248461484909
1772727786956067600,18.378067626953126,0,-0.013439024798572063,0.015271619893610477
1772727786973413000,18.3954130859375,0.000610864779446274,-0.014660755172371864,0.013439024798572063
1772727786990759000,18.412759033203123,0.000610864779446274,-0.014660755172371864,0.01282816007733345
1772727787008104400,18.4301044921875,0.0054977829568088055,-0.010384701192378998,0.018325943499803543
1772727787025450200,18.4474501953125,0.008552107028663158,-0.007941242307424545,0.01893680728971958
1772727787042795800,18.464795654296875,0.003665188793092966,-0.011606430634856224,0.013439024798572063
1772727787060141600,18.4821416015625,-0.001832594396546483,-0.014049889519810677,0.015271619893610477
1772727787077487000,18.499487060546876,-0.004276053514331579,-0.014660755172371864,0.01282816007733345
1772727787094833000,18.5168330078125,-0.000610864779446274,-0.014660755172371864,0.014049889519810677
1772727787112178400,18.534178466796874,0.007330377586185932,-0.010995565913617611,0.017104214057326317
1772727787129524000,18.55152392578125,0.009162971749901772,-0.009773836471140385,0.01893680728971958
1772727787146869800,18.568869873046875,0.0054977829568088055,-0.012217295356094837,0.01893680728971958
1772727787164215300,18.58621533203125,-0.001221729558892548,-0.013439024798572063,0.015271619893610477
1772727787181561000,18.60356103515625,-0.004886918235570192,-0.014660755172371864,0.012217295356094837
1772727787198906600,18.62090673828125,-0.000610864779446274,-0.014660755172371864,0.017104214057326317
1772727787216252400,18.63825244140625,0.006719512399286032,-0.009773836471140385,0.01893680728971958
1772727787233598000,18.655597900390624,0.006719512399286032,-0.009773836471140385,0.017104214057326317
1772727787250943500,18.672943603515623,0.001832594396546483,-0.010995565913617611,0.018325943499803543
1772727787268289300,18.690289306640626,0,-0.014049889519810677,0.01649334840476513
1772727787285634800,18.707634765625,0.000610864779446274,-0.013439024798572063,0.017715077847242355
1772727787302980600,18.724980712890623,0.004276053514331579,-0.01282816007733345,0.01954767294228077
1772727787320326100,18.742326171875,0.003665188793092966,-0.011606430634856224,0.01649334840476513
1772727787337672000,18.759671875,0.001832594396546483,-0.010384701192378998,0.013439024798572063
1772727787355017500,18.777017578125,0.0030543238390237093,-0.010995565913617611,0.020769402384757996
1772727787372363000,18.794363037109374,0.006719512399286032,-0.010384701192378998,0.020158538594841957
1772727787389708800,18.811708740234376,0.004276053514331579,-0.009773836471140385,0.015271619893610477
1772727787407054300,18.829054443359375,-0.000610864779446274,-0.013439024798572063,0.014660755172371864
1772727787424400100,18.846400146484374,0.000610864779446274,-0.01282816007733345,0.017715077847242355
1772727787441745700,18.86374560546875,0.0054977829568088055,-0.010995565913617611,0.021380268037319183
1772727787459091500,18.881091552734375,0.0054977829568088055,-0.011606430634856224,0.017104214057326317
1772727787476437000,18.89843701171875,0.000610864779446274,-0.01282816007733345,0.014660755172371864
1772727787493782800,18.91578271484375,-0.001221729558892548,-0.011606430634856224,0.01649334840476513
1772727787511128300,18.93312841796875,0.003665188793092966,-0.010995565913617611,0.01893680728971958
1772727787528473900,18.950473876953126,0.008552107028663158,-0.008552107028663158,0.017715077847242355
1772727787545819600,18.967819580078125,0.007941242307424545,-0.008552107028663158,0.014660755172371864
1772727787563165200,18.985165283203123,0.004276053514331579,-0.010995565913617611,0.018325943499803543
1772727787580511000,19.002510986328126,0,-0.013439024798572063,0.017715077847242355
1772727787597856500,19.0198564453125,-0.001221729558892548,-0.015271619893610477,0.014660755172371864
1772727787615202300,19.037202392578124,0.000610864779446274,-0.014049889519810677,0.014049889519810677
1772727787632547800,19.0545478515625,0.004886918235570192,-0.01282816007733345,0.015271619893610477
1772727787649893400,19.071893310546876,0.004886918235570192,-0.011606430634856224,0.014660755172371864
1772727787667239200,19.0892392578125,0.002443459117785096,-0.010995565913617611,0.014049889519810677
1772727787684584700,19.106584716796874,0.002443459117785096,-0.009773836471140385,0.018325943499803543
1772727787701930500,19.123930419921876,0.002443459117785096,-0.010995565913617611,0.015271619893610477
1772727787719276000,19.141276123046875,0.000610864779446274,-0.01282816007733345,0.012217295356094837
1772727787736621800,19.158621826171874,0,-0.012217295356094837,0.014660755172371864
1772727787753967400,19.17596728515625,0.001221729558892548,-0.010995565913617611,0.01588248461484909
1772727787771313000,19.19331298828125,0.003665188793092966,-0.010995565913617611,0.014660755172371864
1772727787788658700,19.21065869140625,0.007941242307424545,-0.010384701192378998,0.018325943499803543
1772727787806004200,19.228004150390625,0.0054977829568088055,-0.009773836471140385,0.01649334840476513
1772727787823350000,19.24535009765625,-0.000610864779446274,-0.013439024798572063,0.01282816007733345
1772727787840695600,19.262695556640626,-0.003665188793092966,-0.014049889519810677,0.012217295356094837
1772727787858041000,19.280041015625,0,-0.012217295356094837,0.01588248461484909
1772727787875387000,19.297386962890624,0.007330377586185932,-0.009773836471140385,0.020769402384757996
1772727787892732400,19.314732421875,0.009162971749901772,-0.008552107028663158,0.014049889519810677
1772727787910078200,19.332078125,0.004276053514331579,-0.008552107028663158,0.013439024798572063
1772727787927423700,19.349423828125,-0.001221729558892548,-0.011606430634856224,0.015271619893610477
1772727787944769500,19.36676953125,0.000610864779446274,-0.009162971749901772,0.014660755172371864
1772727787962115000,19.384114990234377,0.004886918235570192,-0.01649334840476513,0.01588248461484909
1772727787979460600,19.401460693359375,0.002443459117785096,-0.007941242307424545,0.020158538594841957
1772727787996806400,19.418806396484374,0.0054977829568088055,-0.009162971749901772,0.013439024798572063
1772727788014152000,19.43615185546875,0.0030543238390237093,-0.010995565913617611,0.014660755172371864
1772727788031497700,19.453497802734375,0.000610864779446274,-0.008552107028663158,0.014660755172371864
1772727788048843300,19.47084326171875,0.001832594396546483,-0.010384701192378998,0.01588248461484909
1772727788066189000,19.48818896484375,0.002443459117785096,-0.009773836471140385,0.01588248461484909
1772727788083534600,19.50553466796875,0.0030543238390237093,-0.012217295356094837,0.012217295356094837
1772727788100880400,19.52288037109375,0.004276053514331579,-0.010384701192378998,0.011606430634856224
1772727788118226000,19.540225830078125,0.004276053514331579,-0.010995565913617611,0.01649334840476513
1772727788135571500,19.557571533203124,0.003665188793092966,-0.01282816007733345,0.01649334840476513
1772727788152917200,19.574917236328126,0.002443459117785096,-0.012217295356094837,0.013439024798572063
1772727788170262800,19.5922626953125,0.001221729558892548,-0.012217295356094837,0.011606430634856224
1772727788187608600,19.609608642578124,-0.000610864779446274,-0.012217295356094837,0.01282816007733345
1772727788204954000,19.6269541015625,0.004276053514331579,-0.008552107028663158,0.017715077847242355
1772727788222300000,19.6442998046875,0.0054977829568088055,-0.008552107028663158,0.01282816007733345
1772727788239645400,19.6616455078125,0.007330377586185932,-0.009162971749901772,0.01282816007733345
1772727788256991000,19.678990966796874,0.0054977829568088055,-0.010995565913617611,0.01588248461484909
1772727788274336800,19.696336669921877,0.001221729558892548,-0.013439024798572063,0.013439024798572063
1772727788291682300,19.713682373046876,-0.0030543238390237093,-0.015271619893610477,0.01282816007733345
1772727788309028000,19.731028076171874,-0.001832594396546483,-0.01588248461484909,0.015271619893610477
1772727788326373600,19.74837353515625,0.0030543238390237093,-0.011606430634856224,0.013439024798572063
1772727788343719400,19.765719482421876,0.006719512399286032,-0.008552107028663158,0.01588248461484909
1772727788361065000,19.78306494140625,0.009773836471140385,-0.006108647678047419,0.018325943499803543
1772727788378410500,19.800410400390625,0.0054977829568088055,-0.010384701192378998,0.014049889519810677
1772727788395756300,19.81775634765625,-0.000610864779446274,-0.012217295356094837,0.015271619893610477
1772727788413101800,19.835101806640626,-0.0030543238390237093,-0.014660755172371864,0.014660755172371864
1772727788430447600,19.852447509765625,-0.003665188793092966,-0.014049889519810677,0.010995565913617611
1772727788447793200,19.869793212890624,0.001832594396546483,-0.010995565913617611,0.01282816007733345
1772727788465138700,19.887138671875,0.006719512399286032,-0.010384701192378998,0.01588248461484909
1772727788482484500,19.904484375,0.009162971749901772,-0.008552107028663158,0.018325943499803543
1772727788499830000,19.921830078125,0.0030543238390237093,-0.009162971749901772,0.013439024798572063
1772727788517175800,19.93917578125,-0.0030543238390237093,-0.012217295356094837,0.012217295356094837
1772727788534521300,19.956521240234373,-0.001832594396546483,-0.01282816007733345,0.01588248461484909
1772727788551867100,19.9738671875,0,-0.012217295356094837,0.014049889519810677
1772727788569212700,19.991212646484374,0.0030543238390237093,-0.010995565913617611,0.012217295356094837
1772727788586558500,20.008558349609373,0.0054977829568088055,-0.009773836471140385,0.01588248461484909
1772727788603904000,20.025904052734376,0.0054977829568088055,-0.010384701192378998,0.01649334840476513
1772727788621249500,20.04324951171875,0.002443459117785096,-0.010995565913617611,0.01588248461484909
1772727788638595300,20.06059521484375,-0.000610864779446274,-0.01282816007733345,0.01282816007733345
1772727788655940900,20.07794091796875,-0.004886918235570192,-0.013439024798572063,0.007941242307424545
1772727788673286700,20.09528662109375,-0.001221729558892548,-0.012217295356094837,0.01282816007733345
1772727788690632200,20.112632080078125,0.004276053514331579,-0.009773836471140385,0.014660755172371864
1772727788707978000,20.12997802734375,0.006108647678047419,-0.008552107028663158,0.018325943499803543
1772727788725323500,20.147323486328126,0.006108647678047419,-0.007941242307424545,0.015271619893610477
1772727788742669000,20.1646689453125,0.004276053514331579,-0.007330377586185932,0.015271619893610477
1772727788760014800,20.182014892578124,0.001221729558892548,-0.010995565913617611,0.011606430634856224
1772727788777360400,20.1993603515625,-0.001221729558892548,-0.01282816007733345,0.01282816007733345
1772727788794706000,20.216705810546873,0.000610864779446274,-0.012217295356094837,0.01649334840476513
1772727788812051700,20.2340517578125,0.003665188793092966,-0.009773836471140385,0.017715077847242355
1772727788829397200,20.251397216796875,0.004886918235570192,-0.009773836471140385,0.01282816007733345
1772727788846743000,20.268742919921873,0.003665188793092966,-0.011606430634856224,0.013439024798572063
1772727788864088600,20.286088623046876,0.001832594396546483,-0.010995565913617611,0.01588248461484909
1772727788881434400,20.303434326171875,0.002443459117785096,-0.010995565913617611,0.014660755172371864
1772727788898780000,20.32077978515625,0.002443459117785096,-0.010995565913617611,0.015271619893610477
1772727788916125700,20.338125732421876,0.004886918235570192,-0.009162971749901772,0.01649334840476513
1772727788933471200,20.35547119140625,0.0054977829568088055,-0.008552107028663158,0.013439024798572063
1772727788950816800,20.372816650390625,0.003665188793092966,-0.008552107028663158,0.014049889519810677
1772727788968162600,20.39016259765625,0.0030543238390237093,-0.010384701192378998,0.01588248461484909
1772727788985508000,20.407508056640626,0.004276053514331579,-0.008552107028663158,0.017715077847242355
1772727789002854000,20.42485400390625,0.0054977829568088055,-0.010384701192378998,0.017104214057326317
1772727789020199400,20.442199462890624,0.003665188793092966,-0.010995565913617611,0.012217295356094837
1772727789037545200,20.459545166015626,0.000610864779446274,-0.010384701192378998,0.01282816007733345
1772727789054890800,20.476890869140625,0,-0.010995565913617611,0.01649334840476513
1772727789072236300,20.494236328125,0.002443459117785096,-0.010384701192378998,0.01893680728971958
1772727789089582000,20.51158203125,0.006108647678047419,-0.007941242307424545,0.018325943499803543
1772727789106927600,20.528927734375,0.008552107028663158,-0.006108647678047419,0.013439024798572063
1772727789124273400,20.5462734375,0.0054977829568088055,-0.007941242307424545,0.010384701192378998
1772727789141619000,20.563618896484375,0.001221729558892548,-0.009773836471140385,0.01588248461484909
1772727789158964500,20.580964599609374,0,-0.01282816007733345,0.018325943499803543
1772727789176310300,20.598310302734376,0.001221729558892548,-0.012217295356094837,0.015271619893610477
1772727789193655800,20.61565576171875,0.002443459117785096,-0.009162971749901772,0.013439024798572063
1772727789211001600,20.633001708984374,0.006108647678047419,-0.006108647678047419,0.013439024798572063
1772727789228347100,20.65034716796875,0.007941242307424545,-0.006719512399286032,0.011606430634856224
1772727789245693000,20.66769287109375,0.004276053514331579,-0.009162971749901772,0.018325943499803543
1772727789263038500,20.68503857421875,0.000610864779446274,-0.009162971749901772,0.015271619893610477
1772727789280384000,20.702384033203124,-0.001221729558892548,-0.009773836471140385,0.014049889519810677
1772727789297729800,20.719729736328127,0.001221729558892548,-0.008552107028663158,0.009773836471140385
1772727789315075300,20.737075439453125,0.006108647678047419,-0.007941242307424545,0.01282816007733345
1772727789332421000,20.754421142578124,0.0054977829568088055,-0.007941242307424545,0.017715077847242355
1772727789349766700,20.7717666015625,0.0054977829568088055,-0.006719512399286032,0.015271619893610477
1772727789367112200,20.7891123046875,0.002443459117785096,-0.008552107028663158,0.01282816007733345
1772727789384458000,20.8064580078125,0.002443459117785096,-0.007941242307424545,0.010384701192378998
1772727789401803500,20.823803466796875,0.003665188793092966,-0.009162971749901772,0.014049889519810677
1772727789419149300,20.8411494140625,0.004276053514331579,-0.009162971749901772,0.018325943499803543
1772727789436494800,20.858494873046876,0.0030543238390237093,-0.009162971749901772,0.01588248461484909
1772727789453840600,20.875840576171875,0.001221729558892548,-0.011606430634856224,0.009773836471140385
1772727789471186200,20.893186279296874,0.001832594396546483,-0.012217295356094837,0.014660755172371864
